timestamp,rel_time,acc_x,acc_y,acc_z,gyro_x,gyro_y,gyro_z,azimuth,pitch,roll,label
0.0,0.0,0.0,0.0,0.0,0.0,-0.96852684,-0.32895094,113.0286,-16.808313000000002,-45.026817,STD
2737212400.0,1.4970090887800325e-05,0.0011956347152590752,0.02937573380768299,0.003989808261394501,-0.0014854440232738853,-1.0445796,-0.26847526,112.413376,-17.111639999999998,-44.933365,STD
8170926600.0,7.442846253979951e-05,0.003442894434556365,0.08765735477209091,0.012104324996471405,-0.003515649354085326,-1.0549643,-0.18845193,111.8051,-17.431784,-44.809326,STD
16221159000.0,0.0002067193854600191,0.006584686227142811,0.17395463585853577,0.024414943531155586,-0.004628477618098259,-1.0094548,-0.13530666,111.19167,-17.782685999999998,-44.68119,STD
26771497000.0,0.00043926932266913354,0.010451052337884903,0.2869870960712433,0.04093525558710098,-0.0031617821659892797,-0.93309665,-0.07819075,110.54816399999999,-18.184181,-44.55276,STD
39673110000.0,0.0007959953509271145,0.014872020110487938,0.4251301884651184,0.06160985678434372,0.002242383547127247,-0.8387180000000001,-0.03604105,109.88363999999999,-18.630125,-44.439465000000006,STD
54749737000.0,0.0012985477223992348,0.01967461407184601,0.5864671468734741,0.08632951229810715,0.012397203594446182,-0.7086037,-0.012217305,109.188446,-19.121744,-44.351986,STD
71803250000.0,0.0019668457098305225,0.02468315325677395,0.7688484191894531,0.11494260281324387,0.027509622275829315,-0.5329799,-0.03359759,108.47098999999999,-19.646309,-44.300940000000004,STD
90619590000.0,0.002822848269715905,0.029705969616770744,0.9699512720108032,0.14728818833827972,0.04733921214938164,-0.2959642,-0.09254608,107.72296999999999,-20.195534,-44.298706,STD
110974710000.0,0.003864082507789135,0.03465048596262932,1.1873724460601807,0.18303152918815613,0.07088641077280045,0.0061086523,-0.15974127,106.9369,-20.755116,-44.35707,STD
132640280000.0,0.005108633544296026,0.03933490812778473,1.4186400175094604,0.22196607291698456,0.09660767018795013,0.34055737,-0.20708331,106.10583500000001,-21.314453,-44.481120000000004,STD
155388850000.0,0.006559139117598534,0.04364342242479324,1.661309003829956,0.2637856602668762,0.12259344011545181,0.6774496,-0.24281894,105.2228,-21.860092,-44.67816,STD
178998560000.0,0.008219752460718155,0.047456320375204086,1.912992000579834,0.3082019090652466,0.14612701535224915,0.83260936,-0.26358834,104.30669,-22.383938,-44.904198,STD
203256820000.0,0.010090394876897335,0.05067616328597069,2.1714067459106445,0.3549121022224426,0.16705618798732758,1.0516045,-0.2742785,103.29671,-22.894033,-45.214897,STD
227963570000.0,0.01217158604413271,0.053208693861961365,2.434404134750366,0.40363508462905884,0.18017879128456116,1.1499538,-0.3023783,102.27405,-23.348217,-45.522372999999995,STD
252933390000.0,0.014454372227191925,0.05500663444399834,2.700003147125244,0.4540487825870514,0.18229934573173523,1.1203268999999998,-0.32345316,101.2133,-23.770943,-45.833434999999994,STD
277997200000.0,0.016934877261519432,0.056008629500865936,2.9663922786712646,0.5058873891830444,0.1712968796491623,0.9502009,-0.33078352,100.14975,-24.14331,-46.118725,STD
303002980000.0,0.019606497138738632,0.05617280304431915,3.2319467067718506,0.5588917136192322,0.1484900861978531,0.69058317,-0.35430184,99.11194,-24.465351000000002,-46.3663,STD
327816200000.0,0.0224599689245224,0.05547657608985901,3.495232105255127,0.612809956073761,0.11735466867685318,0.38789943,-0.33261612,98.1019,-24.756844,-46.54514,STD
352319540000.0,0.025484811514616013,0.053910478949546814,3.755000591278076,0.6674068570137024,0.08120620995759964,0.09285152,-0.31031954,97.1538,-25.010803,-46.6608,STD
376412440000.0,0.028673771768808365,0.05183801054954529,4.010391712188721,0.7195332050323486,0.04348048195242882,-0.18661933,-0.25503623,96.25511999999999,-25.26021,-46.695698,STD
400010100000.0,0.03201669082045555,0.049513883888721466,4.260646343231201,0.7670456767082214,0.006370073650032282,-0.44623706,-0.20128010000000002,95.417366,-25.504889000000002,-46.661896,STD
423042450000.0,0.03551829606294632,0.04692535474896431,4.505029201507568,0.8095669150352478,-0.027802934870123863,-0.67347896,-0.13347405,94.76753000000001,-25.761637,-46.490466999999995,STD
445453000000.0,0.03913627937436104,0.04412397742271423,4.742923259735107,0.8475366234779358,-0.05836908519268036,-0.86834496,-0.06719518,94.16034,-26.032042999999998,-46.26453,STD
467197560000.0,0.04287942126393318,0.041093938052654266,4.973867416381836,0.8806231021881104,-0.08552434295415878,-1.0183123,-0.015577064,93.58484,-26.320301,-45.9957,STD
488242900000.0,0.04673663154244423,0.03784707188606262,5.197506427764893,0.9088625311851501,-0.1080617904663086,-1.1236867,0.024129177,93.03329000000001,-26.632944000000002,-45.692295,STD
508565550000.0,0.050699155777692795,0.03439296409487724,5.413588523864746,0.9322952032089233,-0.1266852766275406,-1.1527027,0.03970624,92.49446,-26.955425,-45.37701,STD
528150530000.0,0.054759591817855835,0.030740169808268547,5.621952056884766,0.9509762525558472,-0.14192625880241394,-1.1078042,0.02565634,91.9631,-27.288158000000003,-45.06273,STD
546990260000.0,0.058908164501190186,0.02690109983086586,5.822512149810791,0.9650307893753052,-0.15229138731956482,-0.98929626,0.012217305,91.417366,-27.637283,-44.764614,STD
565083440000.0,0.06313744187355042,0.022885600104928017,6.015251636505127,0.9745732545852661,-0.15729396045207977,-0.80573124,-0.0076358155,90.85092,-27.989715999999998,-44.502552,STD
582434160000.0,0.0674416720867157,0.018701747059822083,6.200210094451904,0.9797138571739197,-0.15676450729370117,-0.57696223,-0.01038471,90.24168399999999,-28.355934,-44.281784,STD
599050940000.0,0.07181432843208313,0.014359078370034695,6.377473831176758,0.9805946946144104,-0.15201859176158905,-0.45814893,-0.02565634,89.6237,-28.725368,-44.087505,STD
614946000000.0,0.07624704390764236,0.00986991822719574,6.5471673011779785,0.9774031043052673,-0.1433032602071762,-0.2302962,-0.03390302,88.91454,-29.111687,-43.966293,STD
630134500000.0,0.08073423057794571,0.005243155639618635,6.709447383880615,0.970294713973999,-0.1327977031469345,-0.038789943,-0.059253927000000005,88.192116,-29.496138000000002,-43.868813,STD
644634000000.0,0.08527348190546036,0.00048360906657762825,6.864497661590576,0.9593836665153503,-0.11938343197107315,0.12278391400000001,-0.08857546,87.418175,-29.894484999999996,-43.812915999999994,STD
658463850000.0,0.0898580327630043,-0.004397875629365444,7.012519359588623,0.9448626637458801,-0.10471619665622711,0.22388211,-0.1255328,86.6156,-30.286333000000003,-43.78637,STD
671644900000.0,0.09448549896478653,-0.009396194480359554,7.1537299156188965,0.9268595576286316,-0.08913858234882355,0.27885997,-0.17470746,85.78999,-30.678284,-43.785683,STD
684198900000.0,0.09914977103471756,-0.014501171186566353,7.288355350494385,0.9055665731430054,-0.07387745380401611,0.310625,-0.20708331,84.94497,-31.067348,-43.79752,STD
696148360000.0,0.10384713858366013,-0.019705791026353836,7.416630268096924,0.881139874458313,-0.05933583155274391,0.30726522,-0.23090707,84.10228000000001,-31.450613,-43.8135,STD
707516000000.0,0.10857439041137695,-0.02500365860760212,7.538793087005615,0.8537294268608093,-0.045058995485305786,0.2968805,-0.23579398,83.252975,-31.83332,-43.828674,STD
718324760000.0,0.1133299171924591,-0.030390508472919464,7.655084609985352,0.8234599828720093,-0.031214306131005287,0.25045475,-0.23304509,82.41671,-32.211613,-43.831109999999995,STD
728597500000.0,0.11811033636331558,-0.03585972264409065,7.765744209289551,0.7904844880104065,-0.018311263993382454,0.1908954,-0.22540927,81.58508,-32.589493,-43.820847,STD
738357000000.0,0.12291265279054642,-0.04140521585941315,7.871009349822998,0.754948616027832,-0.0074259936809539795,0.118507855,-0.20738874,80.76590999999999,-32.96752,-43.788864000000004,STD
747625600000.0,0.12773388624191284,-0.047020941972732544,7.971113204956055,0.7169966697692871,0.0005442149704322219,0.03604105,-0.18020524,79.96224000000001,-33.34522,-43.733246,STD
756425000000.0,0.13257469236850739,-0.0527057908475399,8.06628704071045,0.676711916923523,0.004521543625742197,-0.046120327,-0.16218472,79.17771,-33.71649,-43.65638,STD
764776700000.0,0.13743150234222412,-0.0584530271589756,8.156752586364746,0.6342437267303467,0.004187650512903929,-0.12583824,-0.16187929,78.41524,-34.08052,-43.557945000000004,STD
772701360000.0,0.1423025280237198,-0.06425835937261581,8.242728233337402,0.5897101163864136,-0.00029210487264208496,-0.18692477,-0.14996742,77.665245,-34.439890000000005,-43.437675,STD
780219100000.0,0.14719164371490479,-0.07012512534856796,8.324427604675293,0.5431351661682129,-0.007631768938153982,-0.226631,-0.15241088,76.93737,-34.786163,-43.307255,STD
787349400000.0,0.15208981931209564,-0.07603946328163147,8.402050971984863,0.4947478771209717,-0.016735896468162537,-0.23793201,-0.13561209,76.212685,-35.12976,-43.16198,STD
794110850000.0,0.15699782967567444,-0.0820007175207138,8.475794792175293,0.44461607933044434,-0.026078537106513977,-0.21319197,-0.11545353400000001,75.48981500000001,-35.46826,-43.01417,STD
800521500000.0,0.16191835701465607,-0.08801079541444778,8.54585075378418,0.3927743434906006,-0.034597087651491165,-0.18661933,-0.08246681,74.76375,-35.810352,-42.856483000000004,STD
806598740000.0,0.16684448719024658,-0.09405888617038727,8.612398147583008,0.3394082188606262,-0.04317309334874153,-0.17562376,-0.0571159,74.03310400000001,-36.150690000000004,-42.695890000000006,STD
812359000000.0,0.17177753150463104,-0.10014519840478897,8.67561149597168,0.2845682203769684,-0.05081640183925629,-0.15271631,-0.03940081,73.285934,-36.500786,-42.53423,STD
817818300000.0,0.1767178326845169,-0.10626877099275589,8.735658645629883,0.2283167541027069,-0.05763921141624451,-0.13713925,-0.016493361,72.53222,-36.856353999999996,-42.364193,STD
822991800000.0,0.18166537582874298,-0.11242816597223282,8.792698860168457,0.17071965336799622,-0.06476834416389465,-0.14110987,-0.0067195175,71.77834,-37.211044,-42.191565999999995,STD
827893940000.0,0.18661881983280182,-0.11862027645111084,8.846884727478027,0.11186069250106812,-0.07137741148471832,-0.14813483,-0.01863139,71.022316,-37.569286,-42.018562,STD
832538600000.0,0.19157662987709045,-0.12484177201986313,8.898360252380371,0.051824264228343964,-0.07831975072622299,-0.15851954,-0.03604105,70.26983,-37.92394,-41.841255,STD
836938960000.0,0.19653837382793427,-0.13109087944030762,8.947265625,-0.009325981140136719,-0.08599922806024551,-0.16187929,-0.05100725,69.52171,-38.275196,-41.664035999999996,STD
841107640000.0,0.20150484144687653,-0.13736750185489655,8.993732452392578,-0.07154874503612518,-0.094831183552742,-0.12950343,-0.074830994,68.77343,-38.616615,-41.494926,STD
845056600000.0,0.20649416744709015,-0.14369486272335052,9.037897109985352,-0.1350852996110916,-0.10384611040353775,-0.09712757,-0.08307768,68.02837,-38.957527,-41.322918,STD
848797100000.0,0.21146534383296967,-0.1501726359128952,9.079919815063477,-0.19548682868480682,-0.11220619827508926,-0.052534412999999995,-0.094989546,67.27714,-39.289898,-41.16194,STD
852340100000.0,0.21644020080566406,-0.1569221317768097,9.119963645935059,-0.2508258819580078,-0.11981568485498428,0.004886922,-0.099265605,66.51398,-39.621067,-41.005203,STD
855695900000.0,0.22141744196414948,-0.16392666101455688,9.158130645751953,-0.30137404799461365,-0.12570686638355255,0.063224554,-0.10323623,65.60493000000001,-40.194633,-40.74927,STD
858874200000.0,0.22639648616313934,-0.17117184400558472,9.194518089294434,-0.3473847508430481,-0.12878423929214478,0.13439035,-0.103847094,64.69006,-40.767212,-40.498837,STD
861884300000.0,0.23137883841991425,-0.17864874005317688,9.22922134399414,-0.3890843987464905,-0.1287737488746643,0.19211712,-0.105374254,63.77779399999999,-41.338398,-40.250698,STD
864735100000.0,0.23636239767074585,-0.18634077906608582,9.26232624053955,-0.4267125129699707,-0.12473338842391968,0.24801129,-0.10659598599999999,62.858906000000005,-41.91424,-40.006809999999994,STD
867434900000.0,0.2413472682237625,-0.19423706829547882,9.293917655944824,-0.46048179268836975,-0.1167137548327446,0.29932398,-0.08857546,61.9351,-42.497486,-39.759785,STD
869991650000.0,0.2463352233171463,-0.2023310661315918,9.324075698852539,-0.4905824065208435,-0.1057058721780777,0.32375857,-0.07880162,61.018993,-43.081466999999996,-39.51273,STD
872412940000.0,0.2513233423233032,-0.21060605347156525,9.352874755859375,-0.5172268152236938,-0.09242095798254013,0.31123585,-0.06414085,60.109753000000005,-43.67481,-39.255367,STD
874705850000.0,0.2563129961490631,-0.219055637717247,9.380386352539062,-0.5405877828598022,-0.07810183614492416,0.29352075,-0.046120327,59.20766,-44.27111,-38.99075,STD
876877200000.0,0.26130571961402893,-0.22767426073551178,9.406681060791016,-0.5608274936676025,-0.06381180137395859,0.23426682,-0.0290161,58.337013,-44.868958,-38.709877,STD
878933400000.0,0.2662963569164276,-0.23644156754016876,9.431818008422852,-0.5781456232070923,-0.05026508867740631,0.20891592,-0.0070249503,57.473296999999995,-45.468185,-38.419712,STD
880880500000.0,0.27128729224205017,-0.24535486102104187,9.45586109161377,-0.5926810503005981,-0.037633828818798065,0.13408493,0.0009162978999999999,56.661076,-46.06217,-38.11139,STD
882724400000.0,0.2762781083583832,-0.25440555810928345,9.478867530822754,-0.6045836806297302,-0.02635752409696579,0.08063421400000001,0.012217305,55.86213299999999,-46.653896,-37.792496,STD
884470400000.0,0.2812725901603699,-0.2635950446128845,9.500895500183105,-0.613966703414917,-0.016217881813645363,0.05009095,0.015271631,55.095909999999996,-47.237697999999995,-37.465157,STD
886123800000.0,0.28626713156700134,-0.27290812134742737,9.521993637084961,-0.6209874749183655,-0.007463681977242231,0.034513887,0.015577064,54.35629300000001,-47.813427000000004,-37.129546999999995,STD
887689450000.0,0.29126405715942383,-0.2823435664176941,9.542214393615723,-0.6257550716400146,-0.0007860175101086497,0.046731193,0.014966198,53.63180500000001,-48.37875,-36.791843,STD
889172070000.0,0.29626038670539856,-0.2918882966041565,9.561600685119629,-0.6284090280532837,0.004006830044090748,0.05375614,-0.004886922,52.930580000000006,-48.929543,-36.456309999999995,STD
890576040000.0,0.30125701427459717,-0.3015385568141937,9.580198287963867,-0.6290554404258728,0.005973714403808117,0.08582657,-0.01985312,52.229816,-49.467625,-36.122917,STD
891905500000.0,0.3062520921230316,-0.31128451228141785,9.59804630279541,-0.6278137564659119,0.004191002808511257,0.12644911,-0.039095376,51.539597,-49.986115000000005,-35.7972,STD
893164450000.0,0.3112506568431854,-0.32113245129585266,9.615190505981445,-0.6247497200965881,-0.0019066142849624157,0.17501289,-0.06414085,50.850708000000004,-50.48466,-35.480637,STD
894356700000.0,0.31624776124954224,-0.33106598258018494,9.63166332244873,-0.6199935078620911,-0.01143859513103962,0.21135938,-0.0888809,50.16618,-50.964977000000005,-35.171654,STD
895485700000.0,0.3212442398071289,-0.341082364320755,9.647500991821289,-0.6136296391487122,-0.024384867399930954,0.25870144,-0.09743301,49.47398,-51.426857,-34.870197,STD
896554760000.0,0.32624155282974243,-0.35118046402931213,9.662738800048828,-0.6057335734367371,-0.03953840956091881,0.2883284,-0.11178834,48.78952,-51.869144,-34.578495000000004,STD
897567200000.0,0.33123940229415894,-0.3613553047180176,9.677408218383789,-0.5963888168334961,-0.056016795337200165,0.31184670000000003,-0.12217305,48.102140000000006,-52.298157,-34.29141,STD
898526000000.0,0.3362366259098053,-0.3716001808643341,9.691537857055664,-0.5856803059577942,-0.0726265087723732,0.3155119,-0.13347405,47.423,-52.714386,-34.009223999999996,STD
899434000000.0,0.3412341773509979,-0.38191357254981995,9.705158233642578,-0.5736739635467529,-0.08997897058725357,0.30634892,-0.15577064,46.75199,-53.11448000000001,-33.733803,STD
900293900000.0,0.34625160694122314,-0.3923368453979492,9.718314170837402,-0.5603018999099731,-0.10678141564130783,0.28955013,-0.1685988,46.091770000000004,-53.50995,-33.45868,STD
901108300000.0,0.351249635219574,-0.4027761220932007,9.730995178222656,-0.5459046363830566,-0.12343742698431015,0.26542094,-0.18020524,45.44791,-53.891315000000006,-33.188385,STD
901879500000.0,0.3562467098236084,-0.41327065229415894,9.743243217468262,-0.5304146409034729,-0.1396292746067047,0.23976462,-0.19058995,44.81978,-54.265130000000006,-32.920364,STD
902609900000.0,0.36124762892723083,-0.4238284230232239,9.755084991455078,-0.5138569474220276,-0.15471436083316803,0.23365596,-0.20555615,44.20286,-54.63013,-32.657127,STD
903301600000.0,0.36624494194984436,-0.4344293773174286,9.766535758972168,-0.49633920192718506,-0.16917479038238525,0.21838433,-0.2144137,43.60577,-54.988075,-32.393409999999996,STD
903956800000.0,0.37124207615852356,-0.44507867097854614,9.777618408203125,-0.4778897762298584,-0.1826694756746292,0.21197024,-0.22296582,43.016727,-55.339119999999994,-32.134823,STD
904577300000.0,0.3762393295764923,-0.4557744562625885,9.78835391998291,-0.45855608582496643,-0.19394774734973907,0.20555615,-0.22388211,42.440304,-55.687819999999995,-31.876486,STD
905165000000.0,0.3812381625175476,-0.4665175676345825,9.798761367797852,-0.43837517499923706,-0.20299746096134186,0.22235495,-0.226631,41.86653,-56.03023,-31.623127,STD
905721700000.0,0.3862360417842865,-0.4772998094558716,9.808856964111328,-0.41740939021110535,-0.21024659276008606,0.24342979999999997,-0.24373524,41.301753999999995,-56.366615,-31.374855,STD
906249000000.0,0.39123469591140747,-0.4881230294704437,9.818657875061035,-0.39568859338760376,-0.21562831103801727,0.26450464,-0.24220806,40.737442,-56.70644,-31.12407,STD
906748400000.0,0.3962348401546478,-0.49898675084114075,9.828181266784668,-0.37324780225753784,-0.21981176733970642,0.30207285,-0.25167647,40.169937,-57.036044999999994,-30.884090000000004,STD
907221500000.0,0.40123307704925537,-0.5098811984062195,9.837438583374023,-0.3501485586166382,-0.22334912419319153,0.33261612,-0.2565634,39.60445,-57.365078000000004,-30.643755,STD
907669700000.0,0.4062316417694092,-0.5208096504211426,9.84644603729248,-0.32641100883483887,-0.22782108187675476,0.36743546,-0.28313604,39.034447,-57.680714,-30.414932,STD
908094200000.0,0.411232054233551,-0.5302405953407288,9.852132797241211,-0.3032204210758209,-0.2337312400341034,0.37843102,-0.29657507,38.468685,-57.99465,-30.184381,SCH
908496400000.0,0.4162292182445526,-0.5376708507537842,9.853521347045898,-0.28101590275764465,-0.24101926386356354,0.39828414,-0.32406402,37.8982,-58.2922,-29.967693,SCH
908877400000.0,0.4212283194065094,-0.5402894616127014,9.851244926452637,-0.26350051164627075,-0.2508813142776489,0.41263947,-0.33994650000000004,37.44043,-58.52251,-29.784178000000004,SCH
909238400000.0,0.4262272119522095,-0.537100613117218,9.845741271972656,-0.2520711123943329,-0.26306629180908203,0.43096542,-0.33353242,36.978546,-58.74711,-29.603690000000004,SCH
909580440000.0,0.43122681975364685,-0.5291796922683716,9.836654663085938,-0.24874329566955566,-0.2777271270751953,0.4474588,-0.32986724,36.617470000000004,-59.013783,-29.374014000000003,SCH
909904500000.0,0.43622729182243347,-0.5170871615409851,9.823969841003418,-0.25401467084884644,-0.29430869221687317,0.47250426,-0.29749137,36.248405,-59.28295,-29.13818,SCH
910211550000.0,0.44122669100761414,-0.5027444362640381,9.805861473083496,-0.2652815580368042,-0.3119761347770691,0.514654,-0.2666427,35.90765,-59.59036999999999,-28.866071999999996,SCH
910502500000.0,0.44622713327407837,-0.4869239032268524,9.781742095947266,-0.28142884373664856,-0.3294345736503601,0.5708536,-0.23182335,35.556156,-59.901793999999995,-28.5885,SCH
910778240000.0,0.45122602581977844,-0.47201281785964966,9.747225761413574,-0.2914397418498993,-0.34596264362335205,0.6377433000000001,-0.21319197,35.202427,-60.245754000000005,-28.287418,SCH
911039500000.0,0.45622503757476807,-0.45917075872421265,9.700276374816895,-0.2899574041366577,-0.3604705035686493,0.7104363,-0.1826487,34.831672999999995,-60.59944,-27.978762,SCH
911287200000.0,0.46122777462005615,-0.4469713866710663,9.648709297180176,-0.27624714374542236,-0.3722682595252991,0.74220127,-0.17073683,34.475727,-60.96720500000001,-27.663104999999998,SCH
911521900000.0,0.4662267565727234,-0.4346957504749298,9.596742630004883,-0.2506769597530365,-0.3812398612499237,0.7855727,-0.16676621,34.09799,-61.339890000000004,-27.346897,SCH
911744400000.0,0.4712240397930145,-0.4211975038051605,9.549153327941895,-0.2137511670589447,-0.38867536187171936,0.8032878000000001,-0.16798794,33.781593,-61.682903,-27.047302000000002,SCH
911955260000.0,0.476223349571228,-0.40563148260116577,9.509421348571777,-0.16587114334106445,-0.3937613368034363,0.79504114,-0.172264,33.464946999999995,-62.0286,-26.749407,SCH
912155150000.0,0.48122262954711914,-0.38794028759002686,9.479147911071777,-0.11241976171731949,-0.3977135717868805,0.7635816,-0.17348573,33.212322,-62.365925,-26.444582,SCH
912344700000.0,0.4862213134765625,-0.3680857717990875,9.459547996520996,-0.05767539143562317,-0.3989647626876831,0.72326446,-0.17440203,32.97018,-62.705154,-26.141813,SCH
912524400000.0,0.49122151732444763,-0.34532520174980164,9.448091506958008,-0.005977277643978596,-0.3977239727973938,0.67103547,-0.16493362,32.805687,-63.065166000000005,-25.806313,SCH
912694800000.0,0.4962228238582611,-0.31920289993286133,9.44283676147461,0.039661817252635956,-0.39539361000061035,0.61422503,-0.14477506,32.659725,-63.425982999999995,-25.469439,SCH
912856300000.0,0.5012226700782776,-0.2901473641395569,9.4435396194458,0.08052729070186615,-0.3921782672405243,0.5384777,-0.112704635,32.589317,-63.836009999999995,-25.084482,SCH
913009540000.0,0.5062226057052612,-0.2584522068500519,9.450021743774414,0.11758628487586975,-0.38838550448417664,0.48258355,-0.08552113,32.53517,-64.24564000000001,-24.699165,SCH
913154830000.0,0.5112227201461792,-0.22518976032733917,9.463269233703613,0.151840940117836,-0.38446933031082153,0.42180246,-0.059253927000000005,32.55715,-64.71745,-24.25968,SCH
913292660000.0,0.5162220001220703,-0.1920579969882965,9.485115051269531,0.18481741845607758,-0.38108739256858826,0.33841935,-0.022602014,32.60823,-65.19122,-23.814536999999998,SCH
913423400000.0,0.5212214589118958,-0.16012442111968994,9.514875411987305,0.22014819085597992,-0.3789762854576111,0.2501493,0.00061086525,32.757793,-65.72773000000001,-23.315496,SCH
913547460000.0,0.5262203216552734,-0.1303814798593521,9.551848411560059,0.26117271184921265,-0.37824729084968567,0.18112154,0.02687807,32.932354,-66.262405,-22.81423,SCH
913665200000.0,0.5312553644180298,-0.10437987744808197,9.596574783325195,0.30484795570373535,-0.3775408864021301,0.08796459400000001,0.043982297000000004,33.295204,-66.88154,-22.242607,SCH
913777000000.0,0.5362535119056702,-0.0826917365193367,9.646124839782715,0.3468712866306305,-0.3781905770301819,-0.011301007,0.05009095,33.68646,-67.48263,-21.681673,SCH
913883000000.0,0.5412508845329285,-0.06530818343162537,9.696351051330566,0.3876497745513916,-0.381117045879364,-0.030543262,0.054367005999999996,34.37679,-68.20338000000001,-21.023232,SCH
913983700000.0,0.5462494492530823,-0.05176667124032974,9.741238594055176,0.4275227189064026,-0.38546645641326904,-0.037873644,0.058337633,35.093903000000005,-68.89365,-20.389372,SCH
914079200000.0,0.5512440800666809,-0.04180669039487839,9.781123161315918,0.4665141701698303,-0.3903490900993347,-0.070249505,0.06872234,35.83039,-69.55632,-19.780293,SCH
914169900000.0,0.5562421083450317,-0.03531520441174507,9.816200256347656,0.5047049522399902,-0.39651787281036377,-0.11178834,0.083383106,36.570859999999996,-70.18812,-19.19611,SCH
914256040000.0,0.5612379312515259,-0.031387533992528915,9.844706535339355,0.5409971475601196,-0.4034973084926605,-0.25137106,0.09437868,37.332370000000004,-70.78536,-18.638918,SCH
914337800000.0,0.5662364363670349,-0.028940077871084213,9.863813400268555,0.5738301277160645,-0.41010481119155884,-0.44806966,0.118507855,38.121292,-71.36318,-18.096525,SCH
914415550000.0,0.5712299346923828,-0.029881371185183525,9.873994827270508,0.602298378944397,-0.4154323637485504,-0.6554584,0.13561209,39.009415000000004,-71.9108,-17.582022,SCH
914489400000.0,0.5762335062026978,-0.037809107452631,9.874837875366211,0.6244746446609497,-0.4196295738220215,-0.81122905,0.14446963,39.93633,-72.43677,-17.084553,SCH
914559600000.0,0.5812313556671143,-0.05295095220208168,9.867406845092773,0.6392991542816162,-0.4238635301589966,-0.8695666999999999,0.11942416,40.896477000000004,-72.925095,-16.622963000000002,SCH
914626300000.0,0.5862311124801636,-0.07771900296211243,9.85212230682373,0.6426578164100647,-0.4304274022579193,-0.83077675,0.07513642,41.868843,-73.38518499999999,-16.185670000000002,SCH
914689750000.0,0.5912277698516846,-0.11103079468011856,9.830018043518066,0.6356048583984375,-0.4419153332710266,-0.68508536,0.016493361,42.846309999999995,-73.7956,-15.801153,SCH
914750050000.0,0.5962300896644592,-0.15063317120075226,9.803807258605957,0.6197493672370911,-0.4602949023246765,-0.48808134,-0.0421497,43.79034,-74.16715,-15.450358,SCH
914807460000.0,0.6012635231018066,-0.19436611235141754,9.774654388427734,0.6003193855285645,-0.484938383102417,-0.29321529999999996,-0.08307768,44.728584000000005,-74.491066,-15.159412,SCH
914862050000.0,0.6062619090080261,-0.23727890849113464,9.74554443359375,0.585809051990509,-0.513444721698761,-0.1432479,-0.10231992599999999,45.612213,-74.78017,-14.897429,SCH
914913950000.0,0.6112571954727173,-0.2789907157421112,9.716596603393555,0.5792087316513062,-0.5420759320259094,-0.06047566,-0.110872045,46.50719,-75.04571999999999,-14.666785999999998,SCH
914963370000.0,0.6162551641464233,-0.31727638840675354,9.688950538635254,0.5905269980430603,-0.5684162378311157,-0.07391469,-0.10781772,47.373259999999995,-75.289345,-14.452876999999999,SCH
915010400000.0,0.6212513446807861,-0.3528732657432556,9.662433624267578,0.6177754998207092,-0.5910414457321167,-0.18845193,-0.109650314,48.23677,-75.50022,-14.266495,SCH
915055250000.0,0.6262496709823608,-0.392676442861557,9.635621070861816,0.650895893573761,-0.6089938282966614,-0.3359759,-0.15454891,49.101795,-75.68709,-14.102996,SCH
915098000000.0,0.6312655210494995,-0.4369126558303833,9.608363151550293,0.6899111270904541,-0.621675968170166,-0.48533243,-0.23762658,50.028732,-75.84411999999999,-13.957735000000001,SCH
915138700000.0,0.636263370513916,-0.4866733253002167,9.579452514648438,0.7316240668296814,-0.6293687224388123,-0.6435465,-0.30940324,50.988934,-75.98138,-13.831976000000001,SCH
915177500000.0,0.6412779688835144,-0.5428186655044556,9.548373222351074,0.7762297987937927,-0.636423647403717,-0.77579886,-0.3921755,52.064133,-76.06942,-13.755967000000002,SCH
915214430000.0,0.6462752819061279,-0.6058094501495361,9.511571884155273,0.8159989714622498,-0.6454628109931946,-0.8029824000000001,-0.49327368,53.137024,-76.11954,-13.716701500000001,SCH
915249700000.0,0.6512697339057922,-0.675813615322113,9.468954086303711,0.8510561585426331,-0.6583825945854187,-0.7535023000000001,-0.5934556,54.374504,-76.13605,-13.7159815,SCH
915283400000.0,0.6562669277191162,-0.7542653679847717,9.41916275024414,0.8897920846939087,-0.6762294769287109,-0.72112644,-0.68294734,55.595863,-76.10925,-13.752132999999999,SCH
915315500000.0,0.6612629890441895,-0.8408764600753784,9.36240005493164,0.9336210489273071,-0.6994897127151489,-0.63713247,-0.72509706,56.759747,-76.05231500000001,-13.812882,SCH
915346160000.0,0.6662609577178955,-0.9379651546478271,9.299952507019043,0.9866040945053101,-0.7240984439849854,-0.57940567,-0.818254,57.922638,-75.91553,-13.954447,SCH
915375500000.0,0.6712667942047119,-1.046097993850708,9.232232093811035,1.0497872829437256,-0.7522789239883423,-0.5338961999999999,-0.93218035,59.036384999999996,-75.74892,-14.117849,SCH
915403600000.0,0.6762633919715881,-1.1630277633666992,9.166532516479492,1.1144477128982544,-0.7838407754898071,-0.44959682,-1.0659598,60.095688,-75.49745,-14.359171,SCH
915430400000.0,0.6812604069709778,-1.288447380065918,9.10617446899414,1.1767138242721558,-0.8175783753395081,-0.32498032,-1.2027937,61.107530000000004,-75.21066,-14.631728,SCH
915456000000.0,0.686257004737854,-1.4003692865371704,9.058388710021973,1.233814001083374,-0.853294312953949,-0.25228736,-1.2990049,61.87894,-74.80735,-14.987054999999998,SCH
915480500000.0,0.6912550330162048,-1.4898970127105713,9.025918960571289,1.2847214937210083,-0.8884578943252563,-0.2846632,-1.3454306999999999,62.641087,-74.38273000000001,-15.35765,SCH
915504800000.0,0.6970502138137817,-1.5093801021575928,9.045910835266113,1.3204023838043213,-0.9218451976776123,-0.33017266,-1.3649784,65.61211,-72.502205,-16.970596,SCH
915528100000.0,0.7028039693832397,-1.5120604038238525,9.061685562133789,1.3568373918533325,-0.9555692076683044,-0.16615535,-1.3741413,66.525185,-72.15613,-17.272886,SCH
915550400000.0,0.7085188627243042,-1.4991376399993896,9.065467834472656,1.3969064950942993,-0.9900678396224976,-0.028710667000000002,-1.3930782,67.38919,-71.81296,-17.568920000000002,SCH
915571740000.0,0.7141951322555542,-1.4825042486190796,9.053228378295898,1.444904088973999,-1.026732087135315,0.04795292,-1.4083499,68.16812,-71.51522,-17.81144,SCH
915592250000.0,0.7198360562324524,-1.4682968854904175,9.02316665649414,1.502916932106018,-1.0640143156051636,0.10812314599999999,-1.4416419,68.89966,-71.2083,-18.060917,SCH
915611900000.0,0.7254425883293152,-1.4611241817474365,8.983436584472656,1.564125657081604,-1.1006606817245483,0.16707164,-1.4676038,69.49204,-70.87458000000001,-18.306265,SCH
915630800000.0,0.7310231328010559,-1.4633197784423828,8.938121795654297,1.6251533031463623,-1.135777235031128,0.19456059,-1.4923438,70.07435600000001,-70.53295,-18.554075,SCH
915648940000.0,0.7365742921829224,-1.4787046909332275,8.901361465454102,1.679081678390503,-1.170308232307434,0.1554652,-1.5100589,70.73045,-70.16112,-18.816599,SCH
915666400000.0,0.7420892715454102,-1.5085418224334717,8.879796028137207,1.7227545976638794,-1.203080415725708,0.10995574,-1.53205,71.37771,-69.78627,-19.07946,SCH
915683150000.0,0.7475754618644714,-1.561331033706665,8.865981101989746,1.7464672327041626,-1.2328852415084839,0.10293079,-1.5479325000000002,72.06846999999999,-69.38877,-19.37012,SCH
915699340000.0,0.7530399560928345,-1.6408950090408325,8.856139183044434,1.745800495147705,-1.260141372680664,0.13683382,-1.5418239,72.754326,-68.99544499999999,-19.65116,SCH
915714870000.0,0.7584751844406128,-1.7385724782943726,8.840353965759277,1.7425528764724731,-1.2835032939910889,0.22388211,-1.570229,73.36766999999999,-68.57119,-19.98471,SCH
915729900000.0,0.7638867497444153,-1.8452322483062744,8.805830955505371,1.7635976076126099,-1.3045296669006348,0.28680122,-1.6557503,73.975,-68.14003000000001,-20.322474,SCH
915744360000.0,0.76927649974823,-1.9520258903503418,8.759332656860352,1.8081519603729248,-1.3216193914413452,0.27702740000000003,-1.7464638,74.44453,-67.65722,-20.770220000000002,SCH
915758300000.0,0.7746467590332031,-2.0538864135742188,8.704949378967285,1.8753539323806763,-1.3350149393081665,0.13225232,-1.847562,74.93587,-67.164055,-21.226095,SCH
915771800000.0,0.7799968719482422,-2.151076078414917,8.644477844238281,1.9452930688858032,-1.3434644937515259,-0.10812314599999999,-1.9495764,75.43695,-66.56039,-21.746878,SCH
915784860000.0,0.7853261828422546,-2.2438418865203857,8.579168319702148,2.0054595470428467,-1.3485664129257202,-0.35338554,-2.0494528,75.98953,-65.948494,-22.271767,SCH
915797440000.0,0.7906435132026672,-2.335003137588501,8.507889747619629,2.051105260848999,-1.3524686098098755,-0.5143485,-2.147802,76.63212,-65.262566,-22.816456,SCH
915809600000.0,0.7959423065185547,-2.4262988567352295,8.430424690246582,2.0798394680023193,-1.3569278717041016,-0.5503895999999999,-2.2159138,77.31801,-64.57495,-23.357418,SCH
915821400000.0,0.80122309923172,-2.5190529823303223,8.345678329467773,2.0983362197875977,-1.3628261089324951,-0.46914452,-2.275473,77.9926,-63.860455,-23.93502,SCH
915832900000.0,0.806491494178772,-2.6143689155578613,8.252690315246582,2.1115944385528564,-1.3719096183776855,-0.35277468,-2.3212879,78.67387,-63.142030000000005,-24.50873,SCH
915844040000.0,0.811743974685669,-2.707860231399536,8.155445098876953,2.1311230659484863,-1.3850178718566895,-0.24465153,-2.3393085,79.251144,-62.3967,-25.128795999999998,SCH
915854850000.0,0.8169823288917542,-2.7955238819122314,8.057464599609375,2.1677258014678955,-1.4003738164901733,-0.19058995,-2.359467,79.8168,-61.652058,-25.74599,SCH
915865340000.0,0.8222073912620544,-2.8776700496673584,7.958787441253662,2.220496416091919,-1.4160833358764648,-0.16432275,-2.3906212000000004,80.30023,-60.849509999999995,-26.420313,SCH
915875500000.0,0.8274211883544922,-2.9545886516571045,7.8594207763671875,2.2886641025543213,-1.431492805480957,-0.17592919,-2.4086416,80.78568,-60.05786,-27.078217,SCH
915885400000.0,0.8326234221458435,-3.023789882659912,7.76480770111084,2.3641130924224854,-1.446650743484497,-0.21166481,-2.4306327999999997,81.27467,-59.262527,-27.743444,SCH
915895000000.0,0.8378155827522278,-3.0785436630249023,7.688544750213623,2.42789626121521,-1.461489200592041,-0.23640485,-2.4550674,81.77218,-58.479637,-28.393507,SCH
915904400000.0,0.8429943323135376,-3.1205196380615234,7.628567695617676,2.4762728214263916,-1.4745439291000366,-0.2415972,-2.4538457,82.40083,-57.620224,-29.028284000000003,SCH
915913600000.0,0.8481662273406982,-3.1510422229766846,7.583245277404785,2.5046346187591553,-1.4840381145477295,-0.22632557,-2.4565945,83.04278599999999,-56.77385699999999,-29.649794,SCH
915922550000.0,0.8533689975738525,-3.166381597518921,7.54481315612793,2.522346019744873,-1.4891523122787476,-0.18112154,-2.4630085999999998,83.69928,-56.02075,-30.227348,SCH
915931270000.0,0.8585189580917358,-3.168576717376709,7.504969120025635,2.5408434867858887,-1.4930661916732788,-0.14844026,-2.4507914,84.360405,-55.2903,-30.777956,SCH
915939800000.0,0.8636581897735596,-3.156236410140991,7.458741188049316,2.5644330978393555,-1.4954042434692383,-0.13286320000000001,-2.4318545,84.93109,-54.625587,-31.327848,SCH
915948100000.0,0.8687920570373535,-3.129979133605957,7.399635314941406,2.59903883934021,-1.4968851804733276,-0.13316862,-2.4123068,85.50019,-53.982730000000004,-31.853031,SCH
915956300000.0,0.8739171028137207,-3.095221757888794,7.329936981201172,2.6434128284454346,-1.4963663816452026,-0.15424347,-2.3796256000000002,86.04361,-53.328766,-32.362476,SCH
915964300000.0,0.8790384531021118,-3.0593068599700928,7.252164363861084,2.696458101272583,-1.492652416229248,-0.17898351,-2.350915,86.59318499999999,-52.70009,-32.84778,SCH
915972100000.0,0.8841490745544434,-3.025022268295288,7.169878005981445,2.753509759902954,-1.486336588859558,-0.18112154,-2.3353379000000003,87.18553,-52.02799,-33.324096999999995,SCH
915979760000.0,0.8892568945884705,-2.9977245330810547,7.088881015777588,2.8064889907836914,-1.479527235031128,-0.10323623,-2.310598,87.76371,-51.383179999999996,-33.777874,SCH
915987300000.0,0.8943577408790588,-2.9770944118499756,7.010591506958008,2.8557190895080566,-1.4727064371109009,0.03970624,-2.2644775000000004,88.373436,-50.71093,-34.23816,SCH
915994700000.0,0.8994550704956055,-2.9631083011627197,6.937734603881836,2.9015696048736572,-1.4659398794174194,0.18784106,-2.2275202000000003,88.96292,-50.05892,-34.68512,SCH
916002000000.0,0.9045451879501343,-2.953864574432373,6.8723249435424805,2.9493839740753174,-1.4589478969573975,0.3036,-2.1762075000000003,89.48971999999999,-49.393364,-35.165062,SCH
916009100000.0,0.9096341729164124,-2.945629119873047,6.819684028625488,3.0116686820983887,-1.4529471397399902,0.3717115,-2.1093178,89.985596,-48.753914,-35.624190000000006,SCH
916016140000.0,0.9147156476974487,-2.94099760055542,6.7804274559021,3.0887796878814697,-1.448812484741211,0.39492437,-2.0451767,90.429115,-48.10376,-36.103783,SCH
916023100000.0,0.9197958111763,-2.9463913440704346,6.757804870605469,3.184095859527588,-1.446607232093811,0.36774087,-2.0198259999999997,90.871025,-47.47365,-36.5613,SCH
916029960000.0,0.9248956441879272,-2.961979866027832,6.750582218170166,3.292722702026367,-1.4463425874710083,0.27275133,-2.0210476,91.3816,-46.82461,-36.9825,SCH
916036700000.0,0.9299665689468384,-2.985403537750244,6.752813339233398,3.400195837020874,-1.4477198123931885,0.15088372,-2.021964,91.91326,-46.192240000000005,-37.37513,SCH
916043330000.0,0.9350278973579407,-3.0168778896331787,6.764657020568848,3.506915330886841,-1.451188564300537,0.061086524,-2.0146337,92.53871,-45.525240000000004,-37.741993,SCH
916049900000.0,0.9400909543037415,-3.0528528690338135,6.784383773803711,3.6065962314605713,-1.4571744203567505,0.023518313,-1.9966130000000002,93.18991,-44.86929,-38.08251,SCH
916056400000.0,0.9451534152030945,-3.0927274227142334,6.810770034790039,3.6986582279205322,-1.464810848236084,0.022907447,-1.9575175999999999,93.85735,-44.23052,-38.394222,SCH
916062800000.0,0.9502105712890625,-3.136287212371826,6.836507797241211,3.7792460918426514,-1.4737168550491333,0.03604105,-1.9187278000000003,94.5162,-43.573883,-38.712204,SCH
916069100000.0,0.9552667737007141,-3.1839256286621094,6.860710144042969,3.8492281436920166,-1.4827830791473389,0.11759156,-1.897042,95.12236,-42.944984000000005,-39.025074,SCH
916075300000.0,0.9603186249732971,-3.241602659225464,6.871799945831299,3.913719892501831,-1.4926846027374268,0.21807889999999996,-1.8500054,95.707634,-42.339493,-39.313477,SCH
916081500000.0,0.9653742909431458,-3.309612274169922,6.869989395141602,3.973057746887207,-1.5034583806991577,0.31306845,-1.8090773999999998,96.19883,-41.697765000000004,-39.673355,SCH
916087600000.0,0.9704180359840393,-3.392110586166382,6.855038642883301,4.028769016265869,-1.5151066780090332,0.34636059999999996,-1.7846428,96.673615,-41.074397999999995,-40.018406,SCH
916093670000.0,0.9754593968391418,-3.4889438152313232,6.82719612121582,4.08103084564209,-1.5262155532836914,0.30909783,-1.7922786,97.13155,-40.405045,-40.434002,SCH
916099700000.0,0.9805002212524414,-3.596015453338623,6.79047155380249,4.133864879608154,-1.5355929136276245,0.20708331,-1.7889188999999999,97.59583,-39.760006,-40.82128,SCH
916105660000.0,0.9855548143386841,-3.7142841815948486,6.746645927429199,4.187389373779297,-1.5425009727478027,0.07147124,-1.7733418,98.084404,-39.134075,-41.182021999999996,SCH
916111560000.0,0.9905900955200195,-3.8631584644317627,6.730178356170654,4.232639789581299,-1.5463225841522217,-0.038789943,-1.7696766,98.60069,-38.45037,-41.631176,SCH
916117450000.0,0.995664656162262,-4.049510955810547,6.745376110076904,4.268807888031006,-1.5472222566604614,-0.14385876,-1.8649716,99.19596999999999,-37.7024,-42.14642,SCH
916123300000.0,1.0006943941116333,-4.218849182128906,6.742859840393066,4.313672065734863,-1.5448185205459595,-0.20769419,-1.9126191000000003,99.8087,-36.996871999999996,-42.615584999999996,SCH
916129050000.0,1.0057166814804077,-4.359946250915527,6.710163593292236,4.372655868530273,-1.5428521633148193,-0.24862215,-1.9046778999999998,100.46178,-36.299397,-43.058254,SCH
916134760000.0,1.0107427835464478,-4.475130558013916,6.656851291656494,4.434736728668213,-1.5434973239898682,-0.22266038,-1.8579466,100.96366,-35.655113,-43.57356,SCH
916140460000.0,1.0157653093338013,-4.566614151000977,6.586560249328613,4.497272491455078,-1.5475425720214844,-0.17898351,-1.7907515,101.47251999999999,-35.03398,-44.052654,SCH
916146100000.0,1.020789623260498,-4.646783351898193,6.508596420288086,4.561534404754639,-1.5546114444732666,-0.14752395,-1.743104,102.1242,-34.2987,-44.535540000000005,SCH
916151700000.0,1.0258104801177979,-4.718940258026123,6.425562381744385,4.627607345581055,-1.5642986297607422,-0.118507855,-1.690875,102.75023,-33.593727,-44.9851,SCH
916157300000.0,1.0308326482772827,-4.793154716491699,6.3437275886535645,4.694756984710693,-1.5762529373168945,-0.09682214,-1.6325374,103.44169000000001,-32.852226,-45.40465,SCH
916162900000.0,1.0358505249023438,-4.8717827796936035,6.264732360839844,4.762639045715332,-1.5887421369552612,-0.12003502,-1.6413950000000002,104.14559,-32.12393,-45.803143,SCH
916168400000.0,1.0408700704574585,-4.955664157867432,6.192780494689941,4.824458599090576,-1.603251576423645,-0.15088372,-1.6404786,104.8793,-31.365044,-46.191963,SCH
916173900000.0,1.0458929538726807,-5.044814586639404,6.128658771514893,4.8787384033203125,-1.619657278060913,-0.12522738,-1.6267341,105.60406,-30.624626,-46.56528,SCH
916179300000.0,1.0509140491485596,-5.13284158706665,6.068588733673096,4.925217151641846,-1.6375651359558105,-0.106901415,-1.6190983,106.35367,-29.853711999999998,-46.949729999999995,SCH
916184760000.0,1.0559289455413818,-5.217701435089111,6.01121187210083,4.964139461517334,-1.6548116207122803,-0.051923547,-1.6267341,107.08635,-29.102384999999998,-47.325527,SCH
916190200000.0,1.06094491481781,-5.318540573120117,5.975925922393799,4.993046283721924,-1.6716110706329346,0.02107485,-1.6710218000000001,107.76666999999999,-28.335852000000003,-47.740559999999995,SCH
916195600000.0,1.0659748315811157,-5.442115306854248,5.969304084777832,5.011131286621094,-1.6865873336791992,0.058337633,-1.8365663,108.48325,-27.562819,-48.164691999999995,SCH
916200950000.0,1.0709865093231201,-5.563138008117676,5.9498162269592285,5.048267841339111,-1.6991214752197266,-0.018936822,-1.9822577000000001,109.19452,-26.785063,-48.59563,SCH
916206300000.0,1.0759981870651245,-5.675129413604736,5.905035972595215,5.114145278930664,-1.7123550176620483,-0.20005837,-2.074193,109.96473,-25.996032999999997,-49.011097,SCH
916211600000.0,1.081010103225708,-5.784692764282227,5.845649242401123,5.203640937805176,-1.7269179821014404,-0.41966440000000005,-2.0812180000000002,110.62821000000001,-25.24767,-49.452663,SCH
916216940000.0,1.086021065711975,-5.894111156463623,5.775812149047852,5.314112663269043,-1.7451810836791992,-0.6068946,-2.107485,111.37443999999999,-24.482162,-49.860123,SCH
916222250000.0,1.0910319089889526,-5.998339653015137,5.721079349517822,5.438307762145996,-1.7672076225280762,-0.59589905,-2.2198843999999998,112.39268,-23.581938,-50.240734,SCH
916227560000.0,1.0960426330566406,-6.095268726348877,5.692447662353516,5.572587013244629,-1.7890857458114624,-0.06261369,-2.40742,113.35468999999999,-22.679504,-50.690002,SCH
916232800000.0,1.1010518074035645,-6.175594806671143,5.68657112121582,5.765547275543213,-1.8077306747436523,0.21960606,-2.473088,114.54579,-21.700628,-51.0583,SCH
916238040000.0,1.1060601472854614,-6.234462738037109,5.701216220855713,6.043204307556152,-1.8128972053527832,-0.0580322,-2.3441954,115.73868,-20.781055,-51.38482,SCH
916243300000.0,1.1110655069351196,-6.340827941894531,5.6938018798828125,6.359808921813965,-1.7994276285171509,-0.49021935,-2.07572,116.85106999999999,-19.958813,-51.61459,SCH
916248500000.0,1.1160730123519897,-6.538093566894531,5.637629508972168,6.687344551086426,-1.7795789241790771,-1.1859948999999999,-1.690875,117.99209599999999,-19.221296,-51.65249,SCH
916253800000.0,1.121079921722412,-6.814918518066406,5.502823352813721,6.925508975982666,-1.7635713815689087,-1.9233092,-1.2880094,119.44878999999999,-18.545391,-51.22663,SCH
916258950000.0,1.1260876655578613,-7.162715435028076,5.2641143798828125,6.991199016571045,-1.7467241287231445,-1.8600846999999998,-0.97524637,120.70495600000001,-17.989152999999998,-50.785454,SCH
916264100000.0,1.1310932636260986,-7.530992031097412,4.969809532165527,6.942357063293457,-1.7278448343276978,-0.9251554,-0.77274454,121.935135,-17.284487,-50.621821999999995,SCH
916269300000.0,1.1361017227172852,-7.87508487701416,4.6618194580078125,6.828517436981201,-1.7036234140396118,0.21044308,-0.6423248,122.965355,-16.677504000000003,-50.49817,SCH
916274500000.0,1.141109585762024,-8.162759780883789,4.369518756866455,6.750252723693848,-1.6687941551208496,1.1377366000000002,-0.6160576,123.51941000000001,-15.968237,-51.139571999999994,SCH
916279660000.0,1.1461222171783447,-8.359284400939941,4.123175621032715,6.812209606170654,-1.6192506551742554,1.4251486,-0.6808093000000001,123.96895,-15.328768,-51.864246,SCH
916284830000.0,1.1511300802230835,-8.483394622802734,3.9123220443725586,6.9842209815979,-1.5558422803878784,1.4373658999999999,-0.7452555999999999,124.16215,-14.738725,-52.813812,SCH
916290000000.0,1.156135082244873,-8.5488920211792,3.728811502456665,7.244621276855469,-1.4913204908370972,0.7458665,-0.93523467,124.54632600000001,-14.130554,-53.641684999999995,SCH
916295100000.0,1.1611398458480835,-8.564260482788086,3.5681753158569336,7.547951698303223,-1.4292118549346924,-0.19150625,-1.1340714,125.48595,-13.460884,-54.10201,SCH
916300230000.0,1.1661443710327148,-8.545266151428223,3.4220995903015137,7.798300266265869,-1.3794145584106445,-0.88422745,-1.1921035,126.53310400000001,-12.788573,-54.413123999999996,SCH
916305350000.0,1.171144723892212,-8.513548851013184,3.28843355178833,7.984423637390137,-1.3465951681137085,-1.1847731000000001,-1.0965031,127.98041,-12.07095,-54.232426000000004,SCH
916310460000.0,1.1761479377746582,-8.495950698852539,3.1648738384246826,8.088293075561523,-1.3278141021728516,-1.2247848999999997,-0.91538155,146.20726000000002,-11.364825999999999,-53.9249,SCH
916315600000.0,1.181146502494812,-8.491886138916016,3.0473244190216064,8.124755859375,-1.3168867826461792,-1.1065824,-0.7629706999999999,146.25938,-10.676155,-53.608265,SCH
916320700000.0,1.1861506700515747,-8.502110481262207,2.928605079650879,8.111747741699219,-1.306753396987915,-0.9092728999999999,-0.64996064,146.29335,-10.024827,-53.283393999999994,SCH
916325800000.0,1.1911537647247314,-8.51872444152832,2.807164192199707,8.064224243164062,-1.2915117740631104,-0.75961095,-0.5653558000000001,146.26886000000002,-9.451794999999999,-53.132633,SCH
916330900000.0,1.1961584091186523,-8.530985832214355,2.680309772491455,8.000909805297852,-1.2655417919158936,-0.6469063,-0.52320606,133.78232,-8.929386000000001,-53.01316,SCH
916336000000.0,1.2011573314666748,-8.535868644714355,2.5459280014038086,7.92926025390625,-1.225915551185608,-0.5290093000000001,-0.4166101,134.47803000000002,-8.449266999999999,-53.075947,SCH
916341100000.0,1.206160306930542,-8.525900840759277,2.3977184295654297,7.863221168518066,-1.1742398738861084,-0.35338554,-0.2941316,146.33612,-8.031455000000001,-53.171055,SCH
916346200000.0,1.2111600637435913,-8.502067565917969,2.2374165058135986,7.806609630584717,-1.1148680448532104,-0.16065755,-0.17531833,146.41573,-7.638172,-53.34611999999999,SCH
916351200000.0,1.2161635160446167,-8.464280128479004,2.0663046836853027,7.769529342651367,-1.0531259775161743,0.0033597588,-0.079107046,146.52527,-7.308395,-53.542812,SCH
916356300000.0,1.2211631536483765,-8.413825035095215,1.8866305351257324,7.747857093811035,-0.9941046237945557,0.13011430000000002,0.014049901000000002,146.63588000000001,-6.961742999999999,-53.748909999999995,SCH
916361300000.0,1.2261656522750854,-8.35135269165039,1.7013585567474365,7.7343430519104,-0.941223680973053,0.17959438,0.08704830000000001,146.74546999999998,-6.648073700000001,-53.961273,SCH
916366360000.0,1.2311694622039795,-8.276620864868164,1.511492371559143,7.726988792419434,-0.8945629000663757,0.14172074,0.15821409,146.847,-6.2958336,-54.11589,SCH
916371400000.0,1.2361719608306885,-8.180424690246582,1.323855996131897,7.709592819213867,-0.8521792888641357,0.03940081,0.26572640000000003,146.92935,-5.974369,-54.24841,SCH
916376450000.0,1.2411723136901855,-8.065314292907715,1.1380192041397095,7.6814284324646,-0.8121358156204224,-0.008857545999999999,0.408058,146.99618999999998,-5.625517400000001,-54.335148,SCH
916381500000.0,1.24617600440979,-7.947414875030518,0.949640154838562,7.627289772033691,-0.772028923034668,-0.118507855,0.5335908,147.05725,-5.3091610000000005,-54.363113,SCH
916386600000.0,1.2512211799621582,-7.82630729675293,0.7573778629302979,7.544628620147705,-0.7322689294815063,-0.23793201,0.6301074999999999,147.10458,-4.9974904,-54.354583999999996,SCH
916391660000.0,1.2562209367752075,-7.716948986053467,0.5702627301216125,7.442838668823242,-0.6889633536338806,-0.23701571,0.68019843,147.17334,-4.7303752999999995,-54.341021999999995,SCH
916396700000.0,1.2612181901931763,-7.619669437408447,0.3871002495288849,7.318692207336426,-0.6455240249633789,-0.20280726,0.7360926,147.19366000000002,-4.478631,-54.32561,SCH
916401750000.0,1.2662184238433838,-7.536645889282227,0.21127881109714508,7.179545879364014,-0.6022348403930664,-0.12461651,0.7828238000000001,147.23611,-4.256901,-54.3193,SCH
916406800000.0,1.2712150812149048,-7.468059062957764,0.044057201594114304,7.029587745666504,-0.5608782768249512,-0.03268129,0.8005389,147.28087,-4.0466704,-54.323654000000005,SCH
916411840000.0,1.2762172222137451,-7.415680408477783,-0.10429307073354721,6.890649795532227,-0.5223279595375061,0.07788532,0.7816021,147.29582,-3.8971608,-54.377026,SCH
916416900000.0,1.2812235355377197,-7.379395484924316,-0.23091307282447815,6.770071029663086,-0.48760634660720825,0.14782938,0.7067711,147.31458,-3.7355998,-54.445496,SCH
916421940000.0,1.2862204313278198,-7.354753017425537,-0.3235013782978058,6.680964946746826,-0.45955324172973633,0.17928895,0.6075055,147.28548999999998,-3.567697,-54.570927000000005,SCH
916427000000.0,1.2912224531173706,-7.340724468231201,-0.3778679668903351,6.627692222595215,-0.44061294198036194,0.14905111,0.5030475000000001,147.24953,-3.3664273999999996,-54.699043,SCH
916432000000.0,1.2962205410003662,-7.332455635070801,-0.38737791776657104,6.605424404144287,-0.4313904047012329,0.09040806,0.41355577,147.19708,-3.1091889999999998,-54.86549,SCH
916437100000.0,1.3012176752090454,-7.327332973480225,-0.3482305705547333,6.611664772033691,-0.43122124671936035,0.0125227375,0.31948254,147.13022,-2.80894,-55.01471,SCH
916442100000.0,1.3062156438827515,-7.322829723358154,-0.27603137493133545,6.637808322906494,-0.437067449092865,-0.110872045,0.23732115,147.05086,-2.4957863999999996,-55.119445999999996,SCH
916447170000.0,1.3112175464630127,-7.318069934844971,-0.17688973248004913,6.680436611175537,-0.44624823331832886,-0.25350907,0.15210545,146.96367,-2.1526513,-55.191,SCH
916452200000.0,1.3162156343460083,-7.308087348937988,-0.060869522392749786,6.728307247161865,-0.4568767547607422,-0.37568212,0.10140363,146.8465,-1.9851358000000001,-55.102654,SCH
916457260000.0,1.3212286233901978,-7.290096282958984,0.06852754950523376,6.776381969451904,-0.4676224887371063,-0.44806966,0.06383542,146.73328999999998,-1.796604,-54.991165,SCH
916462240000.0,1.3262251615524292,-7.265181064605713,0.1936170607805252,6.820701599121094,-0.4773072302341461,-0.47861293,0.03604105,146.61867,-1.6916191999999999,-54.803180000000005,SCH
916467300000.0,1.331223487854004,-7.233067035675049,0.30928170680999756,6.860025882720947,-0.4863293468952179,-0.5177083,0.011911871999999999,146.50786000000002,-1.5774112,-54.596819999999994,SCH
916472270000.0,1.3362210988998413,-7.194211006164551,0.4160473346710205,6.894643783569336,-0.49379634857177734,-0.5500841999999999,-0.0033597588,146.40282,-1.5154413,-54.36537,SCH
916477250000.0,1.3412184715270996,-7.148960590362549,0.5143843293190002,6.924802780151367,-0.4994330108165741,-0.5870415,-0.03176499,146.30884,-1.4476615,-54.126490000000004,SCH
916482300000.0,1.3462203741073608,-7.095597743988037,0.5977819561958313,6.945939064025879,-0.5033531785011292,-0.6227771,-0.036957346,146.21371000000002,-1.3881027,-53.87771600000001,SCH
916487340000.0,1.3512225151062012,-7.0335259437561035,0.6628718376159668,6.955679893493652,-0.5053064227104187,-0.6072,-0.035430185,146.1326,-1.3303246000000002,-53.6382,SCH
916492300000.0,1.3562202453613281,-6.967106819152832,0.7095938324928284,6.9575676918029785,-0.5074648857116699,-0.58093286,-0.031154128,146.05878,-1.2585915,-53.37299300000001,SCH
916497300000.0,1.3612202405929565,-6.8986406326293945,0.7377946376800537,6.953525543212891,-0.5105826258659363,-0.60231316,-0.07147124,144.43466,-1.1811256,-53.10379399999999,SCH
916502300000.0,1.3662184476852417,-6.827372074127197,0.7506774663925171,6.944191932678223,-0.5135016441345215,-0.6267477,-0.109650314,144.5447,-1.0733167,-52.84635,SCH
916507260000.0,1.3712161779403687,-6.752479553222656,0.7509456872940063,6.930054187774658,-0.516313910484314,-0.627664,-0.11789699,144.65742,-0.96103823,-52.59384,SCH
916512300000.0,1.376216173171997,-6.676652908325195,0.7344743609428406,6.9105329513549805,-0.5188135504722595,-0.5708536,-0.08399397,144.84036,-0.8019092,-52.360394,SCH
916517300000.0,1.381215214729309,-6.601839542388916,0.6990087032318115,6.885427951812744,-0.5211148858070374,-0.5164866,-0.05009095,145.02382,-0.6428495,-52.129917,SCH
916522300000.0,1.3862098455429077,-6.5280256271362305,0.6458282470703125,6.855125904083252,-0.5223332047462463,-0.48075095,-0.03023783,145.2476,-0.45763862,-51.91349,SCH
916527250000.0,1.3912074565887451,-6.463395595550537,0.5847246050834656,6.827824115753174,-0.5216798186302185,-0.43493605,-0.016493361,145.45457,-0.28452718,-51.71836,SCH
916532300000.0,1.396212100982666,-6.40878963470459,0.5181924700737,6.805050849914551,-0.5175290703773499,-0.3659083,-0.00580322,145.65063,-0.12681197,-51.542877000000004,SCH
916537300000.0,1.401210904121399,-6.364610195159912,0.4609687328338623,6.794515609741211,-0.5106044411659241,-0.28252518,0.014660766,145.97325,0.11350499,-51.417156,SCH
916542300000.0,1.4062174558639526,-6.330780029296875,0.41346320509910583,6.796306610107422,-0.500419020652771,-0.20250183,0.03359759,146.34317,0.36892155,-51.32844,SCH
916547300000.0,1.4112193584442139,-6.307510852813721,0.38231799006462097,6.811369895935059,-0.4882534146308899,-0.116675265,0.049480084,146.69952,0.60808426,-51.263824,SCH
916552300000.0,1.416213870048523,-6.2941365242004395,0.3664981722831726,6.838840484619141,-0.475320041179657,-0.02076942,0.08155051,146.98477,0.80082226,-51.194266999999996,SCH
916557270000.0,1.421212077140808,-6.291532516479492,0.3664933145046234,6.878220081329346,-0.4612365663051605,0.06078109,0.09712757,147.26731999999998,0.97972995,-51.144490000000005,SCH
916562250000.0,1.42620849609375,-6.29910135269165,0.38128840923309326,6.928544998168945,-0.4473176598548889,0.122478485,0.105374254,147.53618,1.1488684,-51.115429999999996,SCH
916567300000.0,1.431207537651062,-6.317307472229004,0.4071153700351715,6.985762596130371,-0.4331638813018799,0.15118915,0.076052725,147.72641000000002,1.257308,-51.069477,SCH
916572300000.0,1.4362040758132935,-6.3455376625061035,0.4425602853298187,7.048635005950928,-0.41896679997444153,0.14691310000000002,0.034208454,147.9176,1.3635838,-51.031364,SCH
916577260000.0,1.4412024021148682,-6.381711483001709,0.48452994227409363,7.111233234405518,-0.403768390417099,0.13194689,0.007941248,148.04086,1.4158478,-50.982975,SCH
916582300000.0,1.446203589439392,-6.424434185028076,0.5310987830162048,7.17022180557251,-0.3883870244026184,0.08643743400000001,-0.028710667000000002,148.18658,1.4788052,-50.924366,SCH
916587300000.0,1.4512025117874146,-6.468357563018799,0.5766147375106812,7.217509746551514,-0.3730114996433258,0.035124752999999995,-0.07788532,148.28217,1.509508,-50.859764,SCH
916592260000.0,1.4562004804611206,-6.511893272399902,0.619460940361023,7.251048564910889,-0.35777172446250916,0.004276057,-0.103847094,148.38324,1.540054,-50.788909999999994,SCH
916597300000.0,1.4612069129943848,-6.55057954788208,0.6580699682235718,7.266688346862793,-0.3432301878929138,-0.004886922,-0.12614368,148.45605,1.558797,-50.725190000000005,SCH
916602300000.0,1.4662055969238281,-6.582773685455322,0.6920154094696045,7.2642951011657715,-0.32856833934783936,0.028710667000000002,-0.14110987,148.53752,1.5766193000000002,-50.665985,SCH
916607300000.0,1.4712042808532715,-6.609258651733398,0.7243074178695679,7.253407955169678,-0.31527385115623474,0.06994407,-0.16096300000000002,148.6096,1.6034708,-50.639465,SCH
916612250000.0,1.4762020111083984,-6.630522727966309,0.7558944821357727,7.237259387969971,-0.3014996349811554,0.11056661,-0.18081611,148.68866,1.6242838,-50.622555,SCH
916617300000.0,1.481201410293579,-6.646702766418457,0.7864217758178711,7.223031997680664,-0.2879548668861389,0.12461651,-0.21258110000000002,148.77524,1.6649983,-50.64249,SCH
916622300000.0,1.4862005710601807,-6.658063888549805,0.8158167600631714,7.212777614593506,-0.27439945936203003,0.12614368,-0.2452624,148.87057,1.7047406000000003,-50.669224,SCH
916627260000.0,1.4911986589431763,-6.662193298339844,0.844671368598938,7.207893371582031,-0.2617129683494568,0.14110987,-0.27366763,148.96708999999998,1.7500949000000001,-50.7087,SCH
916632240000.0,1.4961977005004883,-6.658285140991211,0.8732490539550781,7.208817005157471,-0.2508094310760498,0.14049901,-0.28893927,149.0706,1.7996081999999998,-50.742664000000005,SCH
916637300000.0,1.5011969804763794,-6.6472344398498535,0.8966027498245239,7.212873935699463,-0.2420007586479187,0.15424347,-0.31948254,149.19298,1.858986,-50.762768,SCH
916642270000.0,1.5061959028244019,-6.629655838012695,0.9126118421554565,7.218748092651367,-0.2341986745595932,0.16187929,-0.3472769,149.31909,1.9203922999999998,-50.77985,SCH
916647300000.0,1.511197805404663,-6.60720682144165,0.923844039440155,7.2255024909973145,-0.2260310798883438,0.15790866,-0.35918877,149.45596,1.9837928,-50.76272,SCH
916652300000.0,1.516196608543396,-6.580947399139404,0.9317240118980408,7.232647895812988,-0.21772904694080353,0.15515977,-0.36987892,149.60301,2.0541549,-50.747234000000006,SCH
916657300000.0,1.5211955308914185,-6.552980899810791,0.9375423192977905,7.239343643188477,-0.20846959948539734,0.15577064,-0.3839288,149.79451,2.1421146,-50.7071,SCH
916662260000.0,1.5261934995651245,-6.524456977844238,0.9420267343521118,7.245170593261719,-0.1974085122346878,0.15668693,-0.3830125,149.98158,2.2224212000000003,-50.666096,SCH
916667300000.0,1.5311936140060425,-6.498103618621826,0.9449121356010437,7.248659133911133,-0.18561843037605286,0.18112154,-0.3747658,150.18864,2.3148307999999997,-50.616707,SCH
916672300000.0,1.536192774772644,-6.475165843963623,0.946135401725769,7.2491960525512695,-0.17292660474777222,0.19975294,-0.36896262,150.39386000000002,2.3974495,-50.56581,SCH
916677260000.0,1.5411909818649292,-6.456426620483398,0.9464288949966431,7.2472615242004395,-0.15956014394760132,0.20433442,-0.36468655,150.60146,2.4793973,-50.514675,SCH
916682240000.0,1.5461902618408203,-6.442230701446533,0.9462003707885742,7.2431511878967285,-0.14669440686702728,0.23487769,-0.3387248,150.79584,2.5526009999999997,-50.476547,SCH
916687300000.0,1.55118989944458,-6.431849956512451,0.9476574659347534,7.237460613250732,-0.13449804484844208,0.2666427,-0.32009340000000003,150.99133,2.6256425,-50.451534,SCH
916692300000.0,1.5561894178390503,-6.424782752990723,0.9520479440689087,7.230567455291748,-0.12350509315729141,0.29199359999999996,-0.30543262,151.1757,2.6939002999999997,-50.433243,SCH
916697250000.0,1.5611889362335205,-6.421527862548828,0.9545679688453674,7.2226786613464355,-0.11371652781963348,0.2855795,-0.2864958,151.34337,2.7569765999999998,-50.429173,SCH
916702200000.0,1.5661886930465698,-6.42236328125,0.9520260691642761,7.21394681930542,-0.10464494675397873,0.26022860000000003,-0.26206118,151.50017,2.8149447,-50.42631,SCH
916707300000.0,1.5711880922317505,-6.42706298828125,0.9447018504142761,7.204419136047363,-0.09641492366790771,0.22999077,-0.24251351,151.63318,2.8630226000000003,-50.43408,SCH
916712300000.0,1.576223373413086,-6.435953617095947,0.9321804046630859,7.193966388702393,-0.0882328450679779,0.21258110000000002,-0.21930063,151.75156,2.9021682999999996,-50.437996000000005,SCH
916717300000.0,1.5812214612960815,-6.446188926696777,0.9135931730270386,7.1811604499816895,-0.08038914203643799,0.20372356,-0.18173242,151.85251,2.93528,-50.435852000000004,SCH
916722300000.0,1.586219072341919,-6.456897258758545,0.8865744471549988,7.164453506469727,-0.07288206368684769,0.21655174,-0.15027285,151.94468999999998,2.9627285,-50.434864000000005,SCH
916727300000.0,1.5912158489227295,-6.468044757843018,0.8520627617835999,7.145179271697998,-0.06680053472518921,0.23273966,-0.10934488,152.05695,3.0185482999999995,-50.456383,SCH
916732250000.0,1.596214771270752,-6.479612827301025,0.8107669949531555,7.124395847320557,-0.06099427491426468,0.23793201,-0.07299839999999999,152.15541000000002,3.0633106,-50.478058000000004,SCH
916737300000.0,1.6012132167816162,-6.4904022216796875,0.7649754285812378,7.103251934051514,-0.05585554987192154,0.23732115,-0.030848695,152.2759,3.1357912999999997,-50.51462,SCH
916742300000.0,1.6062132120132446,-6.499361515045166,0.7166038155555725,7.082732677459717,-0.05095812678337097,0.226631,0.00580322,152.38008,3.1981627999999995,-50.54911,SCH
916747260000.0,1.6112103462219238,-6.506603240966797,0.6671459078788757,7.0634002685546875,-0.0465170294046402,0.20738874,0.04184427,152.51016,3.2842383,-50.588413,SCH
916752300000.0,1.616210699081421,-6.512183666229248,0.6180277466773987,7.045863628387451,-0.0419219508767128,0.15913039999999998,0.076052725,152.62022,3.3581398,-50.61565,SCH
916757300000.0,1.621209740638733,-6.517115592956543,0.5721960663795471,7.031130790710449,-0.037197381258010864,0.12889257,0.11209377,152.74088999999998,3.442451,-50.638999999999996,SCH
916762260000.0,1.62621009349823,-6.522535800933838,0.5330637097358704,7.0204386711120605,-0.034189555794000626,0.08460484,0.12858713,152.84964,3.5260284,-50.64394,SCH
916767240000.0,1.6312075853347778,-6.528923511505127,0.5011714100837708,7.013558864593506,-0.032806988805532455,0.06780604,0.13469578,152.97105,3.6124556000000005,-50.646122,SCH
916772300000.0,1.636208415031433,-6.537045955657959,0.4777222275733948,7.010417461395264,-0.03350021690130234,0.026572637000000003,0.13927728,153.08011000000002,3.7000464999999996,-50.628746,SCH
916777300000.0,1.6412057876586914,-6.548181056976318,0.4640108048915863,7.012557029724121,-0.03669576719403267,-0.0012217305,0.13683382,153.16432,3.7751508,-50.604015000000004,SCH
916782300000.0,1.646256923675537,-6.565406322479248,0.46470096707344055,7.02400016784668,-0.040616270154714584,-0.039095376,0.12797627,153.2451,3.8499803999999997,-50.565025,SCH
916787300000.0,1.651249647140503,-6.583009719848633,0.469412624835968,7.038066864013672,-0.047876302152872086,-0.044593163,0.124311075,153.29308,3.9137672999999995,-50.52838,SCH
916792300000.0,1.6562461853027344,-6.597002029418945,0.47217223048210144,7.051383972167969,-0.05608417093753815,-0.06780604,0.118507855,153.3422,3.9741190000000004,-50.476578,SCH
916797260000.0,1.661242127418518,-6.607618808746338,0.47311103343963623,7.063991069793701,-0.06460337340831757,-0.076358154,0.12492194,153.33028000000002,4.002228700000001,-50.42737,SCH
916802240000.0,1.6662391424179077,-6.615023136138916,0.47231563925743103,7.075926303863525,-0.07359637320041656,-0.09254608,0.13164146,153.31926,4.035927,-50.370667,SCH
916807200000.0,1.67123281955719,-6.619228363037109,0.46934255957603455,7.086701393127441,-0.08191478252410889,-0.09468412,0.13927728,153.3087,4.0659018,-50.31839,SCH
916812300000.0,1.676232099533081,-6.618834018707275,0.4601108729839325,7.092526912689209,-0.08865047246217728,-0.08307768,0.16004670000000001,153.28918000000002,4.0906,-50.26757,SCH
916817250000.0,1.6812238693237305,-6.614516735076904,0.4454626441001892,7.093165397644043,-0.0939040556550026,-0.077579886,0.17134771,153.29698,4.129105,-50.200706,SCH
916822200000.0,1.6862187385559082,-6.606784820556641,0.4258669912815094,7.0872602462768555,-0.0978521928191185,-0.061391957000000004,0.20341812,153.28736999999998,4.15402,-50.143105,SCH
916827200000.0,1.6912131309509277,-6.597512245178223,0.4017027020454407,7.075021743774414,-0.09965291619300842,-0.03359759,0.22602014,153.30934,4.1916285,-50.090828,SCH
916832260000.0,1.6962101459503174,-6.589753150939941,0.3732193112373352,7.056299686431885,-0.09917651116847992,0.010690141499999998,0.23090707,153.32639,4.2208,-50.0496,SCH
916837240000.0,1.70120370388031,-6.583826065063477,0.3419390916824341,7.033687114715576,-0.09673965722322464,0.055588737,0.23823744,153.3634,4.259866000000001,-50.025543,SCH
916842200000.0,1.7061991691589355,-6.580511569976807,0.3102846145629883,7.011514186859131,-0.09269098937511444,0.08857546,0.23182335,153.40547,4.293311599999999,-50.010845,SCH
916847200000.0,1.7111942768096924,-6.579893589019775,0.27976420521736145,6.990499496459961,-0.08713269233703613,0.119729586,0.22327125,153.47159,4.3393607,-50.02985,SCH
916852240000.0,1.7161941528320312,-6.582396984100342,0.25344395637512207,6.972148895263672,-0.08073119819164276,0.14019357,0.21899518,153.53842,4.380662999999999,-50.054367,SCH
916857200000.0,1.7211891412734985,-6.5879011154174805,0.23208759725093842,6.956881999969482,-0.07392209768295288,0.15790866,0.20097467,153.62791,4.432306,-50.094276,SCH
916862200000.0,1.7261849641799927,-6.59666109085083,0.21795320510864258,6.945977687835693,-0.06750842928886414,0.15057829,0.18875736,153.71461000000002,4.481028,-50.13152,SCH
916867200000.0,1.7311818599700928,-6.608209609985352,0.21198564767837524,6.938836574554443,-0.061892326921224594,0.15393804,0.17348573,153.79263,4.5212226,-50.17855,SCH
916872230000.0,1.7361786365509033,-6.621665954589844,0.21693302690982819,6.934346675872803,-0.056152310222387314,0.1441642,0.16768251,153.86906000000002,4.5580397,-50.218243,SCH
916877200000.0,1.7411741018295288,-6.6365180015563965,0.2299652099609375,6.9320244789123535,-0.050978634506464005,0.1337795,0.15577064,153.9154,4.579829,-50.257378,SCH
916882200000.0,1.746172308921814,-6.65160608291626,0.24461513757705688,6.930853843688965,-0.04624345153570175,0.099265605,0.14996742,153.9587,4.599231700000001,-50.28575,SCH
916887200000.0,1.7511693239212036,-6.666895866394043,0.25976845622062683,6.931012153625488,-0.04146762564778328,0.07696902,0.13194689,153.95018000000002,4.582912,-50.317496999999996,SCH
916892200000.0,1.7561665773391724,-6.682361125946045,0.27262869477272034,6.93314266204834,-0.0369625948369503,0.06017022599999999,0.13958271,153.93138000000002,4.564196599999999,-50.341034,SCH
916897300000.0,1.7611706256866455,-6.6976776123046875,0.2847084701061249,6.935649871826172,-0.032534874975681305,0.018020526000000002,0.15088372,153.90776,4.5406184000000005,-50.352270000000004,SCH
916902250000.0,1.7661713361740112,-6.711676597595215,0.30090397596359253,6.933264255523682,-0.028505895286798477,-0.015577064,0.16432275,153.87975,4.5165695999999995,-50.36108,SCH
916907200000.0,1.7711703777313232,-6.724572658538818,0.3205152750015259,6.926486968994141,-0.02495206892490387,-0.02076942,0.16646078,153.86125,4.4982866999999995,-50.361862,SCH
916912300000.0,1.7761704921722412,-6.737028121948242,0.3413020074367523,6.916616439819336,-0.02175040915608406,-0.016493361,0.17104226,153.83504,4.477253,-50.356514000000004,SCH
916917260000.0,1.7811708450317383,-6.748687744140625,0.36320701241493225,6.9041571617126465,-0.018963534384965897,0.00061086525,0.16707164,153.78191999999999,4.4411335,-50.368294,SCH
916922300000.0,1.7861733436584473,-6.75689172744751,0.3862634003162384,6.891589164733887,-0.016634449362754822,0.0125227375,0.17012598,153.72455,4.4040112,-50.380074,SCH
916927300000.0,1.7911741733551025,-6.761776447296143,0.41030603647232056,6.879091739654541,-0.014738758094608784,0.01740966,0.16035213,153.65321,4.3620205,-50.4039,SCH
916932300000.0,1.7961769104003906,-6.762885570526123,0.4348248839378357,6.867762565612793,-0.013546355068683624,0.0125227375,0.14110987,153.58598,4.324448,-50.42773,SCH
916937300000.0,1.8011780977249146,-6.760542392730713,0.4599044620990753,6.857619762420654,-0.01308486983180046,-0.0015271631,0.122478485,153.50682,4.2817397,-50.443863,SCH
916942300000.0,1.8061800003051758,-6.755764484405518,0.4869748651981354,6.849553108215332,-0.012534037232398987,-0.013744468000000001,0.10781772,153.43546,4.242684,-50.458397,SCH
916947300000.0,1.811180830001831,-6.748776912689209,0.5158423185348511,6.843390941619873,-0.013265916146337986,-0.040927973,0.09621128,153.36615,4.209379,-50.45479,SIT
916952300000.0,1.816182255744934,-6.740559101104736,0.5456898808479309,6.838472843170166,-0.015147036872804165,-0.074830994,0.089491755,153.30142,4.1784396,-50.445602,SIT
916957300000.0,1.8211791515350342,-6.73120641708374,0.5764185190200806,6.834715843200684,-0.01777433045208454,-0.12858713,0.073303826,153.22926,4.143038,-50.412766,SIT
916962300000.0,1.8261815309524536,-6.7233076095581055,0.6058129668235779,6.833193778991699,-0.02001744695007801,-0.17806722,0.06719518,153.15565,4.10803,-50.372314,SIT
916967260000.0,1.8311800956726074,-6.717235088348389,0.6335130929946899,6.833924770355225,-0.023101385682821274,-0.19975294,0.063224554,153.0886,4.0838113,-50.325077,SIT
916972300000.0,1.8361821174621582,-6.712930202484131,0.6596057415008545,6.836848735809326,-0.025744257494807243,-0.23854288,0.0580322,153.01181,4.047756,-50.254242,SIT
916977300000.0,1.8411824703216553,-6.710271835327148,0.6841790080070496,6.841806888580322,-0.028636939823627472,-0.29443705,0.058337633,152.93438999999998,4.017702,-50.17395,SIT
916982330000.0,1.846186637878418,-6.710026741027832,0.7048118710517883,6.847413539886475,-0.03072436898946762,-0.3387248,0.04520403,152.86598,3.9880230000000005,-50.087055,SIT
916987300000.0,1.8511830568313599,-6.712047576904297,0.721591055393219,6.853472709655762,-0.03268427774310112,-0.37720928,0.04734206,152.7904,3.9591873,-49.988409999999995,SIT
916992300000.0,1.8561846017837524,-6.717923641204834,0.7339403033256531,6.861392498016357,-0.03431185334920883,-0.40469822,0.03604105,152.72801,3.9328766,-49.87527,SIT
916997300000.0,1.861186146736145,-6.7275214195251465,0.7421007752418518,6.87116003036499,-0.03599918633699417,-0.41874814,0.042455133,152.65794,3.9041717000000005,-49.758133,SIT
917002260000.0,1.8661872148513794,-6.73906946182251,0.7457799315452576,6.881078243255615,-0.03759659826755524,-0.4269948,0.040927973,152.61058,3.888415,-49.639140000000005,SIT
917007240000.0,1.8711835145950317,-6.752270221710205,0.7452309727668762,6.890972137451172,-0.03878333047032356,-0.41508293,0.03390302,152.56502,3.8723376000000003,-49.524609999999996,SIT
917012300000.0,1.8761848211288452,-6.765923023223877,0.7401344776153564,6.900157928466797,-0.04015098139643669,-0.39003745,0.027794369,152.5385,3.8707017999999995,-49.416443,SIT
917017260000.0,1.8811815977096558,-6.779839992523193,0.7308469414710999,6.908606052398682,-0.040810927748680115,-0.36285394,0.027794369,152.51447,3.8653796000000002,-49.31483,SIT
917022300000.0,1.8861826658248901,-6.7927117347717285,0.7189385294914246,6.917213439941406,-0.04071950167417526,-0.33383787,0.028099801,152.51501000000002,3.8760757000000003,-49.225838,SIT
917027300000.0,1.8911843299865723,-6.804418087005615,0.7047902941703796,6.92608118057251,-0.040095794945955276,-0.301462,0.020158553,152.52118000000002,3.886887,-49.147346,SIT
917032340000.0,1.89618718624115,-6.813188076019287,0.6899080872535706,6.9350481033325195,-0.03885423392057419,-0.2910773,0.017104227,152.54088000000002,3.9038913,-49.07072,SIT
917037300000.0,1.9011874198913574,-6.818644046783447,0.6747838258743286,6.94405460357666,-0.03717423975467682,-0.267559,0.019547688,152.56377,3.9197476000000004,-49.008522,SIT
917042300000.0,1.9061888456344604,-6.821094989776611,0.6593392491340637,6.951969623565674,-0.03485129773616791,-0.24740042,0.018936822,152.60197,3.9421802,-48.942721999999996,SIT
917047300000.0,1.9111888408660889,-6.820769309997559,0.6435837745666504,6.95858097076416,-0.03270098194479942,-0.23182335,0.013744468000000001,152.64174,3.9656303,-48.883606,SIT
917052260000.0,1.9161900281906128,-6.817789077758789,0.6275227665901184,6.963949203491211,-0.03017694316804409,-0.20952678,0.0125227375,152.69115,3.9878445,-48.824257,SIT
917057300000.0,1.9211909770965576,-6.812309265136719,0.6111785173416138,6.968145370483398,-0.027885081246495247,-0.18051068,0.002443461,152.7472,4.014872,-48.772009999999995,SIT
917062300000.0,1.9261924028396606,-6.803494930267334,0.5964268445968628,6.971137046813965,-0.02467360906302929,-0.14813483,-0.0012217305,152.79158,4.0311449999999995,-48.724740000000004,SIT
917067300000.0,1.9311939477920532,-6.791250705718994,0.5837192535400391,6.972962856292725,-0.021535620093345642,-0.13133603,-0.0015271631,152.83905,4.0521502,-48.681965000000005,SIT
917072300000.0,1.9362207651138306,-6.775389671325684,0.5730660557746887,6.973589897155762,-0.018336981534957886,-0.07666359,-0.004581489,152.90967,4.0793805,-48.649826000000004,SIT
917077300000.0,1.9412206411361694,-6.756850242614746,0.5641173720359802,6.973273754119873,-0.014853041619062424,-0.03940081,-0.0027488936,152.97745,4.1038814,-48.618233000000004,SIT
917082300000.0,1.946219801902771,-6.735626220703125,0.5583896636962891,6.973242282867432,-0.011603602208197117,-0.0021380284,-0.011911871999999999,153.0468,4.132623000000001,-48.600727,SIT
917087300000.0,1.9512195587158203,-6.711928844451904,0.5563139915466309,6.973985195159912,-0.008104123175144196,0.022907447,-0.015271631,153.11307,4.1558495,-48.590588000000004,SIT
917092300000.0,1.9562182426452637,-6.687106609344482,0.5602178573608398,6.974540710449219,-0.004351652693003416,0.05222898,-0.027183502999999998,153.18332,4.1751494,-48.577625,SIT
917097300000.0,1.9612181186676025,-6.661645889282227,0.5707793235778809,6.974575996398926,-0.0006526655051857233,0.08093964,-0.034513887,153.2535,4.193529600000001,-48.571613,SIT
917102260000.0,1.9662178754806519,-6.634484767913818,0.5834006667137146,6.97527551651001,0.003011965425685048,0.09285152,-0.026572637000000003,153.31395,4.2000465,-48.560140000000004,SIT
917107300000.0,1.9712228775024414,-6.605020523071289,0.5956172347068787,6.9772772789001465,0.006155751645565033,0.084910266,-0.02687807,153.3809,4.211158999999999,-48.550470000000004,SIT
917112300000.0,1.9762219190597534,-6.574769973754883,0.6085748672485352,6.980334281921387,0.00944126583635807,0.0711658,-0.026572637000000003,153.4015,4.1902614,-48.539505,SIT
917117300000.0,1.981221079826355,-6.544238567352295,0.6227347254753113,6.984364032745361,0.012209861539304256,0.061391957000000004,-0.011301007,153.41576,4.1702614,-48.52786,SIT
917122300000.0,1.9862205982208252,-6.513439178466797,0.6380350589752197,6.989315986633301,0.01468441542237997,0.04276056599999999,-0.008857545999999999,153.44083,4.1522307000000005,-48.496796,SIT
917127300000.0,1.9912209510803223,-6.482383728027344,0.6544177532196045,6.995142459869385,0.01732008531689644,0.02107485,-0.0033597588,153.4578,4.1305785,-48.462990000000005,SIT
917132300000.0,1.996220350265503,-6.453481674194336,0.6720589995384216,7.0028581619262695,0.019847847521305084,-0.006414085,0.004581489,153.47012,4.1091847,-48.422195,SIT
917137300000.0,2.001220226287842,-6.427886486053467,0.6910313963890076,7.012938499450684,0.02279432862997055,-0.040927973,0.003970624,153.48303,4.0862775000000005,-48.373753,SIT
917142400000.0,2.0062530040740967,-6.405737400054932,0.7091695070266724,7.024367809295654,0.025193126872181892,-0.06627888,-0.0015271631,153.4847,4.0552464,-48.306744,SIT
917147350000.0,2.0112502574920654,-6.3864240646362305,0.7255685329437256,7.0361809730529785,0.026585109531879425,-0.081855945,0.01038471,153.47923,4.0214357000000005,-48.234406,SIT
917152330000.0,2.0162482261657715,-6.3700408935546875,0.7402064800262451,7.0485053062438965,0.027902910485863686,-0.08216137400000001,0.017104227,153.46886,3.981322,-48.15845,SIT
917157300000.0,2.0212466716766357,-6.356428146362305,0.7531787753105164,7.0613112449646,0.02856449782848358,-0.07819075,0.019242255,153.45628,3.9459608,-48.080994,SIT
917162300000.0,2.0262436866760254,-6.3457865715026855,0.7658331394195557,7.074488162994385,0.028930388391017914,-0.07727446,0.019547688,153.4364,3.9076078,-48.002148,SIT
917167300000.0,2.0312421321868896,-6.338236331939697,0.7790752053260803,7.087972164154053,0.02851174585521221,-0.07360926,0.022907447,153.41606000000002,3.8731258,-47.92687,SIT
917172300000.0,2.036240816116333,-6.332615375518799,0.7925838232040405,7.101738452911377,0.02803402580320835,-0.064751714,0.02687807,153.40329,3.8433936,-47.857616,SIT
917177300000.0,2.0412395000457764,-6.328042507171631,0.8061209321022034,7.115768909454346,0.027191108092665672,-0.06017022599999999,0.018936822,153.3953,3.8201616,-47.789352,SIT
917182300000.0,2.046238899230957,-6.32382345199585,0.8186655044555664,7.13017463684082,0.026051288470625877,-0.052534412999999995,0.014049901000000002,153.37677,3.7913617999999993,-47.730713,SIT
917187300000.0,2.051238536834717,-6.319334506988525,0.8293043971061707,7.145049571990967,0.02412579022347927,-0.052839845,0.008246681,153.36293,3.7684519999999995,-47.67207,SIT
917192300000.0,2.056236982345581,-6.314119338989258,0.8384663462638855,7.1593475341796875,0.02217268943786621,-0.049480084,0.014660766,153.34386,3.7406511,-47.61761,SIT
917197300000.0,2.06123685836792,-6.307623386383057,0.8466205596923828,7.171844482421875,0.019851630553603172,-0.045814894,0.015882496,153.33029,3.7200394,-47.563946,SIT
917202300000.0,2.0662355422973633,-6.300320148468018,0.8544715642929077,7.1833648681640625,0.01684040017426014,-0.054367005999999996,0.022907447,153.31682,3.7052921999999997,-47.502846000000005,SIT
917207250000.0,2.0712335109710693,-6.292684555053711,0.8627464771270752,7.1947526931762695,0.013957091607153416,-0.055588737,0.027488936000000002,153.30504,3.6900693999999996,-47.44603,SIT
917212300000.0,2.0762479305267334,-6.284686088562012,0.8714780211448669,7.2060465812683105,0.011227442882955074,-0.06414085,0.028710667000000002,153.29535,3.679265,-47.384409999999995,SIT
917217300000.0,2.0812463760375977,-6.276430606842041,0.8805415630340576,7.217194080352783,0.008936257101595402,-0.06352998,0.018936822,153.28937,3.6691667999999997,-47.326103,SIT
917222260000.0,2.086242437362671,-6.2679362297058105,0.8901621103286743,7.228245258331299,0.007206663489341736,-0.06872234,0.01863139,153.279,3.6565769999999995,-47.26522,SIT
917227300000.0,2.0912411212921143,-6.259327411651611,0.9009712934494019,7.239274501800537,0.005194865632802248,-0.08277224,0.016493361,153.27383,3.6486080000000003,-47.20288,SIT
917232300000.0,2.09623646736145,-6.251063823699951,0.9122617840766907,7.2498297691345215,0.0038437119219452143,-0.08155051,0.0125227375,153.2669,3.631558,-47.138954,SIT
917237330000.0,2.1012356281280518,-6.243732452392578,0.92319655418396,7.259330749511719,0.002271572593599558,-0.08216137400000001,0.011911871999999999,153.25961,3.6190894,-47.071903000000006,SIT
917242300000.0,2.106228828430176,-6.2369561195373535,0.9339507222175598,7.267681121826172,0.0012552599655464292,-0.057726767000000005,0.018020526000000002,153.24696,3.5965557,-47.011759999999995,SIT
917247300000.0,2.1112260818481445,-6.230016708374023,0.9449179172515869,7.274538516998291,-0.0005858673248440027,-0.047036625,0.021685716,153.2359,3.5811648000000003,-46.948795000000004,SIT
917252300000.0,2.116220235824585,-6.223195552825928,0.9553790092468262,7.280186176300049,-0.002377707976847887,-0.06841691,0.024740042,153.22005,3.559244,-46.887886,SIT
917257260000.0,2.1212189197540283,-6.216995716094971,0.9639957547187805,7.285018444061279,-0.004415880888700485,-0.052839845,0.025350908,153.20627,3.5418265,-46.841640000000005,SIT
917262240000.0,2.1262168884277344,-6.21122407913208,0.9706159234046936,7.289187908172607,-0.006638426333665848,-0.04428773,0.026267206,153.18939,3.5216012,-46.79112,SIT
917267300000.0,2.1312172412872314,-6.2055487632751465,0.9747744798660278,7.292923927307129,-0.008514643646776676,-0.05100725,0.029321532999999997,153.17218,3.5006095999999998,-46.741703,SIT
917272300000.0,2.1362648010253906,-6.199888229370117,0.976240873336792,7.296270370483398,-0.01038853544741869,-0.05589417,0.02076942,153.16565,3.4888272000000002,-46.697303999999995,SIT
917277400000.0,2.1412649154663086,-6.193916320800781,0.9757893085479736,7.29984712600708,-0.012585774064064026,-0.058948494000000004,0.028405233999999998,153.15155,3.4737473,-46.65289,SIT
917282360000.0,2.1462607383728027,-6.187536239624023,0.9731831550598145,7.303717613220215,-0.014714747667312622,-0.06627888,0.03390302,153.15755,3.4716913999999996,-46.606421999999995,SIT
917287340000.0,2.151256799697876,-6.181771755218506,0.9692929983139038,7.308084011077881,-0.016339605674147606,-0.07086037,0.033292156,153.16324,3.4693775000000002,-46.560818,SIT
917292300000.0,2.1562492847442627,-6.176806926727295,0.9643794894218445,7.3129563331604,-0.017682543024420738,-0.07971791,0.032375857,153.16678000000002,3.4670273999999996,-46.51298,SIT
917297300000.0,2.1612446308135986,-6.172821044921875,0.9578428268432617,7.317946434020996,-0.019637558609247208,-0.092240654,0.030848695,153.185,3.4754303,-46.459053000000004,SIT
917302300000.0,2.1662380695343018,-6.169813632965088,0.9496107697486877,7.322926044464111,-0.021407000720500946,-0.099265605,0.030848695,153.2031,3.4801792999999996,-46.405224,SIT
917307260000.0,2.1712348461151123,-6.167633056640625,0.9405702352523804,7.327796459197998,-0.02269148826599121,-0.10048734,0.0290161,153.22949,3.4915394999999996,-46.349213,SIT
917312240000.0,2.1762306690216064,-6.16619348526001,0.9310119152069092,7.332531929016113,-0.024640001356601715,-0.10598512,0.026572637000000003,153.25575,3.5066763999999995,-46.291092,SIT
917317300000.0,2.1812283992767334,-6.165461540222168,0.9209533929824829,7.337141513824463,-0.0256056971848011,-0.1133155,0.021685716,153.29335,3.5223184,-46.233596999999996,SIT
917322300000.0,2.1862244606018066,-6.16539192199707,0.9104337096214294,7.341629981994629,-0.026861751452088356,-0.10720685,0.022602014,153.32953999999998,3.5440202000000003,-46.17951,SIT
917327250000.0,2.1912214756011963,-6.166139602661133,0.899009108543396,7.345004081726074,-0.027904370799660683,-0.10659598599999999,0.026267206,153.36278000000001,3.562057,-46.122547,SIT
917332300000.0,2.1962225437164307,-6.167744159698486,0.8865278959274292,7.346917629241943,-0.02854960225522518,-0.09010262,0.021991148999999998,153.39943,3.5816163999999997,-46.072716,SIT
917337300000.0,2.2012221813201904,-6.170142650604248,0.8730785846710205,7.347472667694092,-0.02937205322086811,-0.081855945,0.022602014,153.44089,3.6069424,-46.02378,SIT
917342260000.0,2.2062203884124756,-6.17329216003418,0.858713686466217,7.346742630004883,-0.029841404408216476,-0.06872234,0.02107485,153.48526,3.6297991,-45.981594,SIT
917347300000.0,2.211221218109131,-6.176382541656494,0.8440784215927124,7.344964027404785,-0.030725231394171715,-0.05467244,0.027794369,153.52884,3.6530769999999997,-45.943413,SIT
917352300000.0,2.216221332550049,-6.179060459136963,0.829480767250061,7.34229040145874,-0.031741008162498474,-0.038789943,0.03359759,153.57341,3.6742013,-45.910046,SIT
917357260000.0,2.2212209701538086,-6.181032180786133,0.8152300715446472,7.338607311248779,-0.0320190005004406,-0.032986722999999996,0.029321532999999997,153.62598,3.703204,-45.887806,SIT
917362300000.0,2.2262253761291504,-6.1821370124816895,0.8014849424362183,7.333850860595703,-0.03185896947979927,-0.021380282999999996,0.029321532999999997,153.67435,3.730949,-45.872196,SIT
917367300000.0,2.23122501373291,-6.182447910308838,0.7882272005081177,7.328122138977051,-0.03209812194108963,0.0036651915999999997,0.03023783,153.73135,3.7634091,-45.86535,SIT
917372300000.0,2.2362236976623535,-6.1819963455200195,0.7754274606704712,7.321455955505371,-0.0315757691860199,0.009162978,0.025350908,153.7895,3.7905202000000005,-45.85605,SIT
917377300000.0,2.2412233352661133,-6.181075572967529,0.7630476951599121,7.313981056213379,-0.03111381083726883,0.015577064,0.036651913,153.84063999999998,3.8177282999999997,-45.854420000000005,SIT
917382300000.0,2.2462244033813477,-6.179931163787842,0.7510550618171692,7.305813789367676,-0.030969463288784027,0.030848695,0.033292156,153.89926,3.8463782999999996,-45.856087,SIT
917387300000.0,2.2512240409851074,-6.178673267364502,0.7397766709327698,7.297966003417969,-0.030653757974505424,0.04276056599999999,0.03390302,153.9475,3.8698125,-45.859783,SIT
917392300000.0,2.2562239170074463,-6.177355766296387,0.7293522953987122,7.2909159660339355,-0.03019210323691368,0.06017022599999999,0.03023783,153.99878,3.8953415999999996,-45.868854999999996,SIT
917397400000.0,2.2612552642822266,-6.175967216491699,0.71976637840271,7.284666061401367,-0.029510891065001488,0.08155051,0.026572637000000003,154.048,3.920532,-45.883854,SIT
917402350000.0,2.2662534713745117,-6.174540996551514,0.7109141945838928,7.279083728790283,-0.028849706053733826,0.09193522,0.021685716,154.09851,3.9463267,-45.899982,SIT
917407330000.0,2.2712504863739014,-6.173779010772705,0.7027882933616638,7.273783206939697,-0.027914486825466156,0.09315695,0.025350908,154.14023,3.9666050000000004,-45.917175,SIT
917412300000.0,2.276247978210449,-6.174088001251221,0.6953529715538025,7.268507480621338,-0.027191882953047752,0.084910266,0.011301007,154.19029,3.9926453,-45.93332,SIT
917417300000.0,2.281245708465576,-6.175398826599121,0.6887292861938477,7.263740539550781,-0.02619851753115654,0.09407325,0.01985312,154.22319,4.0088862999999995,-45.951324,SIT
917422300000.0,2.2862441539764404,-6.177652835845947,0.6829651594161987,7.259734153747559,-0.025160428136587143,0.08827003,0.0125227375,154.26654,4.0321074,-45.96137,SIT
917427300000.0,2.2912423610687256,-6.18044376373291,0.6786714196205139,7.2560954093933105,-0.023917224258184433,0.09162979,0.004886922,154.30284,4.0500975,-45.980106,SIT
917432400000.0,2.2962491512298584,-6.183539867401123,0.6762278079986572,7.252585411071777,-0.02274027280509472,0.07941248,-0.00030543262000000003,154.33948,4.069197,-45.992059999999995,SIT
917437350000.0,2.3012475967407227,-6.186898231506348,0.6754394769668579,7.249201774597168,-0.02185392752289772,0.08521569999999999,0.0012217305,154.36954,4.087260700000001,-46.010994000000004,SIT
917442300000.0,2.3062448501586914,-6.190515518188477,0.6762582063674927,7.245935916900635,-0.020428834483027458,0.07880162,0.0012217305,154.385950440882,4.09524230947896,-46.015115564529104,SIT
917447300000.0,2.3112423419952393,-6.194380760192871,0.678605854511261,7.242781162261963,-0.01880297251045704,0.06872234,-0.004276057,154.40243999999998,4.103262399999999,-46.019257,SIT
917452300000.0,2.316241502761841,-6.198482513427734,0.6824091076850891,7.239731311798096,-0.01711726188659668,0.07360926,-0.005497787,154.43033,4.1176634,-46.033367,SIT
917457300000.0,2.321239948272705,-6.2028045654296875,0.6875771880149841,7.236781120300293,-0.015423722565174103,0.07391469,-0.007330383,154.45924,4.129951999999999,-46.040966,SIT
917462250000.0,2.3262381553649902,-6.207335472106934,0.6940395832061768,7.2339253425598145,-0.01417853869497776,0.07727446,-0.006414085,154.48727,4.1427402,-46.050503000000006,SIT
917467300000.0,2.3312668800354004,-6.212306976318359,0.7027905583381653,7.229805946350098,-0.012592780403792858,0.09162979,-0.00030543262000000003,154.51073,4.1479087,-46.061436,SIT
917472300000.0,2.3362643718719482,-6.217680931091309,0.713745653629303,7.223903179168701,-0.011107808910310268,0.08979719,-0.0012217305,154.5356,4.1569705,-46.068207,SIT
917477300000.0,2.341261863708496,-6.223528861999512,0.727992832660675,7.216989517211914,-0.009881026111543179,0.092240654,0.0012217305,154.52069,4.1397129999999995,-46.089874,SIT
917482300000.0,2.3462610244750977,-6.22983980178833,0.7463863492012024,7.210186004638672,-0.008556848391890526,0.11026118,0.0030543262,154.50703000000001,4.1218667,-46.114925,SIT
917487300000.0,2.3512556552886963,-6.236094951629639,0.7646733522415161,7.204437255859375,-0.0074822911992669106,0.112399206,-0.009162978,154.47688,4.0972953,-46.145878,SIT
917492300000.0,2.3562538623809814,-6.24176025390625,0.7783989906311035,7.200788497924805,-0.006074343342334032,0.11484267,-0.016187929,154.44493,4.0691333,-46.181540000000005,SIT
917497250000.0,2.361250162124634,-6.246479511260986,0.7903310060501099,7.198457717895508,-0.005001866724342108,0.11362094,-0.014660766,154.39012,4.0294360000000005,-46.222713,SIT
917502300000.0,2.366248607635498,-6.249820709228516,0.803505003452301,7.196626663208008,-0.00421442836523056,0.10842858,-0.015577064,154.33963,3.9909315000000003,-46.26235,SIT
917507300000.0,2.3712427616119385,-6.2518839836120605,0.8178096413612366,7.1952595710754395,-0.0034038452431559563,0.111177474,-0.0009162978999999999,154.30487,3.9617648,-46.295414,SIT
917512260000.0,2.376239776611328,-6.2527079582214355,0.8332342505455017,7.194342136383057,-0.002782956464216113,0.10781772,0.00061086525,154.2756,3.9375331,-46.324165,SIT
917517240000.0,2.3812332153320312,-6.2531819343566895,0.8497306108474731,7.194394111633301,-0.002390484791249037,0.089186326,0.005497787,154.23946,3.9144115,-46.35051,SIT
917522300000.0,2.3862318992614746,-6.2549262046813965,0.8674206733703613,7.196516036987305,-0.001970096956938505,0.06719518,-0.00030543262000000003,154.20699,3.8931434,-46.374016,SIT
917527270000.0,2.3912274837493896,-6.257916450500488,0.8854162096977234,7.199942111968994,-0.001962769078090787,0.04550946,-0.005497787,154.15837,3.8609107000000003,-46.385845,SIT
917532300000.0,2.396228313446045,-6.262294769287109,0.9021949172019958,7.20344352722168,-0.0020697731524705887,0.030848695,-0.01282817,154.11303999999998,3.8297322,-46.392967,SIT
917537360000.0,2.4012436866760254,-6.267914295196533,0.9170725345611572,7.206180572509766,-0.0022199067752808332,0.020158553,-0.0061086523,154.05483999999998,3.7914025999999996,-46.39448,SIT
917542340000.0,2.4062421321868896,-6.274356365203857,0.9291377663612366,7.206976890563965,-0.0018737189238891006,0.020158553,-0.012217305,154.033218416821,3.7769965669140397,-46.389952436611004,SIT
917547300000.0,2.411241054534912,-6.281517028808594,0.938458263874054,7.206359386444092,-0.0021807970479130745,-0.010995574,-0.025961772999999997,154.01016,3.7616332000000003,-46.385124,SIT
917552300000.0,2.4162397384643555,-6.2887983322143555,0.94539874792099,7.206653594970703,-0.0024389554746448994,-0.009162978,-0.008857545999999999,153.95259,3.7272977999999997,-46.388878000000005,SIT
917557300000.0,2.4212372303009033,-6.296191215515137,0.9500947594642639,7.2078070640563965,-0.0028461292386054993,-0.009162978,-0.004581489,153.9135,3.7088773,-46.39045,SIT
917562300000.0,2.426236152648926,-6.303694725036621,0.9526481628417969,7.209782123565674,-0.00292233400978148,-0.020463986,-0.00580322,153.86981,3.6865224999999997,-46.38965,SIT
917567300000.0,2.4312334060668945,-6.311203956604004,0.9532384872436523,7.212385177612305,-0.0037920677568763494,-0.033292156,0.004276057,153.82811,3.6681955000000004,-46.391144,SIT
917572300000.0,2.436232328414917,-6.318057537078857,0.9522645473480225,7.21459436416626,-0.004761947318911552,-0.044898596,0.0070249503,153.79004,3.6484165,-46.389553,SIT
917577300000.0,2.441230058670044,-6.324265956878662,0.9496915936470032,7.216405868530273,-0.005387146957218647,-0.046731193,0.010995574,153.76881,3.6416394999999997,-46.38303,SIT
917582300000.0,2.446229934692383,-6.329649448394775,0.9445385336875916,7.217627048492432,-0.006499902810901403,-0.06780604,0.011911871999999999,153.74684,3.6385422,-46.36799,SIT
917587360000.0,2.4512381553649902,-6.334294319152832,0.9369419813156128,7.218218803405762,-0.007325474172830582,-0.0720821,0.005192355,153.73538,3.638005,-46.35651,SIT
917592340000.0,2.4562368392944336,-6.338940620422363,0.928008496761322,7.217535018920898,-0.007830333895981312,-0.07147124,0.015271631,153.71623,3.6354651,-46.341312,SIT
917597400000.0,2.461240768432617,-6.343497276306152,0.9178342223167419,7.215656280517578,-0.00834084302186966,-0.06627888,0.016187929,153.72043,3.6449802000000004,-46.324529999999996,SIT
917602400000.0,2.4662396907806396,-6.346724510192871,0.9079847931861877,7.213660717010498,-0.008872977457940578,-0.07849618,0.020463986,153.71833999999998,3.6504369,-46.303672999999996,SIT
917607350000.0,2.4712347984313965,-6.348689556121826,0.898442268371582,7.211553573608398,-0.009458139538764954,-0.073303826,0.01863139,153.72795,3.6648135,-46.293724,SIT
917612300000.0,2.4762332439422607,-6.350643157958984,0.8883912563323975,7.210459232330322,-0.010207445360720158,-0.08460484,0.018020526000000002,153.73389,3.6781626000000003,-46.276012,SIT
917617300000.0,2.4812276363372803,-6.352996349334717,0.877617359161377,7.210681915283203,-0.010770321823656559,-0.09437868,0.017715093,153.7404,3.6903697999999996,-46.260414000000004,SIT
917622300000.0,2.486227035522461,-6.355453968048096,0.8661219477653503,7.210938930511475,-0.01144969742745161,-0.101098195,0.015577064,153.74733999999998,3.7081672999999995,-46.239635,SIT
917627300000.0,2.491222620010376,-6.357905864715576,0.8539864420890808,7.210806369781494,-0.012141698971390724,-0.10323623,0.016187929,153.7528,3.7239854,-46.217896,SIT
917632300000.0,2.496223211288452,-6.360356330871582,0.8412041068077087,7.210292816162109,-0.012878209352493286,-0.10781772,0.010690141499999998,153.76895,3.7463135999999997,-46.190975,SIT
917637300000.0,2.501218318939209,-6.362800598144531,0.8278581500053406,7.209433078765869,-0.01398240216076374,-0.11759156,0.0070249503,153.78339,3.7688483999999995,-46.162563,SIT
917642300000.0,2.5062179565429688,-6.364587306976318,0.8136528134346008,7.2084197998046875,-0.01493008527904749,-0.11881329,0.0036651915999999997,153.80623,3.7901356,-46.137085,SIT
917647260000.0,2.511216402053833,-6.365520477294922,0.7985617518424988,7.207334041595459,-0.015729600563645363,-0.1160644,0.006414085,153.8273,3.8117135,-46.11056,SIT
917652300000.0,2.5162155628204346,-6.3656415939331055,0.7826231718063354,7.206179141998291,-0.016551615670323372,-0.12003502,0.009773844,153.85997,3.8443093,-46.084194000000004,SIT
917657300000.0,2.521214008331299,-6.364996910095215,0.7658885717391968,7.204959392547607,-0.017183328047394753,-0.11759156,0.008552114,153.89293,3.8751385000000003,-46.060814,SIT
917662300000.0,2.526214122772217,-6.363805294036865,0.7493894100189209,7.203587055206299,-0.01820458471775055,-0.11453723,-0.0036651915999999997,153.93016,3.9075029999999997,-46.036736,SIT
917667250000.0,2.5312130451202393,-6.362174987792969,0.7335184812545776,7.2020368576049805,-0.018601709976792336,-0.10751228,-0.004581489,153.96277,3.932691,-46.015163,SIT
917672300000.0,2.536212682723999,-6.3601250648498535,0.7178904414176941,7.200315952301025,-0.018456796184182167,-0.10262536,-0.00061086525,154.01765,3.9727645,-45.988655,SIT
917677340000.0,2.5412142276763916,-6.357674598693848,0.7023307681083679,7.198431968688965,-0.018466100096702576,-0.09773844,-0.0021380284,154.07422,4.013349,-45.964294,SIT
917682300000.0,2.546215534210205,-6.355368137359619,0.6877075433731079,7.197092056274414,-0.018328413367271423,-0.09285152,0.00030543262000000003,154.12848,4.049245,-45.940964,SIT
917687400000.0,2.551222801208496,-6.353447437286377,0.6743896007537842,7.196612358093262,-0.017872516065835953,-0.08277224,0.010995574,154.17928,4.082603,-45.920994,SIT
917692350000.0,2.5562222003936768,-6.351701736450195,0.6628754734992981,7.196548938751221,-0.01744091510772705,-0.064751714,0.0009162978999999999,154.209999781708,4.101465201475491,-45.9128290829712,SIT
917697300000.0,2.5612235069274902,-6.350049018859863,0.6533593535423279,7.196740627288818,-0.016674213111400604,-0.06078109,0.0009162978999999999,154.2418,4.1209907999999995,-45.904377000000004,SIT
917702300000.0,2.566222906112671,-6.348484516143799,0.6457166075706482,7.197170257568359,-0.015753043815493584,-0.05100725,0.01160644,154.29025,4.151312,-45.888268,SIT
917707300000.0,2.571221351623535,-6.34700345993042,0.6398504972457886,7.197825908660889,-0.015255345031619072,-0.04184427,0.014966198,154.34364,4.183209,-45.87657,SIT
917712300000.0,2.5762205123901367,-6.345150470733643,0.6360448002815247,7.198395729064941,-0.014540009200572968,-0.032986722999999996,0.008246681,154.39613,4.211106299999999,-45.867565,SIT
917717300000.0,2.5812206268310547,-6.342650413513184,0.6344307065010071,7.198686599731445,-0.013927905820310116,-0.024740042,0.007330383,154.44418000000002,4.238821,-45.861206,SIT
917722370000.0,2.5862534046173096,-6.33944034576416,0.6341335773468018,7.198002338409424,-0.01323448121547699,-0.01985312,0.008246681,154.47958,4.255096,-45.85617,SIT
917727350000.0,2.591252088546753,-6.335737228393555,0.6342951059341431,7.196247577667236,-0.01217107754200697,-0.011911871999999999,0.021685716,154.50996,4.267578,-45.854576,SIT
917732300000.0,2.5962510108947754,-6.331209659576416,0.6352176666259766,7.194122314453125,-0.01075741183012724,-0.007941248,0.01863139,154.52568,4.2740225999999994,-45.84946,SIT
917737300000.0,2.6012494564056396,-6.3256683349609375,0.6370950937271118,7.192361354827881,-0.009581857360899448,-0.009162978,0.011301007,154.53753999999998,4.279,-45.845383,SIT
917742300000.0,2.6062467098236084,-6.319290637969971,0.6400018930435181,7.191194534301758,-0.008745666593313217,-0.0015271631,0.015882496,154.53968999999998,4.2767005,-45.845467,SIT
917747300000.0,2.6112430095672607,-6.312244892120361,0.6440137624740601,7.190845489501953,-0.007449441123753786,-0.007330383,0.021685716,154.54361,4.273334999999999,-45.841183,SIT
917752300000.0,2.616241455078125,-6.30491828918457,0.6487236618995667,7.191644668579102,-0.006645506247878075,-0.006414085,0.01985312,154.54715,4.271971,-45.837115999999995,SIT
917757360000.0,2.621246337890625,-6.297722816467285,0.6537008881568909,7.19395637512207,-0.005868137814104557,-0.0015271631,0.014049901000000002,154.54994,4.2668643,-45.83267,SIT
917762340000.0,2.6262431144714355,-6.2906670570373535,0.6593565344810486,7.196582317352295,-0.004774095490574837,-0.010690141499999998,0.019242255,154.54265,4.261961,-45.821415,SIT
917767300000.0,2.6312410831451416,-6.2837371826171875,0.6662101745605469,7.1983184814453125,-0.003949963487684727,-0.004886922,0.014355333500000001,154.54276000000002,4.262411,-45.815495,SIT
917772300000.0,2.636239767074585,-6.276819229125977,0.6743689179420471,7.199575424194336,-0.003299970645457506,-0.013744468000000001,0.013744468000000001,154.53877,4.2579165,-45.798629999999996,SIT
917777300000.0,2.6412386894226074,-6.2697601318359375,0.6840052604675293,7.200892925262451,-0.0024079028517007828,-0.0036651915999999997,0.01985312,154.53513999999998,4.252326999999999,-45.78909,SIT
917782270000.0,2.646235466003418,-6.262571811676025,0.695023238658905,7.202266216278076,-0.0016447624657303095,0.0061086523,0.017104227,154.52761999999998,4.244007,-45.779236,SIT
917787250000.0,2.651233196258545,-6.255255222320557,0.7073705792427063,7.2036943435668945,-0.0011013427283614874,0.008552114,0.018325957,154.51633,4.233169,-45.77066,SIT
917792300000.0,2.6562612056732178,-6.24828577041626,0.7207220196723938,7.205905437469482,-0.00047294190153479576,0.009468411,0.014966198,154.50858,4.2232447,-45.76432,SIT
917797300000.0,2.6612582206726074,-6.242137432098389,0.7342615723609924,7.209348201751709,-0.00030124137992970645,0.003970624,0.020463986,154.4967,4.2140846,-45.757256,SIT
917802250000.0,2.666250705718994,-6.236441612243652,0.7481616139411926,7.213444709777832,0.0004310159420128912,0.01038471,0.018936822,154.47488,4.1904774,-45.752876,SIT
917807240000.0,2.671246290206909,-6.230544090270996,0.7625850439071655,7.21707010269165,0.0010265852324664593,0.005497787,0.013744468000000001,154.45207,4.171021,-45.74395,SIT
917812200000.0,2.6762399673461914,-6.224630355834961,0.776898205280304,7.2206711769104,0.0016229696338996291,0.0018325957999999999,0.016187929,154.42458,4.1441064,-45.735294,SIT
917817260000.0,2.6812384128570557,-6.219031810760498,0.7899384498596191,7.225100517272949,0.001813192036934197,-0.0015271631,0.011301007,154.40247,4.1221333,-45.72511,SIT
917822240000.0,2.686234474182129,-6.21373176574707,0.8017861247062683,7.230288982391357,0.002253714483231306,0.0030543262,0.018020526000000002,154.37018,4.0896206,-45.716609999999996,SIT
917827300000.0,2.6912333965301514,-6.208714008331299,0.8124958872795105,7.2362141609191895,0.0021010530181229115,-0.0036651915999999997,0.010690141499999998,154.34558,4.0660663,-45.703564,SIT
917832300000.0,2.6962287425994873,-6.203963756561279,0.8221400380134583,7.2428131103515625,0.001875140587799251,-0.00580322,0.007941248,154.32166999999998,4.036564,-45.694263,SIT
917837250000.0,2.7012267112731934,-6.199466705322266,0.8307636976242065,7.250073432922363,0.001937982626259327,-0.010079277,-0.002443461,154.304,4.0114765,-45.682167,SIT
917842300000.0,2.7062246799468994,-6.195149898529053,0.8383107781410217,7.257527828216553,0.001492877840064466,-0.01863139,-0.003970624,154.28406999999999,3.988883,-45.668602,SIT
917847300000.0,2.7112209796905518,-6.190820693969727,0.844485342502594,7.263857364654541,0.00131565413903445,-0.016798794,0.0012217305,154.26631,3.9636892999999995,-45.656859999999995,SIT
917852260000.0,2.7162177562713623,-6.186476707458496,0.8493866920471191,7.26933479309082,0.0007246641325764358,-0.019547688,-0.0009162978999999999,154.26535,3.9511513999999996,-45.63193,SIT
917857240000.0,2.7212154865264893,-6.182114124298096,0.8532755970954895,7.275271415710449,0.00014889224257785827,-0.033292156,-0.004276057,154.26273,3.935714,-45.60491,SIT
917862300000.0,2.72621488571167,-6.177640914916992,0.8561978936195374,7.281651020050049,-0.0002008669835049659,-0.035430185,-0.0009162978999999999,154.25867,3.9262992999999997,-45.581317999999996,SIT
917867270000.0,2.7312135696411133,-6.172336578369141,0.8581623435020447,7.288492679595947,0.00010283006849931553,-0.028099801,0.0030543262,154.25575,3.9159665,-45.556946,SIT
917872250000.0,2.7362117767333984,-6.166437149047852,0.8592290282249451,7.295583248138428,-0.0006839628331363201,-0.03848451,0.0070249503,154.25666999999999,3.9137112999999997,-45.524204,SIT
917877200000.0,2.741208791732788,-6.160726070404053,0.8594839572906494,7.302170276641846,-0.0012823292054235935,-0.050396382999999996,0.00061086525,154.2606,3.9059672,-45.493446,SIT
917882300000.0,2.7462072372436523,-6.1551923751831055,0.858962893486023,7.308279037475586,-0.0016534787137061357,-0.062002823,0.0015271631,154.27444,3.9068587,-45.45789,SIT
917887300000.0,2.7512078285217285,-6.1498260498046875,0.8577046990394592,7.313934803009033,-0.0024606145452708006,-0.064751714,0.00061086525,154.29146,3.9112365,-45.421890000000005,SIT
917892300000.0,2.7562057971954346,-6.144808292388916,0.8558457493782043,7.319143295288086,-0.0034688960295170546,-0.06841691,0.003970624,154.3078,3.9115028,-45.383244,SIT
917897300000.0,2.7612035274505615,-6.141067981719971,0.8538334369659424,7.323821544647217,-0.004195560701191425,-0.06566802,-0.003970624,154.32921000000002,3.914129,-45.34601,SIT
917902260000.0,2.7662017345428467,-6.138355255126953,0.8516757488250732,7.327779769897461,-0.0048346673138439655,-0.076052725,-0.0015271631,154.3522,3.9209015,-45.304157000000004,SIT
917907240000.0,2.77120041847229,-6.135536193847656,0.8493822813034058,7.329771518707275,-0.005472268909215927,-0.08093964,0.0030543262,154.37766000000002,3.9280839999999997,-45.26517,SIT
917912200000.0,2.776198625564575,-6.132752895355225,0.846824586391449,7.3300676345825195,-0.006629320792853832,-0.08063421400000001,0.009162978,154.39793,3.933903,-45.227932,SIT
917917300000.0,2.781198024749756,-6.131145000457764,0.8428632020950317,7.3300909996032715,-0.007366608362644911,-0.08307768,-0.0061086523,154.42462,3.9396985,-45.188759999999995,SIT
917922250000.0,2.786196231842041,-6.130602836608887,0.8376305103302002,7.3299360275268555,-0.008211099542677402,-0.07513642,-0.00030543262000000003,154.43922,3.9444106,-45.158146,SIT
917927200000.0,2.7911951541900635,-6.1307692527771,0.8315433263778687,7.33024263381958,-0.00940124224871397,-0.08368854,-0.0027488936,154.46239,3.9532678,-45.12208,SIT
917932300000.0,2.7962002754211426,-6.131619930267334,0.8246253132820129,7.330995082855225,-0.01007219310849905,-0.08032878,0.00580322,154.4793,3.9597974000000002,-45.094006,SIT
917937260000.0,2.8011996746063232,-6.132583141326904,0.8174939751625061,7.3313212394714355,-0.011032934300601482,-0.08155051,0.0070249503,154.49934,3.9723727999999996,-45.062492,SIT
917942300000.0,2.8062098026275635,-6.133584499359131,0.8102057576179504,7.3310933113098145,-0.012121525593101978,-0.06994407,0.010995574,154.51527,3.9800909,-45.03646,SIT
917947300000.0,2.8112077713012695,-6.13461446762085,0.802812397480011,7.330383777618408,-0.01307071652263403,-0.07452556,0.00580322,154.5345,3.9920957,-45.004353,SIT
917952270000.0,2.8162052631378174,-6.13567590713501,0.7952977418899536,7.329196929931641,-0.014343701303005219,-0.073303826,0.0061086523,154.55033999999998,4.004204,-44.977978,SIT
917957250000.0,2.8212034702301025,-6.1367669105529785,0.7876661419868469,7.3275556564331055,-0.01501169241964817,-0.06963864,0.008857545999999999,154.56693,4.012719000000001,-44.951443,SIT
917962200000.0,2.826201915740967,-6.137885570526123,0.7799246907234192,7.3254852294921875,-0.015758026391267776,-0.064446285,0.007330383,154.58493,4.0255117,-44.926086,SIT
917967300000.0,2.8312010765075684,-6.139899730682373,0.7723183631896973,7.3241963386535645,-0.01661108247935772,-0.06780604,0.007330383,154.60078000000001,4.0351896,-44.89992,SIT
917972250000.0,2.8361976146698,-6.142821788787842,0.7648636102676392,7.323737144470215,-0.017337288707494736,-0.06078109,0.0076358155,154.61746000000002,4.0443335,-44.87857,SIT
917977240000.0,2.841195583343506,-6.1457839012146,0.7582575082778931,7.323243141174316,-0.01838289573788643,-0.06291912,0.01282817,154.62903,4.061748000000001,-44.85737,SIT
917982300000.0,2.846198081970215,-6.148716926574707,0.7525191903114319,7.322646617889404,-0.01906351000070572,-0.054367005999999996,0.0070249503,154.64525,4.0778989999999995,-44.84124,SIT
917987300000.0,2.851201295852661,-6.151620864868164,0.7475953102111816,7.321954727172852,-0.019447414204478264,-0.045814894,0.006414085,154.65196,4.097181299999999,-44.825559999999996,SIT
917992300000.0,2.856196641921997,-6.15449333190918,0.7434264421463013,7.321176528930664,-0.01963180862367153,-0.05009095,0.010995574,154.65839,4.115,-44.80895,SIT
917997300000.0,2.861194610595703,-6.156775951385498,0.7390831112861633,7.319976329803467,-0.019855208694934845,-0.041233405,0.01282817,154.66576,4.1333345999999995,-44.798603,SIT
918002300000.0,2.8661909103393555,-6.158441066741943,0.7344757914543152,7.318344593048096,-0.02052246779203415,-0.04337143,0.015271631,154.67009,4.1508384,-44.784325,SIT
918007250000.0,2.871190309524536,-6.159509181976318,0.7298222780227661,7.316941738128662,-0.020861174911260605,-0.03970624,0.014660766,154.66258,4.156122,-44.773415,SIT
918012200000.0,2.8761870861053467,-6.160021781921387,0.725167453289032,7.315862655639648,-0.020530737936496735,-0.032375857,0.014049901000000002,154.65413,4.160887000000001,-44.7633,SIT
918017300000.0,2.8811872005462646,-6.1606245040893555,0.7214384078979492,7.314266681671143,-0.020413238555192947,-0.022907447,0.014660766,154.6483,4.169152700000001,-44.75472,SIT
918022260000.0,2.886183500289917,-6.161438465118408,0.7187599539756775,7.312025547027588,-0.020383387804031372,-0.0290161,0.008552114,154.645,4.175663500000001,-44.743755,SIT
918027240000.0,2.8911821842193604,-6.162458419799805,0.7170955538749695,7.309156894683838,-0.019801698625087738,-0.021991148999999998,0.009773844,154.64321999999999,4.176989,-44.73681,SIT
918032300000.0,2.8961851596832275,-6.163674354553223,0.716397225856781,7.305689334869385,-0.01908823661506176,-0.018020526000000002,0.017104227,154.64093,4.1798224,-44.72744,SIT
918037270000.0,2.9011857509613037,-6.164357662200928,0.7163458466529846,7.301113128662109,-0.01851046085357666,-0.009468411,0.009773844,154.64493000000002,4.1822004,-44.720776,SIT
918042250000.0,2.9061851501464844,-6.164239883422852,0.7168070077896118,7.295251369476318,-0.017719315364956856,-0.011911871999999999,0.019242255,154.6389,4.177681,-44.712917,SIT
918047300000.0,2.911221981048584,-6.163503170013428,0.7171958684921265,7.289646148681641,-0.016937777400016785,0.005497787,0.019242255,154.62175,4.1679379999999995,-44.71715,SIT
918052300000.0,2.9162216186523438,-6.162397384643555,0.717359721660614,7.284748077392578,-0.01616533473134041,0.004886922,0.014660766,154.60207,4.1564245,-44.71573,SIT
918057300000.0,2.9212214946746826,-6.1612067222595215,0.7178303599357605,7.280677795410156,-0.015564276836812496,0.005192355,0.015271631,154.57764,4.1427364,-44.721863,SIT
918062300000.0,2.9262187480926514,-6.160207271575928,0.7190425395965576,7.277462959289551,-0.015597512945532799,0.01740966,0.015271631,154.55608,4.132031,-44.730995,SIT
918067300000.0,2.93121600151062,-6.159389972686768,0.7209643125534058,7.275064468383789,-0.015156934969127178,0.007941248,0.008246681,154.54106000000002,4.122596,-44.731598,SIT
918072260000.0,2.936213254928589,-6.158745288848877,0.7235578894615173,7.273439407348633,-0.015081660822033882,0.01740966,0.010995574,154.5235,4.116619,-44.741238,SIT
918077240000.0,2.941210985183716,-6.158474922180176,0.7261233925819397,7.272671699523926,-0.014815069735050201,0.01985312,0.008552114,154.51028,4.1093163,-44.745723999999996,SIT
918082300000.0,2.9462127685546875,-6.158718109130859,0.7281780242919922,7.272817611694336,-0.014644073322415352,0.029932396,0.010995574,154.49477,4.102819,-44.755165000000005,SIT
918087300000.0,2.9512102603912354,-6.1594319343566895,0.7297602295875549,7.273802757263184,-0.014433356933295727,0.03023783,0.014660766,154.47146999999998,4.0883675,-44.759487,SIT
918092250000.0,2.9562079906463623,-6.160599708557129,0.7308892011642456,7.2755961418151855,-0.014185038395226002,0.02565634,0.015577064,154.44868,4.074439,-44.765114000000004,SIT
918097200000.0,2.961205244064331,-6.161930561065674,0.7319150567054749,7.277897357940674,-0.01372207049280405,0.035124752999999995,0.011911871999999999,154.42706,4.0600014,-44.774640000000005,SIT
918102300000.0,2.9662041664123535,-6.163058280944824,0.7332820892333984,7.28033971786499,-0.013413994573056698,0.03573562,0.008857545999999999,154.4045,4.0466127,-44.780254,SIT
918107260000.0,2.9712026119232178,-6.163994789123535,0.7349690198898315,7.282914161682129,-0.013154891319572926,0.032070424,0.010995574,154.38647,4.0344644,-44.784782,SIT
918112240000.0,2.9762003421783447,-6.164751052856445,0.7369582653045654,7.2856125831604,-0.012681713327765465,0.035124752999999995,0.0036651915999999997,154.37386999999998,4.024449,-44.790886,SIT
918117300000.0,2.9812371730804443,-6.1655755043029785,0.7393627762794495,7.288627624511719,-0.012689518742263317,0.03390302,0.0061086523,154.36139,4.0189896,-44.797234,SIT
918122270000.0,2.986236095428467,-6.166570663452148,0.7420689463615417,7.291912078857422,-0.012176033109426498,0.03634648,0.015882496,154.34909,4.008918,-44.805275,SIT
918127300000.0,2.99123477935791,-6.167764663696289,0.7452605962753296,7.295147895812988,-0.011315532959997654,0.02687807,0.007941248,154.34011999999998,4.0017309999999995,-44.807303999999995,SIT
918132360000.0,2.9962384700775146,-6.169156074523926,0.7490649223327637,7.297950267791748,-0.010500891134142876,0.018325957,0.0033597588,154.3261,3.9914392999999997,-44.810482,SIT
918137400000.0,3.001241683959961,-6.169812202453613,0.7526448965072632,7.30034875869751,-0.010152875445783138,0.016187929,0.0021380284,154.30937,3.9787597999999997,-44.811153000000004,SIT
918142400000.0,3.0062406063079834,-6.168938636779785,0.7552867531776428,7.302370071411133,-0.009839683771133423,0.019547688,0.0076358155,154.29183999999998,3.9642966,-44.81100000000001,SIT
918147370000.0,3.0112359523773193,-6.167088985443115,0.7572766542434692,7.303913593292236,-0.009657124057412148,0.016798794,0.009162978,154.27153,3.9502455999999997,-44.810295,SIT
918152350000.0,3.0162386894226074,-6.164816379547119,0.7588996291160583,7.304853439331055,-0.009354074485599995,0.007941248,-0.00061086525,154.2537,3.9367235000000003,-44.808605,SIT
918157300000.0,3.0212371349334717,-6.162750244140625,0.7598468065261841,7.305713653564453,-0.008985788561403751,0.007330383,0.0012217305,154.23682,3.923782,-44.804226,SIT
918162300000.0,3.0262343883514404,-6.161515712738037,0.7597813606262207,7.307009220123291,-0.00878362637013197,0.0015271631,0.0033597588,154.22337,3.9132626000000004,-44.795696,SIT
918167300000.0,3.0312304496765137,-6.16071891784668,0.7588211297988892,7.308359622955322,-0.00797369796782732,0.0015271631,-0.0015271631,154.21378,3.901669,-44.788364,SIT
918172300000.0,3.0362296104431152,-6.159700393676758,0.7571190595626831,7.309109210968018,-0.008232406340539455,0.0015271631,-0.0012217305,154.207784313942,3.8990872565697097,-44.7812462134403,SIT
918177250000.0,3.041224479675293,-6.158482551574707,0.75494784116745,7.309813499450684,-0.00855871383100748,-0.017104227,-0.004886922,154.20195,3.896575,-44.77432,SIT
918182300000.0,3.0462276935577393,-6.157069683074951,0.7526324987411499,7.311260223388672,-0.008672303520143032,-0.017104227,-0.005192355,154.19951,3.8910692000000004,-44.767475,SIT
918187340000.0,3.051259994506836,-6.155840873718262,0.7504842877388,7.312692165374756,-0.008649621158838272,-0.023823743999999997,-0.005192355,154.200796479952,3.8918017104976803,-44.7606035190409,SIT
918192300000.0,3.0562572479248047,-6.155116558074951,0.7487799525260925,7.313389301300049,-0.008302600122988224,-0.018325957,-0.0076358155,154.20181000000002,3.8923788,-44.75519,SIT
918197300000.0,3.0612499713897705,-6.154924392700195,0.7475364804267883,7.313309192657471,-0.00841356161981821,-0.014049901000000002,-0.004581489,154.20215,3.8951101,-44.744827,SIT
918202300000.0,3.0662484169006348,-6.155254364013672,0.7467433214187622,7.312465190887451,-0.008176784962415695,-0.018020526000000002,-0.0070249503,154.2065,3.8975925000000005,-44.72867,SIT
918207270000.0,3.0712411403656006,-6.155978679656982,0.7459525465965271,7.311232089996338,-0.007985182106494904,-0.015271631,-0.0012217305,154.2066,3.9006269999999996,-44.7162,SIT
918212250000.0,3.076237916946411,-6.156908988952637,0.7442254424095154,7.310309410095215,-0.007478242740035057,-0.00580322,-0.0036651915999999997,154.21098,3.9029317000000003,-44.70448,SIT
918217300000.0,3.081235647201538,-6.157928466796875,0.7417138814926147,7.309574604034424,-0.007356421556323767,-0.005192355,0.002443461,154.20586,3.9024267,-44.70086,SIT
918222300000.0,3.0862348079681396,-6.158631801605225,0.7388125658035278,7.308617115020752,-0.00689926790073514,-0.0021380284,0.002443461,154.205557926475,3.90119479381949,-44.700705942502296,SIT
918227260000.0,3.0912318229675293,-6.159133434295654,0.7356758117675781,7.3074846267700195,-0.006466477643698454,-0.0012217305,0.00061086525,154.20526,3.8999797999999997,-44.700554,SIT
918232300000.0,3.0962302684783936,-6.159736156463623,0.7327061891555786,7.3062849044799805,-0.006024197209626436,-0.005497787,-0.0015271631,154.2003,3.898211,-44.694912,SIT
918237300000.0,3.1012275218963623,-6.160433292388916,0.7298948168754578,7.305022239685059,-0.00625658081844449,-0.0033597588,-0.0018325957999999999,154.20139,3.8984163,-44.692482,SIT
918242300000.0,3.106227159500122,-6.161221504211426,0.7272332906723022,7.303698539733887,-0.006134755909442902,-0.0018325957999999999,-0.0015271631,154.20273999999998,3.8949300000000004,-44.688614,SIT
918247300000.0,3.111222982406616,-6.161988258361816,0.7248467803001404,7.302405834197998,-0.006393802352249622,-0.008552114,0.0030543262,154.20744,3.8977375,-44.685013,SIT
918252300000.0,3.116222858428955,-6.1623711585998535,0.7231878042221069,7.30143928527832,-0.00650882488116622,-0.010995574,0.00061086525,154.21481,3.8985013999999993,-44.682784999999996,SIT
918257340000.0,3.121232271194458,-6.162383556365967,0.7222297787666321,7.300786972045898,-0.00663399463519454,-0.0067195175,0.0036651915999999997,154.21688999999998,3.898875,-44.682243,SIT
918262300000.0,3.1262314319610596,-6.162070274353027,0.7218923568725586,7.300413608551025,-0.006980376783758402,-0.012217305,0.007941248,154.21877,3.8996242999999997,-44.678129999999996,SIT
918267300000.0,3.131229877471924,-6.161436557769775,0.7221624851226807,7.300312519073486,-0.007243189960718155,-0.011301007,-0.009468411,154.2269,3.9017370000000002,-44.67583,SIT
918272300000.0,3.1362292766571045,-6.160497665405273,0.7230116128921509,7.300471305847168,-0.007361778058111668,-0.017104227,0.0033597588,154.22058,3.8973690000000003,-44.670998,SIT
918277260000.0,3.1412270069122314,-6.159193992614746,0.7243373990058899,7.300872802734375,-0.0075391558930277824,-0.014660766,0.005192355,154.22578000000001,3.8990312000000005,-44.66798,SIT
918282300000.0,3.146230459213257,-6.157196044921875,0.7258471250534058,7.301507472991943,-0.007821022532880306,-0.0033597588,0.0036651915999999997,154.22718999999998,3.898354,-44.666109999999996,SIT
918287350000.0,3.151231288909912,-6.1547980308532715,0.7276402115821838,7.302199363708496,-0.008071590214967728,-0.007941248,0.004581489,154.22115,3.8909317999999997,-44.65667,SIT
918292300000.0,3.1562304496765137,-6.153266429901123,0.730322539806366,7.302115440368652,-0.00852040946483612,-0.016493361,-0.0015271631,154.21883,3.8865612,-44.649128000000005,SIT
918297300000.0,3.1612274646759033,-6.152368068695068,0.7336389422416687,7.301484107971191,-0.008994142524898052,-0.014355333500000001,0.0033597588,154.21663999999998,3.8806105000000004,-44.64247,SIT
918302300000.0,3.166226625442505,-6.149989128112793,0.7352501749992371,7.302414894104004,-0.008856643922626972,-0.0036651915999999997,-0.0009162978999999999,154.2205,3.8760784,-44.635532,SIT
918307340000.0,3.171226978302002,-6.1463623046875,0.7353920936584473,7.304697513580322,-0.008840414695441723,-0.0018325957999999999,-0.0009162978999999999,154.214097752358,3.87068760666265,-44.6344673112583,SIT
918312300000.0,3.1762242317199707,-6.1433939933776855,0.7358752489089966,7.306742191314697,-0.008613444864749908,0.0021380284,0.010995574,154.2078,3.8653847999999997,-44.63342,SIT
918317300000.0,3.1812219619750977,-6.141055107116699,0.7366859316825867,7.308559894561768,-0.008333461359143257,-0.0030543262,0.008246681,154.20266999999998,3.8564915999999996,-44.630646,SIT
918322300000.0,3.186221122741699,-6.139313697814941,0.737808108329773,7.310162544250488,-0.008280004374682903,-0.004276057,0.010079277,154.20893999999998,3.8502538,-44.622414,SIT
918327260000.0,3.1912174224853516,-6.1381306648254395,0.739219605922699,7.311563491821289,-0.007936404086649418,0.01038471,0.015882496,154.21503,3.8416623999999997,-44.617348,SIT
918332300000.0,3.1962220668792725,-6.137237071990967,0.7408443689346313,7.312382221221924,-0.0070739625953137875,0.01282817,0.016493361,154.22186000000002,3.833676,-44.608437,SIT
918337300000.0,3.201218366622925,-6.136513710021973,0.742627739906311,7.312544345855713,-0.006892299745231867,0.0033597588,0.018325957,154.22592,3.8277376000000003,-44.600468,SIT
918342300000.0,3.2062180042266846,-6.135956764221191,0.7445720434188843,7.312057971954346,-0.006557544693350792,0.016493361,0.02076942,154.22614,3.813279,-44.604286,SIT
918347250000.0,3.2112138271331787,-6.135554313659668,0.7466620802879333,7.31097412109375,-0.005866250488907099,0.03176499,0.021991148999999998,154.22583,3.8004915999999995,-44.605965000000005,SIT
918352300000.0,3.216214179992676,-6.1353888511657715,0.7495976686477661,7.310097694396973,-0.0056838407181203365,0.028405233999999998,0.01863139,154.22617,3.7909403,-44.605872999999995,SIT
918357300000.0,3.221214532852173,-6.135483264923096,0.7536330223083496,7.309770584106445,-0.005722757428884506,0.03145956,0.010995574,154.22853,3.779813,-44.611618,SIT
918362260000.0,3.2262141704559326,-6.135151386260986,0.7580407857894897,7.309123516082764,-0.0060363151133060455,0.032986722999999996,0.011301007,154.2253,3.7704449999999996,-44.62145,SIT
918367300000.0,3.231214761734009,-6.1340742111206055,0.7624679803848267,7.307747840881348,-0.00638199457898736,0.03268129,0.017715093,154.22256000000002,3.7613702000000004,-44.631233,SIT
918372300000.0,3.2362141609191895,-6.132628440856934,0.7669098973274231,7.306019306182861,-0.006432536989450455,0.023518313,0.008552114,154.21971000000002,3.7509172,-44.638329999999996,SIT
918377300000.0,3.2412145137786865,-6.131007671356201,0.7713668942451477,7.304131031036377,-0.0068710423074662685,0.02321288,0.012217305,154.20946,3.7394644999999995,-44.648052,SIT
918382300000.0,3.2462170124053955,-6.129299163818359,0.7752890586853027,7.302562236785889,-0.007155959494411945,0.008246681,0.007330383,154.20935,3.7309324999999998,-44.65233,SIT
918387300000.0,3.251217842102051,-6.127557277679443,0.7783790826797485,7.301575660705566,-0.0072954739443957806,0.011301007,0.009468411,154.2055,3.7217817,-44.661625,SIT
