timestamp,rel_time,acc_x,acc_y,acc_z,gyro_x,gyro_y,gyro_z,azimuth,pitch,roll,label
0.0,0.0,0.0,0.0,0.0,0.0,-0.010690141499999998,-0.03390302,81.70909,-49.23386,19.80687,STD
54883980000.0,1.4919241948518902e-05,0.0009688499267213047,0.02972112037241459,0.00039449194446206093,-0.0001772300893208012,-0.020463986,-0.038179077,81.80062,-49.744034,19.661789000000002,STD
163835070000.0,7.444938091794029e-05,0.002890697680413723,0.08870953321456909,0.0012162689818069339,-0.0005654315464198589,-0.025961772999999997,-0.03390302,81.88861999999999,-50.240444000000004,19.518894,STD
325248970000.0,0.00020684662740677595,0.005735848564654589,0.1760854721069336,0.0024908860214054585,-0.0010375449201092124,-0.03573562,-0.033292156,81.97808,-50.736244,19.3767,STD
536790930000.0,0.0004387378285173327,0.009461781941354275,0.2905741333961487,0.004236797336488962,-0.0018104180926457047,-0.04184427,-0.03176499,82.063705,-51.216488,19.236273,STD
795476360000.0,0.0007951665902510285,0.014014574699103832,0.43054941296577454,0.006465969607234001,-0.002870857249945402,-0.05009095,-0.040927973,82.150635,-51.6951,19.095682,STD
1097770530000.0,0.0012979916064068675,0.019330734387040138,0.5940883159637451,0.009182490408420563,-0.00413636164739728,-0.054367005999999996,-0.038179077,82.2325,-52.162890000000004,18.95897,STD
1439700400000.0,0.001965745585039258,0.025339188054203987,0.7790318727493286,0.012383153662085533,-0.005767564754933119,-0.0571159,-0.037873644,82.31461999999999,-52.621338,18.821005,STD
1816973400000.0,0.0028139192145317793,0.03196336701512337,0.9830492734909058,0.01605863682925701,-0.007908097468316555,-0.06017022599999999,-0.03940081,82.39439399999999,-53.070988,18.684465,STD
2225097100000.0,0.0038555713836103678,0.039123281836509705,1.2037020921707153,0.02019510604441166,-0.009869291447103024,-0.06750060599999999,-0.03940081,82.472374,-53.518166,18.549978,STD
2659493000000.0,0.005098708439618349,0.046737659722566605,1.4385074377059937,0.024771608412265778,-0.012137756682932377,-0.062308256,-0.044898596,82.54576,-53.950790000000005,18.412982999999997,STD
3115600800000.0,0.0065490081906318665,0.05472566932439804,1.6849931478500366,0.029764307662844658,-0.014421936124563217,-0.062002823,-0.038789943,82.61716,-54.38072,18.28134,STD
3588970800000.0,0.008209438994526863,0.06300856918096542,1.9407480955123901,0.035146620124578476,-0.01672612875699997,-0.055588737,-0.038179077,82.68412,-54.803677,18.14611,STD
4075341500000.0,0.010104607790708542,0.07150989025831223,2.2034544944763184,0.04092121869325638,-0.019375398755073547,-0.05681047,-0.03634648,82.74863,-55.217052,18.014584,STD
4570700300000.0,0.012183292768895626,0.0801612138748169,2.470958948135376,0.046994466334581375,-0.02221141941845417,-0.05375614,-0.03940081,82.807816,-55.62609499999999,17.881338,STD
5071330300000.0,0.014463509432971478,0.0888960063457489,2.741241216659546,0.053364239633083344,-0.025066521018743515,-0.05955936,-0.03268129,82.86478000000001,-56.025794999999995,17.753366,STD
5573841000000.0,0.016943367198109627,0.09765445441007614,3.012465238571167,0.060004908591508865,-0.028105730190873146,-0.053450707,-0.025045475,82.915054,-56.41725,17.62379,STD
6075184600000.0,0.019613830372691154,0.10638315975666046,3.2829840183258057,0.06688396632671356,-0.030670437961816788,-0.053145275,-0.030848695,82.966324,-56.80743399999999,17.495174,STD
6572663600000.0,0.022465424612164497,0.11503492295742035,3.551340341567993,0.073970727622509,-0.033413439989089966,-0.054367005999999996,-0.023518313,83.01043,-57.182995,17.372206,STD
7063926700000.0,0.025492124259471893,0.12356849014759064,3.816262722015381,0.08124132454395294,-0.03638972342014313,-0.055283304000000005,-0.027183502999999998,83.05381,-57.557430000000004,17.246044,STD
7546956400000.0,0.028680257499217987,0.13194887340068817,4.076663970947266,0.08866429328918457,-0.03904160112142563,-0.06261369,-0.025961772999999997,83.09463000000001,-57.925697,17.125118,STD
8020053000000.0,0.03202052786946297,0.14014649391174316,4.3316264152526855,0.09621599316596985,-0.041264407336711884,-0.071776666,-0.026572637000000003,83.13409399999999,-58.287758,17.004317999999998,STD
8481811700000.0,0.03550524264574051,0.1481369137763977,4.580392837524414,0.10387688875198364,-0.04378893971443176,-0.07452556,-0.021991148999999998,83.17013,-58.640404000000004,16.886442000000002,STD
8931100000000.0,0.03912345692515373,0.15590064227581024,4.822353839874268,0.11162508279085159,-0.04620357230305672,-0.07941248,-0.022907447,83.20721400000001,-58.992188,16.76963,STD
9367032000000.0,0.04286469519138336,0.16342252492904663,5.057033061981201,0.11944098025560379,-0.04833437129855156,-0.089186326,-0.02443461,83.24311999999999,-59.336459999999995,16.655952,STD
9788942000000.0,0.04672015458345413,0.17069122195243835,5.284073829650879,0.127308651804924,-0.05026751384139061,-0.10262536,-0.022907447,83.27835999999999,-59.674366000000006,16.545044,STD
10196359000000.0,0.05068189278244972,0.17769880592823029,5.503223896026611,0.13521461188793182,-0.0519452840089798,-0.10293079,-0.023823743999999997,83.31056,-60.00853000000001,16.433854999999998,STD
10588984000000.0,0.05477503687143326,0.1844387650489807,5.714311122894287,0.14318929612636566,-0.0536503829061985,-0.10323623,-0.02107485,83.34309,-60.335440000000006,16.326795999999998,STD
10966663000000.0,0.058919791132211685,0.19091224670410156,5.91728401184082,0.15112851560115814,-0.055245984345674515,-0.10781772,-0.015882496,83.3741,-60.658030000000004,16.221842000000002,STD
11329372000000.0,0.0631495788693428,0.19711719453334808,6.112115859985352,0.1590752899646759,-0.056478239595890045,-0.11026118,-0.01863139,83.40272,-60.97671999999999,16.116446,STD
11677192000000.0,0.06745375692844391,0.20305556058883667,6.298855304718018,0.1670164316892624,-0.057765837758779526,-0.10934488,-0.018936822,83.42825,-61.286964000000005,16.014324,STD
12010294000000.0,0.07182157039642334,0.20873087644577026,6.477598667144775,0.17493921518325806,-0.05919717252254486,-0.09712757,-0.017715093,83.44906,-61.592983,15.912019,STD
12328924000000.0,0.07625055313110352,0.21414758265018463,6.648479461669922,0.18284213542938232,-0.0604742057621479,-0.10048734,-0.013133603,83.471085,-61.894009999999994,15.813391000000001,STD
12633385000000.0,0.08073710650205612,0.21931123733520508,6.81166410446167,0.19072258472442627,-0.061555445194244385,-0.09743301,-0.011911871999999999,83.485954,-62.189426,15.713288,STD
12924030000000.0,0.08527850359678268,0.22422181069850922,6.96734619140625,0.1985466182231903,-0.06237020343542099,-0.099265605,-0.013744468000000001,83.50062,-62.48021,15.615734,STD
13201247000000.0,0.08985994011163712,0.22880995273590088,7.115764617919922,0.20590168237686157,-0.06281960010528564,-0.089186326,-0.017715093,83.509026,-62.767185,15.517489000000001,STD
13465454000000.0,0.0944841206073761,0.23308417201042175,7.257143020629883,0.21280062198638916,-0.06298144906759262,-0.0888809,-0.0125227375,83.52433,-63.040473999999996,15.414285000000001,STD
13717089000000.0,0.09914547204971313,0.23705658316612244,7.391719341278076,0.2192605435848236,-0.06381222605705261,-0.08796459400000001,-0.016798794,83.53603000000001,-63.308517,15.307835999999998,STD
13956599000000.0,0.10383954644203186,0.24073916673660278,7.51973819732666,0.22529849410057068,-0.06397133320569992,-0.07544186,-0.020158553,83.5416,-63.577904000000004,15.203207999999998,STD
14184443000000.0,0.10856719315052032,0.2441420704126358,7.641445636749268,0.23092949390411377,-0.06450287252664566,-0.07422013,-0.016187929,83.54762,-63.834625,15.102023999999998,STD
14401081000000.0,0.11332444846630096,0.24727733433246613,7.757091999053955,0.23617073893547058,-0.0650082677602768,-0.069027774,-0.019547688,83.5482,-64.093094,14.997804,STD
14606971000000.0,0.1181093230843544,0.2501562237739563,7.866925239562988,0.241038516163826,-0.06544081121683121,-0.063224554,-0.01863139,83.54524,-64.34425,14.897039999999999,STD
14802569000000.0,0.12290897965431213,0.2527940273284912,7.971195220947266,0.2455536425113678,-0.06661790609359741,-0.0693332,-0.02443461,83.54309,-64.58919,14.795714000000002,STD
14988322000000.0,0.12772946059703827,0.2551986873149872,8.070141792297363,0.24972859025001526,-0.06757581233978271,-0.07666359,-0.022907447,83.53674000000001,-64.832695,14.697566,STD
15164669000000.0,0.1325676143169403,0.2573814392089844,8.164002418518066,0.2535794675350189,-0.0682288333773613,-0.08216137400000001,-0.0125227375,83.52926,-65.06854,14.602132999999998,STD
15332037000000.0,0.13742053508758545,0.2593531906604767,8.253008842468262,0.2571219205856323,-0.06814242154359818,-0.08032878,-0.022296581,83.5217,-65.3061,14.503135999999998,STD
15490843000000.0,0.14228960871696472,0.2611229121685028,8.337386131286621,0.26036933064460754,-0.06831759959459305,-0.07299839999999999,-0.010690141499999998,83.50893,-65.531044,14.414048999999999,STD
15641489000000.0,0.1471724957227707,0.2627007067203522,8.417351722717285,0.26333627104759216,-0.06862862408161163,-0.08552113,-0.009773844,83.5013,-65.758965,14.322626000000001,STD
15784364000000.0,0.152065709233284,0.26409682631492615,8.493117332458496,0.26603734493255615,-0.06881081312894821,-0.090713486,-0.014049901000000002,83.4871,-65.9818,14.232856,STD
15919846000000.0,0.15697330236434937,0.2653183043003082,8.564885139465332,0.2684834599494934,-0.06888679414987564,-0.08277224,-0.013439035,83.47031,-66.199,14.145928,STD
16048293000000.0,0.16188956797122955,0.2663756012916565,8.632851600646973,0.2706892192363739,-0.06915257126092911,-0.08674286,-0.018936822,83.45747,-66.41335,14.059153,STD
16170054000000.0,0.16681315004825592,0.26727715134620667,8.697203636169434,0.2726668417453766,-0.06945298612117767,-0.07696902,-0.013744468000000001,83.43574,-66.622955,13.974735,STD
16285461000000.0,0.17174340784549713,0.2680308222770691,8.758122444152832,0.2744278311729431,-0.06977006793022156,-0.08368854,-0.005497787,83.418236,-66.82844,13.892928,STD
16394833000000.0,0.17668376863002777,0.2686425745487213,8.815777778625488,0.2759813964366913,-0.06986019760370255,-0.08093964,-0.0067195175,83.3941,-67.03181,13.809527,STD
16498473000000.0,0.18163029849529266,0.26912087202072144,8.870335578918457,0.27733948826789856,-0.07026944309473038,-0.08277224,-0.0030543262,83.37026,-67.22685,13.7319975,STD
16596672000000.0,0.1865929216146469,0.2694685757160187,8.921950340270996,0.2785075902938843,-0.07101362198591232,-0.081855945,-0.0033597588,83.34380999999999,-67.42,13.653851000000001,STD
16689708000000.0,0.19154854118824005,0.26970088481903076,8.970778465270996,0.27950501441955566,-0.07201043516397476,-0.087659165,0.005497787,83.317024,-67.60631,13.5812025,STD
16777846000000.0,0.19650959968566895,0.269819051027298,9.016959190368652,0.28033530712127686,-0.07224126160144806,-0.08857546,-0.004276057,83.28886999999999,-67.7953,13.504129999999998,STD
16861338000000.0,0.20147493481636047,0.26982930302619934,9.060628890991211,0.28100743889808655,-0.07270324975252151,-0.09010262,0.0012217305,83.258896,-67.97145,13.43537,STD
16940424000000.0,0.20644529163837433,0.2697368562221527,9.101917266845703,0.28152915835380554,-0.07231323421001434,-0.07544186,0.0018325957999999999,83.22452,-68.15443,13.362513,STD
17015331000000.0,0.2114192694425583,0.2695474624633789,9.140947341918945,0.2819087505340576,-0.07236588001251221,-0.076052725,0.0012217305,83.19309,-68.327095,13.293448999999999,STD
17086277000000.0,0.21639402210712433,0.26926717162132263,9.177838325500488,0.28215473890304565,-0.07196108996868134,-0.08002335,-0.0030543262,83.157394,-68.50426,13.223768,STD
17153469000000.0,0.22137169539928436,0.26889991760253906,9.212700843811035,0.28227317333221436,-0.07139906287193298,-0.070554934,-0.0021380284,83.1164,-68.67449,13.155453,STD
17217103000000.0,0.22635109722614288,0.2684505879878998,9.245640754699707,0.282271146774292,-0.07010326534509659,-0.07360926,-0.0070249503,83.079605,-68.84773,13.086958000000001,STD
17277365000000.0,0.23133261501789093,0.2679233253002167,9.276758193969727,0.28215473890304565,-0.06889238953590393,-0.069027774,-0.013133603,83.03676,-69.01539,13.018155,STD
17334431000000.0,0.23631681501865387,0.26732197403907776,9.30614948272705,0.2819296717643738,-0.06742068380117416,-0.06719518,-0.025961772999999997,82.99528000000001,-69.18663000000001,12.947844,STD
17388471000000.0,0.24130192399024963,0.2666510045528412,9.333905220031738,0.2816023826599121,-0.06524685025215149,-0.07086037,-0.027794369,82.952415,-69.35571999999999,12.880173,STD
17439641000000.0,0.24628840386867523,0.2659139335155487,9.360111236572266,0.28117799758911133,-0.06313963234424591,-0.07269296,-0.03359759,82.90868,-69.523026,12.808882,STD
17488095000000.0,0.2512759864330292,0.26511427760124207,9.384849548339844,0.2806617319583893,-0.06116056814789772,-0.074830994,-0.03481932,82.86465,-69.68968000000001,12.739944,STD
17533975000000.0,0.25626838207244873,0.2642539143562317,9.408196449279785,0.28005680441856384,-0.058766286820173264,-0.06047566,-0.0421497,82.81624000000001,-69.85781999999999,12.667873,STD
17577418000000.0,0.2612593173980713,0.2633383572101593,9.43022632598877,0.2793704867362976,-0.056694384664297104,-0.06261369,-0.043066,82.77151500000001,-70.01892,12.599967999999999,STD
17618551000000.0,0.2662503123283386,0.26236996054649353,9.451009750366211,0.27860647439956665,-0.05465129390358925,-0.049785517,-0.03726278,82.71741999999999,-70.180374,12.530968,STD
17657498000000.0,0.27124038338661194,0.26135191321372986,9.470611572265625,0.2777692675590515,-0.05237525701522827,-0.046731193,-0.053450707,82.6674,-70.343285,12.457880000000001,STD
17694374000000.0,0.2762334942817688,0.26028531789779663,9.489094734191895,0.2768611013889313,-0.05018773302435875,-0.043066,-0.054061572999999995,82.61086999999999,-70.498405,12.390978,STD
17729290000000.0,0.2812407314777374,0.25921833515167236,9.506556510925293,0.27596941590309143,-0.04876727983355522,-0.03970624,-0.046120327,82.553154,-70.650566,12.323145,STD
17762347000000.0,0.2862313687801361,0.25897252559661865,9.523744583129883,0.27654480934143066,-0.047438669949769974,-0.043676864,-0.05222898,82.49661,-70.80527,12.252896,STD
17793645000000.0,0.2912214696407318,0.25955072045326233,9.540712356567383,0.27859553694725037,-0.04684781655669212,-0.04550946,-0.048258353,82.46069,-70.97439,12.17389,STD
17823278000000.0,0.29621654748916626,0.2609260380268097,9.557487487792969,0.2820746600627899,-0.04763885587453842,-0.05009095,-0.044898596,82.425934,-71.13873000000001,12.09501,STD
17851333000000.0,0.3012100160121918,0.263036847114563,9.57406234741211,0.28687047958374023,-0.048875924199819565,-0.05955936,-0.036651913,82.39124,-71.2992,12.020513000000001,STD
17877896000000.0,0.30629023909568787,0.2658711373806,9.591848373413086,0.2940797507762909,-0.050486478954553604,-0.06811147,-0.032070424,82.38079,-71.466484,11.941975999999999,STD
17903045000000.0,0.31128165125846863,0.26893359422683716,9.610013961791992,0.30242156982421875,-0.05225536972284317,-0.08032878,-0.027183502999999998,82.37200000000001,-71.62789000000001,11.868102,STD
17926854000000.0,0.3162740468978882,0.2718552052974701,9.628124237060547,0.31021180748939514,-0.05399516597390175,-0.09407325,-0.014049901000000002,82.387474,-71.789185,11.796294,STD
17949396000000.0,0.321266770362854,0.2744963765144348,9.645894050598145,0.31683802604675293,-0.055577222257852554,-0.0983493,-0.01038471,82.4023,-71.94765,11.724727,STD
17970739000000.0,0.3262590169906616,0.2768723964691162,9.66334056854248,0.3223644196987152,-0.05783989280462265,-0.10812314599999999,-0.0030543262,82.45483399999999,-72.11389,11.651883999999999,STD
17990945000000.0,0.33125123381614685,0.27899715304374695,9.68048095703125,0.32684817910194397,-0.05993323028087616,-0.11636983,0.005497787,82.50544000000001,-72.27899000000001,11.582001,STD
18010075000000.0,0.33624377846717834,0.28128787875175476,9.696264266967773,0.32959553599357605,-0.061996445059776306,-0.12308934,0.0036651915999999997,82.60239399999999,-72.468925,11.497469,STD
18028186000000.0,0.3412376940250397,0.28391504287719727,9.71028995513916,0.33036279678344727,-0.0645519271492958,-0.12767084,0.004276057,82.69664,-72.65018,11.417917999999998,STD
18045332000000.0,0.3462313413619995,0.2868579626083374,9.722657203674316,0.32926636934280396,-0.06741070747375488,-0.13011430000000002,0.012217305,82.853134,-72.87484,11.318938000000001,STD
18061566000000.0,0.3512260913848877,0.29010218381881714,9.733449935913086,0.32639601826667786,-0.07041014730930328,-0.13500121,0.010079277,83.00628,-73.093056,11.219650999999999,STD
18076934000000.0,0.3562220335006714,0.29364001750946045,9.742276191711426,0.3215833902359009,-0.07365668565034866,-0.12858713,0.009162978,83.24625400000001,-73.365845,11.090788,SCH
18091484000000.0,0.36121702194213867,0.2974786162376404,9.747695922851562,0.3140917420387268,-0.07635592669248581,-0.13897185,0.010690141499999998,83.48245,-73.63125,10.965867,SCH
18105260000000.0,0.3662106990814209,0.3014545142650604,9.750102996826172,0.30375030636787415,-0.07931825518608093,-0.14569137,0.01160644,83.85472,-73.98597,10.797812,SCH
18118303000000.0,0.3712402880191803,0.3046373426914215,9.750638008117676,0.2881472408771515,-0.0814066082239151,-0.14141529999999997,0.008857545999999999,84.20801999999999,-74.331924,10.632492999999998,SCH
18130650000000.0,0.3762337565422058,0.3071190118789673,9.749966621398926,0.26927080750465393,-0.08283030241727829,-0.13500121,0.010079277,84.772514,-74.81667,10.39141,SCH
18142340000000.0,0.38122808933258057,0.3084186315536499,9.74880599975586,0.24851316213607788,-0.08421069383621216,-0.12583824,0.014355333500000001,85.29782,-75.27488000000001,10.156358,SCH
18153407000000.0,0.3862217962741852,0.30901938676834106,9.747344017028809,0.22639921307563782,-0.0851106196641922,-0.12492194,0.014049901000000002,85.92889,-75.8369,9.847155,SCH
18163884000000.0,0.3912171423435211,0.31052252650260925,9.746193885803223,0.20452918112277985,-0.08589749038219452,-0.1160644,0.016798794,86.51343,-76.36475,9.54839,SCH
18173804000000.0,0.39622679352760315,0.3128971755504608,9.745352745056152,0.18301114439964294,-0.08586116135120392,-0.10751228,0.020158553,87.16705,-76.96866,9.185687,SCH
18183195000000.0,0.4012202322483063,0.3156628906726837,9.7448148727417,0.16393373906612396,-0.08555006235837936,-0.10140363,0.016187929,87.77808,-77.53899,8.83324,SCH
18192085000000.0,0.4062207043170929,0.31881338357925415,9.744834899902344,0.14735187590122223,-0.08479978889226913,-0.09560041,0.024740042,88.47006,-78.18323000000001,8.418475,SCH
18200503000000.0,0.4112166464328766,0.32216593623161316,9.74645709991455,0.13337987661361694,-0.08420343697071075,-0.090713486,0.03573562,89.11764000000001,-78.79054000000001,8.018155,SCH
18208472000000.0,0.4162117540836334,0.325714647769928,9.749616622924805,0.12190153449773788,-0.08385045826435089,-0.095294975,0.03573562,89.88526999999999,-79.49331,7.5296345,SCH
18216017000000.0,0.4212086796760559,0.3294527530670166,9.754247665405273,0.11280117928981781,-0.08312564343214035,-0.099265605,0.03481932,90.60225,-80.153275,7.063898,SCH
18223160000000.0,0.42620497941970825,0.33340591192245483,9.76027774810791,0.10596902668476105,-0.08263477683067322,-0.09468412,0.04153884,91.26012,-80.76556,6.6192966,SCH
18229924000000.0,0.43120276927948,0.33793801069259644,9.767828941345215,0.10160652548074722,-0.08169803768396378,-0.08368854,0.038789943,91.87912,-81.34859499999999,6.1901736,SCH
18236326000000.0,0.43619897961616516,0.3429308235645294,9.776711463928223,0.09928963333368301,-0.08051823079586029,-0.08368854,0.040317107000000005,92.47159,-81.89137,5.780175,SCH
18242387000000.0,0.4412212073802948,0.34792688488960266,9.786466598510742,0.09736552834510803,-0.08013375848531723,-0.07513642,0.04337143,93.02683,-82.40153000000001,5.386647,SCH
18248125000000.0,0.4462188184261322,0.35282379388809204,9.796843528747559,0.09586404263973236,-0.08077895641326904,-0.070554934,0.04337143,93.56846,-82.88932,5.0007934999999994,SCH
18253559000000.0,0.4512147009372711,0.35695865750312805,9.808170318603516,0.0959458202123642,-0.08178042620420456,-0.054367005999999996,0.05009095,94.07676,-83.346695,4.633746599999999,SCH
18258703000000.0,0.4562157392501831,0.3603590130805969,9.820256233215332,0.09759850800037384,-0.08284246176481247,-0.052534412999999995,0.049785517,94.56283,-83.77548,4.2814198,SCH
18263572000000.0,0.4612139165401459,0.3630763590335846,9.830443382263184,0.10117030888795853,-0.08417344838380814,-0.049785517,0.05100725,95.02117,-84.17576600000001,3.9459565000000003,SCH
18268184000000.0,0.4662212133407593,0.36507177352905273,9.838763236999512,0.10656923800706863,-0.08577532321214676,-0.04153884,0.054367005999999996,95.45656,-84.55098000000001,3.6215231,SCH
18272550000000.0,0.4712165594100952,0.3658038079738617,9.845251083374023,0.11260607838630676,-0.08711278438568115,-0.036651913,0.058337633,95.87334,-84.904465,3.3112642999999995,SCH
18276684000000.0,0.47621145844459534,0.36529046297073364,9.849946022033691,0.11928630620241165,-0.08873707056045532,-0.04642576,0.050396382999999996,96.282684,-85.23491,3.0065246,SCH
18280597000000.0,0.4812090992927551,0.3639770448207855,9.850624084472656,0.1273917406797409,-0.09032362699508667,-0.04642576,0.05131268,96.67125,-85.54398,2.7177935,SCH
18284303000000.0,0.4862232208251953,0.3618820309638977,9.847168922424316,0.13700518012046814,-0.09242789447307587,-0.03604105,0.0580322,97.0445,-85.829094,2.4405357999999997,SCH
18287810000000.0,0.49121931195259094,0.3587816059589386,9.841887474060059,0.1476701945066452,-0.09458278864622116,-0.038789943,0.058948494000000004,97.43053,-86.10865,2.1601255,SCH
18291130000000.0,0.4962155818939209,0.35465219616889954,9.834737777709961,0.15943875908851624,-0.09698094427585602,-0.04428773,0.057726767000000005,97.79513,-86.354355,1.8947834,SCH
18294273000000.0,0.5012114644050598,0.3501918315887451,9.826543807983398,0.1731918752193451,-0.0993652418255806,-0.038179077,0.06078109,98.14393000000001,-86.57871999999999,1.6418316000000002,SCH
18297250000000.0,0.5062922239303589,0.3454021215438843,9.817086219787598,0.1898978352546692,-0.10202940553426743,-0.028099801,0.07269296,98.48075,-86.77820600000001,1.401597,SCH
18300070000000.0,0.5112850666046143,0.34116873145103455,9.807328224182129,0.20644837617874146,-0.10425859689712524,-0.034208454,0.08002335,98.81851,-86.96091,1.1625898000000001,SCH
18302737000000.0,0.5162791013717651,0.3380008637905121,9.79697036743164,0.2223968803882599,-0.1062224954366684,-0.034208454,0.09621128,99.14007,-87.11695,0.9392853000000001,SCH
18305264000000.0,0.5212728977203369,0.33496755361557007,9.788426399230957,0.23776032030582428,-0.10773991048336029,-0.04428773,0.10048734,99.46181,-87.24566999999999,0.72369313,SCH
18307657000000.0,0.5262684226036072,0.3315774202346802,9.782929420471191,0.2525642514228821,-0.10878580808639526,-0.050396382999999996,0.110872045,99.77189,-87.35258499999999,0.52355146,SCH
18309922000000.0,0.5312628746032715,0.3290325999259949,9.782255172729492,0.26649752259254456,-0.10980851948261261,-0.052839845,0.12003502,100.07287,-87.43645500000001,0.33664322,SCH
18312067000000.0,0.5362581014633179,0.32788336277008057,9.787160873413086,0.27943626046180725,-0.1106627881526947,-0.059253927000000005,0.13194689,100.36766,-87.50421999999999,0.16149148,SCH
18314097000000.0,0.5412527918815613,0.3275640308856964,9.797558784484863,0.2912820279598236,-0.11125992238521576,-0.058643065,0.14660765,100.65446999999999,-87.55542,-0.0057373587,SCH
18316020000000.0,0.5462484955787659,0.3277553915977478,9.813326835632324,0.30200281739234924,-0.11200428754091263,-0.05161811400000001,0.15577064,100.93312,-87.58905,-0.16392478,SCH
18317840000000.0,0.5512425303459167,0.3284327983856201,9.83322525024414,0.3105309307575226,-0.11285547912120819,-0.057421334000000004,0.15577064,101.20369000000001,-87.61022,-0.3075615,SCH
18319564000000.0,0.5562405586242676,0.32958680391311646,9.856420516967773,0.3160410523414612,-0.11398685723543167,-0.04886922,0.15485434,101.46124,-87.617584,-0.44302243,SCH
18321196000000.0,0.5612366795539856,0.3309503495693207,9.879776000976562,0.31945928931236267,-0.11518815904855728,-0.032375857,0.16646078,101.70881999999999,-87.61749,-0.56656665,SCH
18322742000000.0,0.5662312507629395,0.3323221206665039,9.90091609954834,0.3214820921421051,-0.11731835454702377,-0.02321288,0.16462818,101.95023,-87.60118,-0.68876934,SCH
18324205000000.0,0.5712249875068665,0.33370187878608704,9.919957160949707,0.3221808671951294,-0.11980707198381424,-0.0021380284,0.1563815,102.16373399999999,-87.58542,-0.8005635,SCH
18325592000000.0,0.576222836971283,0.33509066700935364,9.936991691589355,0.3216037154197693,-0.12232592701911926,0.008246681,0.16065755,102.37295,-87.56102,-0.90476614,SCH
18326904000000.0,0.5812147855758667,0.33648502826690674,9.952163696289062,0.31986358761787415,-0.12549185752868652,0.021380282999999996,0.15974127,102.57117,-87.52474000000001,-1.008666,SCH
18328146000000.0,0.586209774017334,0.33788731694221497,9.965540885925293,0.3169828951358795,-0.12951454520225525,0.04276056599999999,0.16065755,102.7599,-87.48305500000001,-1.106829,SCH
18329322000000.0,0.5912021994590759,0.33892980217933655,9.976522445678711,0.313014954328537,-0.13376234471797943,0.05375614,0.15821409,102.944046,-87.436714,-1.2022048,SCH
18330436000000.0,0.5962005257606506,0.33854106068611145,9.983067512512207,0.30788278579711914,-0.1384022980928421,0.06597344599999999,0.15821409,103.11813000000001,-87.382835,-1.2929808,SCH
18331490000000.0,0.6011946797370911,0.33715495467185974,9.985815048217773,0.3018193542957306,-0.14344607293605804,0.07849618,0.15699236,103.26694,-87.33299,-1.3774077,SCH
18332490000000.0,0.6061944365501404,0.3353242576122284,9.985305786132812,0.29504215717315674,-0.14846521615982056,0.093767814,0.15332718,103.40869,-87.28071,-1.4594498,SCH
18333435000000.0,0.6111874580383301,0.3325527608394623,9.981664657592773,0.2877238690853119,-0.1536238044500351,0.10903945,0.1554652,103.54227,-87.22583,-1.5417459999999998,SCH
18334330000000.0,0.6161866188049316,0.32784315943717957,9.974568367004395,0.28001341223716736,-0.15951667726039886,0.11209377,0.15485434,103.67246999999999,-87.16581,-1.6226958,SCH
18335178000000.0,0.6211814284324646,0.3219321370124817,9.964729309082031,0.271791011095047,-0.16574659943580627,0.12889257,0.15057829,103.78369,-87.104515,-1.7035701,SCH
18335980000000.0,0.6261813640594482,0.31583186984062195,9.95289421081543,0.2627462148666382,-0.17187239229679108,0.14202617,0.15699236,103.892685,-87.042816,-1.7784311999999998,SCH
18336742000000.0,0.6311757564544678,0.31001561880111694,9.94044303894043,0.2531884014606476,-0.17814376950263977,0.16340645,0.16157386,103.99252,-86.974884,-1.8601853,SCH
18337464000000.0,0.6361731290817261,0.30552566051483154,9.930179595947266,0.2436317801475525,-0.18411347270011902,0.17531833,0.16126843,104.08914,-86.90904,-1.9383384999999997,SCH
18338145000000.0,0.6411691308021545,0.30193662643432617,9.922215461730957,0.2339562028646469,-0.1904812455177307,0.18692477,0.17959438,104.17215999999999,-86.84134,-2.0135238,SCH
18338790000000.0,0.6461668014526367,0.2982935905456543,9.917128562927246,0.22381523251533508,-0.19616782665252686,0.18936823,0.17562376,104.25265,-86.77508,-2.0919611000000002,SCH
18339403000000.0,0.6511645913124084,0.29485881328582764,9.914644241333008,0.2132907509803772,-0.2017955183982849,0.19761491,0.18570304,104.323715,-86.71439000000001,-2.1541786,SCH
18339982000000.0,0.6561618447303772,0.29276254773139954,9.914140701293945,0.20263385772705078,-0.20705819129943848,0.20616703,0.19517145,104.39246,-86.65700000000001,-2.2150357000000005,SCH
18340532000000.0,0.6611790657043457,0.2919747233390808,9.915651321411133,0.1918618232011795,-0.2123008370399475,0.21013765,0.21074851,104.44994,-86.606026,-2.2648845,SCH
18341052000000.0,0.666175901889801,0.29146572947502136,9.918739318847656,0.18213753402233124,-0.21684087812900543,0.20586158,0.21502456,104.5062,-86.559135,-2.3130875,SCH
18341545000000.0,0.6711921691894531,0.2912234663963318,9.923456192016602,0.17345167696475983,-0.22113896906375885,0.20372356,0.22937989,104.558655,-86.51879,-2.3499382,SCH
18342012000000.0,0.676183819770813,0.2906512916088104,9.927464485168457,0.1652287095785141,-0.2254847139120102,0.21197024,0.22937989,104.60853,-86.47815,-2.3881598,SCH
18342455000000.0,0.6811918020248413,0.28971078991889954,9.9307279586792,0.15744397044181824,-0.2297941893339157,0.20861048,0.24037547,104.66218,-86.44321,-2.4166226,SCH
18342874000000.0,0.686184287071228,0.288465291261673,9.933343887329102,0.1500740945339203,-0.23397167026996613,0.22052236,0.24678956,104.70832,-86.40768,-2.4453622999999998,SCH
18343270000000.0,0.6911756992340088,0.28691181540489197,9.935320854187012,0.14309698343276978,-0.23851250112056732,0.22693644,0.25442538,104.74989000000001,-86.36916,-2.4717133,SCH
18343646000000.0,0.6961841583251953,0.2846575081348419,9.935155868530273,0.1382279396057129,-0.24399958550930023,0.23793201,0.24495697,104.786385,-86.32678,-2.5002582,SCH
18344002000000.0,0.7011758685112,0.2817935347557068,9.933053016662598,0.1353212594985962,-0.24937330186367035,0.24251351,0.24617869,104.82223499999999,-86.29063000000001,-2.5225785,SCH
18344340000000.0,0.706240177154541,0.2769075632095337,9.928792953491211,0.13330796360969543,-0.25491639971733093,0.25076020000000004,0.23701571,104.8542,-86.24435,-2.5525792000000003,SCH
18344659000000.0,0.7112287878990173,0.27099302411079407,9.923470497131348,0.13177023828029633,-0.2610918879508972,0.25717425,0.23487769,104.88498,-86.19835,-2.5791202,SCH
18344960000000.0,0.716218888759613,0.26500603556632996,9.916494369506836,0.13124752044677734,-0.26729637384414673,0.2724459,0.22510384,104.91586000000001,-86.144936,-2.6126037,SCH
18345248000000.0,0.7212107181549072,0.2590934932231903,9.907933235168457,0.13173113763332367,-0.2729586064815521,0.28130344,0.22113322,104.94646000000002,-86.09248000000001,-2.6436472,SCH
18345520000000.0,0.7262029051780701,0.25237569212913513,9.89882755279541,0.13473360240459442,-0.2791329622268677,0.28955013,0.21074851,104.97528999999999,-86.02819000000001,-2.6849372000000002,SCH
18345779000000.0,0.731192946434021,0.24471218883991241,9.889425277709961,0.14044421911239624,-0.28556424379348755,0.301462,0.20372356,105.00026000000001,-85.96741999999999,-2.7248857,SCH
18346022000000.0,0.7361863851547241,0.23717321455478668,9.880532264709473,0.14645271003246307,-0.2927270829677582,0.32070425,0.19883664,105.02366,-85.89873,-2.7668862,SCH
18346253000000.0,0.741178035736084,0.22991009056568146,9.872239112854004,0.15239283442497253,-0.29996398091316223,0.32803464,0.19211712,105.046974,-85.83046999999999,-2.8097286,SCH
18346473000000.0,0.7461726069450378,0.22290591895580292,9.864516258239746,0.1582726091146469,-0.30775928497314453,0.3436117,0.19211712,105.06186000000001,-85.74763,-2.8549227999999998,SCH
18346680000000.0,0.7511650323867798,0.2161492258310318,9.857330322265625,0.16409063339233398,-0.3159692883491516,0.3594942,0.18936823,105.074684,-85.66421,-2.9008625,SCH
18346878000000.0,0.7561641335487366,0.21038618683815002,9.85119915008545,0.1709410846233368,-0.3239370882511139,0.37507126,0.20036379999999998,105.07921,-85.59221,-2.9301214,SCH
18347064000000.0,0.761161208152771,0.20566989481449127,9.846134185791016,0.1789056956768036,-0.3324894607067108,0.38606682,0.19853121,105.08103999999999,-85.51294,-2.9625485,SCH
18347243000000.0,0.766177773475647,0.20258821547031403,9.843344688415527,0.18547987937927246,-0.341009259223938,0.40225476,0.20433442,105.07145,-85.44053000000001,-2.9853167999999997,SCH
18347410000000.0,0.7711768746376038,0.20098797976970673,9.842679023742676,0.19038650393486023,-0.3499051630496979,0.42394048,0.21868975,105.0576,-85.36585,-3.005211,SCH
18347570000000.0,0.7761792540550232,0.2018481194972992,9.843311309814453,0.1926565319299698,-0.35941755771636963,0.42943826,0.226631,105.04839,-85.288,-3.021614,SCH
18347720000000.0,0.7811793684959412,0.2054983526468277,9.844683647155762,0.19196964800357819,-0.36938339471817017,0.43127087,0.23548855,105.03458,-85.2121,-3.03305,SCH
18347863000000.0,0.7861765623092651,0.2103881984949112,9.846052169799805,0.18705761432647705,-0.37924131751060486,0.44868052,0.23976462,105.004814,-85.14215,-3.036326,SCH
18348000000000.0,0.7911760210990906,0.21581177413463593,9.84708309173584,0.1773766279220581,-0.38982725143432617,0.45265114,0.24495697,104.97938500000001,-85.068115,-3.0362296000000004,SCH
18348130000000.0,0.7961758375167847,0.2206089347600937,9.844907760620117,0.16327638924121857,-0.4005001187324524,0.46700647,0.24068089999999998,104.92963999999999,-85.0087,-3.0211303,SCH
18348251000000.0,0.8011754751205444,0.2244149148464203,9.838680267333984,0.14502406120300293,-0.41052281856536865,0.47739118,0.24740042,104.88123999999999,-84.95094,-3.001872,SCH
18348367000000.0,0.8061797618865967,0.2265888899564743,9.830349922180176,0.1255624145269394,-0.4216553866863251,0.49418998,0.24129178,104.816055,-84.893814,-2.9868487999999997,SCH
18348478000000.0,0.8111844062805176,0.22690017521381378,9.820965766906738,0.10638929158449173,-0.43219467997550964,0.5170974,0.22235495,104.74807,-84.84432,-2.9744537,SCH
18348583000000.0,0.8161834478378296,0.22548674046993256,9.81061840057373,0.08750589936971664,-0.4433605372905731,0.535118,0.21258110000000002,104.66579,-84.79516600000001,-2.9657762,SCH
18348681000000.0,0.8211824297904968,0.2224063277244568,9.799328804016113,0.06888215243816376,-0.45481032133102417,0.54275376,0.1966986,104.582306,-84.744804,-2.96486,SCH
18348776000000.0,0.8261817693710327,0.21766488254070282,9.787357330322266,0.051304303109645844,-0.46587780117988586,0.56291234,0.18295415,104.47482,-84.691,-2.9605172000000004,SCH
18348866000000.0,0.8311812281608582,0.2112884670495987,9.774908065795898,0.03534964844584465,-0.47749486565589905,0.57451874,0.15913039999999998,104.37054,-84.62700000000001,-2.9639075,SCH
18348952000000.0,0.8362032771110535,0.20320533215999603,9.761913299560547,0.02098945714533329,-0.48863932490348816,0.605062,0.13316862,104.24938,-84.56756999999999,-2.9789548,SCH
18349034000000.0,0.8412015438079834,0.19382606446743011,9.748590469360352,0.008022524416446686,-0.4993526339530945,0.61758476,0.10629055,104.13309,-84.50168599999999,-3.0006576000000003,SCH
18349111000000.0,0.8461997509002686,0.18306086957454681,9.73486328125,-0.003567627863958478,-0.5089415907859802,0.6215554,0.07513642,104.01365,-84.43647,-3.0309575,SCH
18349185000000.0,0.8511982560157776,0.17098096013069153,9.720751762390137,-0.013853410258889198,-0.5179218649864197,0.6417139000000001,0.070554934,103.88846600000001,-84.37138,-3.061241,SCH
18349254000000.0,0.8562012910842896,0.15896408259868622,9.70664119720459,-0.019229551777243614,-0.5264397859573364,0.65148777,0.03359759,103.73926999999999,-84.2963,-3.0999212000000003,SCH
18349319000000.0,0.8612054586410522,0.1478404700756073,9.692776679992676,-0.017745161429047585,-0.5336410999298096,0.66859204,0.013133603,103.5851,-84.23075,-3.1350290000000003,SCH
18349382000000.0,0.866203248500824,0.13869383931159973,9.681020736694336,-0.007744907401502132,-0.5396285057067871,0.6554584,-0.017104227,103.42187,-84.14596,-3.1909056000000002,SCH
18349440000000.0,0.8711987733840942,0.1322328746318817,9.672577857971191,0.011980755254626274,-0.5445805788040161,0.6438520000000001,-0.029626964,103.256996,-84.068,-3.2464066000000003,SCH
18349497000000.0,0.8761972188949585,0.12800131738185883,9.66710376739502,0.039968252182006836,-0.5481619238853455,0.6209445,-0.03604105,103.11104,-83.97742,-3.2999787000000005,SCH
18349552000000.0,0.8811956644058228,0.12551529705524445,9.664201736450195,0.07457100600004196,-0.5502827763557434,0.59803706,-0.040011674,102.972015,-83.89319,-3.3544127999999995,SCH
18349602000000.0,0.8861924409866333,0.12582086026668549,9.663615226745605,0.11382196843624115,-0.5508907437324524,0.56046885,-0.03848451,102.85526999999999,-83.78656,-3.395459,SCH
18349650000000.0,0.891189694404602,0.12998555600643158,9.66512680053711,0.15589001774787903,-0.5501641035079956,0.5183192,-0.030848695,102.74961,-83.68943,-3.4338377,SCH
18349696000000.0,0.896188497543335,0.13799428939819336,9.668461799621582,0.1988775134086609,-0.5481088757514954,0.4783075,-0.020158553,102.66634,-83.580414,-3.459824,SCH
18349740000000.0,0.9011873602867126,0.1497831493616104,9.673351287841797,0.24105888605117798,-0.5450563430786133,0.44776422,0.00030543262000000003,102.594666,-83.48214,-3.4791224,SCH
18349782000000.0,0.9062873125076294,0.16566289961338043,9.68005657196045,0.280992716550827,-0.5411247611045837,0.41355577,0.037873644,102.55148,-83.387505,-3.4771959999999997,SCH
18349822000000.0,0.9112813472747803,0.18250772356987,9.687249183654785,0.31819459795951843,-0.5363934636116028,0.40866885,0.054061572999999995,102.51053,-83.299995,-3.4754028,SCH
18349860000000.0,0.9162717461585999,0.20132054388523102,9.695396423339844,0.352458655834198,-0.5316864252090454,0.38362336,0.09407325,102.46434,-83.21476,-3.4413063999999998,SCH
18349895000000.0,0.9212666153907776,0.22088342905044556,9.703166961669922,0.3895144462585449,-0.5266280174255371,0.3652974,0.13347405,102.4191,-83.13956999999999,-3.4037516000000005,SCH
18349931000000.0,0.9262584447860718,0.24084044992923737,9.710284233093262,0.43034228682518005,-0.5213996767997742,0.33964106,0.17654006,102.3835,-83.0719,-3.3540852,SCH
18349965000000.0,0.9312540888786316,0.26241061091423035,9.717817306518555,0.47502467036247253,-0.516417384147644,0.32314770000000004,0.21899518,102.33622,-83.010544,-3.2888157,SCH
18349996000000.0,0.9362494349479675,0.28595051169395447,9.72614860534668,0.5233244299888611,-0.5126935839653015,0.32406402,0.25900686,102.2916,-82.95174,-3.2141006,SCH
18350025000000.0,0.9412440657615662,0.30994439125061035,9.734374046325684,0.5750368237495422,-0.51125168800354,0.32559118,0.29718593,102.26736,-82.87584,-3.1233150000000003,SCH
18350055000000.0,0.946240246295929,0.3334140181541443,9.74190902709961,0.6300289034843445,-0.5119050741195679,0.3277292,0.31429017,102.24335,-82.7968,-3.0304189,SCH
18350082000000.0,0.9512359499931335,0.3573662042617798,9.748230934143066,0.6871296763420105,-0.5132723450660706,0.33658674,0.33475417,102.234406,-82.7009,-2.9186932999999997,SCH
18350110000000.0,0.9562360048294067,0.3826054036617279,9.752934455871582,0.7455453276634216,-0.5160642862319946,0.35246924,0.37507126,102.222824,-82.59401,-2.8006767999999997,SCH
18350135000000.0,0.9612341523170471,0.4081881046295166,9.755581855773926,0.8033338189125061,-0.5211490392684937,0.37323865,0.39461896,102.18324,-82.444084,-2.6780658,SCH
18350160000000.0,0.9662306308746338,0.4334146976470947,9.755821228027344,0.8590498566627502,-0.5280300378799438,0.408058,0.42546764,102.13539,-82.292496,-2.5465763,SCH
18350183000000.0,0.9712241291999817,0.4589262902736664,9.754703521728516,0.9110095500946045,-0.5364813208580017,0.45570546,0.44959682,102.079796,-82.11056500000001,-2.411077,SCH
18350206000000.0,0.9762201309204102,0.4853397607803345,9.753142356872559,0.9576874375343323,-0.5470377802848816,0.5002986,0.4700608,102.01671,-81.91677,-2.2741761,SCH
18350227000000.0,0.9812154769897461,0.5118729472160339,9.750833511352539,1.0010119676589966,-0.5604661703109741,0.5626069,0.4877759,101.94064,-81.70615,-2.1356866,SCH
18350248000000.0,0.9862105250358582,0.537717878818512,9.747438430786133,1.0429953336715698,-0.5757833123207092,0.61391956,0.50885075,101.85712,-81.48888000000001,-1.9970002,SCH
18350267000000.0,0.9912042021751404,0.5600533485412598,9.739726066589355,1.0872576236724854,-0.5930350422859192,0.64873886,0.5305365,101.758095,-81.26316,-1.8541955,SCH
18350286000000.0,0.9962005019187927,0.5737982392311096,9.721817016601562,1.1402615308761597,-0.6112717986106873,0.66889745,0.535118,101.65211500000001,-81.03029000000001,-1.7169787,SCH
18350304000000.0,1.0011961460113525,0.5795059204101562,9.695682525634766,1.2003310918807983,-0.6302946209907532,0.6649268,0.5372560000000001,101.509155,-80.76611,-1.5803082,SCH
18350321000000.0,1.0061956644058228,0.5775112509727478,9.665127754211426,1.2643333673477173,-0.650338351726532,0.64660084,0.54336464,101.368515,-80.49459,-1.4465128999999999,SCH
18350338000000.0,1.011192798614502,0.5683897137641907,9.630517959594727,1.331899642944336,-0.6720810532569885,0.61422503,0.54702985,101.25272,-80.1695,-1.3308726999999998,SCH
18350355000000.0,1.0161892175674438,0.5524787306785583,9.592036247253418,1.4028807878494263,-0.6949275732040405,0.55924714,0.54092115,101.15373000000001,-79.842354,-1.2188451,SCH
18350370000000.0,1.021226406097412,0.529757559299469,9.547527313232422,1.4752416610717773,-0.7185423374176025,0.48747048,0.5317582,101.06309,-79.50465,-1.1042385000000001,SCH
18350384000000.0,1.0262219905853271,0.5032843947410583,9.498054504394531,1.5448250770568848,-0.7424612641334534,0.43066000000000004,0.50762904,100.98959,-79.163536,-0.99783003,SCH
18350399000000.0,1.0312135219573975,0.472932368516922,9.443696975708008,1.6135119199752808,-0.7668308615684509,0.37934732,0.48349985,100.9518,-78.76723,-0.9195331,SCH
18350413000000.0,1.0362080335617065,0.4396713376045227,9.386452674865723,1.6845736503601074,-0.7922131419181824,0.33108896,0.45051312,100.93519,-78.36761,-0.8502735999999999,SCH
18350426000000.0,1.0412007570266724,0.4047927260398865,9.326746940612793,1.756514549255371,-0.818179726600647,0.310625,0.40378192,100.932755,-77.96153000000001,-0.80409676,SCH
18350439000000.0,1.0461995601654053,0.3709890842437744,9.264997482299805,1.8261891603469849,-0.8435763716697693,0.25686884,0.38484509999999994,100.95729,-77.55836500000001,-0.7560197,SCH
18350451000000.0,1.0511947870254517,0.3398115038871765,9.202715873718262,1.8935829401016235,-0.8696541786193848,0.19761491,0.3484986,100.975555,-77.11030600000001,-0.7256193,SCH
18350464000000.0,1.0561999082565308,0.31499728560447693,9.142708778381348,1.958691120147705,-0.89588862657547,0.13622294,0.30726522,101.015114,-76.67033,-0.69894886,SCH
18350476000000.0,1.0611978769302368,0.2964598536491394,9.086149215698242,2.021604537963867,-0.9218806624412537,0.074830994,0.27214047,101.0669,-76.215836,-0.67444897,SCH
18350487000000.0,1.0661965608596802,0.2853512465953827,9.035943031311035,2.0825963020324707,-0.9464060664176941,0.004886922,0.25167647,101.14371,-75.76953,-0.65244055,SCH
18350497000000.0,1.0711925029754639,0.2812480032444,8.992053031921387,2.1417131423950195,-0.9708127379417419,-0.07360926,0.23426682,101.23987,-75.306465,-0.61794776,SCH
18350508000000.0,1.0761921405792236,0.28431665897369385,8.956554412841797,2.198838233947754,-0.9933652877807617,-0.124005646,0.23487769,101.350746,-74.86296,-0.58094144,SCH
18350518000000.0,1.0811885595321655,0.29400336742401123,8.928850173950195,2.254049301147461,-1.014032244682312,-0.16157386,0.24495697,101.472916,-74.40957,-0.5214426,SCH
18350529000000.0,1.0861849784851074,0.3100337088108063,8.90859317779541,2.3074612617492676,-1.032621145248413,-0.17928895,0.27519479999999996,101.60399,-73.970345,-0.45440018,SCH
18350540000000.0,1.091226577758789,0.3324196934700012,8.896409034729004,2.3587849140167236,-1.049405574798584,-0.21044308,0.30665436,101.735085,-73.53602,-0.38183427,SCH
18350550000000.0,1.0962237119674683,0.3569822907447815,8.889928817749023,2.4066245555877686,-1.0635863542556763,-0.23182335,0.344528,101.86700400000001,-73.120964,-0.29951715,SCH
18350560000000.0,1.1012166738510132,0.3841759264469147,8.889703750610352,2.4510390758514404,-1.0749279260635376,-0.25870144,0.38606682,101.999115,-72.70884000000001,-0.18048975,SCH
18350569000000.0,1.106299877166748,0.40972900390625,8.89554214477539,2.4935414791107178,-1.0848023891448975,-0.27152961,0.42730024,102.131035,-72.30791500000001,-0.053323287999999996,SCH
18350577000000.0,1.111290693283081,0.43338170647621155,8.903942108154297,2.534137725830078,-1.0926042795181274,-0.29260445,0.46395215,102.269966,-71.92979,0.083804734,SCH
18350585000000.0,1.116284728050232,0.45313575863838196,8.913410186767578,2.577526330947876,-1.0988835096359253,-0.30390546,0.49632803,102.404655,-71.56911,0.23613909,SCH
18350594000000.0,1.1212739944458008,0.46912163496017456,8.92360782623291,2.623786687850952,-1.1044862270355225,-0.33292156,0.51251596,102.54816,-71.2195,0.3933793,SCH
18350602000000.0,1.1262657642364502,0.4856772720813751,8.929697036743164,2.6773760318756104,-1.1095625162124634,-0.35308012,0.5131268,102.66371,-70.873375,0.54926825,SCH
18350610000000.0,1.1312551498413086,0.5032946467399597,8.931330680847168,2.7383155822753906,-1.1145635843276978,-0.38728857,0.50243664,102.79075999999999,-70.53378000000001,0.7060323000000001,SCH
18350620000000.0,1.1362487077713013,0.5247610807418823,8.92513656616211,2.8039257526397705,-1.1193795204162598,-0.42577308,0.5015204000000001,102.93014000000001,-70.1891,0.86012554,SCH
18350627000000.0,1.141240119934082,0.5504332780838013,8.910865783691406,2.8731722831726074,-1.1245085000991821,-0.45020768,0.49235737,103.07663000000001,-69.847946,1.0071801999999999,SCH
18350636000000.0,1.1462346315383911,0.58388751745224,8.892263412475586,2.9425408840179443,-1.1295920610427856,-0.4642576,0.48014009999999996,103.221985,-69.458084,1.1726066000000002,SCH
18350644000000.0,1.1512279510498047,0.6253594160079956,8.870380401611328,3.011228084564209,-1.1351534128189087,-0.46028697,0.47464229999999996,103.36914,-69.07056999999999,1.3336036,SCH
18350653000000.0,1.156225562095642,0.6769698858261108,8.846619606018066,3.080655813217163,-1.1402231454849243,-0.44806966,0.47678033,103.52762,-68.65128,1.5099146,SCH
18350659000000.0,1.1612225770950317,0.7385119795799255,8.821442604064941,3.151017189025879,-1.1448924541473389,-0.4156938,0.47708577,103.68032,-68.23648,1.6772286,SCH
18350665000000.0,1.1662187576293945,0.8072817325592041,8.793862342834473,3.2206757068634033,-1.1496222019195557,-0.35338554,0.4859433,103.83686,-67.80475,1.8666214,SCH
18350671000000.0,1.1712154150009155,0.882135272026062,8.763592720031738,3.2890915870666504,-1.154588222503662,-0.2678644,0.5039638,103.977425,-67.38098000000001,2.0475131999999996,SCH
18350678000000.0,1.1762136220932007,0.9627853035926819,8.730761528015137,3.3563404083251953,-1.15972900390625,-0.20280726,0.5290093000000001,104.09559,-66.91814000000001,2.2701173,SCH
18350684000000.0,1.181209683418274,1.0487905740737915,8.695560455322266,3.4224507808685303,-1.1644493341445923,-0.17348573,0.55680364,104.19819,-66.46426,2.486913,SCH
18350690000000.0,1.1862069368362427,1.1346324682235718,8.659341812133789,3.4899847507476807,-1.1690483093261719,-0.16401732,0.57360244,104.28761,-66.015274,2.6966487999999997,SCH
18350697000000.0,1.1912094354629517,1.2189736366271973,8.622452735900879,3.5595948696136475,-1.1738905906677246,-0.1441642,0.591623,104.36386,-65.57332,2.9037349999999997,SCH
18350703000000.0,1.1962072849273682,1.297832727432251,8.581103324890137,3.6312642097473145,-1.1784096956253052,-0.12370021,0.61911196,104.43248,-65.08199,3.1667883,SCH
18350710000000.0,1.2012059688568115,1.3688993453979492,8.532844543457031,3.7051892280578613,-1.182232141494751,-0.13255776,0.62949663,104.50315,-64.5992,3.42464,SCH
18350715000000.0,1.206205129623413,1.4347325563430786,8.479043006896973,3.7772433757781982,-1.1856392621994019,-0.1160644,0.64660084,104.56586999999999,-64.09431500000001,3.6936445,SCH
18350722000000.0,1.2112042903900146,1.4963289499282837,8.420339584350586,3.8461859226226807,-1.1890764236450195,-0.13103059,0.66248333,104.637695,-63.598663,3.9628704,SCH
18350728000000.0,1.2162022590637207,1.553540587425232,8.35678768157959,3.9079883098602295,-1.192021131515503,-0.14660765,0.66706485,104.707825,-63.08659399999999,4.2158012000000005,SCH
18350734000000.0,1.221198558807373,1.6063975095748901,8.28852653503418,3.960751533508301,-1.1943206787109375,-0.17654006,0.67073005,104.784195,-62.583874,4.469338400000001,SCH
18350740000000.0,1.2261956930160522,1.6553313732147217,8.215951919555664,4.0013532638549805,-1.1951628923416138,-0.19150625,0.68294734,104.85691,-62.07745,4.723412000000001,SCH
18350747000000.0,1.2312023639678955,1.7006103992462158,8.139129638671875,4.02853536605835,-1.1950812339782715,-0.20097467,0.6765333,104.938675,-61.581917000000004,4.969966400000001,SCH
18350753000000.0,1.2361990213394165,1.739424467086792,8.060745239257812,4.047061920166016,-1.1941087245941162,-0.20525073,0.66614854,105.00368999999999,-61.099174,5.217625,SCH
18350760000000.0,1.2411959171295166,1.7706218957901,7.981493949890137,4.058548927307129,-1.192553162574768,-0.21319197,0.6597345,105.0733,-60.62894,5.4598837,SCH
18350766000000.0,1.2461926937103271,1.7952860593795776,7.901605606079102,4.068153381347656,-1.1904782056808472,-0.21533000000000002,0.6386596,105.12666999999999,-60.18656,5.6943436,SCH
18350772000000.0,1.251189112663269,1.8141224384307861,7.821210861206055,4.078499794006348,-1.1896858215332031,-0.23151793,0.6291912,105.18593,-59.74586,5.9272456,SCH
18350778000000.0,1.256186604499817,1.829459547996521,7.743596076965332,4.090091705322266,-1.1900262832641602,-0.23487769,0.6105598000000001,105.22545,-59.326164,6.1381426,SCH
18350785000000.0,1.2611842155456543,1.8427340984344482,7.6706156730651855,4.103182315826416,-1.1911786794662476,-0.21013765,0.59223384,105.26494,-58.909924,6.339646299999999,SCH
18350790000000.0,1.2661833763122559,1.8540492057800293,7.602025508880615,4.117703914642334,-1.1928231716156006,-0.15271631,0.5858198,105.29178,-58.485638,6.523921499999999,SCH
18350797000000.0,1.2711811065673828,1.8635226488113403,7.537586212158203,4.133557319641113,-1.1944451332092285,-0.08643743400000001,0.5757405,105.315956,-58.06900400000001,6.692953,SCH
18350804000000.0,1.2761808633804321,1.8699694871902466,7.476955413818359,4.157705307006836,-1.196517825126648,-0.030848695,0.57971114,105.31631000000002,-57.64722,6.861720599999999,SCH
18350810000000.0,1.2811806201934814,1.8724424839019775,7.4198150634765625,4.195865631103516,-1.1993916034698486,0.020158553,0.589485,105.30543,-57.231853,7.0157027,SCH
18350816000000.0,1.2861770391464233,1.8737541437149048,7.368194103240967,4.250893592834473,-1.2040166854858398,0.03970624,0.59040123,105.28199,-56.804233999999994,7.156239,SCH
18350822000000.0,1.2911757230758667,1.8760120868682861,7.323642730712891,4.325343608856201,-1.2098276615142822,0.03970624,0.59559363,105.25321000000001,-56.382637,7.2914495,SCH
18350829000000.0,1.2961746454238892,1.8829466104507446,7.287113666534424,4.41265344619751,-1.2175101041793823,0.047647487,0.59986967,105.22133000000001,-55.912678,7.4107356,SCH
18350835000000.0,1.3011746406555176,1.897639513015747,7.2593889236450195,4.50750207901001,-1.227485179901123,0.038179077,0.59864795,105.19985,-55.443459999999995,7.5292997,SCH
18350841000000.0,1.3062512874603271,1.9266855716705322,7.240836143493652,4.602306842803955,-1.2381006479263306,0.03573562,0.6001751000000001,105.18851000000001,-54.918217000000006,7.6613755,SCH
18350845000000.0,1.3112462759017944,1.9640483856201172,7.227147579193115,4.691354751586914,-1.2484108209609985,0.033292156,0.6017023,105.18542,-54.396618000000004,7.7907686,SCH
18350850000000.0,1.316241979598999,2.0136218070983887,7.212902545928955,4.769222736358643,-1.2567553520202637,0.03940081,0.6123924,105.17711000000001,-53.85095,7.941196000000001,SCH
18350856000000.0,1.3212378025054932,2.07503342628479,7.190366744995117,4.830270767211914,-1.262408971786499,0.04795292,0.6392705,105.17112,-53.32104,8.090853,SCH
18350860000000.0,1.3262304067611694,2.1436753273010254,7.159932613372803,4.876028537750244,-1.266312599182129,0.055588737,0.6536258,105.18042,-52.807613,8.268792,SCH
18350864000000.0,1.3312270641326904,2.203843355178833,7.121087551116943,4.908913612365723,-1.2695848941802979,0.069027774,0.68019843,105.183876,-52.310642,8.4472065,SCH
18350870000000.0,1.3362215757369995,2.2560956478118896,7.0745015144348145,4.929842472076416,-1.2716898918151855,0.084910266,0.6914994999999999,105.176,-51.81941,8.676793,SCH
18350875000000.0,1.3412222862243652,2.300705671310425,7.020278453826904,4.939131259918213,-1.2731293439865112,0.14477506,0.6939429,105.15463999999999,-51.337753,8.893281,SCH
18350881000000.0,1.346213936805725,2.337740898132324,6.960850238800049,4.942459583282471,-1.2737270593643188,0.19394971,0.6976081000000001,105.11735,-50.864020000000004,9.111813,SCH
18350885000000.0,1.351211667060852,2.3660290241241455,6.899117946624756,4.949257850646973,-1.2731859683990479,0.21227567,0.72082096,105.07281,-50.404064,9.323244,SCH
18350890000000.0,1.356205940246582,2.3869643211364746,6.835667610168457,4.964087009429932,-1.2715017795562744,0.27702740000000003,0.7287621999999999,104.98666999999999,-49.96908,9.501407,SCH
18350896000000.0,1.361202359199524,2.402235984802246,6.771050930023193,4.996569633483887,-1.2702003717422485,0.32559118,0.7296785,104.901505,-49.54037,9.676889,SCH
18350900000000.0,1.3661959171295166,2.4122679233551025,6.706659317016602,5.044489860534668,-1.2708076238632202,0.34483343,0.74189585,104.79427,-49.096478000000005,9.831975,SCH
18350904000000.0,1.3711918592453003,2.417349338531494,6.645453929901123,5.105066776275635,-1.27301025390625,0.3387248,0.7284568,104.69219,-48.664004999999996,9.972363,SCH
18350910000000.0,1.3761872053146362,2.4186205863952637,6.587222099304199,5.175339221954346,-1.2769510746002197,0.312763,0.6982189999999999,104.60778,-48.174545,10.107039,SCH
18350915000000.0,1.3811843395233154,2.4195871353149414,6.531620025634766,5.24636697769165,-1.2827491760253906,0.29229903,0.6789767,104.53103,-47.687542,10.236427,SCH
18350920000000.0,1.3861925601959229,2.4207358360290527,6.4787373542785645,5.317534923553467,-1.2905170917510986,0.30390546,0.6441574000000001,104.45488,-47.159286,10.345848,SCH
18350925000000.0,1.3911917209625244,2.4274022579193115,6.431209087371826,5.380345344543457,-1.301500916481018,0.31795537,0.6081163,104.39364,-46.62777,10.449905000000001,SCH
18350930000000.0,1.3961875438690186,2.4395430088043213,6.3885931968688965,5.434695243835449,-1.3157082796096802,0.34513888,0.5839871999999999,104.31734499999999,-46.074745,10.538349,SCH
18350936000000.0,1.4011855125427246,2.4584507942199707,6.348487377166748,5.476103782653809,-1.3308838605880737,0.38606682,0.57696223,104.24638,-45.528529999999996,10.614048,SCH
18350940000000.0,1.4062143564224243,2.4847307205200195,6.31048583984375,5.504154682159424,-1.346292495727539,0.43860126,0.5714644,104.155785,-44.9815,10.689005,SCH
18350946000000.0,1.4112136363983154,2.5187172889709473,6.270288944244385,5.521381378173828,-1.3599684238433838,0.52106804,0.5833763000000001,104.05633,-44.448265,10.7489395,SCH
18350950000000.0,1.4162598848342896,2.56272029876709,6.226535797119141,5.525919437408447,-1.3729480504989624,0.61361414,0.61636305,103.92016,-43.921642,10.812661,SCH
18350955000000.0,1.4212524890899658,2.6110973358154297,6.1796555519104,5.527066230773926,-1.385414958000183,0.6966918000000001,0.63804877,103.77754,-43.411716,10.858834,SCH
18350960000000.0,1.426245093345642,2.665198564529419,6.128527641296387,5.5242600440979,-1.3969244956970215,0.754724,0.6560693,103.59765,-42.89721,10.929457000000001,SCH
18350965000000.0,1.431239128112793,2.7210755348205566,6.075127601623535,5.531090259552002,-1.4087810516357422,0.73548174,0.6737844,103.4201,-42.385740000000006,11.000034,SCH
18350970000000.0,1.4362348318099976,2.7783055305480957,6.01973295211792,5.5482563972473145,-1.4202824831008911,0.71837753,0.6728681,103.23867,-41.891357,11.055302000000001,SCH
18350975000000.0,1.4412286281585693,2.827477216720581,5.968743801116943,5.577371120452881,-1.4323103427886963,0.6713409,0.66859204,103.063034,-41.367992,11.148844,SCH
18350980000000.0,1.4462201595306396,2.8681395053863525,5.922520160675049,5.617992401123047,-1.4453248977661133,0.5849035,0.6301074999999999,102.91309,-40.85483,11.244202,SCH
18350986000000.0,1.4512168169021606,2.906859874725342,5.885375022888184,5.662552833557129,-1.459175944328308,0.52687126,0.59742624,102.77231,-40.296271999999995,11.353804,SCH
18350990000000.0,1.456215500831604,2.944258213043213,5.857130527496338,5.710176467895508,-1.4737212657928467,0.47891834,0.5732970000000001,102.65934,-39.74438,11.469823,SCH
18350994000000.0,1.4612149000167847,2.977721691131592,5.836748123168945,5.757115840911865,-1.487751841545105,0.44318274,0.55863625,102.556984,-39.183735,11.571887,SCH
18351000000000.0,1.4662071466445923,3.007117986679077,5.82354211807251,5.802822113037109,-1.501230001449585,0.45112398,0.5708536,102.46157,-38.62918,11.671021000000001,SCH
18351005000000.0,1.471203088760376,3.0316226482391357,5.814159393310547,5.851480484008789,-1.5150316953659058,0.45845437,0.5867361,102.356964,-38.08297,11.761632,SCH
18351011000000.0,1.4761989116668701,3.0514233112335205,5.807946681976318,5.903371334075928,-1.5282443761825562,0.45906523,0.62858033,102.24999,-37.550841999999996,11.854827,SCH
18351015000000.0,1.4811954498291016,3.061359167098999,5.803574562072754,5.9577412605285645,-1.540915608406067,0.45723262,0.6429357,102.11641,-37.035315999999995,11.923731,SCH
18351022000000.0,1.4862253665924072,3.0593395233154297,5.800796031951904,6.014926433563232,-1.5518860816955566,0.4596761,0.66553766,101.97758,-36.534775,11.996751,SCH
18351026000000.0,1.4912192821502686,3.0497357845306396,5.8025593757629395,6.074541091918945,-1.5613441467285156,0.46639562,0.6918049,101.82293,-36.038284000000004,12.055177,SCH
18351030000000.0,1.4962159395217896,3.032093048095703,5.810374736785889,6.137659072875977,-1.5686216354370117,0.47433686,0.69913524,101.67452,-35.564056,12.110058,SCH
18351034000000.0,1.5012120008468628,3.0126113891601562,5.823506832122803,6.200716972351074,-1.5744857788085938,0.4877759,0.6942484,101.5018,-35.101463,12.130057,SCH
18351040000000.0,1.5062917470932007,2.992795705795288,5.843348979949951,6.26343297958374,-1.5806070566177368,0.46883908,0.68844515,101.34071999999999,-34.651825,12.154941,SCH
18351045000000.0,1.5112836360931396,2.973289966583252,5.86610746383667,6.321004867553711,-1.5860440731048584,0.45020768,0.675617,101.15320600000001,-34.23019,12.144946000000001,SCH
18351050000000.0,1.516275405883789,2.953690767288208,5.893601417541504,6.3672943115234375,-1.59060537815094,0.46578476,0.6786713000000001,100.96975,-33.818256,12.132627000000001,SCH
18351055000000.0,1.5212665796279907,2.9338254928588867,5.918910503387451,6.405639171600342,-1.5933772325515747,0.46944994,0.6930265999999999,100.77544,-33.43419,12.118912,SCH
18351060000000.0,1.5262598991394043,2.9135260581970215,5.935904502868652,6.438954830169678,-1.5937713384628296,0.46853364,0.68294734,100.593094,-33.069477,12.099207,SCH
18351066000000.0,1.5312529802322388,2.890308380126953,5.944248676300049,6.471743583679199,-1.5923864841461182,0.45998153,0.6600399,100.3797,-32.74069,12.069524000000001,SCH
18351070000000.0,1.5362462997436523,2.861323118209839,5.943391799926758,6.509039402008057,-1.5896430015563965,0.43615779999999993,0.6606508000000001,100.174095,-32.430614,12.046558000000001,SCH
18351076000000.0,1.5412399768829346,2.8256759643554688,5.931401252746582,6.553091526031494,-1.5862807035446167,0.39950588,0.64660084,99.99468,-32.12236,12.026585,SCH
18351080000000.0,1.5462342500686646,2.782026529312134,5.905457496643066,6.6070427894592285,-1.5823651552200317,0.36438109999999996,0.6114761,99.8312,-31.831754999999998,12.009284,SCH
18351085000000.0,1.5512291193008423,2.733121395111084,5.869838714599609,6.670111179351807,-1.5782513618469238,0.31337386,0.58093286,99.63756,-31.493956,11.989997,SCH
18351090000000.0,1.556249737739563,2.681535243988037,5.8286051750183105,6.742619037628174,-1.5744707584381104,0.2565634,0.55924714,99.46485,-31.168823,11.977108,SCH
18351095000000.0,1.561245322227478,2.632579803466797,5.783588409423828,6.822844982147217,-1.5711194276809692,0.19150625,0.55924714,99.303474,-30.785471,11.969443,SCH
18351100000000.0,1.5662392377853394,2.590791702270508,5.7347331047058105,6.912470817565918,-1.5679304599761963,0.08368854,0.5549710999999999,99.171364,-30.415033,11.9822235,SCH
18351106000000.0,1.571231484413147,2.5521652698516846,5.682965278625488,7.009077072143555,-1.5649114847183228,-0.014049901000000002,0.56321776,99.04085,-30.006566999999997,11.998375,SCH
18351110000000.0,1.5762267112731934,2.5090489387512207,5.629833221435547,7.108538627624512,-1.5614022016525269,-0.03848451,0.5393939999999999,98.93145,-29.615128000000002,12.016656,SCH
18351116000000.0,1.5812181234359741,2.464536190032959,5.576367378234863,7.211151123046875,-1.5583240985870361,-0.09101892,0.52442783,98.862144,-29.178584999999998,12.082628999999999,SCH
18351120000000.0,1.5862131118774414,2.4296858310699463,5.526020526885986,7.319634914398193,-1.5548566579818726,-0.15699236,0.52839845,98.80459,-28.761621,12.154783,SCH
18351124000000.0,1.5912076234817505,2.4062042236328125,5.479080677032471,7.429846286773682,-1.5510531663894653,-0.16798794,0.5161811,98.708275,-28.307178000000004,12.209693,SCH
18351130000000.0,1.5962038040161133,2.3991832733154297,5.4364776611328125,7.532872676849365,-1.5477778911590576,-0.13469578,0.5140431,98.61707,-27.862886,12.268711999999999,SCH
18351135000000.0,1.6012002229690552,2.409843921661377,5.3997979164123535,7.625517845153809,-1.5438469648361206,-0.08552113,0.5128214,98.54315,-27.418608000000003,12.3359,SCH
18351141000000.0,1.6062020063400269,2.4418423175811768,5.372374534606934,7.7012128829956055,-1.538497805595398,-0.036957346,0.5198463,98.46818,-26.9889,12.392405,SCH
18351145000000.0,1.6112027168273926,2.4895479679107666,5.352141380310059,7.762173175811768,-1.5318059921264648,0.02687807,0.5222898,98.3995,-26.5705,12.460911,SCH
18351150000000.0,1.6161987781524658,2.5294737815856934,5.330741882324219,7.815145969390869,-1.523533821105957,0.00580322,0.5149594,98.34127,-26.173958,12.535053,SCH
18351156000000.0,1.6211953163146973,2.563183546066284,5.3077850341796875,7.861264228820801,-1.5133585929870605,-0.0012217305,0.50518554,98.20812,-25.785606,12.636726,SCH
18351160000000.0,1.626192569732666,2.60006046295166,5.280343532562256,7.9066619873046875,-1.5019187927246094,0.03604105,0.5103779,98.07547,-25.415674,12.728561000000001,SCH
18351164000000.0,1.631192922592163,2.6391499042510986,5.248538017272949,7.951571464538574,-1.4901608228683472,0.03604105,0.5018258,97.95703,-25.069408,12.815203,SCH
18351170000000.0,1.636189579963684,2.6698663234710693,5.211895942687988,7.998199939727783,-1.4784272909164429,0.03634648,0.49693888,97.83678,-24.74019,12.889849,SCH
18351175000000.0,1.641202449798584,2.6922078132629395,5.170033931732178,8.046591758728027,-1.466814398765564,0.04153884,0.47403142,97.687454,-24.375854,12.974959,SCH
18351180000000.0,1.6461970806121826,2.708000421524048,5.120660781860352,8.092161178588867,-1.4536067247390747,-0.008246681,0.47158796,97.546715,-24.033360000000002,13.072125,SCH
18351185000000.0,1.6512080430984497,2.7164831161499023,5.062908172607422,8.135601043701172,-1.4394100904464722,-0.062308256,0.47342056,97.42098,-23.680191,13.152934,SCH
18351190000000.0,1.6562025547027588,2.714406967163086,4.9990668296813965,8.183541297912598,-1.423105239868164,-0.096516706,0.44043383,97.31421,-23.357359,13.233683,SCH
18351196000000.0,1.6612149477005005,2.70107364654541,4.928285121917725,8.236492156982422,-1.4064321517944336,-0.16065755,0.41172317,97.174255,-22.991735000000002,13.323389,SCH
18351200000000.0,1.66620934009552,2.680393934249878,4.8532185554504395,8.289719581604004,-1.389085054397583,-0.25595254,0.38606682,97.05564,-22.65514,13.423273000000002,SCH
18351206000000.0,1.6712039709091187,2.652195692062378,4.773531436920166,8.343425750732422,-1.371116042137146,-0.40653083,0.3735441,96.93934,-22.290247,13.53186,SCH
18351210000000.0,1.6761987209320068,2.6268327236175537,4.693988800048828,8.397830963134766,-1.354316234588623,-0.49174652,0.35185838,96.840744,-21.937037,13.640622,SCH
18351215000000.0,1.6811926364898682,2.6091177463531494,4.616848468780518,8.453009605407715,-1.3389164209365845,-0.52778757,0.34208453,96.757866,-21.600048,13.771144,SCH
18351220000000.0,1.6861883401870728,2.607171058654785,4.528388977050781,8.508660316467285,-1.3243697881698608,-0.5549710999999999,0.34238997,96.66639,-21.231482,13.901091000000001,SCH
18351225000000.0,1.6911849975585938,2.623310089111328,4.424129009246826,8.564637184143066,-1.3104193210601807,-0.5164866,0.31184670000000003,96.58678,-20.874441,14.013736999999999,SCH
18351230000000.0,1.6961818933486938,2.6646392345428467,4.312441825866699,8.628561973571777,-1.2968053817749023,-0.41783184,0.27488935,96.49148000000001,-20.504068,14.125236,SCH
18351236000000.0,1.7011785507202148,2.733062505722046,4.196771621704102,8.703091621398926,-1.282370686531067,-0.27672195,0.22937989,96.40275,-20.153639000000002,14.20606,SCH
18351242000000.0,1.7062609195709229,2.8402392864227295,4.0838623046875,8.793124198913574,-1.2676960229873657,-0.18967366,0.18600847,96.339294,-19.726961,14.32535,SCH
18351246000000.0,1.711255431175232,2.9642879962921143,3.976628065109253,8.88862419128418,-1.2525337934494019,-0.16035213,0.15607607,96.280716,-19.32327,14.414698999999999,SCH
18351250000000.0,1.7162504196166992,3.105013370513916,3.878201484680176,8.983015060424805,-1.2378052473068237,-0.16920967,0.14874569,96.25466,-18.87066,14.546307,SCH
18351254000000.0,1.7212470769882202,3.2568464279174805,3.7899169921875,9.070906639099121,-1.222022294998169,-0.19517145,0.1826487,96.22803,-18.44346,14.670407999999998,SCH
18351260000000.0,1.726243257522583,3.4107003211975098,3.7076196670532227,9.151649475097656,-1.203743577003479,-0.22113322,0.22510384,96.19771999999999,-17.987345,14.873821,SCH
18351265000000.0,1.7312394380569458,3.560365676879883,3.628371238708496,9.22488021850586,-1.1824346780776978,-0.2501493,0.25534168,96.16496,-17.555588,15.079135999999998,SCH
18351271000000.0,1.7362340688705444,3.6995675563812256,3.549717903137207,9.288047790527344,-1.160617470741272,-0.2846632,0.26878070000000004,96.140594,-17.148716,15.329113000000001,SCH
18351275000000.0,1.7412729263305664,3.824620246887207,3.4696474075317383,9.338874816894531,-1.1359912157058716,-0.2284636,0.29901853,96.09709000000001,-16.781813,15.557955999999999,SCH
18351280000000.0,1.7462679147720337,3.937019109725952,3.3888776302337646,9.377033233642578,-1.108315110206604,-0.16737708,0.3051272,96.037544,-16.422929999999997,15.795459,SCH
18351286000000.0,1.7512637376785278,4.0356035232543945,3.305936813354492,9.399128913879395,-1.0810720920562744,0.002443461,0.32223140000000006,95.95193499999999,-16.074023999999998,15.983409,SCH
18351290000000.0,1.7562607526779175,4.121463298797607,3.2213985919952393,9.412591934204102,-1.0530346632003784,0.18417588,0.33261612,95.84827,-15.750082,16.142836,SCH
18351294000000.0,1.7612565755844116,4.195526123046875,3.135638475418091,9.421353340148926,-1.025124192237854,0.36163223,0.31795537,95.73486,-15.436389000000002,16.250431,SCH
18351300000000.0,1.7662521600723267,4.259641647338867,3.047346591949463,9.427953720092773,-0.9963246583938599,0.49907690000000005,0.30970868,95.597786,-15.136373999999998,16.309206,SCH
18351305000000.0,1.7712466716766357,4.3151397705078125,2.9558355808258057,9.433955192565918,-0.9682948589324951,0.6114761,0.28924468,95.46014,-14.844801,16.321661,SCH
18351310000000.0,1.7762786149978638,4.361934185028076,2.859713077545166,9.442058563232422,-0.9406194686889648,0.65301496,0.26725355,95.305954,-14.554716,16.304928,SCH
18351315000000.0,1.781272530555725,4.401978969573975,2.761322259902954,9.452865600585938,-0.9143213033676147,0.6591236,0.2415972,95.15848000000001,-14.27225,16.26533,SCH
18351320000000.0,1.7862635850906372,4.437296390533447,2.6636626720428467,9.4647216796875,-0.8882038593292236,0.6395759,0.21930063,95.02291,-13.985388,16.211473,SCH
18351326000000.0,1.7912603616714478,4.469700336456299,2.5694029331207275,9.476203918457031,-0.8636084794998169,0.58062744,0.19211712,94.90475500000001,-13.7013855,16.165678,SCH
18351330000000.0,1.7962552309036255,4.499373912811279,2.478410482406616,9.487324714660645,-0.8392820954322815,0.462425,0.1695151,94.80546600000001,-13.409189999999999,16.130598000000003,SCH
18351336000000.0,1.801252007484436,4.5264482498168945,2.390486478805542,9.498106956481934,-0.8155522346496582,0.33536503,0.15363261,94.7227,-13.12316,16.113756,SCH
18351340000000.0,1.806244969367981,4.54958438873291,2.3085250854492188,9.504867553710938,-0.7924033403396606,0.21868975,0.14355333,94.65724,-12.850439,16.12564,SCH
18351345000000.0,1.81123948097229,4.567715167999268,2.23470401763916,9.504730224609375,-0.7687301635742188,0.12614368,0.13011430000000002,94.608406,-12.594872,16.16377,SCH
18351350000000.0,1.81623375415802,4.579709053039551,2.167005777359009,9.49963665008545,-0.74403977394104,0.07299839999999999,0.12308934,94.51985,-12.319714999999999,16.219114,SCH
18351355000000.0,1.8212285041809082,4.584512233734131,2.1036171913146973,9.491305351257324,-0.7188095450401306,0.040011674,0.111177474,94.44523000000001,-12.060111000000001,16.290497,SCH
18351360000000.0,1.826222538948059,4.582915306091309,2.0445144176483154,9.480886459350586,-0.6937031149864197,0.032375857,0.11148291,94.35746,-11.82806,16.364065,SCH
18351366000000.0,1.831217885017395,4.575997829437256,1.9899128675460815,9.470481872558594,-0.667655885219574,0.04337143,0.1151481,94.276085,-11.617599,16.437965,SCH
18351370000000.0,1.8362125158309937,4.564540386199951,1.9382227659225464,9.460653305053711,-0.6419224739074707,0.071776666,0.10567969,94.21461500000001,-11.427166,16.499142000000003,SCH
18351376000000.0,1.8412072658538818,4.549379825592041,1.887511134147644,9.452110290527344,-0.6174302101135254,0.11148291,0.11575896,94.14716999999999,-11.246113000000001,16.553076,SCH
18351380000000.0,1.8462287187576294,4.532276153564453,1.8364280462265015,9.446625709533691,-0.5924527049064636,0.12461651,0.12675454,94.07284,-11.087263,16.585253,SCH
18351384000000.0,1.8512239456176758,4.515664100646973,1.7844982147216797,9.445212364196777,-0.5680413246154785,0.15607607,0.13683382,93.99514,-10.927141,16.600569,SCH
18351390000000.0,1.8562225103378296,4.499080657958984,1.7307255268096924,9.447176933288574,-0.5446866750717163,0.18112154,0.16462818,93.90900400000001,-10.769026,16.603691,SCH
18351395000000.0,1.8612194061279297,4.481267929077148,1.6732444763183594,9.449271202087402,-0.5234231352806091,0.19975294,0.18325958,93.82441999999999,-10.613061,16.59945,SCH
18351401000000.0,1.8662182092666626,4.462363243103027,1.61201012134552,9.45048999786377,-0.5041880011558533,0.22296582,0.20158553,93.73612,-10.442497999999999,16.584395999999998,SCH
18351405000000.0,1.8712137937545776,4.443706512451172,1.5454272031784058,9.438472747802734,-0.48695462942123413,0.25228736,0.20677789,93.64875,-10.271124,16.562704,SCH
18351410000000.0,1.8762106895446777,4.424927234649658,1.4727627038955688,9.414328575134277,-0.47093266248703003,0.2864958,0.22082779,93.5342,-10.067305000000001,16.522932,SCH
18351416000000.0,1.8812084197998047,4.401813983917236,1.3836489915847778,9.386390686035156,-0.45532506704330444,0.3145956,0.21594086,93.42784,-9.868821,16.476645,SCH
18351420000000.0,1.8862096071243286,4.374721050262451,1.2800780534744263,9.35527515411377,-0.4401911199092865,0.3484986,0.21105394,93.318825,-9.6475315,16.4268,SCH
18351424000000.0,1.8912080526351929,4.346073627471924,1.1790286302566528,9.326817512512207,-0.42469173669815063,0.3436117,0.1966986,93.22024499999999,-9.439105,16.380337,SCH
18351430000000.0,1.8962140083312988,4.315937042236328,1.0807698965072632,9.301082611083984,-0.40881383419036865,0.33169982,0.17165314,93.13659,-9.170097,16.316969,SCH
18351435000000.0,1.9012123346328735,4.28577995300293,0.9918137192726135,9.279972076416016,-0.39311474561691284,0.29749137,0.15118915,93.06416,-8.911133999999999,16.262403,SCH
18351441000000.0,1.9062950611114502,4.255027770996094,0.9131038784980774,9.26439094543457,-0.37740588188171387,0.24953845,0.13561209,92.99679,-8.651660000000001,16.214415,SCH
18351445000000.0,1.9112884998321533,4.223523139953613,0.8431156873703003,9.252809524536133,-0.36261558532714844,0.20036379999999998,0.12308934,92.94229,-8.397950999999999,16.176865,SCH
18351450000000.0,1.9162886142730713,4.189855575561523,0.7839918732643127,9.246785163879395,-0.34814146161079407,0.1695151,0.10079276599999999,92.90204,-8.158935000000001,16.147388,SCH
18351456000000.0,1.9212819337844849,4.157456398010254,0.7381131052970886,9.245721817016602,-0.3348293602466583,0.1151481,0.07544186,92.86282,-7.935478,16.121029999999998,SCH
18351460000000.0,1.9262763261795044,4.127533912658691,0.7064282298088074,9.249464988708496,-0.3216732442378998,0.09132435,0.07147124,92.82831,-7.7243185,16.095549,SCH
18351466000000.0,1.9312701225280762,4.096314430236816,0.6856630444526672,9.255656242370605,-0.3101949095726013,0.043066,0.0693332,92.79218,-7.528036599999999,16.075453,SCH
18351470000000.0,1.936262607574463,4.061925411224365,0.6738907098770142,9.263044357299805,-0.29991427063941956,-0.0012217305,0.057421334000000004,92.76451999999999,-7.3421270000000005,16.061203,SCH
18351475000000.0,1.9412567615509033,4.026175498962402,0.6688315868377686,9.266955375671387,-0.29195573925971985,-0.007330383,0.053145275,92.72685,-7.1879990000000005,16.046741,SCH
18351480000000.0,1.9462522268295288,3.990051031112671,0.669108510017395,9.265085220336914,-0.2858049273490906,0.011911871999999999,0.05955936,92.69301,-7.036671000000001,16.037579,SCH
18351485000000.0,1.9512460231781006,3.9525082111358643,0.6720550060272217,9.257654190063477,-0.28055161237716675,0.019547688,0.06688975,92.654625,-6.911813700000001,16.021484,SCH
18351490000000.0,1.9562407732009888,3.912945032119751,0.6761848330497742,9.244811058044434,-0.27515503764152527,0.053145275,0.07391469,92.61529499999999,-6.7877603,15.993360000000001,SCH
18351496000000.0,1.9612315893173218,3.8707923889160156,0.680570125579834,9.226038932800293,-0.2695252001285553,0.06017022599999999,0.09010262,92.568016,-6.683198,15.969496,SCH
18351500000000.0,1.9662261009216309,3.8244659900665283,0.6834376454353333,9.199535369873047,-0.26246997714042664,0.06658431,0.09162979,92.524185,-6.5903735,15.937095999999999,SCH
18351506000000.0,1.971218466758728,3.775143623352051,0.6849033832550049,9.169929504394531,-0.25357702374458313,0.08796459400000001,0.090713486,92.46415999999999,-6.508538,15.883142000000001,SCH
18351510000000.0,1.9762167930603027,3.7246384620666504,0.6850205659866333,9.146221160888672,-0.24364422261714935,0.08582657,0.09162979,92.4063,-6.434118,15.835856,SCH
18351514000000.0,1.9812099933624268,3.6742169857025146,0.6846379637718201,9.128597259521484,-0.2328246384859085,0.06719518,0.09590584,92.34975,-6.3722105,15.781630499999999,SCH
18351520000000.0,1.986204743385315,3.626734495162964,0.6857870221138,9.11871337890625,-0.22175151109695435,0.026572637000000003,0.09162979,92.29847,-6.31743,15.736002,SCH
18351525000000.0,1.9911994934082031,3.5822055339813232,0.6883164048194885,9.1163911819458,-0.20983609557151794,-0.03848451,0.098043874,92.24771,-6.268122,15.69537,SCH
18351531000000.0,1.996198058128357,3.541055679321289,0.6919686794281006,9.122241973876953,-0.19793714582920074,-0.09712757,0.09682214,92.203445,-6.2213125,15.665712,SCH
18351535000000.0,2.001194715499878,3.5031323432922363,0.6969813108444214,9.135042190551758,-0.1861351728439331,-0.16829337,0.0983493,92.15684,-6.183889,15.652041,SCH
18351540000000.0,2.006197929382324,3.468515634536743,0.704812228679657,9.151787757873535,-0.17450639605522156,-0.23609942,0.10170906,92.113365,-6.150428,15.654728,SCH
18351546000000.0,2.011197328567505,3.437016725540161,0.7159717082977295,9.171611785888672,-0.16357873380184174,-0.2910773,0.11453723,92.06933000000001,-6.118715,15.671717999999998,SCH
18351550000000.0,2.0161962509155273,3.4086599349975586,0.7343419194221497,9.191843032836914,-0.15246839821338654,-0.33139440000000003,0.12156218,92.028915,-6.0949955000000005,15.703116,SCH
18351554000000.0,2.021195650100708,3.383307456970215,0.7595040202140808,9.212395668029785,-0.14076191186904907,-0.37323865,0.13041973,91.984276,-6.081841000000001,15.749475,SCH
18351560000000.0,2.0261945724487305,3.3610939979553223,0.7902214527130127,9.2323637008667,-0.12933747470378876,-0.3903429,0.13225232,91.941185,-6.0690856,15.798734,SCH
18351567000000.0,2.0312294960021973,3.3417675495147705,0.8264567255973816,9.251981735229492,-0.11813122779130936,-0.40591997,0.14141529999999997,91.88675,-6.0894876,15.859104,SCH
18351571000000.0,2.036224842071533,3.323666572570801,0.8638918399810791,9.271533012390137,-0.10744080692529678,-0.41935900000000004,0.15454891,91.83194,-6.10959,15.921892000000001,SCH
18351575000000.0,2.04121732711792,3.306755781173706,0.9029394388198853,9.291169166564941,-0.0980200320482254,-0.40347649999999996,0.16768251,91.76743,-6.150070700000001,15.9811945,SCH
18351580000000.0,2.046215057373047,3.2903695106506348,0.9434855580329895,9.304952621459961,-0.09012679010629654,-0.3747658,0.16310102,91.70515400000001,-6.189141,16.038267,SCH
18351586000000.0,2.0512101650238037,3.2743635177612305,0.9853221774101257,9.312085151672363,-0.08374477922916412,-0.3136793,0.16218472,91.637245,-6.222595,16.080105,SCH
18351590000000.0,2.056210517883301,3.258896827697754,1.029569149017334,9.307945251464844,-0.077686607837677,-0.23671028,0.14966199,91.54229000000001,-6.2601333,16.104277,SCH
18351594000000.0,2.0612030029296875,3.244006633758545,1.0761654376983643,9.292381286621094,-0.07108859717845917,-0.16737708,0.15057829,91.44353000000001,-6.295581299999999,16.112751,SCH
18351600000000.0,2.0662009716033936,3.2300496101379395,1.1227895021438599,9.269312858581543,-0.06437016278505325,-0.12217305,0.15241088,91.33241,-6.340147,16.105504999999997,SCH
18351605000000.0,2.0711958408355713,3.217085361480713,1.1686713695526123,9.240503311157227,-0.05682152882218361,-0.08277224,0.15332718,91.22095,-6.3928676,16.080835,SCH
18351610000000.0,2.0761938095092773,3.20772647857666,1.2178704738616943,9.218125343322754,-0.04897525534033775,-0.064751714,0.1572978,91.09926,-6.4646482,16.056593,SCH
18351615000000.0,2.0811901092529297,3.202584743499756,1.2713888883590698,9.205615997314453,-0.041433192789554596,-0.08246681,0.15913039999999998,90.97948000000001,-6.539263,16.032467,SCH
18351620000000.0,2.086185932159424,3.2014832496643066,1.32551109790802,9.199702262878418,-0.03421168029308319,-0.10903945,0.14966199,90.86034000000001,-6.6262274,16.010967,SCH
18351626000000.0,2.0911855697631836,3.2042784690856934,1.3787959814071655,9.198965072631836,-0.028498157858848572,-0.14080444,0.15241088,90.739365,-6.705913000000001,15.997410999999998,SCH
18351630000000.0,2.096184730529785,3.209395408630371,1.4320148229599,9.201207160949707,-0.0241471529006958,-0.17898351,0.14599679999999998,90.61856999999999,-6.806734,16.003866,SCH
18351636000000.0,2.101222276687622,3.2164275646209717,1.4859528541564941,9.205791473388672,-0.020923279225826263,-0.22602014,0.14996742,90.49684,-6.900558999999999,16.022509,SCH
18351642000000.0,2.1063029766082764,3.2263970375061035,1.5388455390930176,9.20938777923584,-0.018359536305069923,-0.2648101,0.13775012,90.37784599999999,-6.994453,16.054272,SCH
18351647000000.0,2.1112966537475586,3.238003969192505,1.5896422863006592,9.211708068847656,-0.016762565821409225,-0.31948254,0.13164146,90.25981999999999,-7.080273599999999,16.103285,SCH
18351650000000.0,2.1162896156311035,3.2514493465423584,1.6395419836044312,9.2089204788208,-0.015332089737057686,-0.34972036,0.11636983,90.14688000000001,-7.1782994,16.156617999999998,SCH
18351655000000.0,2.1212832927703857,3.266223907470703,1.6890839338302612,9.199121475219727,-0.01339186355471611,-0.36132678,0.11575896,90.03419,-7.273677,16.21861,SCH
18351660000000.0,2.1262776851654053,3.2806994915008545,1.7370175123214722,9.182197570800781,-0.011734087951481342,-0.36621370000000003,0.10934488,89.922874,-7.366827000000001,16.290607,SCH
18351665000000.0,2.131272077560425,3.2939224243164062,1.782637119293213,9.158236503601074,-0.010001885704696178,-0.34788775,0.099265605,89.81366,-7.4639463,16.356806,SCH
18351670000000.0,2.136267900466919,3.3073313236236572,1.8261988162994385,9.128398895263672,-0.007645794190466404,-0.31184670000000003,0.09285152,89.70245,-7.572794,16.424559,SCH
18351676000000.0,2.141263246536255,3.322286605834961,1.8679413795471191,9.093871116638184,-0.0047641717828810215,-0.2761111,0.09315695,89.59253000000001,-7.681136599999999,16.484848,SCH
18351680000000.0,2.146257162094116,3.336937189102173,1.9073725938796997,9.058088302612305,-0.0013687476748600602,-0.226631,0.08582657,89.48246999999999,-7.7970796,16.535006,SCH
18351684000000.0,2.1512534618377686,3.3492753505706787,1.9439364671707153,9.024723052978516,0.002382877515628934,-0.18845193,0.08521569999999999,89.37019000000001,-7.913864,16.576944,SCH
18351690000000.0,2.156252384185791,3.3594229221343994,1.9768396615982056,8.993528366088867,0.005820627324283123,-0.16096300000000002,0.07544186,89.26536999999999,-8.037465,16.610575,SCH
18351695000000.0,2.1612484455108643,3.3675308227539062,2.0052411556243896,8.96424674987793,0.00839152093976736,-0.14752395,0.070249505,89.1589,-8.159208,16.636707,SCH
18351701000000.0,2.1662404537200928,3.3734312057495117,2.027902126312256,8.937179565429688,0.010271974839270115,-0.14294247,0.06414085,89.05218,-8.275798,16.661766,SCH
18351705000000.0,2.1712639331817627,3.3765664100646973,2.0422754287719727,8.91291618347168,0.011808053590357304,-0.1151481,0.055283304000000005,88.94688000000001,-8.389936,16.675573,SCH
18351710000000.0,2.176255464553833,3.3784780502319336,2.0518598556518555,8.889718055725098,0.012236797250807285,-0.09162979,0.037873644,88.84971,-8.487796000000001,16.685316,SCH
18351716000000.0,2.181252956390381,3.3808000087738037,2.059396743774414,8.864938735961914,0.01132422685623169,-0.076358154,0.019547688,88.7553,-8.582741,16.688997,SCH
18351720000000.0,2.1862456798553467,3.3838305473327637,2.06508207321167,8.838193893432617,0.010004524141550064,-0.06352998,0.016493361,88.66875,-8.653157,16.682045000000002,SCH
18351726000000.0,2.1912448406219482,3.388383150100708,2.069021224975586,8.808064460754395,0.007925007492303848,-0.06169739,0.008552114,88.589714,-8.716313000000001,16.673267000000003,SCH
18351730000000.0,2.1962387561798096,3.394463062286377,2.0713346004486084,8.775415420532227,0.006639962550252676,-0.048258353,0.007330383,88.51058,-8.779613000000001,16.67355,SCH
18351735000000.0,2.2012381553649902,3.4031364917755127,2.0718228816986084,8.743534088134766,0.005765225272625685,-0.043982297000000004,-0.009162978,88.43954000000001,-8.838527000000001,16.674858,SCH
18351740000000.0,2.206251382827759,3.4142706394195557,2.07049560546875,8.712442398071289,0.004937105346471071,-0.036957346,-0.025961772999999997,88.40254407122141,-8.86846738941682,16.675498455836802,SCH
18351745000000.0,2.211249828338623,3.4261300563812256,2.067167043685913,8.683572769165039,0.003957789856940508,-0.029932396,-0.02565634,88.36924,-8.89542,16.676075,SCH
18351750000000.0,2.216245174407959,3.4387319087982178,2.0618557929992676,8.656830787658691,0.002119133248925209,-0.01740966,-0.0290161,88.30044000000001,-8.950286,16.67636,SCH
18351756000000.0,2.2212419509887695,3.4516947269439697,2.0552217960357666,8.633405685424805,0.0004435730807017535,-0.014049901000000002,-0.035430185,88.24146,-9.005314,16.683344,SCH
18351760000000.0,2.2262327671051025,3.464503765106201,2.048135995864868,8.614718437194824,-0.0015984574565663934,-0.009468411,-0.032986722999999996,88.1807,-9.052227,16.686655,SCH
18351764000000.0,2.231222152709961,3.4779741764068604,2.040785312652588,8.600682258605957,-0.0039223190397024155,-0.011301007,-0.043066,88.14169,-9.0953045,16.697756,SCH
18351770000000.0,2.2362141609191895,3.492748498916626,2.033320903778076,8.591184616088867,-0.006317663937807083,0.007330383,-0.04520403,88.09862,-9.135867,16.702028,SCH
18351774000000.0,2.241204261779785,3.508362293243408,2.0242860317230225,8.5861234664917,-0.00878068245947361,0.015577064,-0.03573562,88.05713,-9.169312,16.708263,SCH
18351780000000.0,2.2461960315704346,3.524446964263916,2.0123448371887207,8.585501670837402,-0.011649592779576778,0.021380282999999996,-0.04550946,88.02141,-9.201531,16.708883,SCH
18351785000000.0,2.2511885166168213,3.5399365425109863,1.998001217842102,8.587888717651367,-0.014105172827839851,0.022907447,-0.04153884,87.97695,-9.228676,16.71996,SCH
18351790000000.0,2.25618314743042,3.554011583328247,1.9816452264785767,8.592167854309082,-0.017211200669407845,0.02107485,-0.039095376,87.93614000000001,-9.248597,16.729578,SCH
18351795000000.0,2.2611758708953857,3.566755533218384,1.963422179222107,8.598210334777832,-0.020363304764032364,0.02443461,-0.03848451,87.89583,-9.257138000000001,16.737161999999998,SCH
18351800000000.0,2.2661690711975098,3.578234910964966,1.943410038948059,8.605937957763672,-0.023168373852968216,0.018020526000000002,-0.03573562,87.85546,-9.263616,16.748007,SCH
18351806000000.0,2.271162986755371,3.5885162353515625,1.9217008352279663,8.615263938903809,-0.02544957399368286,0.008552114,-0.03268129,87.81554,-9.270275,16.75862,SCH
18351810000000.0,2.2761614322662354,3.5976552963256836,1.8983458280563354,8.626131057739258,-0.027576647698879242,0.0027488936,-0.030543262,87.7759,-9.27626,16.769861,SCH
18351814000000.0,2.281158924102783,3.6044836044311523,1.8730295896530151,8.637603759765625,-0.02947642281651497,-0.010995574,-0.029321532999999997,87.72847,-9.280902000000001,16.790346,SCH
18351820000000.0,2.28615665435791,3.607664108276367,1.8453093767166138,8.648699760437012,-0.03057502768933773,-0.013133603,-0.027183502999999998,87.68079,-9.288927000000001,16.808813,SCH
18351825000000.0,2.2911570072174072,3.60794734954834,1.8166794776916504,8.65944766998291,-0.03153369948267937,-0.01863139,-0.028710667000000002,87.65326999999999,-9.263916,16.828689999999998,SCH
18351831000000.0,2.2961556911468506,3.6069366931915283,1.7905983924865723,8.669878959655762,-0.032555222511291504,-0.030543262,-0.030848695,87.62659000000001,-9.242180000000001,16.850475,SCH
18351835000000.0,2.301154375076294,3.6048922538757324,1.7668153047561646,8.67980670928955,-0.033278144896030426,-0.04062254,-0.029321532999999997,87.605316,-9.208819,16.865845,SCH
18351842000000.0,2.3062376976013184,3.6021265983581543,1.745129942893982,8.688652038574219,-0.03379976749420166,-0.040927973,-0.029321532999999997,87.58609,-9.175754,16.881126000000002,SCH
18351846000000.0,2.3112287521362305,3.5990850925445557,1.7250233888626099,8.696743965148926,-0.03378899395465851,-0.03970624,-0.026572637000000003,87.56272,-9.148583,16.89534,SCH
18351850000000.0,2.316223382949829,3.597104549407959,1.7073081731796265,8.705824851989746,-0.03342069312930107,-0.042455133,-0.025350908,87.54084,-9.122498,16.910246,SCH
18351854000000.0,2.321221113204956,3.596342086791992,1.691989541053772,8.716024398803711,-0.03339756652712822,-0.04917465,-0.02687807,87.51987,-9.096293,16.925518,SCH
18351860000000.0,2.3262174129486084,3.5963706970214844,1.6792384386062622,8.725930213928223,-0.03344077989459038,-0.05589417,-0.023823743999999997,87.49714,-9.076523,16.940247,SCH
18351865000000.0,2.3312220573425293,3.5972068309783936,1.668992042541504,8.735583305358887,-0.032309722155332565,-0.052839845,-0.023518313,87.47499,-9.0660715,16.954507999999997,SCH
18351870000000.0,2.336216449737549,3.5991384983062744,1.6611158847808838,8.74517822265625,-0.030929671600461006,-0.05131268,-0.0070249503,87.44823000000001,-9.049838000000001,16.971529,SCH
18351875000000.0,2.341212511062622,3.6021571159362793,1.655563235282898,8.754737854003906,-0.02967200055718422,-0.05955936,-0.004581489,87.42438,-9.045564,16.990664000000002,SCH
18351880000000.0,2.346208095550537,3.605802297592163,1.6503077745437622,8.762540817260742,-0.028562741354107857,-0.06414085,0.0070249503,87.39331,-9.040902,17.009110999999997,SCH
18351886000000.0,2.3512680530548096,3.6103107929229736,1.6449501514434814,8.76811695098877,-0.026975443586707115,-0.07269296,0.006414085,87.36638,-9.040359500000001,17.030067000000003,SIT
18351890000000.0,2.3562610149383545,3.617476224899292,1.6384295225143433,8.772567749023438,-0.025570401921868324,-0.06750060599999999,0.013744468000000001,87.33155,-9.041789,17.050995,SIT
18351896000000.0,2.3612523078918457,3.6280407905578613,1.6303659677505493,8.775701522827148,-0.02386585995554924,-0.06963864,0.01160644,87.30096,-9.049447,17.077707,SIT
18351900000000.0,2.366245746612549,3.638558864593506,1.6244027614593506,8.778131484985352,-0.022105662152171135,-0.07941248,0.010079277,87.26879,-9.054991000000001,17.104864000000003,SIT
18351905000000.0,2.3712375164031982,3.6487584114074707,1.6206932067871094,8.779948234558105,-0.020309051498770714,-0.07849618,0.00580322,87.238235,-9.062961999999999,17.128769000000002,SIT
18351910000000.0,2.376232385635376,3.6591169834136963,1.6188353300094604,8.77982234954834,-0.01860818639397621,-0.0693332,0.013744468000000001,87.202614,-9.062428,17.166664,SIT
18351915000000.0,2.381223678588867,3.669699192047119,1.6186281442642212,8.777633666992188,-0.016232930123806,-0.06963864,0.016187929,87.1709,-9.067619,17.205408,SIT
18351920000000.0,2.3862180709838867,3.679603099822998,1.62070631980896,8.774580955505371,-0.0133494408801198,-0.0571159,0.011301007,87.13606999999999,-9.079924,17.237776,SIT
18351925000000.0,2.39121413230896,3.6887435913085938,1.6250290870666504,8.770866394042969,-0.010961445048451424,-0.064446285,0.009773844,87.10113,-9.090736999999999,17.275137,SIT
18351930000000.0,2.396209716796875,3.6971633434295654,1.6314581632614136,8.766531944274902,-0.008261223323643208,-0.06291912,0.004581489,87.07359,-9.11933,17.306079999999998,SIT
18351936000000.0,2.401204824447632,3.7049007415771484,1.6398813724517822,8.761610984802246,-0.005688627250492573,-0.05467244,0.01160644,87.04323000000001,-9.142846,17.3367,SIT
18351940000000.0,2.406205177307129,3.711026906967163,1.6508162021636963,8.756413459777832,-0.003481014631688595,-0.057421334000000004,0.013744468000000001,87.01979,-9.168975999999999,17.371164,SIT
18351944000000.0,2.4112045764923096,3.7148609161376953,1.664538025856018,8.751212120056152,-0.0018630949780344963,-0.06261369,0.020463986,86.992836,-9.192602,17.40364,SIT
18351950000000.0,2.416200637817383,3.715864419937134,1.6792941093444824,8.74498462677002,-0.0005755589227192104,-0.058948494000000004,0.026572637000000003,86.96048,-9.236081,17.426468,SIT
18351955000000.0,2.421196699142456,3.713909387588501,1.6944743394851685,8.737394332885742,0.0006921928143128753,-0.057421334000000004,0.025045475,86.92893000000001,-9.278131,17.450602,SIT
18351961000000.0,2.4262185096740723,3.7098495960235596,1.70967435836792,8.729743003845215,0.0025597538333386183,-0.06078109,0.03481932,86.8891,-9.331031,17.472025,SIT
18351965000000.0,2.431213855743408,3.7046139240264893,1.724528431892395,8.722731590270996,0.003758080070838332,-0.07147124,0.03573562,86.852806,-9.378008,17.494057,SIT
18351970000000.0,2.436208486557007,3.697617530822754,1.7384878396987915,8.715895652770996,0.0052832006476819515,-0.07269296,0.04062254,86.81662,-9.439127000000001,17.510944,SIT
18351976000000.0,2.4412097930908203,3.688586711883545,1.751221776008606,8.708942413330078,0.006889816839247942,-0.06627888,0.048563786,86.77949,-9.494928999999999,17.528349,SIT
18351980000000.0,2.4462056159973145,3.6780853271484375,1.7620668411254883,8.702716827392578,0.008834023028612137,-0.06047566,0.04550946,86.74701,-9.556484,17.54285,SIT
18351984000000.0,2.4512038230895996,3.666551351547241,1.7702109813690186,8.698150634765625,0.010837391018867493,-0.05375614,0.043982297000000004,86.71141999999999,-9.615772,17.555365,SIT
18351990000000.0,2.456200122833252,3.653947591781616,1.776121735572815,8.693913459777832,0.012994430959224701,-0.035124752999999995,0.034208454,86.67903000000001,-9.676242,17.557476,SIT
18351995000000.0,2.4611988067626953,3.64019775390625,1.7801593542099,8.688863754272461,0.01461330521851778,-0.032375857,0.03390302,86.644806,-9.732395,17.562471,SIT
18352000000000.0,2.4661951065063477,3.6271064281463623,1.7826627492904663,8.684111595153809,0.01645517535507679,-0.013133603,0.029932396,86.61195,-9.783673,17.560509,SIT
18352005000000.0,2.47119140625,3.616093873977661,1.7838817834854126,8.680533409118652,0.01828027330338955,0.004581489,0.023518313,86.58003000000001,-9.831141,17.558056,SIT
18352010000000.0,2.4761884212493896,3.6066970825195312,1.783892035484314,8.678947448730469,0.01991044357419014,0.01740966,0.014660766,86.55109,-9.874316,17.548637,SIT
18352016000000.0,2.4811851978302,3.59808087348938,1.7827824354171753,8.681083679199219,0.021063080057501793,0.034208454,0.0076358155,86.52248,-9.916125,17.5333,SIT
18352020000000.0,2.4861814975738525,3.5901262760162354,1.780984878540039,8.685237884521484,0.021389253437519073,0.023823743999999997,0.005497787,86.50103,-9.951145,17.526987,SIT
18352026000000.0,2.4911797046661377,3.582721471786499,1.7789053916931152,8.689800262451172,0.021600380539894104,0.032986722999999996,0.004276057,86.479454,-9.987489,17.510672,SIT
18352030000000.0,2.4962058067321777,3.5758495330810547,1.7765218019485474,8.69481086730957,0.021588651463389397,0.029321532999999997,-0.0009162978999999999,86.46503,-10.014649,17.496147,SIT
18352035000000.0,2.501204013824463,3.5694565773010254,1.773927092552185,8.700118064880371,0.021252000704407692,0.016187929,-0.013439035,86.4532,-10.040997,17.481955,SIT
18352040000000.0,2.506223201751709,3.564657211303711,1.7713751792907715,8.704435348510742,0.020786793902516365,0.008857545999999999,-0.0125227375,86.43883000000001,-10.065983000000001,17.468231,SIT
18352045000000.0,2.5112223625183105,3.5622692108154297,1.7691748142242432,8.706583023071289,0.020053386688232422,0.0033597588,-0.022602014,86.431984,-10.090121,17.456972,SIT
18352050000000.0,2.5162136554718018,3.5618300437927246,1.7673784494400024,8.706750869750977,0.019277678802609444,0.0033597588,-0.024740042,86.42947343465109,-10.099613127773301,17.4535714407019,SIT
18352056000000.0,2.5212090015411377,3.5616817474365234,1.7662127017974854,8.705572128295898,0.018299149349331856,-0.008552114,-0.024740042,86.42685,-10.109532000000002,17.450018,SIT
18352060000000.0,2.5262012481689453,3.5618338584899902,1.76569402217865,8.703447341918945,0.017372768372297287,-0.014049901000000002,-0.027183502999999998,86.4264205646612,-10.120267389866099,17.447319467819298,SIT
18352066000000.0,2.5311975479125977,3.5623619556427,1.7659714221954346,8.701179504394531,0.016772473230957985,-0.021380282999999996,-0.030543262,86.42598000000001,-10.131281,17.444551,SIT
18352070000000.0,2.53619122505188,3.563237190246582,1.7669847011566162,8.698781967163086,0.016220446676015854,-0.021685716,-0.030543262,86.422676,-10.151761,17.445657999999998,SIT
18352074000000.0,2.5411884784698486,3.5644495487213135,1.7687113285064697,8.696256637573242,0.015502510592341423,-0.02565634,-0.03145956,86.41905,-10.174192999999999,17.455587,SIT
18352080000000.0,2.546182870864868,3.5659425258636475,1.7710983753204346,8.69373893737793,0.014725171029567719,-0.01985312,-0.029626964,86.41694,-10.197661,17.463203,SIT
18352085000000.0,2.5511817932128906,3.5676167011260986,1.77414071559906,8.69161605834961,0.014314805157482624,-0.030543262,-0.036651913,86.418594,-10.222646000000001,17.47578,SIT
18352091000000.0,2.556183338165283,3.5698060989379883,1.7779310941696167,8.690141677856445,0.01392630860209465,-0.02565634,-0.029321532999999997,86.412094,-10.249381,17.484773999999998,SIT
18352095000000.0,2.5611824989318848,3.573364734649658,1.7827576398849487,8.689984321594238,0.01394917257130146,-0.03573562,-0.029932396,86.41112,-10.280451,17.499834,SIT
18352100000000.0,2.5661916732788086,3.5780253410339355,1.7886896133422852,8.691065788269043,0.013791766948997974,-0.027488936000000002,-0.026267206,86.39652,-10.306338,17.509964,SIT
18352106000000.0,2.57118821144104,3.582916736602783,1.7957426309585571,8.693047523498535,0.013610195368528366,-0.038179077,-0.029626964,86.38575,-10.335117,17.527431,SIT
18352110000000.0,2.5761842727661133,3.588212728500366,1.8038113117218018,8.69576644897461,0.013324358500540257,-0.04428773,-0.026267206,86.372284,-10.365860000000001,17.543499,SIT
18352114000000.0,2.581181287765503,3.594630718231201,1.8123435974121094,8.698468208312988,0.013070032000541687,-0.052839845,-0.030543262,86.362686,-10.397463,17.562237,SIT
18352120000000.0,2.5861918926239014,3.602177858352661,1.821357250213623,8.701159477233887,0.012845536693930626,-0.05497787,-0.03268129,86.3498,-10.432184,17.581057,SIT
18352125000000.0,2.591188430786133,3.6106529235839844,1.8307371139526367,8.703827857971191,0.012649282813072205,-0.06688975,-0.02687807,86.33672,-10.465982,17.604753,SIT
18352130000000.0,2.596184253692627,3.6198947429656982,1.8403725624084473,8.706109046936035,0.01274020317941904,-0.06627888,-0.036651913,86.328125,-10.502075999999999,17.624092,SIT
18352135000000.0,2.601182222366333,3.629026174545288,1.8496218919754028,8.706231117248535,0.012370511889457703,-0.07880162,-0.03145956,86.314705,-10.532038,17.651022,SIT
18352140000000.0,2.606179714202881,3.6380491256713867,1.8585044145584106,8.704329490661621,0.012280960567295551,-0.083383106,-0.03970624,86.29613,-10.570155,17.68727,SIT
18352146000000.0,2.6111812591552734,3.6469759941101074,1.867041826248169,8.70047664642334,0.012277567759156227,-0.07880162,-0.035124752999999995,86.272514,-10.602901,17.724348000000003,SIT
18352150000000.0,2.616177558898926,3.655780553817749,1.875362515449524,8.69472599029541,0.012030196376144886,-0.07666359,-0.03848451,86.26519,-10.640663,17.760632,SIT
18352156000000.0,2.6211743354797363,3.6643593311309814,1.884213924407959,8.686359405517578,0.011714620515704155,-0.07788532,-0.035124752999999995,86.25421,-10.677889,17.796192,SIT
18352160000000.0,2.626180410385132,3.672732353210449,1.8935903310775757,8.675535202026367,0.010764769278466702,-0.07391469,-0.03970624,86.24676,-10.716057000000001,17.830893,SIT
18352165000000.0,2.631178140640259,3.6808931827545166,1.9032864570617676,8.664000511169434,0.009881814941763878,-0.07147124,-0.03940081,86.23674,-10.755701,17.865725,SIT
18352170000000.0,2.636176109313965,3.6888606548309326,1.9133110046386719,8.651752471923828,0.008541318587958813,-0.06750060599999999,-0.03573562,86.21875,-10.792271000000001,17.900303,SIT
18352175000000.0,2.64117431640625,3.6966450214385986,1.9236466884613037,8.63882827758789,0.0060026273131370544,-0.05222898,-0.032375857,86.19981999999999,-10.824354,17.929937,SIT
18352180000000.0,2.646170139312744,3.704253673553467,1.934268593788147,8.625277519226074,0.003941054455935955,-0.04337143,-0.034513887,86.181526,-10.861677,17.959135,SIT
18352186000000.0,2.651167869567871,3.7117133140563965,1.9426054954528809,8.611771583557129,0.001826574793085456,-0.028405233999999998,-0.03481932,86.16049,-10.889081,17.981789000000003,SIT
18352190000000.0,2.656163215637207,3.7190308570861816,1.948198914527893,8.598474502563477,0.00037821155274286866,-0.029626964,-0.025961772999999997,86.13788000000001,-10.9208145,18.006186,SIT
18352196000000.0,2.661161422729492,3.7264316082000732,1.9539390802383423,8.586222648620605,-0.0010906284442171454,-0.02321288,-0.03359759,86.11612,-10.95787,18.025505,SIT
18352200000000.0,2.6661601066589355,3.733952522277832,1.9604026079177856,8.575138092041016,-0.0030020650010555983,-0.026267206,-0.028710667000000002,86.088776,-10.99311,18.048397,SIT
18352204000000.0,2.6711583137512207,3.7413687705993652,1.966134786605835,8.565484046936035,-0.004160542041063309,-0.015271631,-0.02107485,86.064064,-11.025927000000001,18.065516,SIT
18352210000000.0,2.676156997680664,3.7486472129821777,1.9709179401397705,8.557245254516602,-0.005436331499367952,-0.013744468000000001,-0.021991148999999998,86.04134,-11.051864,18.085316,SIT
18352215000000.0,2.6811554431915283,3.7557947635650635,1.9748038053512573,8.550345420837402,-0.005976759362965822,-0.010690141499999998,-0.027183502999999998,86.0132,-11.086757,18.103607,SIT
18352221000000.0,2.6861536502838135,3.7628183364868164,1.9778400659561157,8.544713020324707,-0.0066023278050124645,-0.0125227375,-0.015577064,85.98080999999999,-11.114972999999999,18.123232,SIT
18352225000000.0,2.691152334213257,3.769606351852417,1.9806349277496338,8.53991985321045,-0.007585213985294104,-0.010079277,-0.021380282999999996,85.95806542831129,-11.1426811219845,18.1408352225762,SIT
18352232000000.0,2.6967885494232178,3.776394844055176,1.9833221435546875,8.537015914916992,-0.007473969366401434,-0.0027488936,-0.0036651915999999997,85.88103000000001,-11.236528,18.200457,SIT
18352238000000.0,2.702284812927246,3.7825262546539307,1.986161231994629,8.534415245056152,-0.00710821570828557,0.0018325957999999999,0.0036651915999999997,85.85978,-11.269680000000001,18.21513,SIT
18352244000000.0,2.707760810852051,3.7878289222717285,1.9893510341644287,8.532203674316406,-0.006827063392847776,0.0030543262,0.005497787,85.84682,-11.303046,18.221039,SIT
18352250000000.0,2.7132058143615723,3.7929883003234863,1.9927139282226562,8.530040740966797,-0.0063004568219184875,-0.0033597588,0.0009162978999999999,85.833664,-11.338697,18.227808,SIT
18352257000000.0,2.7186288833618164,3.7984063625335693,1.9961644411087036,8.527726173400879,-0.005492644850164652,0.0009162978999999999,0.0061086523,85.81624000000001,-11.372613000000001,18.231903,SIT
18352263000000.0,2.724029064178467,3.803443670272827,1.9991704225540161,8.526568412780762,-0.00523248128592968,0.0009162978999999999,0.013133603,85.798546,-11.403732000000002,18.2439,SIT
18352270000000.0,2.7294068336486816,3.8078386783599854,2.0015177726745605,8.527091979980469,-0.004855963867157698,0.0076358155,0.014049901000000002,85.78036,-11.439125,18.25256,SIT
18352276000000.0,2.734769582748413,3.811617136001587,2.003230094909668,8.529244422912598,-0.004239074420183897,-0.0015271631,0.013744468000000001,85.761055,-11.472674000000001,18.266947000000002,SIT
18352280000000.0,2.7401108741760254,3.814822196960449,2.0043551921844482,8.532894134521484,-0.003964330535382032,-0.0061086523,0.017104227,85.739746,-11.503036999999999,18.278295999999997,SIT
18352286000000.0,2.7454657554626465,3.8171679973602295,2.006312847137451,8.536798477172852,-0.004111161921173334,0.004276057,0.023518313,85.71726,-11.533422999999999,18.287958,SIT
18352290000000.0,2.750774621963501,3.8187224864959717,2.0094985961914062,8.54027271270752,-0.0041199494153261185,0.002443461,0.021991148999999998,85.69724000000001,-11.564893,18.30179,SIT
18352295000000.0,2.7560672760009766,3.8194267749786377,2.0127124786376953,8.543157577514648,-0.0034446201752871275,0.004886922,0.020463986,85.67679,-11.589909,18.308159,SIT
18352300000000.0,2.7613391876220703,3.819323778152466,2.0149853229522705,8.545374870300293,-0.0033098789863288403,0.01038471,0.024129177,85.65534,-11.608872999999999,18.314404999999997,SIT
18352305000000.0,2.766594409942627,3.8178863525390625,2.0176992416381836,8.54682445526123,-0.002889326075091958,0.014660766,0.028099801,85.65329,-11.648353,18.323574,SIT
18352310000000.0,2.771838903427124,3.814767599105835,2.021775245666504,8.547443389892578,-0.0027679007034748793,-0.00030543262000000003,0.032986722999999996,85.65039,-11.681135000000001,18.336796,SIT
18352316000000.0,2.777069568634033,3.8108832836151123,2.0265939235687256,8.547832489013672,-0.002001852262765169,0.00061086525,0.03940081,85.64506,-11.716501,18.343557,SIT
18352320000000.0,2.7822885513305664,3.8069448471069336,2.0316781997680664,8.5484619140625,-0.00111385527998209,0.008552114,0.03940081,85.6404,-11.747438,18.352299,SIT
18352326000000.0,2.7874979972839355,3.8026909828186035,2.037264108657837,8.549860954284668,1.9810277080978267e-05,0.008246681,0.03756821,85.62364000000001,-11.782762,18.3669,SIT
18352330000000.0,2.792691946029663,3.79797101020813,2.043476104736328,8.552340507507324,0.0010930595453828573,0.004886922,0.03145956,85.6153410259505,-11.7977293506337,18.3721847193724,SIT
18352334000000.0,2.7978768348693848,3.7934069633483887,2.049809694290161,8.555280685424805,0.0013115223264321685,0.0125227375,0.032986722999999996,85.60687,-11.813007,18.377579,SIT
18352340000000.0,2.803056240081787,3.7898995876312256,2.055534601211548,8.557793617248535,0.0007695845561102033,0.009773844,0.030848695,85.58989,-11.845914,18.389456,SIT
18352345000000.0,2.8082237243652344,3.7870981693267822,2.060317039489746,8.559661865234375,0.0003216375189367682,0.019242255,0.03726278,85.578514,-11.883899000000001,18.395070999999998,SIT
18352351000000.0,2.813380241394043,3.7846968173980713,2.0638413429260254,8.560677528381348,-0.0005744803347624838,0.016493361,0.034513887,85.57122,-11.91566,18.404087,SIT
18352355000000.0,2.8185653686523438,3.7827112674713135,2.0660266876220703,8.560775756835938,-0.0012275133049115539,0.028710667000000002,0.036957346,85.55885,-11.94869,18.408604,SIT
18352360000000.0,2.823704481124878,3.7810497283935547,2.0672221183776855,8.560214042663574,-0.002480560913681984,0.025045475,0.03634648,85.5493,-11.975027,18.417889000000002,SIT
18352366000000.0,2.8288354873657227,3.77984619140625,2.0672249794006348,8.559038162231445,-0.0036993848625570536,0.03390302,0.04337143,85.53873,-12.005065,18.423182,SIT
18352370000000.0,2.8339598178863525,3.7792165279388428,2.065952777862549,8.557415008544922,-0.004885809030383825,0.029626964,0.03176499,85.53475999999999,-12.033081,18.431879000000002,SIT
18352374000000.0,2.839078187942505,3.778435468673706,2.0648632049560547,8.555831909179688,-0.0059927282854914665,0.030543262,0.03268129,85.525795,-12.052824000000001,18.439835000000002,SIT
18352380000000.0,2.8441898822784424,3.776681900024414,2.0656068325042725,8.554840087890625,-0.007952188141644001,0.03268129,0.03359759,85.52032,-12.068331,18.447788,SIT
18352385000000.0,2.8492934703826904,3.7742772102355957,2.0669353008270264,8.554400444030762,-0.00967700406908989,0.035124752999999995,0.034208454,85.51566,-12.084628,18.456608,SIT
18352391000000.0,2.8543951511383057,3.771580696105957,2.0673530101776123,8.554488182067871,-0.010902966372668743,0.033292156,0.033292156,85.511314,-12.097555999999999,18.465770000000003,SIT
18352395000000.0,2.8594865798950195,3.7686214447021484,2.0669353008270264,8.555058479309082,-0.012242644093930721,0.022907447,0.025961772999999997,85.50146,-12.112200999999999,18.472876,SIT
18352400000000.0,2.8645756244659424,3.7654013633728027,2.0657031536102295,8.556100845336914,-0.014064356684684753,0.020463986,0.024129177,85.48991,-12.126304,18.478598,SIT
18352406000000.0,2.8696556091308594,3.7619454860687256,2.0637216567993164,8.557576179504395,-0.015984313562512398,0.011911871999999999,0.029626964,85.479454,-12.141017,18.488876,SIT
18352410000000.0,2.874732494354248,3.7582578659057617,2.06101393699646,8.55947208404541,-0.017525235190987587,0.01160644,0.025045475,85.47213,-12.156187,18.496682999999997,SIT
18352414000000.0,2.8798036575317383,3.7543981075286865,2.057713270187378,8.561861038208008,-0.01872359961271286,0.010079277,0.02443461,85.45657,-12.165851,18.51359,SIT
18352420000000.0,2.884873867034912,3.750491142272949,2.0540823936462402,8.565008163452148,-0.020118538290262222,0.007941248,0.021685716,85.44322,-12.174804,18.529972,SIT
18352427000000.0,2.88996958732605,3.7465145587921143,2.0500895977020264,8.568960189819336,-0.021439136937260628,0.020158553,0.022296581,85.4318,-12.17572,18.539217,SIT
18352430000000.0,2.895033597946167,3.7425246238708496,2.045858860015869,8.573490142822266,-0.02273818850517273,0.018325957,0.02107485,85.42302,-12.175576,18.552425,SIT
18352435000000.0,2.900092840194702,3.7386465072631836,2.0414071083068848,8.578620910644531,-0.024000564590096474,0.021991148999999998,0.020158553,85.41296,-12.175510000000001,18.560595000000003,SIT
18352441000000.0,2.9052186012268066,3.7355875968933105,2.03688645362854,8.584397315979004,-0.02532588317990303,0.019547688,0.022907447,85.402916,-12.174555999999999,18.570984,SIT
18352446000000.0,2.910266637802124,3.73292875289917,2.0323052406311035,8.590307235717773,-0.026759624481201172,0.014355333500000001,0.02107485,85.40478,-12.173395,18.570091,SIT
18352450000000.0,2.9153146743774414,3.729631185531616,2.026407241821289,8.595641136169434,-0.028263453394174576,0.021991148999999998,0.018325957,85.4054,-12.171563,18.56663,SIT
18352456000000.0,2.9203579425811768,3.7258808612823486,2.0193707942962646,8.60051441192627,-0.029735971242189407,0.03023783,0.02107485,85.40568,-12.167457,18.56531,SIT
18352460000000.0,2.9254045486450195,3.7227628231048584,2.0118443965911865,8.605560302734375,-0.03109745867550373,0.023823743999999997,0.017715093,85.409065,-12.163896000000001,18.565609,SIT
18352464000000.0,2.930443286895752,3.7202258110046387,2.003889322280884,8.61075210571289,-0.03214222937822342,0.01985312,0.016798794,85.40369,-12.152235000000001,18.561598,SIT
18352470000000.0,2.935481548309326,3.7180697917938232,1.9961698055267334,8.615610122680664,-0.033212706446647644,0.01740966,0.01282817,85.400764,-12.139982,18.558819,SIT
18352475000000.0,2.9405181407928467,3.7161991596221924,1.9889469146728516,8.619953155517578,-0.03396569937467575,0.010690141499999998,0.019547688,85.395706,-12.130048,18.559206,SIT
18352480000000.0,2.9455525875091553,3.7145984172821045,1.9821940660476685,8.623809814453125,-0.034401848912239075,0.009468411,0.019547688,85.394966,-12.116984,18.558914,SIT
18352485000000.0,2.9505882263183594,3.7132551670074463,1.9758872985839844,8.627202033996582,-0.034651979804039,0.0061086523,0.020463986,85.39278,-12.104268,18.561685999999998,SIT
18352490000000.0,2.955617666244507,3.712151050567627,1.9700003862380981,8.630162239074707,-0.03524688258767128,0.006414085,0.018325957,85.39546999999999,-12.093193,18.559025,SIT
18352496000000.0,2.960646629333496,3.7112767696380615,1.964512586593628,8.632708549499512,-0.03577752783894539,0.0009162978999999999,0.02107485,85.39714000000001,-12.084546000000001,18.559513,SIT
18352500000000.0,2.9656708240509033,3.7097620964050293,1.9584225416183472,8.635414123535156,-0.036003176122903824,-0.003970624,0.015271631,85.40193000000001,-12.076492,18.559283999999998,SIT
18352504000000.0,2.9706952571868896,3.7072811126708984,1.9513481855392456,8.63849925994873,-0.03665628656744957,-0.014355333500000001,0.02076942,85.40339,-12.063836,18.563162,SIT
18352510000000.0,2.9757187366485596,3.7041068077087402,1.944515347480774,8.641738891601562,-0.03655838966369629,-0.013133603,0.02687807,85.40535,-12.060566,18.566402,SIT
18352515000000.0,2.980741262435913,3.7003471851348877,1.9382981061935425,8.64505672454834,-0.036709871143102646,-0.013133603,0.02443461,85.40902,-12.050624000000001,18.572638,SIT
18352521000000.0,2.9857611656188965,3.69711971282959,1.9320002794265747,8.64832878112793,-0.036902111023664474,-0.02321288,0.02443461,85.40299,-12.035167,18.584126,SIT
18352525000000.0,2.9907820224761963,3.6948277950286865,1.9253593683242798,8.651511192321777,-0.037035275250673294,-0.02076942,0.025961772999999997,85.3967,-12.019461999999999,18.591915,SIT
18352530000000.0,2.995800495147705,3.6934127807617188,1.9184013605117798,8.654607772827148,-0.03703112155199051,-0.014660766,0.022296581,85.392494,-12.005525,18.599332999999998,SIT
18352536000000.0,3.0008175373077393,3.6928300857543945,1.9111415147781372,8.657623291015625,-0.03679930791258812,-0.01985312,0.022296581,85.38762,-11.992230000000001,18.609402,SIT
18352540000000.0,3.005836248397827,3.6930434703826904,1.9035884141921997,8.660563468933105,-0.03666123375296593,-0.017104227,0.03145956,85.37803000000001,-11.976819,18.616073999999998,SIT
18352544000000.0,3.0108535289764404,3.694002866744995,1.895764708518982,8.663431167602539,-0.03674212470650673,-0.016493361,0.03176499,85.37179,-11.9630785,18.62411,SIT
18352550000000.0,3.0158684253692627,3.6955761909484863,1.8886268138885498,8.666173934936523,-0.03628155216574669,-0.022296581,0.027488936000000002,85.36474,-11.952689,18.633333,SIT
18352555000000.0,3.0208826065063477,3.697690486907959,1.882619023323059,8.668770790100098,-0.03574785962700844,-0.024129177,0.017715093,85.35925999999999,-11.939884,18.640842000000003,SIT
18352560000000.0,3.0258963108062744,3.7003166675567627,1.877680778503418,8.671228408813477,-0.0353565514087677,-0.027794369,0.016798794,85.35513,-11.921189,18.654814000000002,SIT
18352565000000.0,3.030909299850464,3.703427314758301,1.8737550973892212,8.673555374145508,-0.03495354205369949,-0.027183502999999998,0.017104227,85.35356999999999,-11.904931,18.667289999999998,SIT
18352570000000.0,3.0359206199645996,3.7069132328033447,1.8703583478927612,8.675346374511719,-0.03423018380999565,-0.027183502999999998,0.018325957,85.352455,-11.890055,18.680656,SIT
18352576000000.0,3.0409398078918457,3.7107112407684326,1.8671425580978394,8.676295280456543,-0.033740706741809845,-0.024129177,0.023823743999999997,85.34991,-11.872562,18.692991,SIT
18352580000000.0,3.045949935913086,3.7147746086120605,1.8640981912612915,8.676491737365723,-0.03360285982489586,-0.031154128,0.017104227,85.34961,-11.862891000000001,18.70958,SIT
18352586000000.0,3.050959348678589,3.7191033363342285,1.8612160682678223,8.675954818725586,-0.03316308930516243,-0.028405233999999998,0.016187929,85.34533,-11.854664,18.722958,SIT
18352590000000.0,3.0559699535369873,3.7236132621765137,1.8583024740219116,8.675060272216797,-0.032714203000068665,-0.032986722999999996,0.013744468000000001,85.34454000000001,-11.8444195,18.739475,SIT
18352594000000.0,3.0609800815582275,3.72815203666687,1.8550056219100952,8.674482345581055,-0.03240317851305008,-0.03481932,0.012217305,85.343506,-11.835217,18.754128,SIT
18352600000000.0,3.065988063812256,3.7327020168304443,1.851691722869873,8.673874855041504,-0.03220639377832413,-0.03573562,0.014966198,85.341675,-11.827465,18.772501000000002,SIT
18352605000000.0,3.070995807647705,3.737246036529541,1.8487908840179443,8.67282772064209,-0.0314992219209671,-0.04062254,0.010995574,85.34271,-11.823222999999999,18.791546,SIT
18352611000000.0,3.076035499572754,3.7414915561676025,1.8465526103973389,8.670820236206055,-0.031122729182243347,-0.04428773,0.01160644,85.32571999999999,-11.804955,18.811668,SIT
18352615000000.0,3.081040382385254,3.7450199127197266,1.8451701402664185,8.66744613647461,-0.030929073691368103,-0.03726278,0.0030543262,85.31267,-11.791699000000001,18.82885,SIT
18352620000000.0,3.086043357849121,3.7478342056274414,1.84420645236969,8.663451194763184,-0.03035508282482624,-0.028099801,0.004581489,85.29654000000001,-11.780536999999999,18.847417999999998,SIT
18352626000000.0,3.091050863265991,3.7499961853027344,1.8430430889129639,8.659919738769531,-0.030120952054858208,-0.027794369,0.008857545999999999,85.282646,-11.765967,18.865696,SIT
18352630000000.0,3.0960514545440674,3.7521252632141113,1.8421722650527954,8.656819343566895,-0.029785355553030968,-0.031154128,0.004886922,85.270424,-11.761796,18.87444,SIT
18352634000000.0,3.10105562210083,3.755164623260498,1.8423714637756348,8.65414047241211,-0.02920720726251602,-0.027794369,0.0067195175,85.25514,-11.756136,18.88177,SIT
18352640000000.0,3.1060595512390137,3.7583553791046143,1.8430362939834595,8.651275634765625,-0.028936585411429405,-0.026267206,0.013439035,85.240654,-11.74739,18.88937,SIT
18352645000000.0,3.111069917678833,3.7604665756225586,1.8432108163833618,8.647199630737305,-0.028257174417376518,-0.024740042,0.014355333500000001,85.22743,-11.744125,18.89576,SIT
18352651000000.0,3.116074323654175,3.7616212368011475,1.842897653579712,8.64222526550293,-0.02769535779953003,-0.020463986,0.014966198,85.21127,-11.739969,18.903074,SIT
18352655000000.0,3.121077060699463,3.762183904647827,1.8415403366088867,8.63884162902832,-0.027212314307689667,-0.019547688,0.011911871999999999,85.196365,-11.738562,18.91067,SIT
18352660000000.0,3.1260790824890137,3.7625091075897217,1.8392099142074585,8.636910438537598,-0.026771290227770805,-0.010995574,0.014355333500000001,85.18745,-11.739362,18.913017,SIT
18352666000000.0,3.1310818195343018,3.7644622325897217,1.8360635042190552,8.636022567749023,-0.0263049378991127,-0.010079277,0.011301007,85.181625,-11.741074000000001,18.916767,SIT
18352670000000.0,3.136103391647339,3.76798152923584,1.8321654796600342,8.636124610900879,-0.0257332194596529,-0.008246681,0.0036651915999999997,85.177475,-11.738782,18.916044,SIT
18352674000000.0,3.141106128692627,3.771070957183838,1.8293229341506958,8.635858535766602,-0.02485014498233795,-0.0070249503,0.010690141499999998,85.17002,-11.736803,18.91615,SIT
18352680000000.0,3.146137237548828,3.7737088203430176,1.8276361227035522,8.635175704956055,-0.024307124316692352,0.004886922,-0.0009162978999999999,85.1699,-11.730325,18.912369,SIT
18352685000000.0,3.151137590408325,3.775975227355957,1.826847791671753,8.634182929992676,-0.023825597018003464,0.004886922,0.00580322,85.16313000000001,-11.72463,18.913335999999997,SIT
18352690000000.0,3.1561460494995117,3.777919292449951,1.8270186185836792,8.632888793945312,-0.022572143003344536,0.0076358155,-0.0012217305,85.15810400000001,-11.721903999999999,18.910713,SIT
18352695000000.0,3.1611456871032715,3.7803895473480225,1.827810287475586,8.631916046142578,-0.02190636284649372,0.009773844,-0.0027488936,85.14979,-11.711404,18.909246,SIT
18352700000000.0,3.166144609451294,3.7833774089813232,1.8292088508605957,8.631254196166992,-0.02119467779994011,0.002443461,-0.004276057,85.15316,-11.720316,18.908082999999998,SIT
18352706000000.0,3.1711435317993164,3.7868564128875732,1.8311833143234253,8.630887985229492,-0.02045581117272377,0.002443461,-0.00061086525,85.15469,-11.725958,18.904829,SIT
18352710000000.0,3.1761412620544434,3.790642023086548,1.8336001634597778,8.630826950073242,-0.019626101478934288,0.00030543262000000003,-0.002443461,85.15514,-11.731795,18.900557,SIT
18352716000000.0,3.181140899658203,3.793473243713379,1.8356372117996216,8.631271362304688,-0.018661558628082275,0.002443461,0.01038471,85.14986,-11.736334,18.896582000000002,SIT
18352720000000.0,3.1861414909362793,3.7954492568969727,1.8373249769210815,8.63212776184082,-0.018383236601948738,-0.0036651915999999997,0.0070249503,85.14844000000001,-11.741775,18.903935999999998,SIT
18352725000000.0,3.191143035888672,3.797198534011841,1.8388012647628784,8.632574081420898,-0.01776164397597313,-0.0076358155,0.010995574,85.140816,-11.75111,18.911345,SIT
18352730000000.0,3.1961541175842285,3.798729181289673,1.8400734663009644,8.632620811462402,-0.01723828725516796,-0.0033597588,0.01038471,85.14314,-11.757836,18.912770000000002,SIT
18352735000000.0,3.2011539936065674,3.8000619411468506,1.8411616086959839,8.632315635681152,-0.016710268333554268,-0.006414085,0.0027488936,85.14699,-11.7669325,18.91723,SIT
18352740000000.0,3.2061569690704346,3.801201105117798,1.8420692682266235,8.631659507751465,-0.016291774809360504,-0.013133603,0.003970624,85.1482,-11.774117,18.922138,SIT
18352745000000.0,3.211155891418457,3.8027052879333496,1.8426923751831055,8.630550384521484,-0.01620485447347164,-0.009162978,0.0061086523,85.15073000000001,-11.780697,18.924582,SIT
18352750000000.0,3.2161619663238525,3.8046581745147705,1.843017816543579,8.628971099853516,-0.015894683077931404,-0.017715093,0.0076358155,85.15417,-11.789292999999999,18.932463000000002,SIT
18352756000000.0,3.2211599349975586,3.8056445121765137,1.8435288667678833,8.626969337463379,-0.015584764070808887,-0.011911871999999999,0.0067195175,85.15645,-11.794792,18.935272,SIT
18352760000000.0,3.226158618927002,3.805530309677124,1.844274640083313,8.624549865722656,-0.015096032992005348,-0.01038471,0.004886922,85.15925,-11.802112,18.941664000000003,SIT
18352764000000.0,3.231157064437866,3.8048782348632812,1.844537377357483,8.621755599975586,-0.014568238519132137,-0.014355333500000001,0.004886922,85.16557,-11.809382000000001,18.951437,SIT
18352770000000.0,3.2361531257629395,3.8037631511688232,1.8442883491516113,8.618613243103027,-0.01400346215814352,-0.015577064,0.004886922,85.17192,-11.8175535,18.95982,SIT
18352775000000.0,3.241151809692383,3.8024206161499023,1.8455841541290283,8.615805625915527,-0.013566448353230953,-0.02321288,-0.00061086525,85.176125,-11.824369,18.974768,SIT
18352781000000.0,3.2461533546447754,3.800891637802124,1.8486175537109375,8.61340618133545,-0.01313644740730524,-0.010690141499999998,-0.0030543262,85.178024,-11.831608000000001,18.984333,SIT
18352785000000.0,3.251152515411377,3.7998573780059814,1.8525404930114746,8.612035751342773,-0.012713084928691387,-0.01160644,-0.007330383,85.18379,-11.837454,18.99839,SIT
