timestamp,rel_time,acc_x,acc_y,acc_z,gyro_x,gyro_y,gyro_z,azimuth,pitch,roll,label
0.0,0.0,0.0,0.0,0.0,0.0,0.01160644,0.008552114,94.64298000000001,-12.159197,19.745026,SIT
16713112000.0,1.495214382885024e-05,0.011984818615019321,0.007288528140634298,0.025541044771671295,4.567786163534038e-06,0.005192355,0.0036651915999999997,94.6538339143914,-12.1840835108511,19.763377664466397,SIT
49890607000.0,7.441062189172953e-05,0.035773225128650665,0.021752117201685905,0.07625792920589447,-9.162897072201304e-07,0.009773844,-0.0027488936,94.66469000000001,-12.208975,19.781733,SIT
99043975000.0,0.00020767803653143346,0.07101204246282578,0.04317273944616318,0.1514190137386322,-9.037042036652565e-05,0.002443461,0.004581489,94.67975,-12.255164,19.819329999999997,SIT
163462250000.0,0.000440404488472268,0.11718891561031342,0.07123593240976334,0.24995094537734985,-0.00031514617148786783,0.0030543262,-0.00061086525,94.70114000000001,-12.302164,19.852694,SIT
242236600000.0,0.0007974335458129644,0.17364966869354248,0.10554105788469315,0.37047767639160156,-0.0006920341984368861,0.002443461,0.002443461,94.718216,-12.344899,19.888424,SIT
334290650000.0,0.0013017004821449518,0.23962010443210602,0.14561468362808228,0.5113662481307983,-0.0010325214825570583,-0.002443461,0.0009162978999999999,94.73812,-12.388817999999999,19.923560000000002,SIT
438414540000.0,0.0019722548313438892,0.314230740070343,0.19092583656311035,0.6707778573036194,-0.0014358130283653736,-0.007330383,0.007330383,94.75452,-12.427228,19.95863,SIT
553301200000.0,0.0028206624556332827,0.39654305577278137,0.2409023642539978,0.8467214107513428,-0.0017853880999609828,-0.01160644,-0.005192355,94.77696999999999,-12.469901,19.99258,SIT
677582540000.0,0.003862172830849886,0.4855744242668152,0.2949448823928833,1.0371143817901611,-0.002140928991138935,-0.013439035,-0.0021380284,94.7928,-12.508513,20.027672,SIT
809864300000.0,0.005105751566588879,0.5803239941596985,0.3524436354637146,1.2398312091827393,-0.0025275854859501123,-0.01282817,-0.00061086525,94.81258000000001,-12.548621,20.061375,SIT
948757860000.0,0.006562328897416592,0.6797948479652405,0.41279101371765137,1.4527559280395508,-0.0031289022881537676,-0.010690141499999998,0.0076358155,94.82914,-12.5855465,20.09485,SIT
1092908200000.0,0.008223433047533035,0.7830160856246948,0.4753973186016083,1.673814058303833,-0.0037245044950395823,-0.021991148999999998,0.0027488936,94.84975,-12.624906,20.130198,SIT
1241017600000.0,0.010094909928739071,0.889056384563446,0.5396954417228699,1.9010260105133057,-0.004205630160868168,-0.022296581,0.0012217305,94.86573,-12.661467,20.161768,SIT
1391864300000.0,0.012174625881016254,0.9970397353172302,0.6051527857780457,2.132524013519287,-0.004271670710295439,-0.020158553,0.002443461,94.88268000000001,-12.700052000000001,20.194706,SIT
1544316300000.0,0.014459154568612576,1.1061546802520752,0.6712760329246521,2.3665771484375,-0.004726819694042206,-0.021380282999999996,0.0125227375,94.89741500000001,-12.732163,20.22824,SIT
1697341000000.0,0.01694171130657196,1.2156612873077393,0.7376158833503723,2.601604461669922,-0.0047906734980642796,-0.014966198,0.01282817,94.91370400000001,-12.773361,20.257595000000002,SIT
1850010500000.0,0.01961357332766056,1.324894905090332,0.803769052028656,2.836183786392212,-0.004734521731734276,-0.018325957,0.0067195175,94.92948,-12.808738,20.289375,SIT
2001503400000.0,0.022467082366347313,1.4332671165466309,0.869378387928009,3.069056510925293,-0.005124450195580721,-0.02076942,0.0012217305,94.94426,-12.84238,20.318369,SIT
2151103500000.0,0.025493672117590904,1.5402652025222778,0.934132993221283,3.299124240875244,-0.005114541854709387,-0.01985312,0.00030543262000000003,94.95925,-12.881799,20.34646,SIT
2298196500000.0,0.02868345007300377,1.6454495191574097,0.9977664947509766,3.5254433155059814,-0.00540546840056777,-0.008857545999999999,0.00030543262000000003,94.97476999999999,-12.913714,20.371334,SIT
2442264800000.0,0.03202655911445618,1.7484498023986816,1.0600546598434448,3.747218132019043,-0.005663659423589706,-0.013133603,-0.0021380284,94.99206,-12.949907000000001,20.399217999999998,SIT
2582880700000.0,0.03551283851265907,1.848960280418396,1.1208127737045288,3.96379017829895,-0.005847394932061434,-0.011911871999999999,-0.005497787,95.00814,-12.98395,20.421812,SIT
2719699200000.0,0.03913353011012077,1.9467344284057617,1.1798917055130005,4.174628257751465,-0.006401644553989172,-0.018325957,-0.0015271631,95.023384,-13.014443,20.447405,SIT
2852450500000.0,0.04287749528884888,2.0415797233581543,1.237175703048706,4.379314422607422,-0.0070383744314312935,-0.011301007,-0.008552114,95.04151,-13.047853,20.467321,SIT
2980931700000.0,0.046750109642744064,2.133350372314453,1.2925753593444824,4.577541351318359,-0.007310318294912577,-0.0033597588,-0.007941248,95.05632,-13.079854,20.488914,SIT
3104999700000.0,0.05071265995502472,2.221947193145752,1.3460346460342407,4.769071102142334,-0.0076310643926262856,-0.014660766,-0.015271631,95.076164,-13.110002,20.512302,SIT
3224563400000.0,0.05477287992835045,2.3073041439056396,1.397512435913086,4.953767776489258,-0.008013705722987652,-0.014660766,-0.002443461,95.088135,-13.139327999999999,20.531298,SIT
3339576000000.0,0.05892026796936989,2.3893887996673584,1.4469902515411377,5.131555080413818,-0.008352053351700306,-0.002443461,-0.010079277,95.10795,-13.171210999999998,20.547562,SIT
3450029700000.0,0.06316255778074265,2.4681928157806396,1.4944705963134766,5.3024163246154785,-0.008106794208288193,-0.007941248,-0.005497787,95.12138,-13.202520000000002,20.569935,SIT
3555949800000.0,0.06746455281972885,2.5436949729919434,1.5401138067245483,5.466185569763184,-0.007765674963593483,-0.013133603,-0.0067195175,95.1376,-13.23233,20.587471,SIT
3657388300000.0,0.07183357328176498,2.6159307956695557,1.5839447975158691,5.622941493988037,-0.00756097212433815,-0.008857545999999999,0.007330383,95.14693,-13.250015,20.59883,SIT
3754419300000.0,0.07626447081565857,2.684955596923828,1.625991702079773,5.772802352905273,-0.007119538262486458,-0.010690141499999998,0.00580322,95.161804,-13.271594,20.611712,SIT
3847136000000.0,0.08075471967458725,2.750837564468384,1.66629159450531,5.915913105010986,-0.006975748110562563,-0.0067195175,0.007941248,95.170456,-13.287579000000001,20.622625,SIT
3935645500000.0,0.08529222011566162,2.813657760620117,1.7048827409744263,6.052445411682129,-0.0063881236128509045,-0.005497787,0.008857545999999999,95.18008,-13.308635,20.63421,SIT
4020066000000.0,0.08987898379564285,2.8735013008117676,1.7418148517608643,6.182583332061768,-0.005702801514416933,-0.010995574,0.002443461,95.19126999999999,-13.326734,20.645836,SIT
4100524900000.0,0.09450465440750122,2.9304633140563965,1.7771352529525757,6.306528568267822,-0.006099806632846594,-0.014966198,0.0067195175,95.198654,-13.339522,20.657187,SIT
4177154800000.0,0.09916824847459793,2.98464035987854,1.8108981847763062,6.424488544464111,-0.005706870928406715,-0.0015271631,0.012217305,95.20647,-13.362598,20.664524,SIT
4250093000000.0,0.10386383533477783,3.0361335277557373,1.8431572914123535,6.536679267883301,-0.005348658189177513,0.005192355,0.006414085,95.21699,-13.376612,20.673962,SIT
4319478500000.0,0.10859120637178421,3.0850436687469482,1.8739696741104126,6.643317699432373,-0.0055781640112400055,0.002443461,0.004581489,95.22426999999999,-13.3904705,20.682717999999998,SIT
4385451500000.0,0.11334731429815292,3.1314730644226074,1.9033914804458618,6.74462366104126,-0.005510441027581692,-0.002443461,0.004581489,95.23226,-13.408751,20.689749,SIT
4448152000000.0,0.11812562495470047,3.175524950027466,1.9314771890640259,6.840817451477051,-0.0051116361282765865,0.008552114,-0.0036651915999999997,95.242065,-13.425129,20.692239999999998,SIT
4507718600000.0,0.12292693555355072,3.217299461364746,1.9582841396331787,6.932114601135254,-0.005099892616271973,0.005192355,-0.004581489,95.25099,-13.438351999999998,20.700375,SIT
4564286700000.0,0.12774956226348877,3.2568957805633545,1.9838676452636719,7.018728733062744,-0.005232689436525106,0.0036651915999999997,-0.004886922,95.26100000000001,-13.454901999999999,20.704313,SIT
4617990600000.0,0.13259027898311615,3.2944116592407227,2.0082809925079346,7.1008687019348145,-0.005198526196181774,0.0027488936,0.0030543262,95.268845,-13.470084,20.709426999999998,SIT
4668960300000.0,0.13745026290416718,3.3299412727355957,2.031578540802002,7.178737640380859,-0.005198202095925808,-0.0021380284,-0.006414085,95.282166,-13.485142999999999,20.714684,SIT
4717322700000.0,0.14232566952705383,3.363577127456665,2.0538105964660645,7.252533912658691,-0.004956797230988741,0.005497787,0.007941248,95.285,-13.498834,20.718857,SIT
4763200500000.0,0.14721424877643585,3.395409107208252,2.075026273727417,7.322450160980225,-0.0049370210617780685,0.0015271631,-0.002443461,95.29903399999999,-13.513376999999998,20.725012,SIT
4806712000000.0,0.15215079486370087,3.4255130290985107,2.0952913761138916,7.388659477233887,-0.0049504912458360195,-0.0036651915999999997,0.00580322,95.302704,-13.526345000000001,20.731645999999998,SIT
4847972000000.0,0.1570541113615036,3.4539949893951416,2.1146140098571777,7.4513678550720215,-0.0051568252965807915,0.00030543262000000003,0.0018325957999999999,95.312485,-13.539541,20.735113000000002,SIT
4887090300000.0,0.1619691699743271,3.480921745300293,2.1330606937408447,7.510731220245361,-0.00514255790039897,-0.0033597588,0.0021380284,95.319405,-13.553079,20.742878,SIT
4924172000000.0,0.16689008474349976,3.5063717365264893,2.150672435760498,7.566916465759277,-0.00477353623136878,0.002443461,-0.0015271631,95.32751999999999,-13.566985999999998,20.746239000000003,SIT
4959319000000.0,0.1718197613954544,3.5304172039031982,2.167492151260376,7.620080471038818,-0.004731026012450457,0.005497787,0.007941248,95.33197,-13.576978,20.752218,SIT
4992628000000.0,0.1767600029706955,3.5531280040740967,2.183560371398926,7.670373916625977,-0.004804014228284359,0.004276057,0.0033597588,95.341415,-13.591327,20.756437,SIT
5024191600000.0,0.18170440196990967,3.574573278427124,2.1989123821258545,7.717944145202637,-0.005099866073578596,0.004581489,0.008552114,95.3447,-13.601331,20.760727,SIT
5054098600000.0,0.18665774166584015,3.594815492630005,2.2135870456695557,7.762927055358887,-0.00528298132121563,0.004581489,0.011911871999999999,95.349915,-13.612859,20.764927,SIT
5082433000000.0,0.19161252677440643,3.6139183044433594,2.2276153564453125,7.80545711517334,-0.005213336553424597,0.007330383,0.0036651915999999997,95.3567,-13.624471,20.767769,SIT
5109276000000.0,0.19657188653945923,3.631939172744751,2.241032123565674,7.845658779144287,-0.00566626712679863,0.008552114,0.0018325957999999999,95.36064,-13.631547,20.771687,SIT
5134704000000.0,0.2015339732170105,3.6489341259002686,2.2538678646087646,7.883652687072754,-0.005689763464033604,0.0030543262,0.007941248,95.36489,-13.644313,20.77666,SIT
5158790500000.0,0.2065001279115677,3.6649556159973145,2.266153335571289,7.919551849365234,-0.0060041225515306,0.004276057,-0.002443461,95.373825,-13.652721,20.77811,SIT
5181604400000.0,0.21146997809410095,3.6800544261932373,2.2779171466827393,7.953465461730957,-0.006220708135515451,-0.00030543262000000003,0.00061086525,95.37778,-13.662819,20.784052,SIT
5203212400000.0,0.21644197404384613,3.6942787170410156,2.2891857624053955,7.985496997833252,-0.005906235426664352,-0.0070249503,-0.003970624,95.38698000000001,-13.675363,20.788914000000002,SIT
5223677000000.0,0.2214483618736267,3.707664728164673,2.3000001907348633,8.01573371887207,-0.00541350431740284,-0.004886922,-0.003970624,95.393456,-13.685714,20.793081,SIT
5243057700000.0,0.2264300137758255,3.7202727794647217,2.310356855392456,8.044288635253906,-0.0054992143996059895,-0.007330383,-0.0036651915999999997,95.4019,-13.695154,20.79995,SIT
5261412000000.0,0.2314082384109497,3.73213791847229,2.320289373397827,8.071243286132812,-0.005872860085219145,-0.013133603,-0.005497787,95.41093000000001,-13.706863,20.806908,SIT
5278793000000.0,0.23639214038848877,3.7432963848114014,2.329824209213257,8.096677780151367,-0.00604792358353734,-0.0018325957999999999,0.003970624,95.41519,-13.716769000000001,20.810532000000002,SIT
5295252700000.0,0.2413804829120636,3.7537858486175537,2.338981866836548,8.120673179626465,-0.0065712956711649895,-0.005192355,0.0021380284,95.42475,-13.723745999999998,20.818724,CSO
5310838700000.0,0.24636895954608917,3.7636423110961914,2.347780227661133,8.143305778503418,-0.007278225850313902,-0.012217305,0.0036651915999999997,95.42983000000001,-13.730854999999998,20.825658999999998,CSO
5325597400000.0,0.25135427713394165,3.772900342941284,2.356236457824707,8.16464900970459,-0.008955669589340687,0.0018325957999999999,0.003970624,95.43431,-13.732387,20.827374,CSO
5339572300000.0,0.25635987520217896,3.7815182209014893,2.364398956298828,8.185137748718262,-0.011259482242166996,-0.008857545999999999,-0.0027488936,95.442764,-13.734805999999999,20.83734,CSO
5352805000000.0,0.26134705543518066,3.7876596450805664,2.372800588607788,8.215414047241211,-0.015977827832102776,-0.004581489,0.0012217305,95.44561,-13.721906,20.840046,CSO
5365334300000.0,0.2663329541683197,3.7913241386413574,2.38147234916687,8.255669593811035,-0.02169770374894142,0.0012217305,0.00061086525,95.46958000000001,-13.723931,20.843693,CSO
5377198000000.0,0.2713216245174408,3.7926101684570312,2.390410900115967,8.30555248260498,-0.029049048200249672,-0.0070249503,-0.01038471,95.49558,-13.710626000000001,20.849529999999998,CSO
5388430700000.0,0.2763129770755768,3.7916431427001953,2.3996024131774902,8.364555358886719,-0.03892116993665695,-0.015577064,-0.01863139,95.51991,-13.686169,20.854015,CSO
5399066400000.0,0.2813040018081665,3.787437915802002,2.405585765838623,8.422540664672852,-0.051798269152641296,-0.029932396,-0.026572637000000003,95.55790999999999,-13.649698999999998,20.858658,CSO
5409136400000.0,0.28629350662231445,3.779775381088257,2.4073069095611572,8.476126670837402,-0.0674392431974411,-0.061086524,-0.033292156,95.59877,-13.600448000000002,20.869873000000002,CSO
5418670600000.0,0.29128801822662354,3.768275260925293,2.4066975116729736,8.522682189941406,-0.08509510010480881,-0.053450707,-0.049480084,95.64907,-13.524554,20.841064000000003,CSO
5427698000000.0,0.29627954959869385,3.7531487941741943,2.4043753147125244,8.562023162841797,-0.10473997890949249,-0.056199603,-0.06017022599999999,95.70056,-13.432781,20.824837,CSO
5436245000000.0,0.3012727200984955,3.738694429397583,2.4007925987243652,8.589827537536621,-0.12582868337631226,-0.06383542,-0.07971791,95.76852,-13.320116,20.800148,CSO
5444337000000.0,0.3062671422958374,3.726029396057129,2.3961257934570312,8.605443000793457,-0.1477147936820984,-0.1020145,-0.09254608,95.83714,-13.198431,20.785954,CSO
5451998600000.0,0.31126201152801514,3.718637704849243,2.3922274112701416,8.611738204956055,-0.16902145743370056,-0.15577064,-0.07238753,95.8997,-13.070753,20.776342,CSO
5459252600000.0,0.31625717878341675,3.7172293663024902,2.3895528316497803,8.609821319580078,-0.18777787685394287,-0.21288654,-0.049480084,95.96506,-12.947131,20.77872,CSO
5466120000000.0,0.32125282287597656,3.721315383911133,2.391411304473877,8.610000610351562,-0.202931746840477,-0.27214047,-0.034513887,96.04568,-12.830396,20.811571,CSO
5472622500000.0,0.3262501060962677,3.7305757999420166,2.3985629081726074,8.615049362182617,-0.21441440284252167,-0.36743546,-0.007941248,96.11935,-12.720857,20.871964000000002,CSO
5478778700000.0,0.33124643564224243,3.7379486560821533,2.4063124656677246,8.614855766296387,-0.22391846776008606,-0.44409904,0.02443461,96.20444499999999,-12.623778,20.949312,CSO
5484607000000.0,0.3362436890602112,3.741640329360962,2.413414239883423,8.606921195983887,-0.23241181671619415,-0.43737950000000003,0.039095376,96.28425,-12.537433,21.027979000000002,CSO
5490126000000.0,0.3412425220012665,3.7384774684906006,2.416696071624756,8.593498229980469,-0.23962274193763733,-0.39706242,0.02687807,96.38409,-12.474045,21.116827,CSO
5495351000000.0,0.34624144434928894,3.7266836166381836,2.4143035411834717,8.576115608215332,-0.24583110213279724,-0.36010507,0.008857545999999999,96.47753,-12.412401,21.202082,CSO
5500297500000.0,0.351238489151001,3.712031126022339,2.4084267616271973,8.566019058227539,-0.2510739862918854,-0.3023783,-0.010690141499999998,96.58722,-12.362812,21.259214,CSO
5504981000000.0,0.3562348783016205,3.696401357650757,2.3998496532440186,8.566505432128906,-0.2550773024559021,-0.29168814,-0.047036625,96.70427,-12.322554,21.314865,CSO
5509415400000.0,0.3612479865550995,3.6852338314056396,2.3936259746551514,8.580634117126465,-0.25782570242881775,-0.32009340000000003,-0.074830994,96.81407,-12.274738000000001,21.353434,CSO
5513614000000.0,0.36624494194984436,3.6796560287475586,2.391063690185547,8.607090950012207,-0.25977665185928345,-0.38240165,-0.09315695,96.92992,-12.233589,21.3959,CSO
5517588600000.0,0.37124210596084595,3.680785894393921,2.392733097076416,8.642556190490723,-0.26180267333984375,-0.44593164,-0.10262536,97.06492,-12.176298,21.439865,CSO
5521352000000.0,0.3762413561344147,3.6887898445129395,2.398679733276367,8.685120582580566,-0.266243577003479,-0.52290064,-0.10751228,97.20493,-12.113138000000001,21.50274,CSO
5524915000000.0,0.38123875856399536,3.6999828815460205,2.4062917232513428,8.726280212402344,-0.272905558347702,-0.57635134,-0.10903945,97.34557,-12.052446,21.573866,CSO
5528288000000.0,0.38623830676078796,3.7128703594207764,2.4145162105560303,8.762701034545898,-0.2824515700340271,-0.5934556,-0.122478485,97.489395,-11.978351,21.652817000000002,CSO
5531482000000.0,0.39123833179473877,3.7263035774230957,2.420719623565674,8.788960456848145,-0.2950860559940338,-0.59528816,-0.13225232,97.64793399999999,-11.898164,21.750128,CSO
5534506300000.0,0.3962363004684448,3.7397687435150146,2.4238505363464355,8.803101539611816,-0.3102375268936157,-0.5757405,-0.1554652,97.809074,-11.808363,21.841366,CSO
5537369400000.0,0.401233971118927,3.754361867904663,2.4307425022125244,8.808107376098633,-0.32661622762680054,-0.54458636,-0.1695151,97.97769,-11.712645,21.937725,CSO
5540080500000.0,0.40623190999031067,3.7706217765808105,2.444845199584961,8.805757522583008,-0.3435707986354828,-0.51007247,-0.17715092,98.14419000000001,-11.607802000000001,22.023653,CSO
5542647400000.0,0.41123124957084656,3.7887208461761475,2.4563632011413574,8.794341087341309,-0.3595079779624939,-0.49510628,-0.14538592,98.29569000000001,-11.496580999999999,22.114943,CSO
5545077500000.0,0.416229248046875,3.8087284564971924,2.4581265449523926,8.772825241088867,-0.37378203868865967,-0.48899764,-0.13775012,98.44955999999999,-11.387297,22.1947,CSO
5547378600000.0,0.4212270975112915,3.8289387226104736,2.4520692825317383,8.742727279663086,-0.387067586183548,-0.48655418,-0.15577064,98.606865,-11.311380999999999,22.279425,CSO
5549557000000.0,0.42622700333595276,3.8483264446258545,2.4394659996032715,8.705074310302734,-0.4003288149833679,-0.49266282,-0.16310102,98.75438,-11.234373,22.363388,CSO
5551620000000.0,0.4312225580215454,3.8635880947113037,2.4206793308258057,8.660998344421387,-0.4129810035228729,-0.49663344,-0.183565,98.89565,-11.139292999999999,22.466751000000002,CSO
5553573000000.0,0.4362204372882843,3.872518539428711,2.3957667350769043,8.610994338989258,-0.4240800142288208,-0.49113566,-0.21013765,99.03704,-11.049000000000001,22.565520000000003,CSO
5555422000000.0,0.4412235617637634,3.8753581047058105,2.3652231693267822,8.559285163879395,-0.4341643750667572,-0.47403142,-0.24495697,99.17341,-10.941775,22.675682000000002,CSO
5557173400000.0,0.4462260901927948,3.8724865913391113,2.32991361618042,8.512833595275879,-0.44253936409950256,-0.46211955,-0.2648101,99.30976,-10.845861,22.782131,CSO
5558831000000.0,0.4512242376804352,3.8668339252471924,2.2936525344848633,8.473357200622559,-0.4505331516265869,-0.45631635,-0.30298916,99.457375,-10.731035,22.87758,CSO
5560401000000.0,0.45622169971466064,3.8607864379882812,2.2595558166503906,8.442363739013672,-0.45800328254699707,-0.48044549999999997,-0.33353242,99.60585,-10.626158,22.974949,CSO
5561887000000.0,0.4612210690975189,3.854358673095703,2.227510452270508,8.419463157653809,-0.46676817536354065,-0.50610185,-0.35460728,99.75584,-10.494486,23.05603,CSO
5563295000000.0,0.46621838212013245,3.847580909729004,2.1974036693573,8.404131889343262,-0.4783865213394165,-0.5314528000000001,-0.36346483,99.907364,-10.359547000000001,23.14065,CSO
5564627700000.0,0.47121450304985046,3.8401029109954834,2.1689281463623047,8.395279884338379,-0.49156683683395386,-0.54428095,-0.39645153,100.07695,-10.22913,23.229286,CSO
5565889600000.0,0.47621458768844604,3.8293769359588623,2.1405677795410156,8.387741088867188,-0.505346953868866,-0.5366451,-0.42394048,100.241905,-10.08962,23.316717,CSO
5567084500000.0,0.4812121093273163,3.816617012023926,2.112455368041992,8.381766319274902,-0.5201669335365295,-0.51923543,-0.46731192,100.42215,-9.939548,23.391098,CSO
5568216400000.0,0.4862121045589447,3.8042821884155273,2.0848212242126465,8.37814998626709,-0.5368340015411377,-0.5015204000000001,-0.52320606,100.60788000000001,-9.786377,23.45932,CSO
5569288000000.0,0.49121418595314026,3.79268217086792,2.0588395595550537,8.377038955688477,-0.5550870299339294,-0.49418998,-0.5671884,100.79681,-9.630023,23.531527,CSO
5570303000000.0,0.4962121546268463,3.782606363296509,2.0374133586883545,8.378931045532227,-0.5743042826652527,-0.5012149,-0.61727935,100.99781999999999,-9.473678,23.598139,CSO
5571264000000.0,0.5012217164039612,3.7741189002990723,2.0209221839904785,8.383994102478027,-0.5945483446121216,-0.52778757,-0.65087694,101.19878,-9.306065,23.664194000000002,CSO
5572174300000.0,0.5062210559844971,3.7679359912872314,2.0129833221435547,8.393285751342773,-0.6156017184257507,-0.5549710999999999,-0.6765333,101.40590999999999,-9.137955,23.729288,CSO
5573036000000.0,0.5112199783325195,3.7643003463745117,2.0140299797058105,8.405976295471191,-0.6375515460968018,-0.57635134,-0.6994406999999999,101.62867,-8.980619,23.812557,CSO
5573852500000.0,0.5162184834480286,3.7643091678619385,2.0261120796203613,8.418729782104492,-0.6597477197647095,-0.5815437,-0.7107416999999999,101.848694,-8.821992,23.896378,CSO
5574625300000.0,0.5212163925170898,3.767801523208618,2.0481863021850586,8.431388854980469,-0.6819655299186707,-0.6020076999999999,-0.7153232,102.08909,-8.686452000000001,23.991020000000002,CSO
5575357000000.0,0.5262212753295898,3.774958848953247,2.0767862796783447,8.44286060333252,-0.7040247917175293,-0.62125,-0.71593404,102.32403599999999,-8.548761,24.084244,CSO
5576050300000.0,0.5312216877937317,3.785515785217285,2.110614061355591,8.453136444091797,-0.7251526117324829,-0.6044512,-0.71959925,102.579575,-8.456952000000001,24.177843,CSO
5576707000000.0,0.5362224578857422,3.8001859188079834,2.1433773040771484,8.461387634277344,-0.7457567453384399,-0.60903263,-0.7180721,102.82784000000001,-8.360117,24.280163,CSO
5577328600000.0,0.5412341356277466,3.818640947341919,2.1748673915863037,8.467384338378906,-0.7651163339614868,-0.61453044,-0.7312057,103.0966,-8.298631,24.381636,CSO
5577917300000.0,0.5462473034858704,3.8358640670776367,2.200456380844116,8.466851234436035,-0.7832000255584717,-0.605062,-0.7357872,103.35378,-8.235071000000001,24.477459,CSO
5578475000000.0,0.5512416362762451,3.8519396781921387,2.220777750015259,8.46060562133789,-0.8007269501686096,-0.5717699,-0.75655663,103.63105,-8.176406,24.581837,CSO
5579003700000.0,0.5562382340431213,3.866199016571045,2.231710433959961,8.453546524047852,-0.8156432509422302,-0.5510005,-0.7828238000000001,103.90355,-8.131746000000001,24.682997,CSO
5579504400000.0,0.5612329840660095,3.878699779510498,2.2335715293884277,8.446114540100098,-0.8285275101661682,-0.5216789000000001,-0.82711154,104.17805,-8.088958,24.767445000000002,CSO
5579978300000.0,0.566230058670044,3.895498275756836,2.220663070678711,8.438542366027832,-0.8399438261985779,-0.49602258,-0.87689704,104.456345,-8.043663,24.853956,CSO
5580427600000.0,0.5712255835533142,3.916947603225708,2.19331693649292,8.430869102478027,-0.8495146632194519,-0.47616947,-0.9104946,104.73421,-8.011241,24.929752,CSO
5580853000000.0,0.576226532459259,3.9417243003845215,2.1632513999938965,8.415163040161133,-0.8583638668060303,-0.49205196,-0.94897914,105.02219,-7.9545506999999995,25.017951999999998,CSO
5581256000000.0,0.5812216997146606,3.9693281650543213,2.1321043968200684,8.391266822814941,-0.8642672896385193,-0.57757306,-0.9819659,105.31303,-7.919833000000001,25.116503,CSO
5581637700000.0,0.5862222909927368,4.001752853393555,2.0985567569732666,8.368803977966309,-0.8695468306541443,-0.5693264,-1.0207558,105.57726000000001,-7.8206663,25.206707,CSO
5581999400000.0,0.5912208557128906,4.038931369781494,2.062615156173706,8.349420547485352,-0.8733730912208557,-0.49205196,-1.035722,105.83698999999999,-7.741014,25.297853,CSO
5582342300000.0,0.5962235331535339,4.08030366897583,2.0265543460845947,8.33349895477295,-0.875579297542572,-0.46578476,-1.0305296,106.132324,-7.661088,25.42918,CSO
5582667000000.0,0.6012223958969116,4.124907493591309,1.9932308197021484,8.321415901184082,-0.8773260712623596,-0.49357912,-1.0308351999999998,106.424706,-7.5861964,25.550152,CSO
5582974600000.0,0.6062203645706177,4.172428607940674,1.9636672735214233,8.310508728027344,-0.8786542415618896,-0.54336464,-1.026559,106.72426999999999,-7.4943724000000005,25.689262,CSO
5583266000000.0,0.6112182140350342,4.222580432891846,1.93851900100708,8.2988920211792,-0.8794233202934265,-0.56413406,-1.0079277,107.01177,-7.405549499999999,25.825716,CSO
5583542400000.0,0.6162145733833313,4.275128364562988,1.9164490699768066,8.286026954650879,-0.8798421025276184,-0.56688297,-0.99265605,107.31213999999999,-7.3222833,25.98645,CSO
5583804000000.0,0.6212127208709717,4.329959392547607,1.8965719938278198,8.271560668945312,-0.8798316717147827,-0.5513059,-0.9801333000000001,107.600105,-7.242079700000001,26.144659,CSO
5584052000000.0,0.6262108683586121,4.387051105499268,1.8800723552703857,8.257491111755371,-0.8792520761489868,-0.54305923,-0.9596693000000001,107.89986999999999,-7.173259700000001,26.318638,CSO
5584287400000.0,0.6312110424041748,4.446418762207031,1.8677443265914917,8.245184898376465,-0.8783777952194214,-0.54275376,-0.93951076,108.1885,-7.105631,26.48715,CSO
5584510000000.0,0.6362102627754211,4.508831977844238,1.8564172983169556,8.235223770141602,-0.8774524331092834,-0.54428095,-0.9211848,108.47224399999999,-7.041131,26.662264,CSO
5584721500000.0,0.6412110924720764,4.574952602386475,1.843684434890747,8.22805404663086,-0.8766252398490906,-0.51343226,-0.9080511999999998,108.74374399999999,-6.9774009999999995,26.825111,CSO
5584922000000.0,0.6462077498435974,4.64551305770874,1.8316786289215088,8.220195770263672,-0.875337541103363,-0.48808134,-0.90102625,109.04302,-6.9298839999999995,27.007563,CSO
5585111600000.0,0.6512058973312378,4.7215070724487305,1.8223557472229004,8.208414077758789,-0.8737603425979614,-0.47586402,-0.9098838,109.3366,-6.8834095,27.181221,CSO
5585291400000.0,0.6562042236328125,4.800519943237305,1.81122624874115,8.193731307983398,-0.8722346425056458,-0.45356745,-0.8906415000000001,109.62598999999999,-6.823425,27.360945,CSO
5585462400000.0,0.6612028479576111,4.880281925201416,1.7939939498901367,8.177103042602539,-0.8702531456947327,-0.42180246,-0.86162543,109.90865,-6.7690883,27.531055,CSO
5585624400000.0,0.666202962398529,4.960813999176025,1.7700361013412476,8.159005165100098,-0.8664727807044983,-0.38728857,-0.8530733,110.20973000000001,-6.7287474000000005,27.71736,CSO
5585778000000.0,0.671196699142456,5.04197883605957,1.738802433013916,8.140057563781738,-0.8621288537979126,-0.35888332,-0.82741696,110.49038999999999,-6.6809899999999995,27.895103000000002,CSO
5585923700000.0,0.676193118095398,5.120859622955322,1.7024234533309937,8.12075424194336,-0.8572676777839661,-0.31612277,-0.79901177,110.76403,-6.614278,28.077307,CSO
5586061600000.0,0.6811891794204712,5.194563388824463,1.6632388830184937,8.101627349853516,-0.8522423505783081,-0.26939157,-0.7812967,111.02736999999999,-6.5495257,28.248112,CSO
5586192700000.0,0.6861851811408997,5.263365268707275,1.6213942766189575,8.08266830444336,-0.847777783870697,-0.2284636,-0.768163,111.27492,-6.4498076,28.426521,CSO
5586317000000.0,0.6911799311637878,5.327530860900879,1.5770515203475952,8.063870429992676,-0.8423140645027161,-0.20097467,-0.7538077,111.51116,-6.359167,28.593760999999997,CSO
5586435000000.0,0.6961750984191895,5.386143684387207,1.5302480459213257,8.042994499206543,-0.8366857767105103,-0.19303341,-0.7440339,111.75296999999999,-6.266831,28.760303000000004,CSO
5586546600000.0,0.7011701464653015,5.436945915222168,1.4809762239456177,8.015235900878906,-0.8311295509338379,-0.1872302,-0.7443393,111.98838,-6.180874299999999,28.917452,CSO
5586653000000.0,0.7061643600463867,5.483431816101074,1.4280893802642822,7.983723163604736,-0.8250067234039307,-0.14355333,-0.7318166,112.20624,-6.0657440000000005,29.072968,CSO
5586753700000.0,0.7111605405807495,5.5294647216796875,1.3701757192611694,7.951865196228027,-0.8181521892547607,-0.1020145,-0.73639804,112.425385,-5.9577575,29.224321000000003,CSO
5586849600000.0,0.7161608934402466,5.575075149536133,1.307478666305542,7.9216814041137695,-0.8101980090141296,-0.06017022599999999,-0.71837753,112.63565,-5.8404435999999995,29.369652000000002,CSO
5586940300000.0,0.7211601734161377,5.620234966278076,1.240450143814087,7.895581245422363,-0.8025049567222595,-0.023518313,-0.74281216,112.85548999999999,-5.731185400000001,29.501084999999996,CSO
5587027000000.0,0.726158082485199,5.6622700691223145,1.1695042848587036,7.871420860290527,-0.7953683733940125,-0.03481932,-0.75625116,113.06577,-5.598146400000001,29.654484000000004,CSO
5587108600000.0,0.731157660484314,5.697030067443848,1.0950391292572021,7.8460307121276855,-0.788953959941864,-0.038789943,-0.75991637,113.27453999999999,-5.4698887,29.793084999999998,CSO
5587187000000.0,0.7361544966697693,5.726955890655518,1.0201010704040527,7.81792688369751,-0.7817907929420471,-0.035430185,-0.77518797,113.48702,-5.3266873,29.946711999999998,CSO
5587260700000.0,0.741157054901123,5.756069660186768,0.9499390125274658,7.7840189933776855,-0.7747163772583008,-0.02565634,-0.7852673000000001,113.693375,-5.1813335,30.09719,CSO
5587331000000.0,0.7461536526679993,5.782747268676758,0.883660078048706,7.745917797088623,-0.7664563655853271,-0.007330383,-0.79229224,113.90038999999999,-5.0297084000000005,30.247175,CSO
5587397500000.0,0.7511533498764038,5.803958892822266,0.8199023008346558,7.705550193786621,-0.7566832304000854,0.017104227,-0.81336707,114.10831999999999,-4.8881283,30.389313,CSO
5587461000000.0,0.7561520934104919,5.8193464279174805,0.7589324116706848,7.662623405456543,-0.7451358437538147,0.043066,-0.82772243,114.33118999999999,-4.7643104,30.541502,CSO
5587521000000.0,0.7611526250839233,5.827579498291016,0.7014651894569397,7.616156578063965,-0.7317622303962708,0.08796459400000001,-0.8518515999999999,114.556335,-4.657285,30.677770000000002,CSO
5587579000000.0,0.7661519050598145,5.828883171081543,0.6479325294494629,7.568389415740967,-0.717848002910614,0.13469578,-0.8686504,114.79421,-4.5598426,30.809185,CSO
5587633400000.0,0.7711536884307861,5.822951793670654,0.5997236371040344,7.5244035720825195,-0.701696515083313,0.17287487,-0.8732319,115.027824,-4.4851804,30.927374,CSO
5587685300000.0,0.7761606574058533,5.810482978820801,0.5573098063468933,7.485485076904297,-0.6839804649353027,0.22082779,-0.8720101,115.27938,-4.4213037,31.02448,CSO
5587735000000.0,0.7811629176139832,5.793364524841309,0.5227234363555908,7.456232070922852,-0.6653854846954346,0.25534168,-0.8735373,115.52525,-4.370612,31.112469,CSO
5587782300000.0,0.786165714263916,5.771415710449219,0.49464571475982666,7.435316562652588,-0.645763099193573,0.26450464,-0.86254174,115.79262,-4.351555,31.19135,CSO
5587827400000.0,0.7911697626113892,5.743767738342285,0.4693363606929779,7.419077396392822,-0.6256889700889587,0.2593123,-0.84635377,116.049194,-4.338214,31.262390000000003,CSO
5587870400000.0,0.7961717844009399,5.711628437042236,0.44657212495803833,7.40797233581543,-0.6050243377685547,0.23823744,-0.84513205,116.34646000000001,-4.364507700000001,31.322601000000002,CSO
5587911300000.0,0.8011730313301086,5.678273677825928,0.42599716782569885,7.40453577041626,-0.5829054117202759,0.27488935,-0.83077675,116.62186000000001,-4.396814,31.365578000000003,CSO
5587950000000.0,0.8061731457710266,5.644002914428711,0.4075819253921509,7.407158851623535,-0.5599143505096436,0.22082779,-0.8054258000000001,116.91113,-4.4431443,31.425205,CSO
5587987300000.0,0.8111759424209595,5.610564231872559,0.39188823103904724,7.406659126281738,-0.5357720255851746,0.19242255,-0.79504114,117.18883500000001,-4.501778,31.464553999999996,CSO
5588022500000.0,0.8161868453025818,5.577937126159668,0.37857866287231445,7.4034552574157715,-0.5107351541519165,0.17837265,-0.7834346999999999,117.468864,-4.569751,31.499289,CSO
5588056000000.0,0.8211870789527893,5.5465989112854,0.3650791347026825,7.401096820831299,-0.4843793511390686,0.16920967,-0.7654141999999999,117.73578,-4.64703,31.538815999999997,CSO
5588088000000.0,0.8261936902999878,5.516452789306641,0.35134223103523254,7.399581432342529,-0.45723068714141846,0.16279559,-0.7470882,118.0155,-4.7402725,31.588603999999997,CSO
5588119000000.0,0.8311940431594849,5.488104343414307,0.33847594261169434,7.400174617767334,-0.43027549982070923,0.17256944,-0.7309003000000001,118.281494,-4.836924,31.633821,CSO
5588148300000.0,0.8362058997154236,5.461745738983154,0.3266802132129669,7.403201103210449,-0.4040243625640869,0.21013765,-0.7128797,118.53235,-4.9359913,31.67056,CSO
5588176600000.0,0.8412092924118042,5.438959121704102,0.31671708822250366,7.40943717956543,-0.3789280354976654,0.19456059,-0.70738196,118.78676999999999,-5.031962999999999,31.716377,CSO
5588203300000.0,0.8462225198745728,5.419565677642822,0.30859634280204773,7.418866157531738,-0.3544529676437378,0.18784106,-0.6963864000000001,119.04263999999999,-5.1292176,31.747515000000003,CSO
5588229000000.0,0.8512214422225952,5.400486946105957,0.3025849759578705,7.429469108581543,-0.32952427864074707,0.20341812,-0.6921103,119.29211000000001,-5.2307096,31.774778,CSO
5588253700000.0,0.8562383055686951,5.381147861480713,0.29876601696014404,7.441465377807617,-0.3054520785808563,0.22785273,-0.6786713000000001,119.54405,-5.329395,31.802736,CSO
5588277300000.0,0.8612363338470459,5.351190567016602,0.29649466276168823,7.456182479858398,-0.28189772367477417,0.32375857,-0.68966687,119.793015,-5.438394000000001,31.803307,CSO
5588300000000.0,0.8662326335906982,5.310429096221924,0.2957752048969269,7.473692417144775,-0.25670126080513,0.36010507,-0.7174611999999999,120.04178,-5.564428299999999,31.805640000000004,CSO
5588321300000.0,0.8712644577026367,5.281060218811035,0.29961714148521423,7.497522354125977,-0.23162679374217987,0.29871312,-0.732122,120.28408999999999,-5.68393,31.80777,CSO
5588342300000.0,0.8762600421905518,5.263282775878906,0.30709418654441833,7.526055335998535,-0.20673292875289917,0.26572640000000003,-0.73792523,120.52431499999999,-5.8168334999999995,31.790234,CSO
5588362000000.0,0.8812585473060608,5.245426177978516,0.3170153498649597,7.55291748046875,-0.18142405152320862,0.22999077,-0.7162395,120.78435,-5.962818,31.745956,CSO
5588381000000.0,0.8862523436546326,5.223711013793945,0.328686386346817,7.576069355010986,-0.15748022496700287,0.21777347,-0.73792523,121.05606999999999,-6.11114,31.702557000000002,CSO
5588399400000.0,0.891251266002655,5.202043533325195,0.34264618158340454,7.594579696655273,-0.13294054567813873,0.23762658,-0.7761043000000001,121.33648000000001,-6.2864213,31.682638,CSO
5588417000000.0,0.8962453603744507,5.181530475616455,0.3588202893733978,7.608529090881348,-0.10767398029565811,0.2312125,-0.80573124,121.6166,-6.461193,31.671682,CSO
5588434000000.0,0.9012425541877747,5.162110805511475,0.37717750668525696,7.61805534362793,-0.0825168564915657,0.25595254,-0.8500190000000001,121.93786000000001,-6.657183,31.632571999999996,CSO
5588450300000.0,0.9062373042106628,5.143725872039795,0.3975406289100647,7.623468399047852,-0.05715407803654671,0.2724459,-0.90285885,122.26553999999999,-6.865957300000001,31.59474,CSO
5588466000000.0,0.9112355709075928,5.128203392028809,0.42060399055480957,7.629929542541504,-0.03201981633901596,0.3036,-0.9492845999999999,122.60863,-7.0842220000000005,31.549315999999997,CSO
5588481000000.0,0.9162320494651794,5.116098880767822,0.44644251465797424,7.639343738555908,-0.006190359592437744,0.27000242,-0.9981538000000001,122.96483,-7.3179419999999995,31.513824,CSO
5588496000000.0,0.921230137348175,5.100654602050781,0.4733993113040924,7.650147914886475,0.019255492836236954,0.22449298,-1.0235047,123.3463,-7.579712,31.483172999999997,CSO
5588510000000.0,0.9262317419052124,5.076897144317627,0.5002247095108032,7.661159038543701,0.044582344591617584,0.2452624,-1.044885,123.73116999999999,-7.8531647,31.43853,CSO
5588523700000.0,0.9312299489974976,5.052306175231934,0.5304898023605347,7.674294948577881,0.07010580599308014,0.24678956,-1.1050552,124.166504,-8.15418,31.410334000000002,CSO
5588537000000.0,0.9362292289733887,5.03158712387085,0.5665698051452637,7.690828800201416,0.09514802694320679,0.25167647,-1.1261301000000001,124.58359499999999,-8.448857,31.372614000000002,CSO
5588549400000.0,0.9412840604782104,5.014422416687012,0.6065635681152344,7.7111663818359375,0.1204834133386612,0.2556471,-1.1753048000000001,125.02009,-8.771219,31.30068,CSO
5588561400000.0,0.9462801814079285,4.9995646476745605,0.6472104787826538,7.73340368270874,0.14648699760437012,0.2443461,-1.1945469,125.4442,-9.091875,31.229692,CSO
5588573500000.0,0.9512751698493958,4.986409664154053,0.6896141767501831,7.755688190460205,0.1716582030057907,0.20677789,-1.2064588,125.907715,-9.442525,31.161114,CSO
5588585000000.0,0.9562703967094421,4.974207401275635,0.7340312600135803,7.776031017303467,0.19605767726898193,0.19272798,-1.2131783999999999,126.36326000000001,-9.797080000000001,31.085037,CSO
5588596000000.0,0.9612663984298706,4.957265377044678,0.7790443301200867,7.794395446777344,0.22049157321453094,0.17898351,-1.2223413,126.82983999999999,-10.16808,31.018051,CSO
5588607000000.0,0.9662632346153259,4.930785179138184,0.8234410881996155,7.810762405395508,0.244567409157753,0.17684549,-1.2198978999999999,127.28334,-10.531353,30.948477,CSO
5588617500000.0,0.9712591171264648,4.9021687507629395,0.8674894571304321,7.826160907745361,0.2691669762134552,0.17715092,-1.244638,127.75206999999999,-10.9202,30.876441999999997,CSO
5588628000000.0,0.9762626886367798,4.8779096603393555,0.9115078449249268,7.8415117263793945,0.2947506606578827,0.12980886,-1.2299771000000002,128.19872,-11.300976,30.817004999999998,CSO
5588638000000.0,0.9812588691711426,4.854012966156006,0.9552018642425537,7.858126640319824,0.32100558280944824,0.09743301,-1.1954633,128.66068,-11.697842,30.722244,CSO
5588648000000.0,0.9862555265426636,4.826640605926514,0.9984668493270874,7.877418041229248,0.3468053936958313,0.08307768,-1.1997393,129.12181,-12.0956745,30.630971999999996,CSO
5588657400000.0,0.9912517666816711,4.795266628265381,1.0399922132492065,7.899292945861816,0.37279289960861206,0.076052725,-1.2198978999999999,129.584,-12.504891,30.554699,CSO
5588667000000.0,0.996249258518219,4.75857400894165,1.0771536827087402,7.923766613006592,0.3987627625465393,0.069027774,-1.2308934999999999,130.03493999999998,-12.9083,30.47912,CSO
5588675700000.0,1.0012433528900146,4.7220964431762695,1.1145871877670288,7.953487873077393,0.4251716732978821,0.06750060599999999,-1.2724323,130.5022,-13.331569,30.376827000000002,CSO
5588684600000.0,1.0062412023544312,4.693084716796875,1.158559799194336,7.99241828918457,0.4506777822971344,0.09896017,-1.3371841,130.96764,-13.751577,30.261715000000002,CSO
5588693000000.0,1.011247158050537,4.673434257507324,1.2110852003097534,8.035426139831543,0.4766151010990143,0.0571159,-1.3454306999999999,131.42307,-14.172292,30.144724,CSO
5588701400000.0,1.0162447690963745,4.665501117706299,1.274410367012024,8.074677467346191,0.5012515187263489,0.06414085,-1.3457361,131.87936000000002,-14.587488,29.999340000000004,CSO
5588710000000.0,1.0212661027908325,4.667402267456055,1.3472696542739868,8.110553741455078,0.5258934497833252,0.05589417,-1.2858714,132.34236,-15.027496,29.871513,CSO
5588717700000.0,1.0262683629989624,4.652620315551758,1.4046651124954224,8.14688777923584,0.5504918098449707,0.023823743999999997,-1.3243558000000002,132.82745,-15.472945999999999,29.73772,CSO
5588725500000.0,1.0312645435333252,4.625457763671875,1.4490008354187012,8.18232536315918,0.5738931894302368,0.014355333500000001,-1.35551,133.33316000000002,-15.956384,29.634295,CSO
5588733400000.0,1.0362621545791626,4.604037284851074,1.4897468090057373,8.210844039916992,0.5959823131561279,-0.0033597588,-1.3765849,133.8372,-16.437046,29.534235,CSO
5588740700000.0,1.0412596464157104,4.588027477264404,1.5271015167236328,8.232841491699219,0.617854654788971,-0.009468411,-1.3750577,134.30513,-16.887917,29.392849,CSO
5588748000000.0,1.0462567806243896,4.5771379470825195,1.561246395111084,8.248668670654297,0.640319287776947,0.004276057,-1.3637567,134.76581000000002,-17.334495999999998,29.247757,CSO
5588755400000.0,1.0512657165527344,4.570815563201904,1.5923957824707031,8.258228302001953,0.6626935601234436,0.016187929,-1.3585643,135.2263,-17.777964,29.106855,CSO
5588763000000.0,1.056261658668518,4.561005592346191,1.6223630905151367,8.25915241241455,0.6856659650802612,0.016187929,-1.3417655000000002,135.66953999999998,-18.220177,28.965803,CSO
5588769600000.0,1.0612752437591553,4.547842502593994,1.6510865688323975,8.251447677612305,0.7092371582984924,0.07971791,-1.3393221000000002,136.10097,-18.651937,28.846975,CSO
5588776400000.0,1.066271185874939,4.540952205657959,1.6744908094406128,8.247941970825195,0.7336357235908508,0.014966198,-1.2684617,136.5114,-19.071645999999998,28.7685,CSO
5588783000000.0,1.0712664127349854,4.5403547286987305,1.6926181316375732,8.248652458190918,0.7583780288696289,0.002443461,-1.2779301,136.94595,-19.523542000000003,28.658817,CSO
5588790000000.0,1.076265573501587,4.5454206466674805,1.7154903411865234,8.250423431396484,0.7818505764007568,0.049785517,-1.2819008,137.34814,-19.957375,28.555522999999997,CSO
5588797000000.0,1.0812742710113525,4.555881500244141,1.745025634765625,8.252592086791992,0.8043326139450073,0.090713486,-1.2669344999999999,137.74013,-20.389194,28.455362,CSO
5588803600000.0,1.0862715244293213,4.569870471954346,1.781137466430664,8.256343841552734,0.8263164758682251,0.11911872,-1.2528846000000002,138.1164,-20.79522,28.36761,CSO
5588810000000.0,1.0912669897079468,4.586875915527344,1.824102520942688,8.262152671813965,0.8475519418716431,0.12736541,-1.2479976000000002,138.47972,-21.191916,28.272872999999997,CSO
5588816000000.0,1.0962632894515991,4.607916831970215,1.8764835596084595,8.272433280944824,0.8679161667823792,0.12492194,-1.2269229,138.85103,-21.608002,28.19122,CSO
5588822500000.0,1.1012576818466187,4.633301734924316,1.939085602760315,8.288151741027832,0.8875532150268555,0.12064589,-1.1979066999999999,139.20859,-22.015573999999997,28.106890000000003,CSO
5588829000000.0,1.1062546968460083,4.6644287109375,2.0110127925872803,8.305658340454102,0.9069738984107971,0.087659165,-1.1636983,139.5891,-22.447287,28.038805,CSO
5588835000000.0,1.111252784729004,4.701571941375732,2.0914864540100098,8.323469161987305,0.9262711405754089,0.06536258,-1.1255191999999998,139.94968,-22.866598,27.970102,CSO
5588841400000.0,1.116249918937683,4.743985652923584,2.175384998321533,8.33318042755127,0.9457607865333557,0.06780604,-1.103528,140.3307,-23.318626000000002,27.904705,CSO
5588847700000.0,1.1212466955184937,4.791212558746338,2.260117769241333,8.3307523727417,0.9655302166938782,0.08368854,-1.102001,140.69778,-23.76211,27.839947,CSO
5588853500000.0,1.126247763633728,4.837874412536621,2.3473522663116455,8.327441215515137,0.9862644672393799,0.10751228,-1.1044444,141.09097,-24.247272,27.792092999999998,CSO
5588859000000.0,1.1312453746795654,4.8810529708862305,2.4376585483551025,8.3292875289917,1.008286476135254,0.14477506,-1.1065824,141.4675,-24.727406,27.731762,CSO
5588865000000.0,1.1362431049346924,4.91823148727417,2.5316011905670166,8.334498405456543,1.0294604301452637,0.1685988,-1.1029171999999998,141.8791,-25.237617,27.715246,CSO
5588871000000.0,1.1412428617477417,4.947982311248779,2.6294498443603516,8.341907501220703,1.050205945968628,0.19975294,-1.1013899999999999,142.27074,-25.745895,27.679066,CSO
5588876500000.0,1.146240472793579,4.970549583435059,2.7284414768218994,8.348552703857422,1.0703341960906982,0.20952678,-1.0809261000000001,142.65425,-26.25873,27.620359999999998,CSO
5588882300000.0,1.1512383222579956,4.9860639572143555,2.826481819152832,8.352046012878418,1.08976411819458,0.21868975,-1.0662653,143.02061,-26.76015,27.547419,CSO
5588888000000.0,1.1562366485595703,4.994897842407227,2.923624038696289,8.352553367614746,1.1079144477844238,0.24923302,-1.0653489999999999,143.39975,-27.292942,27.444162,CSO
5588894000000.0,1.1612350940704346,4.99741268157959,3.019911766052246,8.350236892700195,1.1244463920593262,0.27336220000000006,-1.0763446,143.76527,-27.811003000000003,27.336126,CSO
5588899600000.0,1.166232943534851,4.995656490325928,3.114231586456299,8.34415340423584,1.1403414011001587,0.31795537,-1.0745120000000001,144.11158999999998,-28.325575,27.222665999999997,CSO
5588905400000.0,1.1712298393249512,4.991425037384033,3.2056264877319336,8.333491325378418,1.1554381847381592,0.35246924,-1.0629056000000001,144.44478,-28.823528000000003,27.102356,CSO
5588911000000.0,1.176232099533081,4.98414945602417,3.293842077255249,8.318280220031738,1.1701536178588867,0.3830125,-1.0403035,144.78464,-29.365652,26.938522,CSO
5588917000000.0,1.1812351942062378,4.972866535186768,3.378180503845215,8.298661231994629,1.1849963665008545,0.39645153,-1.0100657,145.10547,-29.894175,26.771595,CSO
5588922000000.0,1.1862329244613647,4.956754684448242,3.4578428268432617,8.275672912597656,1.2009037733078003,0.40042216,-0.97219205,145.41504,-30.435616999999997,26.603928000000003,CSO
5588927400000.0,1.1912320852279663,4.934703350067139,3.532000780105591,8.250133514404297,1.2184700965881348,0.41996986,-0.9092728999999999,145.69487,-30.963046999999996,26.436836,CSO
5588932600000.0,1.1962590217590332,4.906302452087402,3.609941244125366,8.222567558288574,1.2376883029937744,0.44990227,-0.8680395000000001,145.96674,-31.503529999999998,26.264554999999998,CSO
5588938000000.0,1.2012546062469482,4.873315334320068,3.6974005699157715,8.194367408752441,1.2579821348190308,0.45570546,-0.8228354999999999,146.21361000000002,-32.030727,26.103348,CSO
5588943000000.0,1.2062489986419678,4.833771705627441,3.789994239807129,8.167316436767578,1.2791802883148193,0.47525316,-0.74097955,146.42274,-32.561127,25.93362,CSO
5588948400000.0,1.2112469673156738,4.783927917480469,3.8729660511016846,8.1466703414917,1.3003555536270142,0.5045747,-0.6417139000000001,146.6063,-33.07585,25.771023,CSO
5588953600000.0,1.2162420749664307,4.7275071144104,3.947470188140869,8.131534576416016,1.3231695890426636,0.5338961999999999,-0.6056729000000001,146.81322,-33.662409999999994,25.57411,CSO
5588959000000.0,1.22124183177948,4.668918609619141,4.0146403312683105,8.121087074279785,1.3466559648513794,0.52595496,-0.6065891999999999,146.99945,-34.22732,25.389492,CSO
5588964000000.0,1.226239562034607,4.6108808517456055,4.076806545257568,8.113948822021484,1.369623064994812,0.5320636,-0.60048056,147.12929,-34.77725,25.167131,CSO
5588969300000.0,1.2312390804290771,4.556957721710205,4.136936664581299,8.108468055725098,1.3917405605316162,0.5338961999999999,-0.6072,147.26038,-35.324690000000004,24.946821,CSO
5588974600000.0,1.2362323999404907,4.5066070556640625,4.196710586547852,8.102767944335938,1.4131840467453003,0.535118,-0.6236934000000001,147.36956999999998,-35.857037,24.709723,CSO
5588980000000.0,1.24123215675354,4.459185600280762,4.258955955505371,8.093928337097168,1.4330614805221558,0.5161811,-0.64843345,147.48225,-36.378547999999995,24.476345000000002,CSO
5588985000000.0,1.2462258338928223,4.413187026977539,4.324836254119873,8.08144760131836,1.4511959552764893,0.50488013,-0.6713409,147.58739,-36.89547,24.243911999999998,CSO
5588990300000.0,1.251224160194397,4.36454439163208,4.399006366729736,8.06292724609375,1.4677454233169556,0.49632803,-0.7049385,147.70045,-37.405716,24.010784,CSO
5588995500000.0,1.2562202215194702,4.312783718109131,4.480579853057861,8.039509773254395,1.4830385446548462,0.47708577,-0.7296785,147.82976000000002,-37.931496,23.783737,CSO
5589001000000.0,1.2612195014953613,4.256435871124268,4.569068908691406,8.012687683105469,1.4972074031829834,0.46273044,-0.7516696999999999,147.9628,-38.44872,23.553696,CSO
5589006000000.0,1.2662640810012817,4.194234848022461,4.664059638977051,7.9819183349609375,1.5110443830490112,0.44135013,-0.7812967,148.12462,-39.01308,23.305208,CSO
5589011300000.0,1.2712600231170654,4.128607273101807,4.759465217590332,7.948996543884277,1.5248113870620728,0.42088616,-0.79626286,148.2859,-39.566856,23.060032,CSO
5589016500000.0,1.2762575149536133,4.058642387390137,4.854565143585205,7.913283348083496,1.540497899055481,0.40744713,-0.81397796,148.46472,-40.17915,22.782104,CSO
5589022000000.0,1.2812541723251343,3.9858503341674805,4.943084239959717,7.875186920166016,1.5577574968338013,0.38087448,-0.8179486,148.64522,-40.781265000000005,22.512835,CSO
5589027000000.0,1.2862508296966553,3.9114835262298584,5.025008201599121,7.83541202545166,1.575887680053711,0.36193767,-0.8210029000000001,148.83292,-41.424155999999996,22.216108,CSO
5589032000000.0,1.291250228881836,3.8398234844207764,5.099299430847168,7.796248912811279,1.5955421924591064,0.3390302,-0.8258898000000001,149.02217,-42.069072999999996,21.926235000000002,CSO
5589037500000.0,1.2962476015090942,3.7712721824645996,5.165282249450684,7.758418083190918,1.616558313369751,0.33505958,-0.8249735,149.1914,-42.722225,21.621954000000002,CSO
5589042700000.0,1.3012446165084839,3.7083823680877686,5.217457294464111,7.725615501403809,1.6384402513504028,0.32467487,-0.82527894,149.36252,-43.372944,21.324276,CSO
5589048000000.0,1.3062406778335571,3.650127410888672,5.2596869468688965,7.697655200958252,1.6603116989135742,0.28710666,-0.8350528,149.5145,-44.017868,21.036163000000002,CSO
5589053000000.0,1.311238408088684,3.591238021850586,5.314123153686523,7.674923896789551,1.680919885635376,0.26389378,-0.81581056,149.65457,-44.64969,20.755589,CSO
5589058500000.0,1.3162363767623901,3.5315964221954346,5.379591464996338,7.656948089599609,1.7003321647644043,0.24892759999999997,-0.7870999,149.76826,-45.241615,20.50158,CSO
5589063700000.0,1.3212336301803589,3.4690704345703125,5.449773788452148,7.641238212585449,1.7177983522415161,0.24404067,-0.77579886,149.8804,-45.817837,20.252604,CSO
5589069000000.0,1.3262466192245483,3.403439998626709,5.524924278259277,7.627753734588623,1.73330819606781,0.22540927,-0.75136423,149.98352,-46.412346,19.98967,CSO
5589074000000.0,1.331243872642517,3.335568904876709,5.603833198547363,7.616225242614746,1.7434176206588745,0.20830505,-0.73914695,150.08362,-46.974636,19.729921,CSO
5589079400000.0,1.3362469673156738,3.2651023864746094,5.686942100524902,7.606651306152344,1.7514256238937378,0.1908954,-0.7125743,150.16416999999998,-47.530663,19.486437,CSO
5589084700000.0,1.341246485710144,3.1923394203186035,5.773784637451172,7.602320194244385,1.7563048601150513,0.16035213,-0.68661255,150.24636999999998,-48.04786,19.253733,CSO
5589090000000.0,1.3462408781051636,3.1174299716949463,5.864118576049805,7.603720188140869,1.7577824592590332,0.13072516,-0.67164636,150.3264,-48.54336,19.029999,CSO
5589095000000.0,1.3512383699417114,3.0338127613067627,5.958649635314941,7.602690696716309,1.7542167901992798,0.1020145,-0.6808093000000001,150.41595,-49.066853,18.750334,CSO
5589100400000.0,1.3562341928482056,2.9412271976470947,6.057092666625977,7.598235607147217,1.7463160753250122,0.07299839999999999,-0.68569624,150.5058,-49.564507,18.483892,CSO
5589105600000.0,1.3612329959869385,2.8372151851654053,6.155311107635498,7.584168910980225,1.7336113452911377,0.051923547,-0.7110472,150.59488000000002,-50.04862,18.188482,CSO
5589111000000.0,1.3662281036376953,2.7222604751586914,6.252416610717773,7.560032844543457,1.7171725034713745,0.0421497,-0.74281216,150.68707,-50.506924,17.897919,CSO
5589116000000.0,1.3712249994277954,2.6011593341827393,6.3655171394348145,7.528007984161377,1.6971986293792725,0.019547688,-0.7733554,150.79056,-50.985424,17.55621,CSO
5589121400000.0,1.376224398612976,2.4748387336730957,6.496184825897217,7.488748550415039,1.6751638650894165,0.0009162978999999999,-0.74036866,150.88666,-51.434670000000004,17.22866,CSO
5589126600000.0,1.381221890449524,2.348720073699951,6.614481449127197,7.444384574890137,1.652138590812683,-0.013133603,-0.7629706999999999,151.00392,-51.929054,16.833893,CSO
5589131300000.0,1.3862183094024658,2.2238831520080566,6.714649200439453,7.395526885986328,1.6264013051986694,0.0030543262,-0.7831292,151.10866000000001,-52.384953,16.451829999999998,CSO
5589136600000.0,1.3912187814712524,2.103651523590088,6.796800136566162,7.342884540557861,1.5982755422592163,-0.006414085,-0.7806858,151.23073,-52.913047999999996,16.022033999999998,CSO
5589142000000.0,1.3962149620056152,1.9895591735839844,6.861963748931885,7.287145614624023,1.5691419839859009,-0.007330383,-0.75319684,151.34163,-53.415493000000005,15.597582999999998,CSO
5589146500000.0,1.4012128114700317,1.876336693763733,6.92777156829834,7.229081630706787,1.5395588874816895,0.00030543262000000003,-0.74006325,151.44557,-53.892745999999995,15.172867000000002,CSO
5589152000000.0,1.4062258005142212,1.762265920639038,6.999248504638672,7.168759346008301,1.509338617324829,0.025045475,-0.73426,151.53864,-54.343754000000004,14.757513000000001,CSO
5589156500000.0,1.4112237691879272,1.6545392274856567,7.06503963470459,7.110842227935791,1.4798661470413208,-0.042455133,-0.7312057,151.64613,-54.769034999999995,14.375554999999999,CSO
5589162000000.0,1.416221022605896,1.5555082559585571,7.1211466789245605,7.056817531585693,1.4516876935958862,-0.076358154,-0.6939429,151.73006999999998,-55.17244300000001,14.000214000000001,CSO
5589166500000.0,1.4212204217910767,1.4616360664367676,7.170989036560059,7.006808280944824,1.4252225160598755,-0.12797627,-0.6783658,151.82716000000002,-55.61220600000001,13.612221,CSO
5589171700000.0,1.4262217283248901,1.3717870712280273,7.215726375579834,6.96068811416626,1.3992398977279663,-0.19120082,-0.6627888000000001,151.92674,-56.03116,13.246177,CSO
5589176400000.0,1.4312196969985962,1.2869518995285034,7.259250164031982,6.913580417633057,1.3738281726837158,-0.22113322,-0.64599,152.01195,-56.423855,12.908536999999999,CSO
5589181700000.0,1.43621826171875,1.2073981761932373,7.3032426834106445,6.863406658172607,1.3499497175216675,-0.25076020000000004,-0.6575964,152.11206,-56.810017,12.582111,CSO
5589186400000.0,1.441218614578247,1.1338919401168823,7.3375043869018555,6.8095703125,1.327767014503479,-0.30665436,-0.65026605,152.21088999999998,-57.175488,12.276641,CSO
5589191600000.0,1.4462165832519531,1.0665863752365112,7.357762336730957,6.752006530761719,1.3074989318847656,-0.32223140000000006,-0.62888575,152.30406000000002,-57.53525500000001,11.974817999999999,CSO
5589196300000.0,1.4512147903442383,1.0056339502334595,7.3885297775268555,6.694161415100098,1.2898573875427246,-0.35246924,-0.60231316,152.40192,-57.909714,11.692548,CSO
5589201600000.0,1.4562135934829712,0.9509242177009583,7.440864086151123,6.637652397155762,1.2732211351394653,-0.3576616,-0.58551437,152.49292,-58.271480000000004,11.415809,CSO
5589207000000.0,1.461212158203125,0.9051441550254822,7.524272918701172,6.593779563903809,1.2567064762115479,-0.35827246,-0.58123827,152.57536000000002,-58.62001,11.169501,CSO
5589211500000.0,1.4662104845046997,0.8696210980415344,7.643476486206055,6.568648338317871,1.2388255596160889,-0.32834008,-0.57940567,152.64676,-58.953125,10.926111,CSO
5589217000000.0,1.4712085723876953,0.8438100218772888,7.79657506942749,6.561263084411621,1.2162493467330933,-0.31123585,-0.5656611999999999,152.70176999999998,-59.30388000000001,10.690089,CSO
5589221500000.0,1.476210355758667,0.8273091912269592,7.982358455657959,6.570921421051025,1.1866399049758911,-0.34147367,-0.52106804,152.75421,-59.61943,10.468264999999999,CSO
5589227000000.0,1.4812090396881104,0.8344131112098694,8.18303108215332,6.58292818069458,1.1473445892333984,-0.36896262,-0.44501534,152.78015,-59.880069999999996,10.260076,CSO
5589231500000.0,1.4862089157104492,0.8722105622291565,8.390161514282227,6.59006929397583,1.09754478931427,-0.39950588,-0.30970868,152.79845,-60.076138,10.086258,CSO
5589236700000.0,1.4912092685699463,0.9290821552276611,8.57796573638916,6.580400466918945,1.040339469909668,-0.41905355,-0.12186762,152.76633999999999,-60.249886,9.958085,CSO
5589241400000.0,1.4962079524993896,0.9970384836196899,8.730161666870117,6.546604633331299,0.983366847038269,-0.3933972,0.087659165,152.70801,-60.375538,9.872516000000001,CSO
5589246700000.0,1.501206398010254,1.0643749237060547,8.844950675964355,6.496820449829102,0.9327835440635681,-0.29749137,0.26816985,152.53802,-60.474,9.935974,CSO
5589251400000.0,1.5062048435211182,1.118312954902649,8.920215606689453,6.439879417419434,0.8907721042633057,-0.15332718,0.36835176,152.33428999999998,-60.554207,10.019707,CSO
5589256600000.0,1.5112040042877197,1.1557762622833252,8.967036247253418,6.378670692443848,0.8569570779800415,-0.02107485,0.39095375,152.00048999999999,-60.650974,10.201863000000001,CSO
5589261400000.0,1.516202688217163,1.1745269298553467,8.994645118713379,6.315580368041992,0.8281345367431641,0.03756821,0.37995818,151.65015,-60.749863,10.384388000000001,CSO
5589266600000.0,1.5212448835372925,1.1842366456985474,9.002880096435547,6.251546859741211,0.8021013736724854,0.14538592,0.344528,151.26566,-60.84014499999999,10.52339,CSO
5589272000000.0,1.5262471437454224,1.1926217079162598,8.998165130615234,6.188504695892334,0.7795391082763672,0.27519479999999996,0.3036,150.87183000000002,-60.947140000000005,10.643444,CSO
5589276600000.0,1.5312399864196777,1.1978363990783691,8.983695983886719,6.127630710601807,0.7594325542449951,0.33292156,0.26450464,150.5116,-61.057976000000004,10.6977415,CSO
5589282000000.0,1.5362383127212524,1.1968836784362793,8.966156959533691,6.071281433105469,0.7423834204673767,0.36621370000000003,0.26419923,150.13128999999998,-61.179626,10.736837,CSO
5589286500000.0,1.541236162185669,1.1896024942398071,8.947872161865234,6.022334098815918,0.7299866676330566,0.38240165,0.25809056,149.73491,-61.299046,10.765967,CSO
5589292000000.0,1.5462336540222168,1.1752451658248901,8.932552337646484,5.985947608947754,0.7207735180854797,0.39125920000000003,0.2321288,149.34138000000002,-61.42154300000001,10.786188000000001,CSO
5589296500000.0,1.55122709274292,1.1543898582458496,8.921318054199219,5.960698127746582,0.714623212814331,0.39064834,0.20861048,148.95642,-61.555240000000005,10.784686,CSO
5589301700000.0,1.5562243461608887,1.1274126768112183,8.917167663574219,5.944775581359863,0.7094029188156128,0.3594942,0.19272798,148.58542,-61.69067,10.781562,CSO
5589306400000.0,1.5612213611602783,1.0947052240371704,8.918901443481445,5.937101364135742,0.7054537534713745,0.28160888,0.18387043,148.24695,-61.825511999999996,10.751519,CSO
5589311700000.0,1.566218614578247,1.0564428567886353,8.92383861541748,5.9357218742370605,0.7020243406295776,0.18325958,0.20769419,147.92393,-61.95508,10.733398,CSO
5589316400000.0,1.5712189674377441,1.0123324394226074,8.931756973266602,5.9394402503967285,0.6996892094612122,0.03268129,0.21563543,147.64105,-62.089259999999996,10.695003,CSO
5589321600000.0,1.576218843460083,0.9566845893859863,8.941431045532227,5.936969757080078,0.6988295316696167,-0.14019357,0.22785273,147.38907,-62.220881999999996,10.680059,CSO
5589326400000.0,1.5812174081802368,0.8925929069519043,8.9528226852417,5.9297099113464355,0.6992039084434509,-0.23457226,0.21166481,147.16505,-62.354973,10.64016,CSO
5589331600000.0,1.5862159729003906,0.8301773071289062,8.966092109680176,5.922091484069824,0.7017720937728882,-0.30787608,0.19700404,146.98041,-62.49586,10.623433,CSO
5589337000000.0,1.5912455320358276,0.7691197395324707,8.981017112731934,5.913638591766357,0.7060427069664001,-0.45814893,0.17684549,146.84953000000002,-62.676567000000006,10.57853,CSO
5589341600000.0,1.5962423086166382,0.7096893787384033,8.995960235595703,5.9036030769348145,0.7119901776313782,-0.72387534,0.17501289,146.76851000000002,-62.86387,10.55861,CSO
5589347000000.0,1.6012377738952637,0.6515935063362122,9.01102352142334,5.891811370849609,0.7194437980651855,-0.99112886,0.17654006,146.71758,-63.065636,10.546827,CSO
5589351500000.0,1.6062343120574951,0.5875611305236816,9.02483081817627,5.866611003875732,0.7284209132194519,-1.187522,0.16615535,146.71935,-63.274035999999995,10.554778,CSO
5589357000000.0,1.6112313270568848,0.5182861089706421,9.037627220153809,5.828675746917725,0.7389542460441589,-1.2675453,0.14874569,146.7605,-63.48764,10.578303,CSO
5589361500000.0,1.6162285804748535,0.45106467604637146,9.051613807678223,5.78527307510376,0.7502284646034241,-1.3964379999999998,0.13775012,146.85655,-63.713177,10.621443,CSO
5589366700000.0,1.6212635040283203,0.3864370882511139,9.066864013671875,5.735541343688965,0.7616668343544006,-1.5592335,0.124005646,146.97621,-63.990204000000006,10.6421585,CSO
5589371500000.0,1.6262614727020264,0.3335515558719635,9.08153247833252,5.680853843688965,0.7735373973846436,-1.6044376,0.13194689,147.0958,-64.267586,10.66463,CSO
5589376700000.0,1.6312720775604248,0.2936183214187622,9.095437049865723,5.620326519012451,0.7842056155204773,-1.6774360000000001,0.14691310000000002,147.24681,-64.5614,10.697768,CSO
5589381400000.0,1.6362684965133667,0.26660528779029846,9.105385780334473,5.560269355773926,0.7939472198486328,-1.7269161,0.14996742,147.40208,-64.85524000000001,10.729149000000001,CSO
5589386700000.0,1.6412668228149414,0.2524719536304474,9.111396789550781,5.500492095947266,0.8037881851196289,-1.8267924999999998,0.15821409,147.5313,-65.148026,10.810133,CSO
5589391400000.0,1.6462616920471191,0.2502143979072571,9.117053985595703,5.439687728881836,0.8125349879264832,-1.9657644,0.17104226,147.68246000000002,-65.42548000000001,10.898235000000001,CSO
5589396600000.0,1.65126633644104,0.2593030333518982,9.121588706970215,5.377654075622559,0.8190414309501648,-2.0647244,0.19700404,147.84604,-65.69048000000001,10.993636,CSO
5589401300000.0,1.6562621593475342,0.27359551191329956,9.112974166870117,5.315644264221191,0.8241105675697327,-2.1355847999999997,0.11301007,147.98131999999998,-65.940765,11.1159,CSO
5589406600000.0,1.6612932682037354,0.29377588629722595,9.089729309082031,5.253103256225586,0.8247913718223572,-2.2360723,0.0842994,148.06046,-66.13996999999999,11.306837,CSO
5589411300000.0,1.6662856340408325,0.3189102113246918,9.063474655151367,5.187200546264648,0.8225548267364502,-2.3619106,0.08735373,148.1731,-66.34006,11.4861,CSO
5589416500000.0,1.6712795495986938,0.3498508334159851,9.034497261047363,5.116564750671387,0.8179144859313965,-2.5118777999999997,0.09254608,148.3234,-66.519966,11.663658,CSO
5589422000000.0,1.6762738227844238,0.3911450505256653,9.007214546203613,5.025919437408447,0.8088660836219788,-2.6349673,0.10842858,148.43071,-66.639626,11.8835,CSO
5589426500000.0,1.6812669038772583,0.4425777196884155,8.981888771057129,4.91517448425293,0.7962794303894043,-2.6743681,0.11942416,148.55765,-66.745384,12.101704,CSO
5589432000000.0,1.6862622499465942,0.5050796866416931,8.952115058898926,4.788758277893066,0.7806034684181213,-2.8283062,0.15118915,148.64696,-66.817406,12.375223,CSO
5589437000000.0,1.6915258169174194,0.6129176616668701,8.915843963623047,4.628252983093262,0.7621818780899048,-2.3445007999999996,0.21502456,148.29297,-66.91854000000001,12.909353999999999,CSO
5589442000000.0,1.6967723369598389,0.7529028654098511,8.8807373046875,4.457098007202148,0.7445467114448547,-2.0494528,0.25411993,147.91681,-66.948074,13.184351999999999,CSO
5589447500000.0,1.7020069360733032,0.9135249853134155,8.843214988708496,4.28263521194458,0.7269073128700256,-1.8371773,0.24190263,147.40018,-66.98606,13.468175,CSO
5589452700000.0,1.7072274684906006,1.0918742418289185,8.802935600280762,4.106204032897949,0.7113962173461914,-1.2922854,0.24190263,146.75333999999998,-67.02465,13.690596,CSO
5589458000000.0,1.7124381065368652,1.2614468336105347,8.767916679382324,3.952646255493164,0.6966140866279602,-1.207986,0.2773328,146.77693,-67.06376,14.020156,CSO
5589463000000.0,1.7176357507705688,1.4179613590240479,8.739287376403809,3.825115203857422,0.6787294149398804,-1.1368201999999998,0.33414328,146.65337,-67.084885,14.297923999999998,CSO
5589468400000.0,1.7228283882141113,1.586454153060913,8.7061128616333,3.6991500854492188,0.6599748134613037,-0.5180137,0.27763826,146.499,-67.09895999999999,14.570065,CSO
5589473700000.0,1.7280046939849854,1.7702479362487793,8.666778564453125,3.570235252380371,0.6454914212226868,-0.09254608,0.18570304,146.37679,-67.11001,14.851825,CSO
5589479000000.0,1.733177661895752,1.9643388986587524,8.620223045349121,3.450029134750366,0.632317066192627,0.2510656,0.098043874,146.01913000000002,-67.07377,15.055703,CSO
5589484000000.0,1.738344430923462,2.166767120361328,8.56670093536377,3.340738296508789,0.6183961033821106,0.6969972,0.0076358155,145.52596,-67.06133,15.182995000000002,CSO
5589489400000.0,1.7434957027435303,2.368234634399414,8.509777069091797,3.2429451942443848,0.6067145466804504,1.1438452,-0.096516706,145.04646,-67.0436,15.332578,CSO
5589494700000.0,1.7486388683319092,2.557731866836548,8.45341968536377,3.1580114364624023,0.5964856743812561,1.4596626,-0.20738874,144.49059,-67.03715,15.425797,CSO
5589500000000.0,1.7537745237350464,2.726860523223877,8.40086841583252,3.086656332015991,0.5860694646835327,1.7989981,-0.35033122,143.84546,-66.97454,15.520679000000001,CSO
5589505000000.0,1.7589032649993896,2.859700918197632,8.358075141906738,3.0307931900024414,0.5772663950920105,1.9049832999999998,-0.49877146,143.19292,-66.94725,15.574906,CSO
5589510400000.0,1.7640304565429688,2.9535975456237793,8.329156875610352,2.989511489868164,0.5668326616287231,1.8051068,-0.6337727,142.49559,-66.91176,15.583647000000001,CSO
5589515600000.0,1.7691469192504883,3.008096218109131,8.316967010498047,2.9613733291625977,0.5546761751174927,1.6765196,-0.73914695,141.79478,-66.90563,15.553091,CSO
5589521000000.0,1.7742619514465332,3.0283873081207275,8.319865226745605,2.9429426193237305,0.541621208190918,1.4645494,-0.8032878000000001,141.06561000000002,-66.95671999999999,15.431423,CSO
5589526000000.0,1.7793660163879395,3.0279362201690674,8.333422660827637,2.9256908893585205,0.5281388163566589,1.3127494,-0.8594874,140.37633,-67.02101,15.290735,CSO
5589531400000.0,1.7844619750976562,3.0076804161071777,8.357163429260254,2.9095566272735596,0.5168073177337646,1.2409728,-0.9056076999999999,139.4853,-67.18876,15.003847,CSO
5589536600000.0,1.7895563840866089,2.962501049041748,8.38359546661377,2.904045343399048,0.5089771151542664,1.1701124,-0.9505063,138.6718,-67.36747,14.720901999999999,CSO
5589541300000.0,1.7946423292160034,2.892136812210083,8.409622192382812,2.9121222496032715,0.5044452548027039,1.0396926,-1.0076222,137.92821999999998,-67.56138,14.439509,CSO
5589546600000.0,1.7997249364852905,2.794768810272217,8.439178466796875,2.9277215003967285,0.5018966197967529,0.8042041,-1.0543533999999999,136.99829,-67.85216,14.072647,CSO
5589552000000.0,1.8048038482666016,2.6707472801208496,8.473730087280273,2.9480490684509277,0.49899548292160034,0.6759224,-1.0613784,136.13458,-68.14341,13.714746,CSO
5589556500000.0,1.8098781108856201,2.5249762535095215,8.513392448425293,2.970276117324829,0.4951421022415161,0.45356745,-1.0418307,135.55542,-68.45830500000001,13.314092,CSO
5589562000000.0,1.8149486780166626,2.3601226806640625,8.558101654052734,2.9931087493896484,0.4917382299900055,0.28344148,-1.0027353,135.01959,-68.76649499999999,12.935177000000001,CSO
5589566500000.0,1.8200148344039917,2.1840763092041016,8.606806755065918,3.0202600955963135,0.4888738691806793,0.12492194,-0.94989544,134.74797,-69.11646,12.497885,CSO
5589571700000.0,1.825085997581482,2.0000126361846924,8.659148216247559,3.0534956455230713,0.4889781177043915,-0.035124752999999995,-0.8753699,134.52309,-69.45777,12.101179,CSO
5589576500000.0,1.830145001411438,1.8118658065795898,8.709403991699219,3.087775230407715,0.4929182827472687,-0.17745635,-0.8069529999999999,134.40276,-69.847206,11.648488,CSO
5589581700000.0,1.835203766822815,1.620481252670288,8.75512409210205,3.1210238933563232,0.5003271102905273,-0.35002577,-0.7510588,134.32979,-70.22691,11.2366295,CSO
5589586400000.0,1.840259075164795,1.430923581123352,8.796448707580566,3.144052505493164,0.5100594758987427,-0.5448918,-0.70005155,134.33063,-70.61984,10.810678999999999,CSO
5589591700000.0,1.8453229665756226,1.24465012550354,8.833473205566406,3.1532671451568604,0.5198591351509094,-0.7266241999999999,-0.63804877,134.36844,-70.997475,10.422981,CSO
5589596400000.0,1.8503700494766235,1.063718318939209,8.870341300964355,3.1667635440826416,0.5273134708404541,-0.9034697,-0.5928446999999999,134.47502,-71.381744,10.028839999999999,CSO
5589601600000.0,1.855413794517517,0.8882867097854614,8.908696174621582,3.191276788711548,0.5335729718208313,-1.1224649,-0.52595496,134.63452,-71.749374,9.680738999999999,CSO
5589607000000.0,1.8604555130004883,0.7193537950515747,8.945075988769531,3.2192375659942627,0.5457819104194641,-1.3408492,-0.43004912,134.83835,-72.16633,9.341841,CSO
5589611600000.0,1.8654950857162476,0.5580676794052124,8.975719451904297,3.2424535751342773,0.5654463171958923,-1.4880677,-0.35460728,135.07584,-72.57145,9.030928,CSO
5589617000000.0,1.870532512664795,0.4064396619796753,8.997108459472656,3.260134220123291,0.5885716080665588,-1.6087136,-0.27305678,135.35655,-72.9352,8.751878999999999,CSO
5589621500000.0,1.8755701780319214,0.26568523049354553,9.00694751739502,3.271794557571411,0.6114248633384705,-1.7626517,-0.21594086,135.67967,-73.303276,8.502487,CSO
5589627000000.0,1.880638837814331,0.14023151993751526,9.00448226928711,3.2710208892822266,0.6321649551391602,-1.9172006000000001,-0.14599679999999998,136.02527,-73.66781,8.283507,CSO
5589631500000.0,1.8856712579727173,0.029836682602763176,8.992870330810547,3.258068084716797,0.6500743627548218,-2.0405953,-0.089186326,136.39749,-74.01839,8.086127000000001,CSO
5589637000000.0,1.8907009363174438,-0.0664762482047081,8.970741271972656,3.2309296131134033,0.6650272011756897,-2.1010711,-0.034208454,136.78339,-74.34387,7.9234241999999995,CSO
5589641500000.0,1.8957277536392212,-0.1503809690475464,8.938251495361328,3.189682960510254,0.6770182847976685,-2.1453588,0.010690141499999998,137.19104,-74.647285,7.780270599999999,CSO
5589646700000.0,1.9007521867752075,-0.2214059829711914,8.899145126342773,3.1319737434387207,0.6850497126579285,-2.1584923,0.02565634,137.58215,-74.93829000000001,7.6707149999999995,CSO
5589651400000.0,1.9057750701904297,-0.27931323647499084,8.856321334838867,3.05615234375,0.6895115971565247,-2.1587977,0.03726278,137.97375,-75.20879000000001,7.572861,CSO
5589656700000.0,1.9107966423034668,-0.32464587688446045,8.81399917602539,2.963942289352417,0.6918149590492249,-2.118786,0.041233405,138.33401,-75.4856,7.493352000000001,CSO
5589661400000.0,1.9158169031143188,-0.35794153809547424,8.775705337524414,2.8568978309631348,0.6898448467254639,-2.079996,0.03176499,138.68896,-75.73356,7.411110000000001,CSO
5589666600000.0,1.9208341836929321,-0.3807756006717682,8.742795944213867,2.740778684616089,0.6854079365730286,-2.022575,0.025045475,138.97083,-76.013054,7.343806,CSO
5589672000000.0,1.9258545637130737,-0.3943590819835663,8.716602325439453,2.6204514503479004,0.6793681383132935,-2.0082195,-0.0076358155,139.25044,-76.278366,7.2641478,CSO
5589676600000.0,1.9308682680130005,-0.4004317820072174,8.6986083984375,2.4981138706207275,0.6725921630859375,-2.0186043000000002,-0.0421497,139.41843,-76.56754000000001,7.191737,CSO
5589682000000.0,1.9358879327774048,-0.40125149488449097,8.693248748779297,2.3771071434020996,0.6666167974472046,-2.039679,-0.089491755,139.58428999999998,-76.85879,7.1032767,CSO
5589686600000.0,1.9409042596817017,-0.3971836566925049,8.701420783996582,2.2564353942871094,0.6618388295173645,-2.0683897,-0.14080444,139.62773,-77.156334,7.011591,CSO
5589692000000.0,1.945919156074524,-0.38828399777412415,8.726827621459961,2.1336119174957275,0.6578526496887207,-2.0977113,-0.20616703,139.6809,-77.46138,6.9006143,CSO
5589697000000.0,1.9509670734405518,-0.3723936676979065,8.779138565063477,1.9999949932098389,0.6561461687088013,-2.1010711,-0.26939157,139.65063,-77.78987,6.776264,CSO
5589702000000.0,1.9559789896011353,-0.3492172956466675,8.861599922180176,1.849913477897644,0.6564350724220276,-2.0662518,-0.33994650000000004,139.62521,-78.12901,6.628350999999999,CSO
5589706500000.0,1.960988163948059,-0.3180244266986847,8.974631309509277,1.6818736791610718,0.6584827899932861,-2.0143282,-0.4111123,139.79641999999998,-78.53184,6.468823,CSO
5589711700000.0,1.9659984111785889,-0.27882716059684753,9.092089653015137,1.5047619342803955,0.6620165705680847,-1.9581286,-0.46578476,139.95322,-78.94503,6.2902116999999995,CSO
5589716400000.0,1.9710090160369873,-0.23169323801994324,9.21237564086914,1.3193995952606201,0.6680152416229248,-1.9089539,-0.5338961999999999,140.25645,-79.49709,6.0905347,CSO
5589721700000.0,1.9760198593139648,-0.17445886135101318,9.326519966125488,1.1280832290649414,0.6748987436294556,-1.8438967000000002,-0.589485,140.53073,-80.04414,5.8745403,CSO
5589726400000.0,1.9810283184051514,-0.10795226693153381,9.431510925292969,0.9337397813796997,0.6827012896537781,-1.7611245,-0.65240407,140.84079,-80.64990999999999,5.6547849999999995,CSO
5589731600000.0,1.986040711402893,-0.032971132546663284,9.515752792358398,0.7450503706932068,0.690201997756958,-1.6896533,-0.6960809,141.1257,-81.24643,5.4219574999999995,CSO
5589737000000.0,1.9910500049591064,0.048591479659080505,9.579358100891113,0.5646090507507324,0.6975796818733215,-1.6612481,-0.7141015000000001,141.44196000000002,-81.86213000000001,5.210827,CSO
5589741600000.0,1.9960572719573975,0.13287925720214844,9.619089126586914,0.400611937046051,0.7040758728981018,-1.6545285,-0.68600166,141.73297,-82.456215,4.9980454000000005,CSO
5589746300000.0,2.001063346862793,0.21910947561264038,9.635056495666504,0.25277549028396606,0.7093143463134766,-1.6572775000000002,-0.6453791,142.08104,-83.01225,4.8268538,CSO
5589751600000.0,2.0060694217681885,0.30353793501853943,9.622236251831055,0.12348437309265137,0.714241087436676,-1.6807956999999998,-0.61208695,142.42288,-83.54471600000001,4.660639,CSO
5589757000000.0,2.011075496673584,0.3854205310344696,9.583724021911621,0.011976846493780613,0.7184006571769714,-1.7394387999999998,-0.5537493,142.79031,-83.9888,4.5479107,CSO
5589761500000.0,2.0160810947418213,0.4598287343978882,9.530377388000488,-0.08136778324842453,0.7226641178131104,-1.8423696,-0.49785519999999994,143.16872,-84.40538000000001,4.4431763,CSO
5589767000000.0,2.021106719970703,0.526921808719635,9.461689949035645,-0.1565781980752945,0.727742075920105,-1.9474383999999998,-0.45051312,143.55989,-84.740776,4.3737903,CSO
5589771500000.0,2.026113748550415,0.5856369733810425,9.388282775878906,-0.2188500314950943,0.7332493662834167,-2.071444,-0.40133846,143.97843999999998,-85.03566,4.319885,CSO
5589776700000.0,2.031116485595703,0.6359826326370239,9.310665130615234,-0.2686325013637543,0.7398304343223572,-2.1881194,-0.34269542,144.41766,-85.28928,4.28009,CSO
5589781400000.0,2.036121368408203,0.6789261102676392,9.23482894897461,-0.31397271156311035,0.7473629713058472,-2.314874,-0.28985557,144.89685,-85.47784,4.250936,CSO
5589786700000.0,2.0411252975463867,0.7149657011032104,9.161188125610352,-0.35574278235435486,0.7558451294898987,-2.4309382,-0.2302962,145.39973,-85.61848,4.237679,CSO
5589791400000.0,2.046128511428833,0.745743989944458,9.092833518981934,-0.3972156047821045,0.7639403343200684,-2.5213463,-0.18967366,145.91577,-85.719086,4.2200370000000005,CSO
5589796700000.0,2.051129102706909,0.7720475196838379,9.030698776245117,-0.43957042694091797,0.7724505662918091,-2.5925121,-0.1432479,146.45296000000002,-85.77064,4.217434,CSO
5589801400000.0,2.0561325550079346,0.7977089285850525,8.97733211517334,-0.48229920864105225,0.780214250087738,-2.6398542000000003,-0.11056661,147.00172,-94.20246999999999,4.201879,CSO
5589806600000.0,2.0611355304718018,0.8239461779594421,8.933125495910645,-0.5251801609992981,0.7864247560501099,-2.6572638,-0.08521569999999999,147.55571,-94.21774,4.1932874,CSO
5589811300000.0,2.0661380290985107,0.8546562790870667,8.900650978088379,-0.5697957277297974,0.7915067076683044,-2.6667322999999996,-0.058643065,148.11153000000002,-94.2624,4.1780105,CSO
5589816600000.0,2.0711398124694824,0.8916286826133728,8.880863189697266,-0.6168748736381531,0.7954388856887817,-2.6477953999999997,-0.03359759,148.6576,-94.340836,4.1653748,CSO
5589822000000.0,2.0761444568634033,0.9360213875770569,8.874626159667969,-0.6675596237182617,0.7978267073631287,-2.6096163,-0.02107485,149.19862,-94.453156,4.1574290000000005,CSO
5589826500000.0,2.081146717071533,0.9879665970802307,8.881690979003906,-0.7221554517745972,0.7975643277168274,-2.5601363,0.0009162978999999999,149.72468999999998,-94.59119,4.1554976,CSO
5589832000000.0,2.086148500442505,1.0478003025054932,8.899735450744629,-0.7808398008346558,0.7947603464126587,-2.4764478,0.008246681,150.23965,-94.771126,4.1742225,CSO
5589837000000.0,2.0911636352539062,1.1159827709197998,8.92785358428955,-0.8439211249351501,0.7890782356262207,-2.3646592999999996,0.013744468000000001,150.72652,-94.96030400000001,4.1956377,CSO
5589842000000.0,2.0961649417877197,1.1918672323226929,8.963600158691406,-0.9090744853019714,0.78122478723526,-2.3069327,0.015882496,151.24692,-95.19515,4.248357,CSO
5589846500000.0,2.101165294647217,1.2763079404830933,9.0062894821167,-0.9753133058547974,0.7705994844436646,-2.1981986,0.011911871999999999,151.7155,-95.42307,4.299252500000001,CSO
5589851700000.0,2.106165885925293,1.3682610988616943,9.054769515991211,-1.0387403964996338,0.7588150501251221,-2.0631974,-0.0027488936,152.1742,-95.69385,4.3827596,CSO
5589856400000.0,2.1111671924591064,1.4669710397720337,9.108268737792969,-1.097266674041748,0.7454937696456909,-1.9474383999999998,-0.031154128,152.6024,-95.94841,4.458643,CSO
5589861700000.0,2.116168737411499,1.5703561305999756,9.161975860595703,-1.1495860815048218,0.7315801978111267,-1.842675,-0.06963864,153.00552,-96.23017,4.5651803,CSO
5589866400000.0,2.121169328689575,1.6770691871643066,9.21307373046875,-1.1950771808624268,0.717024564743042,-1.7186694,-0.09407325,153.36577,-96.49776999999999,4.666118599999999,CSO
5589871600000.0,2.1261727809906006,1.7839466333389282,9.25800609588623,-1.232828140258789,0.7024958729743958,-1.5995506000000002,-0.10842858,153.6995,-96.77521,4.7977576,CSO
5589876300000.0,2.1311728954315186,1.8888638019561768,9.294816017150879,-1.2625902891159058,0.687911331653595,-1.4715744,-0.112704635,153.99147,-97.03954,4.923998,CSO
5589881600000.0,2.1361730098724365,1.9883543252944946,9.32286262512207,-1.28299081325531,0.6741528511047363,-1.3472633,-0.12614368,154.25262,-97.305626,5.0755095,CSO
5589887000000.0,2.1411755084991455,2.0800046920776367,9.341800689697266,-1.293167233467102,0.6606718301773071,-1.2275337,-0.14844026,154.47528,-97.559044,5.2219887,CSO
5589891500000.0,2.146176338195801,2.1621780395507812,9.353728294372559,-1.2954328060150146,0.6483324766159058,-1.1145236,-0.18173242,154.66293000000002,-97.80266999999999,5.37806,CSO
5589897000000.0,2.1511759757995605,2.233675479888916,9.360234260559082,-1.2915326356887817,0.6350067257881165,-1.0051788000000001,-0.21807889999999996,154.81422,-98.027245,5.526193,CSO
5589901500000.0,2.1561756134033203,2.294189691543579,9.363075256347656,-1.2823553085327148,0.6219190955162048,-0.8927795000000001,-0.24068089999999998,154.92308,-98.22378499999999,5.664492,CSO
5589907000000.0,2.1611764430999756,2.3434948921203613,9.363768577575684,-1.268676996231079,0.6075268387794495,-0.78038037,-0.26572640000000003,154.99738,-98.397354,5.7921443,CSO
5589911500000.0,2.16617751121521,2.3827576637268066,9.363580703735352,-1.25194251537323,0.592257559299469,-0.6783658,-0.2910773,155.02625,-98.53418,5.893846,CSO
5589916700000.0,2.1711788177490234,2.413097858428955,9.363816261291504,-1.2336161136627197,0.5753604173660278,-0.59742624,-0.30085114,155.02696,-98.65635999999999,5.993758000000001,CSO
5589922000000.0,2.1762006282806396,2.43430233001709,9.3645601272583,-1.2135181427001953,0.5564664006233215,-0.5195409000000001,-0.31826079999999995,154.97255,-98.730255,6.057525,CSO
5589926700000.0,2.181201457977295,2.4462077617645264,9.36646556854248,-1.1913678646087646,0.5360725522041321,-0.44532076,-0.31429017,154.89516,-98.79760999999999,6.125887400000001,CSO
5589932000000.0,2.1862144470214844,2.447744369506836,9.369796752929688,-1.166577696800232,0.5148122906684875,-0.38728857,-0.29779682,154.7821,-98.82474,6.163245,CSO
5589936600000.0,2.1912150382995605,2.4355361461639404,9.375961303710938,-1.136856198310852,0.492878258228302,-0.34300083,-0.27824909999999997,154.65126,-98.84428,6.203957,CSO
5589941400000.0,2.196211099624634,2.4099326133728027,9.384892463684082,-1.1022908687591553,0.46986687183380127,-0.33169982,-0.25289822,154.47316,-98.82686,6.2177205,CSO
5589946600000.0,2.20120906829834,2.3791399002075195,9.394218444824219,-1.0661274194717407,0.4478539526462555,-0.30085114,-0.24007004,154.27713,-98.81235500000001,6.2352386,CSO
5589951300000.0,2.2062060832977295,2.3441433906555176,9.403721809387207,-1.028744101524353,0.4254515469074249,-0.27977628,-0.21746802,154.082,-98.79227,6.2624316,CSO
5589956600000.0,2.211205005645752,2.305056095123291,9.412039756774902,-0.9886682033538818,0.40368959307670593,-0.29626966,-0.1881465,153.83368000000002,-98.715195,6.2351794,CSO
5589962000000.0,2.216205358505249,2.262073516845703,9.418556213378906,-0.9452930688858032,0.3831036686897278,-0.33017266,-0.16035213,153.58658,-98.64074000000001,6.2145815,CSO
5589966500000.0,2.2212042808532715,2.2177648544311523,9.425810813903809,-0.8989620208740234,0.3638264238834381,-0.36651915,-0.1337795,153.30817,-98.5424,6.174935,CSO
5589972000000.0,2.2262048721313477,2.1727869510650635,9.434447288513184,-0.8497965335845947,0.3458695113658905,-0.40591997,-0.12736541,153.04314,-98.44841,6.137222,CSO
5589976500000.0,2.23120379447937,2.128889799118042,9.443631172180176,-0.7977282404899597,0.3280557096004486,-0.46975538,-0.111177474,152.74178,-98.328026,6.084719000000001,CSO
5589981700000.0,2.2362024784088135,2.086561679840088,9.453096389770508,-0.7427868247032166,0.31166329979896545,-0.5296202,-0.087659165,152.4552,-98.21934499999999,6.0365033,CSO
5589986400000.0,2.241204023361206,2.0472819805145264,9.464585304260254,-0.687858521938324,0.29563987255096436,-0.6026186,-0.071776666,152.12444,-98.08041999999999,5.973135,CSO
5589991700000.0,2.2462053298950195,2.0113625526428223,9.47850227355957,-0.6338305473327637,0.27985185384750366,-0.68019843,-0.05131268,151.81951999999998,-97.95267,5.917951,CSO
5589996400000.0,2.2512049674987793,1.9805110692977905,9.495441436767578,-0.5809438824653625,0.26500287652015686,-0.72295904,-0.030543262,151.4888,-97.81151,5.861941000000001,CSO
5590001600000.0,2.2562036514282227,1.955086588859558,9.515497207641602,-0.529220700263977,0.24998489022254944,-0.77274454,-0.009162978,151.19055,-97.67383000000001,5.8120155,CSO
5590006400000.0,2.2612032890319824,1.9354043006896973,9.537225723266602,-0.48654747009277344,0.23544169962406158,-0.8222246,0.0015271631,150.88593,-97.53905999999999,5.766984,CSO
5590011600000.0,2.266202926635742,1.9215339422225952,9.559648513793945,-0.45779120922088623,0.22072947025299072,-0.84391034,0.019547688,150.59654,-97.41044000000001,5.731766,CSO
5590016300000.0,2.2712011337280273,1.9130208492279053,9.580046653747559,-0.447713166475296,0.20590604841709137,-0.81489426,0.025961772999999997,150.32689,-97.292496,5.713004,CSO
5590021600000.0,2.2762413024902344,1.9102632999420166,9.596845626831055,-0.46133285760879517,0.1898542195558548,-0.75869465,0.02107485,150.06248,-97.17486,5.697816,CSO
5590027000000.0,2.281238079071045,1.910470962524414,9.608881950378418,-0.4909856915473938,0.1731765866279602,-0.64660084,-0.004886922,149.82654,-97.10029,5.6993856,CSO
5590031500000.0,2.2862348556518555,1.913331151008606,9.61441707611084,-0.5387682914733887,0.15645994246006012,-0.51923543,-0.02687807,149.57465,-97.02436999999999,5.702542,CSO
5590037000000.0,2.2912344932556152,1.9196256399154663,9.614249229431152,-0.5969226956367493,0.14110621809959412,-0.38881573,-0.070249505,149.36647,-97.00479,5.7135963,CSO
5590041500000.0,2.2962329387664795,1.9296177625656128,9.609048843383789,-0.6608003973960876,0.1280519813299179,-0.32070425,-0.08277224,149.14266999999998,-96.988,5.727885,CSO
5590046700000.0,2.3012311458587646,1.94338858127594,9.601198196411133,-0.7237154841423035,0.11678402125835419,-0.20311269,-0.10659598599999999,148.92111,-97.010925,5.7401624,CSO
5590051500000.0,2.3062281608581543,1.9608768224716187,9.59212589263916,-0.7818719744682312,0.10912787169218063,-0.11545353400000001,-0.10934488,148.69083999999998,-97.04531999999999,5.754794599999999,CSO
5590056700000.0,2.3112313747406006,1.9813604354858398,9.58226490020752,-0.8324705362319946,0.10417484492063522,-0.042455133,-0.112399206,148.45792,-97.109764,5.7806582,CSO
5590061400000.0,2.316227674484253,2.003781318664551,9.572172164916992,-0.8728001117706299,0.10218781977891922,0.007330383,-0.110872045,148.20872,-97.18387,5.807357,CSO
5590066700000.0,2.321223020553589,2.026289939880371,9.562664031982422,-0.9016087651252747,0.10225997120141983,0.04795292,-0.10140363,147.95244,-97.27505500000001,5.855126,CSO
5590071400000.0,2.3262226581573486,2.0468711853027344,9.554633140563965,-0.9174759387969971,0.1044931635260582,0.10354166,-0.09712757,147.67982,-97.37284,5.902057599999999,CSO
5590076600000.0,2.33121657371521,2.064305305480957,9.548066139221191,-0.9208910465240479,0.10828390717506409,0.08643743400000001,-0.07422013,147.41502,-97.47216,5.967832,CSO
5590081300000.0,2.336214303970337,2.0759613513946533,9.54312515258789,-0.9108530879020691,0.11267022043466568,0.040011674,-0.061391957000000004,147.14532,-97.5722,6.03112,CSO
5590086600000.0,2.3412137031555176,2.0811142921447754,9.538942337036133,-0.8910404443740845,0.11703438311815262,-0.021685716,-0.051923547,146.86604,-97.64822,6.095839,CSO
5590092000000.0,2.3462343215942383,2.0772528648376465,9.533768653869629,-0.867671012878418,0.12056370824575424,-0.029932396,-0.050701816,146.58803,-97.72338,6.160617,CSO
5590096500000.0,2.3512380123138428,2.0657782554626465,9.527800559997559,-0.8417878746986389,0.12271669507026672,-0.035430185,-0.077579886,146.29465,-97.74809,6.200716000000001,CSO
5590102000000.0,2.356234550476074,2.044489622116089,9.520909309387207,-0.816539466381073,0.12398990988731384,-0.03848451,-0.10903945,146.00723,-97.77071,6.238795,CSO
5590106500000.0,2.3612380027770996,2.0137226581573486,9.513284683227539,-0.7921361923217773,0.12420235574245453,-0.02443461,-0.1432479,145.69566,-97.74537,6.235256,CSO
5590112000000.0,2.366234540939331,1.9791338443756104,9.507596015930176,-0.7720919251441956,0.12331289798021317,0.010079277,-0.17379116,145.3841,-97.71139000000001,6.224375,CSO
5590116500000.0,2.371229648590088,1.9408180713653564,9.503769874572754,-0.7562352418899536,0.12232434004545212,0.027488936000000002,-0.20250183,145.04039,-97.63529,6.1627917000000005,CSO
5590121700000.0,2.3762283325195312,1.899418830871582,9.503922462463379,-0.7413614988327026,0.12007000297307968,0.04184427,-0.226631,144.69482,-97.54784000000001,6.095951599999999,CSO
5590126400000.0,2.381223440170288,1.8554017543792725,9.508382797241211,-0.7265187501907349,0.11721960455179214,0.048563786,-0.2415972,144.35368,-97.459236,6.025313,CSO
5590131700000.0,2.386220932006836,1.8097162246704102,9.518717765808105,-0.706956684589386,0.11398395895957947,0.040927973,-0.23976462,144.01648,-97.356895,5.930141000000001,CSO
5590136400000.0,2.391221284866333,1.7626986503601074,9.535094261169434,-0.6816098093986511,0.11085563898086548,0.034208454,-0.24465153,143.68462,-97.251366,5.8311667,CSO
5590141600000.0,2.396223783493042,1.7161717414855957,9.555471420288086,-0.6525691151618958,0.10823585838079453,0.018020526000000002,-0.23823744,143.34384,-97.13517,5.718670400000001,CSO
5590146400000.0,2.4012205600738525,1.6712337732315063,9.578452110290527,-0.6212593913078308,0.1059347465634346,0.0036651915999999997,-0.2302962,143.01353,-97.02072,5.607931,CSO
5590151600000.0,2.4062178134918213,1.6277796030044556,9.603982925415039,-0.5877134203910828,0.10463524609804153,-0.019242255,-0.20341812,142.68178,-96.8832,5.48769,CSO
5590157000000.0,2.411217451095581,1.585723876953125,9.631953239440918,-0.5520238876342773,0.10363288223743439,-0.06414085,-0.18600847,142.37015,-96.74801,5.369722,CSO
5590162000000.0,2.4162302017211914,1.5439549684524536,9.658897399902344,-0.5184698700904846,0.1036280170083046,-0.119729586,-0.14935656,142.08116,-96.63605,5.2697783,CSO
5590167000000.0,2.421226739883423,1.5022639036178589,9.683450698852539,-0.4886135756969452,0.10349319875240326,-0.18081611,-0.1142318,141.81548,-96.5284,5.1763525,CSO
5590171500000.0,2.4262266159057617,1.4584665298461914,9.704490661621094,-0.4618873596191406,0.10359344631433487,-0.24862215,-0.06872234,141.54683,-96.41975,5.092832,CSO
5590177000000.0,2.4312241077423096,1.411750316619873,9.721657752990723,-0.4378361403942108,0.10297214984893799,-0.30298916,-0.031154128,141.30188,-96.31756999999999,5.0193386,CSO
5590181500000.0,2.4362215995788574,1.3632560968399048,9.733302116394043,-0.4170897305011749,0.1017003133893013,-0.37934732,-0.018936822,141.09894,-96.226036,4.9467034000000005,CSO
5590186700000.0,2.441220998764038,1.3136382102966309,9.738640785217285,-0.3999210000038147,0.09953588992357254,-0.44715336,-0.01160644,140.91718,-96.141594,4.88507,CSO
5590191400000.0,2.446218729019165,1.262611746788025,9.739062309265137,-0.3854144811630249,0.09652645140886307,-0.514654,-0.013133603,140.78535,-96.05464,4.8121843,CSO
5590196700000.0,2.451216697692871,1.2099249362945557,9.735568046569824,-0.3728976249694824,0.09235893189907074,-0.5751295999999999,-0.022296581,140.67555,-95.96594,4.740516,CSO
5590201400000.0,2.456214666366577,1.1574504375457764,9.727858543395996,-0.36328238248825073,0.08727409690618515,-0.6429357,-0.05375614,140.59474,-95.86994,4.651239,CSO
5590206600000.0,2.4612128734588623,1.107245922088623,9.715559005737305,-0.3576015830039978,0.08148360252380371,-0.69974613,-0.07269296,140.53127,-95.77354,4.5645347,CSO
5590211400000.0,2.46621036529541,1.0597351789474487,9.7035493850708,-0.3530474901199341,0.07559476792812347,-0.75686204,-0.09621128,140.52504,-95.67379,4.4623504,CSO
5590216600000.0,2.471208095550537,1.0152757167816162,9.696074485778809,-0.347178190946579,0.06918962299823761,-0.8216136999999999,-0.12308934,140.53757,-95.56706,4.355231,CSO
5590222000000.0,2.4762089252471924,0.9768761396408081,9.692952156066895,-0.33774346113204956,0.06236078962683678,-0.9147707,-0.14202617,140.58751,-95.46689,4.2443566,CSO
5590226600000.0,2.4812073707580566,0.9466062784194946,9.693889617919922,-0.32321488857269287,0.056856244802474976,-1.0036516,-0.14660765,140.65405,-95.369835,4.131460700000001,CSO
5590231300000.0,2.4862020015716553,0.9252601265907288,9.698274612426758,-0.3047303855419159,0.052507754415273666,-1.0543533999999999,-0.14630222,140.75342,-95.27184,4.021628,CSO
5590236500000.0,2.4912028312683105,0.9141131043434143,9.705609321594238,-0.28331246972084045,0.04858633503317833,-1.1456778,-0.13775012,140.88791,-95.178474,3.9131966,CSO
5590242000000.0,2.496201515197754,0.9138790369033813,9.71240234375,-0.26029857993125916,0.046517908573150635,-1.2385293,-0.1255328,141.05083,-95.10427,3.835057,CSO
5590246500000.0,2.501199722290039,0.9269153475761414,9.712578773498535,-0.23776070773601532,0.044885262846946716,-1.3283265,-0.10842858,141.23608000000002,-95.03112,3.7612958,CSO
5590251700000.0,2.5061967372894287,0.9528971910476685,9.708898544311523,-0.21828621625900269,0.04342101141810417,-1.4110987,-0.10629055,141.45056,-94.9829,3.7244553999999996,CSO
5590256500000.0,2.5111961364746094,0.9922600984573364,9.70705509185791,-0.20777933299541473,0.04229523241519928,-1.4712688999999999,-0.10995574,141.6801,-94.94022,3.6907787000000005,CSO
5590261700000.0,2.5161943435668945,1.0452839136123657,9.704546928405762,-0.2067614197731018,0.041327111423015594,-1.5066991000000003,-0.12736541,141.91133,-94.92873399999999,3.7019712999999994,CSO
5590266400000.0,2.521193265914917,1.112963318824768,9.698176383972168,-0.2162865549325943,0.03988971188664436,-1.4929546,-0.14294247,142.14056000000002,-94.91642,3.7125550000000005,CSO
5590271700000.0,2.526193618774414,1.1947964429855347,9.687394142150879,-0.23586159944534302,0.03804059326648712,-1.4575243999999998,-0.16676621,142.4043,-94.9466,3.7601085,CSO
5590276400000.0,2.5311927795410156,1.2902635335922241,9.671273231506348,-0.26493337750434875,0.03611096739768982,-1.412015,-0.19517145,142.65555,-94.97163,3.8013605999999998,CSO
5590281600000.0,2.5361881256103516,1.3970228433609009,9.650310516357422,-0.3029886782169342,0.03356797620654106,-1.3405437,-0.22479841,142.93188,-95.047905,3.8914676,CSO
5590287000000.0,2.541189670562744,1.512795090675354,9.62479019165039,-0.35010722279548645,0.03059079870581627,-1.2525792,-0.2611449,143.1854,-95.11574,3.9708383,CSO
5590291600000.0,2.5461854934692383,1.6337242126464844,9.595770835876465,-0.4058130383491516,0.02744673751294613,-1.1462886,-0.30879238,143.43825,-95.23815,4.0974655,CSO
5590297000000.0,2.551184892654419,1.755146861076355,9.564269065856934,-0.4708598852157593,0.02473066933453083,-1.0186177,-0.37812558,143.65546,-95.34655,4.2071,CSO
5590301500000.0,2.5561869144439697,1.876974105834961,9.530591011047363,-0.5449233651161194,0.023266207426786423,-0.87598073,-0.43035457,143.85981999999998,-95.50388000000001,4.353577,CSO
5590307000000.0,2.5611867904663086,1.9986032247543335,9.49679183959961,-0.6298180222511292,0.022693658247590065,-0.6976081000000001,-0.5009095,144.01366000000002,-95.63977,4.475655000000001,CSO
5590311500000.0,2.5661919116973877,2.1195693016052246,9.46462345123291,-0.7249409556388855,0.022981766611337662,-0.5216789000000001,-0.5674938,144.13698,-95.811485,4.6058683,CSO
5590317000000.0,2.5711913108825684,2.2376506328582764,9.439631462097168,-0.8278166651725769,0.0234498493373394,-0.29810223,-0.627664,144.19304,-95.96735,4.720102,CSO
5590321500000.0,2.576192855834961,2.3523428440093994,9.422124862670898,-0.9384395480155945,0.024609189480543137,-0.05222898,-0.66950834,144.20952,-96.1599,4.8406080000000005,CSO
5590326700000.0,2.5811920166015625,2.4583120346069336,9.415472984313965,-1.0564823150634766,0.026439225301146507,0.19914207,-0.68539083,144.15915,-96.3438,4.954685,CSO
5590331400000.0,2.586191177368164,2.55478835105896,9.419442176818848,-1.1812431812286377,0.029962241649627686,0.32834008,-0.6817255999999999,144.07693,-96.55976,5.0690599999999995,CSO
5590336700000.0,2.5911929607391357,2.636401891708374,9.43486499786377,-1.3105345964431763,0.034111376851797104,0.5757405,-0.6743952,143.88893000000002,-96.77032,5.1867075,CSO
5590342000000.0,2.5962023735046387,2.7031161785125732,9.461114883422852,-1.4435932636260986,0.04013916850090027,0.8145888000000001,-0.62980205,143.67752,-97.015915,5.3018849999999995,CSO
5590347000000.0,2.6012299060821533,2.748664140701294,9.49544906616211,-1.5728121995925903,0.048531487584114075,1.0647381999999999,-0.5665775,143.39372,-97.270035,5.4299397,CSO
5590352000000.0,2.606238842010498,2.7758283615112305,9.535654067993164,-1.69720458984375,0.05973202735185623,1.3002267,-0.50701815,143.05084,-97.54004,5.5331306,CSO
5590356600000.0,2.6112358570098877,2.779282808303833,9.575374603271484,-1.8088101148605347,0.07305397838354111,1.509448,-0.44898596,142.64778,-97.82848,5.659710400000001,CSO
5590362000000.0,2.6162497997283936,2.7576236724853516,9.614555358886719,-1.907449722290039,0.08856333047151566,1.6710218000000001,-0.40622538,142.191,-98.103584,5.74346,CSO
5590366600000.0,2.6212456226348877,2.7102768421173096,9.647059440612793,-1.990508794784546,0.10414139926433563,1.7510452,-0.37262779999999995,141.70293,-98.38886,5.8455753,CSO
5590372000000.0,2.6262447834014893,2.636394739151001,9.672863960266113,-2.057965040206909,0.11757081001996994,1.790446,-0.36071593,141.19359,-98.61502,5.880452,CSO
5590376500000.0,2.6312410831451416,2.54075288772583,9.692001342773438,-2.1058335304260254,0.12821729481220245,1.7913622999999999,-0.36896262,140.67796,-98.843025,5.9224442999999996,CSO
5590382000000.0,2.6362369060516357,2.4245917797088623,9.704739570617676,-2.13450026512146,0.13533392548561096,1.7617353,-0.38270709999999997,140.16537,-99.061356,5.968216,CSO
5590386500000.0,2.6412346363067627,2.2912745475769043,9.7137451171875,-2.1435041427612305,0.13971108198165894,1.7055358,-0.4089743,139.66241000000002,-99.18663000000001,5.913693,CSO
5590391700000.0,2.6462318897247314,2.1421895027160645,9.719486236572266,-2.1339287757873535,0.14064832031726837,1.6230688999999998,-0.42852196,139.18185,-99.29615,5.858058,CSO
5590396400000.0,2.651228904724121,1.9841402769088745,9.7230224609375,-2.1144213676452637,0.1383940875530243,1.5500705,-0.44226643,138.7245,-99.30875400000001,5.7190943,CSO
5590401700000.0,2.656226396560669,1.8286882638931274,9.726117134094238,-2.099752902984619,0.1335742324590683,1.5008959,-0.44409904,138.29178000000002,-99.3126,5.579646599999999,CSO
5590406400000.0,2.661223888397217,1.6775587797164917,9.728371620178223,-2.0889010429382324,0.12676496803760529,1.4727961,-0.44929138,137.89123999999998,-99.1999,5.3486366,CSO
5590411600000.0,2.6662216186523438,1.5342293977737427,9.728982925415039,-2.080151081085205,0.11857690662145615,1.4330899,-0.43737950000000003,137.51543,-99.088264,5.124288,CSO
5590417000000.0,2.6712405681610107,1.3981647491455078,9.72883129119873,-2.0739080905914307,0.1091974750161171,1.3866642,-0.42302418,137.15587,-98.97431999999999,4.879919,CSO
5590421600000.0,2.6762375831604004,1.2688889503479004,9.729381561279297,-2.07030987739563,0.0993412584066391,1.3326025,-0.41722095,136.8162,-98.865036,4.639572,CSO
5590427000000.0,2.681234359741211,1.145681619644165,9.731223106384277,-2.069079875946045,0.09018935263156891,1.3127494,-0.41141775,136.48973,-98.77121,4.4080315,CSO
5590431600000.0,2.6862332820892334,1.0274176597595215,9.735712051391602,-2.069288492202759,0.08103685826063156,1.244638,-0.38881573,136.19888,-98.681564,4.1836367,CSO
5590437300000.0,2.691765308380127,0.9100422859191895,9.748433113098145,-2.0730607509613037,0.07447190582752228,1.0690142,-0.32070425,135.43307,-98.51075,3.5412862,CSO
5590442600000.0,2.6972670555114746,0.7940539717674255,9.764832496643066,-2.075094699859619,0.06993338465690613,1.0164796999999999,-0.30573806,135.22066999999998,-98.48369,3.3398849999999998,CSO
5590448000000.0,2.7027428150177,0.6791380643844604,9.784252166748047,-2.075469732284546,0.06724818795919418,0.9569204,-0.28527406,135.03215,-98.47059,3.1378682,CSO
5590453000000.0,2.7081918716430664,0.5645064115524292,9.804414749145508,-2.0743014812469482,0.06508047878742218,0.8927795000000001,-0.27122417,134.86392,-98.467384,2.9403515,CSO
5590458300000.0,2.7136175632476807,0.45020803809165955,9.82465648651123,-2.0712735652923584,0.06379332393407822,0.8350528,-0.26358834,134.70758,-98.47085,2.7314262,CSO
5590463500000.0,2.719026565551758,0.33656707406044006,9.842267036437988,-2.064784288406372,0.06312819570302963,0.78954333,-0.2678644,134.5692,-98.48226,2.525445,CSO
5590469000000.0,2.724409580230713,0.22418910264968872,9.856943130493164,-2.054694414138794,0.06192880868911743,0.729984,-0.26816985,134.44711,-98.48947,2.3034682,CSO
5590474000000.0,2.729771375656128,0.11489655077457428,9.866593360900879,-2.039111852645874,0.0597190335392952,0.6612616,-0.27885997,134.34261999999998,-98.50309,2.0797625,CSO
5590479300000.0,2.735145330429077,0.008243664167821407,9.870984077453613,-2.017547369003296,0.05606439709663391,0.5726861999999999,-0.28252518,134.25496,-98.5051,1.8410358,CSO
5590484500000.0,2.7404685020446777,-0.09207863360643387,9.871907234191895,-1.9893709421157837,0.05179065838456154,0.49480084,-0.2843578,134.18556,-98.512886,1.6021901,CSO
5590490000000.0,2.7457704544067383,-0.18633396923542023,9.869178771972656,-1.954050064086914,0.046702928841114044,0.40500367,-0.27855456,134.13728,-98.49763,1.3546498,CSO
5590495000000.0,2.751059055328369,-0.27420464158058167,9.864836692810059,-1.912351369857788,0.04102363809943199,0.31398472,-0.26297748,134.1134,-98.48765999999999,1.1106633,CSO
5590500000000.0,2.7563297748565674,-0.35590222477912903,9.85948371887207,-1.864927053451538,0.03369373455643654,0.2275473,-0.25167647,134.11504,-98.47440999999999,0.86807513,CSO
5590505500000.0,2.761589527130127,-0.43106186389923096,9.853507995605469,-1.814866304397583,0.025728987529873848,0.12217305,-0.24923302,134.14108000000002,-98.43984,0.6314433,CSO
5590510700000.0,2.766834020614624,-0.49986743927001953,9.847067832946777,-1.7632981538772583,0.017423667013645172,0.023518313,-0.23793201,134.19135,-98.40422,0.40124786,CSO
5590516000000.0,2.7720720767974854,-0.5609022974967957,9.840614318847656,-1.7141629457473755,0.008877311833202839,-0.059864793,-0.22815818,134.25905,-98.34244,0.17772179999999999,CSO
5590521000000.0,2.7772886753082275,-0.6144793629646301,9.834257125854492,-1.6681410074234009,0.000363204802852124,-0.09407325,-0.21074851,134.34166000000002,-98.28545,-0.03852568,CSO
5590526500000.0,2.782496929168701,-0.659802258014679,9.829195022583008,-1.6256667375564575,-0.007697161752730608,-0.16096300000000002,-0.19761491,134.45543,-98.219536,-0.24522329999999998,CSO
5590531700000.0,2.7876954078674316,-0.6971350908279419,9.825613975524902,-1.5866680145263672,-0.015425632707774639,-0.23396139,-0.17348573,134.58153000000001,-98.15716,-0.44183564,CSO
5590537000000.0,2.7928812503814697,-0.7265499234199524,9.82408332824707,-1.5527483224868774,-0.02241668477654457,-0.29749137,-0.15454891,134.72672,-98.10297,-0.6193873000000001,CSO
5590542000000.0,2.798056125640869,-0.7482847571372986,9.824760437011719,-1.5243569612503052,-0.027439985424280167,-0.34636059999999996,-0.13041973,134.88866000000002,-98.05959,-0.78773504,CSO
5590547400000.0,2.80322265625,-0.7645770311355591,9.827454566955566,-1.5010709762573242,-0.03134915977716446,-0.3817908,-0.10231992599999999,135.06384,-98.01878,-0.9268749,CSO
5590552700000.0,2.8083810806274414,-0.7761979103088379,9.832033157348633,-1.4825756549835205,-0.033275771886110306,-0.40469822,-0.08582657,135.248,-97.99450999999999,-1.0612329,CSO
5590558000000.0,2.8135311603546143,-0.7840459942817688,9.838166236877441,-1.4689427614212036,-0.034464891999959946,-0.41935900000000004,-0.071776666,135.44533,-97.97847,-1.1654642,CSO
5590563000000.0,2.818673610687256,-0.78849196434021,9.84571361541748,-1.4600149393081665,-0.03463027626276016,-0.4156938,-0.061391957000000004,135.64193999999998,-97.97492,-1.264304,CSO
5590568400000.0,2.8238110542297363,-0.7911219596862793,9.853522300720215,-1.4545694589614868,-0.03387531638145447,-0.4175264,-0.05375614,135.84611999999998,-97.98535,-1.3437752,CSO
5590573600000.0,2.8289377689361572,-0.7925799489021301,9.861172676086426,-1.451993703842163,-0.03208628296852112,-0.4175264,-0.051923547,136.04585,-98.00233,-1.4203465,CSO
5590579000000.0,2.8340580463409424,-0.7938193082809448,9.867414474487305,-1.4478365182876587,-0.029708944261074066,-0.41996986,-0.06536258,136.24864,-98.034515,-1.4865146,CSO
5590584000000.0,2.8391737937927246,-0.795117974281311,9.87194538116455,-1.4408931732177734,-0.026204945519566536,-0.42546764,-0.076358154,136.44905,-98.07519,-1.5506693999999999,CSO
5590589400000.0,2.84428071975708,-0.7964706420898438,9.874879837036133,-1.431362271308899,-0.021504109725356102,-0.44287730000000003,-0.09254608,136.65364,-98.1289,-1.6164215,CSO
5590594600000.0,2.8493812084198,-0.7978752851486206,9.876293182373047,-1.4193620681762695,-0.016728246584534645,-0.45540005,-0.10873401,136.8543,-98.18383,-1.6844458999999998,CSO
5590600000000.0,2.8544766902923584,-0.799077570438385,9.875316619873047,-1.4037964344024658,-0.012255735695362091,-0.48105640000000005,-0.13072516,137.05899,-98.24481,-1.7590158,CSO
5590605000000.0,2.859567880630493,-0.7999624013900757,9.871604919433594,-1.384246826171875,-0.008054131641983986,-0.50426924,-0.15027285,137.26234,-98.30788000000001,-1.8368875,CSO
5590610300000.0,2.8646531105041504,-0.7994014024734497,9.866631507873535,-1.3617721796035767,-0.00471125915646553,-0.52839845,-0.16584991,137.4647,-98.34810999999999,-1.9208553,CSO
5590615600000.0,2.869734525680542,-0.7968375086784363,9.861160278320312,-1.3369379043579102,-0.0022464634384959936,-0.56230146,-0.19181168,137.67183,-98.38991,-2.0132556,CSO
5590621000000.0,2.874812602996826,-0.7925452589988708,9.855060577392578,-1.3111681938171387,-0.0005478403181768954,-0.5833763000000001,-0.20463985,137.87553,-98.411865,-2.1062043,CSO
5590626000000.0,2.879885673522949,-0.7867257595062256,9.848281860351562,-1.285266637802124,0.00016500428318977356,-0.6041456999999999,-0.21380283,138.08449,-98.43121,-2.2050285,CSO
5590631300000.0,2.8849546909332275,-0.7780210375785828,9.841322898864746,-1.2611842155456543,0.0005305897793732584,-0.6084218000000001,-0.22968534,138.2896,-98.43826999999999,-2.300004,CSO
5590636600000.0,2.890028953552246,-0.7655211687088013,9.834484100341797,-1.2401388883590698,0.000258152955211699,-0.6056729000000001,-0.24190263,138.49503,-98.44074,-2.3952236,CSO
5590642000000.0,2.8950905799865723,-0.7480082511901855,9.828353881835938,-1.2231712341308594,-0.0007648004102520645,-0.5934556,-0.23854288,138.69556,-98.43515,-2.4818575000000003,CSO
5590646500000.0,2.9001481533050537,-0.7239669561386108,9.823454856872559,-1.2114039659500122,-0.0024331635795533657,-0.5671884,-0.23609942,138.88754,-98.429016,-2.5696836,CSO
5590652000000.0,2.9052016735076904,-0.6930394172668457,9.819967269897461,-1.2045713663101196,-0.004159111529588699,-0.5170974,-0.22449298,139.07509,-98.42112,-2.6370118,CSO
5590656500000.0,2.9102535247802734,-0.6533412933349609,9.818584442138672,-1.2024897336959839,-0.006134903058409691,-0.46639562,-0.21502456,139.25163,-98.409584,-2.701675,CSO
5590661700000.0,2.91530179977417,-0.6059520244598389,9.819398880004883,-1.20453941822052,-0.00836350116878748,-0.40561453,-0.1957823,139.41246,-98.40166500000001,-2.7251425,CSO
5590666400000.0,2.9203481674194336,-0.5521014928817749,9.82266616821289,-1.2099746465682983,-0.010408221744000912,-0.34910949999999996,-0.17623462,139.55711000000002,-98.39358,-2.743449,CSO
5590671700000.0,2.925427198410034,-0.49220871925354004,9.829730033874512,-1.2181819677352905,-0.012067258358001709,-0.30298916,-0.1572978,139.69621,-98.38555,-2.7159183,CSO
5590676400000.0,2.930467128753662,-0.4300481677055359,9.840740203857422,-1.2273167371749878,-0.013149559497833252,-0.23304509,-0.13500121,139.81006000000002,-98.376976,-2.6794965,CSO
5590681600000.0,2.9355013370513916,-0.36870908737182617,9.854604721069336,-1.2355461120605469,-0.014336955733597279,-0.17501289,-0.1151481,139.91312,-98.36295,-2.6057549,CSO
5590686400000.0,2.9405384063720703,-0.314463347196579,9.86875057220459,-1.2395124435424805,-0.014907642267644405,-0.12583824,-0.10629055,139.99643999999998,-98.35455999999999,-2.5283916,CSO
5590691600000.0,2.945570707321167,-0.2677830159664154,9.882628440856934,-1.2397502660751343,-0.015626966953277588,-0.07696902,-0.09437868,140.0589,-98.33274,-2.424315,CSO
5590696300000.0,2.9506032466888428,-0.23021890223026276,9.895276069641113,-1.2367838621139526,-0.01612890511751175,-0.03634648,-0.076052725,140.10869,-98.315475,-2.3168886000000004,CSO
5590701600000.0,2.9556336402893066,-0.20122729241847992,9.906763076782227,-1.2308119535446167,-0.016652926802635193,-0.008857545999999999,-0.06658431,140.15608,-98.28591,-2.224907,CSO
5590707000000.0,2.9606685638427734,-0.18051451444625854,9.917139053344727,-1.2219160795211792,-0.016839751973748207,0.016187929,-0.054061572999999995,140.1922,-98.25858000000001,-2.1276197,CSO
5590711500000.0,2.96569561958313,-0.16744911670684814,9.926403999328613,-1.2103025913238525,-0.016951510682702065,0.034208454,-0.049480084,140.2152,-98.22993000000001,-2.0323255000000002,CSO
5590717000000.0,2.970722198486328,-0.16242048144340515,9.934162139892578,-1.1955113410949707,-0.016894539818167686,0.03176499,-0.04062254,140.23688,-98.2033,-1.9343851000000003,CSO
5590721500000.0,2.975749969482422,-0.16490112245082855,9.9404878616333,-1.1776487827301025,-0.01612440124154091,0.040317107000000005,-0.028405233999999998,140.25606000000002,-98.17308,-1.8831539000000002,CSO
5590727000000.0,2.98077392578125,-0.17351485788822174,9.945473670959473,-1.1567283868789673,-0.014841875992715359,0.040011674,-0.022602014,140.278,-98.14349,-1.832671,CSO
5590731500000.0,2.985793352127075,-0.18754220008850098,9.949098587036133,-1.1328742504119873,-0.013643977232277393,0.026572637000000003,-0.0061086523,140.29488999999998,-98.10689,-1.8050273999999997,CSO
5590736700000.0,2.9908154010772705,-0.20374660193920135,9.950580596923828,-1.1056606769561768,-0.012298312969505787,0.011911871999999999,-0.0070249503,140.31146,-98.07583000000001,-1.7811612000000001,CSO
5590742000000.0,2.9958577156066895,-0.22196988761425018,9.949956893920898,-1.075101375579834,-0.011122026480734348,0.0076358155,-0.004581489,140.33206,-98.036,-1.7739383000000002,CSO
5590746700000.0,3.00087571144104,-0.23910678923130035,9.948214530944824,-1.0436358451843262,-0.010122369043529034,-0.018020526000000002,-0.0033597588,140.3624,-97.99815,-1.7687585,CSO
5590752000000.0,3.005903959274292,-0.2551996111869812,9.945256233215332,-1.0109692811965942,-0.009322482161223888,-0.04520403,-0.004886922,140.39272,-97.94806,-1.7741227,CSO
5590756600000.0,3.0109200477600098,-0.2703142762184143,9.941250801086426,-0.9773921966552734,-0.008548946119844913,-0.07452556,-0.011911871999999999,140.4303,-97.89955,-1.7815831000000002,CSO
5590761300000.0,3.015932559967041,-0.2844991981983185,9.936216354370117,-0.9428713321685791,-0.008158458396792412,-0.09560041,-0.016187929,140.47656,-97.85032,-1.7882151999999998,CSO
5590766600000.0,3.020946502685547,-0.29606327414512634,9.931120872497559,-0.9095120429992676,-0.007951554842293262,-0.12308934,-0.019547688,140.53204,-97.80351999999999,-1.7977,CSO
5590772000000.0,3.0259597301483154,-0.305018812417984,9.926048278808594,-0.8774325251579285,-0.008260275237262249,-0.15393804,-0.02321288,140.59351999999998,-97.75449,-1.8091122,CSO
5590776500000.0,3.030972480773926,-0.3121977746486664,9.921428680419922,-0.8480674028396606,-0.009952395223081112,-0.17928895,-0.015271631,140.65958,-97.68207,-1.8169911,CSO
5590781300000.0,3.035979747772217,-0.31781214475631714,9.917291641235352,-0.8214492201805115,-0.012107767164707184,-0.1957823,-0.013133603,140.73056,-97.61346400000001,-1.8280174999999999,CSO
5590786500000.0,3.040992259979248,-0.32026126980781555,9.91450309753418,-0.798262357711792,-0.014978418126702309,-0.21044308,-0.01863139,140.80127,-97.53393,-1.8317451,CSO
5590792000000.0,3.046002149581909,-0.3192674517631531,9.913243293762207,-0.7785194516181946,-0.018168127164244652,-0.22021692,-0.014049901000000002,140.87466,-97.45409000000001,-1.8321672999999998,CSO
5590796500000.0,3.051011800765991,-0.3148953914642334,9.913972854614258,-0.762494683265686,-0.021562227979302406,-0.23060162,-0.00061086525,140.95148999999998,-97.3747,-1.827433,CSO
5590801700000.0,3.0560193061828613,-0.3073394298553467,9.91661548614502,-0.7500085830688477,-0.02514982596039772,-0.24098633,-0.00030543262000000003,141.02962,-97.29504,-1.825277,CSO
5590806400000.0,3.061028242111206,-0.2982354462146759,9.919631958007812,-0.7420229315757751,-0.02896944247186184,-0.24404067,0.010690141499999998,141.11084,-97.21665,-1.8047302,CSO
5590811700000.0,3.0660576820373535,-0.2878321409225464,9.922741889953613,-0.738796591758728,-0.03208090364933014,-0.25442538,0.008857545999999999,141.19533,-97.14359,-1.7884218999999997,CSO
5590816400000.0,3.071063995361328,-0.2774192690849304,9.925209999084473,-0.7393398880958557,-0.03448939323425293,-0.2415972,0.025961772999999997,141.27382,-97.07306,-1.749999,CSO
5590821600000.0,3.076073169708252,-0.26729944348335266,9.92676067352295,-0.7437825798988342,-0.03626492992043495,-0.24709499,0.03023783,141.35849,-97.00749,-1.7171258000000003,CSO
5590826400000.0,3.0810790061950684,-0.2571214735507965,9.927138328552246,-0.7502850890159607,-0.03765285015106201,-0.25289822,0.040011674,141.43929,-96.95681,-1.6718389,CSO
5590831600000.0,3.0860819816589355,-0.2467554658651352,9.926278114318848,-0.7581455111503601,-0.03836454451084137,-0.23640485,0.04184427,141.5137,-96.91178000000001,-1.6277589,CSO
5590837000000.0,3.0910885334014893,-0.2373344600200653,9.924172401428223,-0.7663941979408264,-0.03832210600376129,-0.22876903,0.048563786,141.59315,-96.882,-1.5811178999999997,CSO
5590841600000.0,3.096092700958252,-0.22944757342338562,9.920888900756836,-0.7744612693786621,-0.038102876394987106,-0.23151793,0.05009095,141.6693,-96.853584,-1.5360767,CSO
5590847000000.0,3.101097345352173,-0.22302281856536865,9.916478157043457,-0.7823588848114014,-0.03753722831606865,-0.22632557,0.04184427,141.74715,-96.838264,-1.4886652,CSO
5590851500000.0,3.10610294342041,-0.21798434853553772,9.91099739074707,-0.7900965809822083,-0.03618786111474037,-0.21746802,0.03604105,141.8233,-96.82659,-1.4411117,CSO
5590857000000.0,3.1111068725585938,-0.21424829959869385,9.90451717376709,-0.7976803779602051,-0.034275587648153305,-0.1966986,0.04642576,141.893,-96.81748,-1.3901854999999999,CSO
5590861500000.0,3.1161108016967773,-0.21175150573253632,9.89708137512207,-0.805120050907135,-0.03186296299099922,-0.17440203,0.040011674,141.95757,-96.81416999999999,-1.3463302,CSO
5590866700000.0,3.121114492416382,-0.20956265926361084,9.889710426330566,-0.8126835227012634,-0.02931847609579563,-0.1563815,0.030848695,142.0164,-96.81222,-1.3008084999999998,CSO
5590871400000.0,3.1261203289031982,-0.20736750960350037,9.882732391357422,-0.8204586505889893,-0.02647010236978531,-0.12736541,0.015577064,142.06422,-96.81524,-1.2587686000000002,CSO
5590876700000.0,3.1311233043670654,-0.20516856014728546,9.876126289367676,-0.8284233808517456,-0.02318754233419895,-0.103847094,0.007941248,142.1079,-96.82743,-1.2295608999999998,CSO
5590881400000.0,3.1361303329467773,-0.2029629647731781,9.869872093200684,-0.8365827798843384,-0.019803203642368317,-0.08032878,0.00061086525,142.14203,-96.840866,-1.2042834999999998,CSO
5590886600000.0,3.1411335468292236,-0.20053023099899292,9.864462852478027,-0.8442017436027527,-0.015948131680488586,-0.056505035999999995,-0.0125227375,142.16016000000002,-96.860466,-1.181867,CSO
5590891400000.0,3.1461362838745117,-0.19770507514476776,9.86025619506836,-0.8507620692253113,-0.012086901813745499,-0.040317107000000005,-0.016798794,142.1735,-96.87876999999999,-1.1590563,CSO
5590896600000.0,3.1511385440826416,-0.19450902938842773,9.857185363769531,-0.8563209772109985,-0.009017432108521461,-0.022907447,-0.028099801,142.18503,-96.90029,-1.141791,CSO
5590901300000.0,3.1561405658721924,-0.19096070528030396,9.855193138122559,-0.8609303832054138,-0.0067789144814014435,-0.005497787,-0.030848695,142.19188,-96.92173000000001,-1.1232657,STD
5590906600000.0,3.161142587661743,-0.18694299459457397,9.85426139831543,-0.8644313812255859,-0.004480642732232809,0.0018325957999999999,-0.03359759,142.19615,-96.94459499999999,-1.1081288999999999,STD
5590912000000.0,3.1661438941955566,-0.18240982294082642,9.854351997375488,-0.8667730689048767,-0.0018979186424985528,0.020463986,-0.031154128,142.19234,-96.964584,-1.0917077,STD
5590916500000.0,3.1711456775665283,-0.17735938727855682,9.855304718017578,-0.8682668209075928,-0.0003969212411902845,0.026572637000000003,-0.03756821,142.18936000000002,-96.97231,-1.0750118,STD
5590922000000.0,3.17615008354187,-0.17179135978221893,9.856993675231934,-0.8691564798355103,0.00034043515915982425,0.03481932,-0.04062254,142.1808,-96.98295999999999,-1.0564168999999999,STD
5590926500000.0,3.1811513900756836,-0.16635525226593018,9.859343528747559,-0.8696447014808655,0.0011198825668543577,0.04795292,-0.039095376,142.17276,-96.98631,-1.0366999,STD
5590931700000.0,3.186152935028076,-0.16145752370357513,9.862314224243164,-0.8698582053184509,0.0016299081034958363,0.046120327,-0.03756821,142.16666999999998,-96.98449000000001,-1.0184671,STD
5590936500000.0,3.191155195236206,-0.15666361153125763,9.866289138793945,-0.8703537583351135,0.0013802723260596395,0.052839845,-0.042455133,142.15427,-96.97787,-0.99829274,STD
5590941700000.0,3.1961567401885986,-0.15162146091461182,9.871563911437988,-0.8715784549713135,0.0013392685214057565,0.05131268,-0.037873644,142.1453,-96.97457,-0.9757805,STD
5590946400000.0,3.201157808303833,-0.14764876663684845,9.877029418945312,-0.872974157333374,0.0015120554016903043,0.047647487,-0.034513887,142.14253,-96.96579,-0.9570460999999999,STD
5590951700000.0,3.2061588764190674,-0.14592398703098297,9.881694793701172,-0.874040961265564,0.001464028493501246,0.04276056599999999,-0.03970624,142.14046000000002,-96.95611,-0.9399084999999999,STD
5590956400000.0,3.211160659790039,-0.1467229127883911,9.88612174987793,-0.87479567527771,0.001630166545510292,0.04062254,-0.03756821,142.13916,-96.95125,-0.91826767,STD
5590961600000.0,3.216169834136963,-0.15035346150398254,9.89083480834961,-0.875248908996582,0.001754896016791463,0.03390302,-0.043676864,142.14009,-96.94459499999999,-0.9011678,STD
5590966300000.0,3.2211709022521973,-0.15569277107715607,9.89529800415039,-0.8759145736694336,0.0010916655883193016,0.0290161,-0.03970624,142.14158999999998,-96.93538000000001,-0.8885152,STD
5590971600000.0,3.2261767387390137,-0.16194681823253632,9.899044036865234,-0.8772643208503723,0.0009358235984109342,0.01985312,-0.046120327,142.1456,-96.93338,-0.88111025,STD
5590977000000.0,3.2311761379241943,-0.16960282623767853,9.901843070983887,-0.8794413805007935,0.0006906227790750563,0.010690141499999998,-0.048563786,142.14665,-96.92494,-0.8818377000000001,STD
5590981500000.0,3.236177682876587,-0.17981162667274475,9.903146743774414,-0.8828482627868652,0.0003608253027778119,0.004581489,-0.047036625,142.14932,-96.91925,-0.8834038000000001,STD
5590987000000.0,3.241177797317505,-0.1913723349571228,9.902854919433594,-0.8864002823829651,0.00027648653485812247,-0.0070249503,-0.04276056599999999,142.15657,-96.917885,-0.89088887,STD
5590991500000.0,3.2461793422698975,-0.20283420383930206,9.900768280029297,-0.8887284398078918,0.0005221894243732095,-0.019547688,-0.05131268,142.16534,-96.91705,-0.90163743,STD
5590997000000.0,3.2512128353118896,-0.21424807608127594,9.89696216583252,-0.8905002474784851,0.000299032311886549,-0.015882496,-0.05009095,142.17363,-96.91984000000001,-0.9187339,STD
5591001500000.0,3.256213426589966,-0.2254875749349594,9.892056465148926,-0.8923946022987366,0.00026681870804168284,-0.028099801,-0.04428773,142.18964,-96.92785,-0.9375313,STD
5591006700000.0,3.2612109184265137,-0.23587864637374878,9.886204719543457,-0.894994854927063,0.00039909532642923295,-0.028099801,-0.046731193,142.20023,-96.93044,-0.95988107,STD
5591011400000.0,3.2662103176116943,-0.24414199590682983,9.879878044128418,-0.8992927670478821,0.00028016234864480793,-0.03176499,-0.040317107000000005,142.21556,-96.9313,-0.9782108,STD
5591016700000.0,3.2712085247039795,-0.2495197355747223,9.873120307922363,-0.9046480059623718,0.0004117278731428087,-0.027794369,-0.035124752999999995,142.23299,-96.93605,-1.0005591999999999,STD
5591022000000.0,3.2762131690979004,-0.25074490904808044,9.865949630737305,-0.9102333188056946,0.0006665007094852626,-0.032375857,-0.020158553,142.25406999999998,-96.93831,-1.0182930000000001,STD
5591026600000.0,3.281207799911499,-0.2491791546344757,9.859067916870117,-0.9160952568054199,0.0010379147715866566,-0.022907447,-0.01740966,142.26968,-96.947624,-1.0318736,STD
