timestamp,rel_time,acc_x,acc_y,acc_z,gyro_x,gyro_y,gyro_z,azimuth,pitch,roll,label
0.0,0.0,0.0,0.0,0.0,0.0,0.00030543262000000003,0.016798794,16.016012,23.526127,23.872114,SIT
160507720000.0,1.4970090887800325e-05,0.013881251215934753,-0.00786568783223629,0.02378091961145401,-6.851679063402116e-05,0.0015271631,0.013133603,15.935327,23.453298999999998,23.9425,SIT
479134200000.0,7.429744437104091e-05,0.04153146222233772,-0.023417115211486816,0.07117743045091629,-0.00023181493452284485,-0.005192355,0.01038471,15.8517065,23.388365,24.012707000000002,SIT
951187700000.0,0.00020650964870583266,0.08251351118087769,-0.04640355333685875,0.14147718250751495,-0.0003653062740340829,0.00030543262000000003,0.010690141499999998,15.770736,23.322134,24.080876999999997,SIT
1569840000000.0,0.0004383461200632155,0.13611410558223724,-0.07650139182806015,0.23350025713443756,-0.0005976093816570938,0.0036651915999999997,0.01282817,15.690506,23.262529999999998,24.150993,SIT
2326362800000.0,0.0007943304372020066,0.20152544975280762,-0.11327309906482697,0.34589675068855286,-0.0006776433438062668,-0.004886922,0.01282817,15.6102915,23.191457999999997,24.222013,SIT
3210418600000.0,0.001296773785725236,0.27780330181121826,-0.15620359778404236,0.47708040475845337,-0.0008027278818190098,-0.0036651915999999997,0.0067195175,15.534588000000001,23.126534,24.289734,SIT
4210388400000.0,0.001962609589099884,0.3639014661312103,-0.2047177404165268,0.625283420085907,-0.0010410714894533157,-0.005192355,0.006414085,15.457282000000001,23.060913,24.359219,SIT
5313718600000.0,0.002809938509017229,0.4586900472640991,-0.258194237947464,0.7885962128639221,-0.0014198969583958387,0.0009162978999999999,0.007941248,15.383868,22.996655,24.426468,SIT
6507272000000.0,0.0038501336239278316,0.5610004663467407,-0.3159863352775574,0.9650343060493469,-0.0016487421235069633,0.002443461,0.01282817,15.310217999999999,22.932126999999998,24.494411,SIT
7777657000000.0,0.005094144493341446,0.6696429252624512,-0.3774351477622986,1.152576208114624,-0.0018018062692135572,-0.004581489,0.01282817,15.238624,22.870720000000002,24.562910000000002,SIT
9111537000000.0,0.006543995346873999,0.78363037109375,-0.44201070070266724,1.3480972051620483,-0.002015793928876519,0.003970624,0.009773844,15.170229,22.81022,24.626284,SIT
10495901000000.0,0.008205421268939972,0.9023077487945557,-0.5094061493873596,1.5465824604034424,-0.0023992236237972975,-0.0027488936,0.012217305,15.098673000000002,22.751635,24.69426,SIT
11918284000000.0,0.010073867626488209,1.0246316194534302,-0.5790396332740784,1.7459505796432495,-0.0026824779342859983,0.00580322,0.014049901000000002,15.042639999999999,22.693644,24.756088000000002,SIT
13366953000000.0,0.012174267321825027,1.1496895551681519,-0.6504335403442383,1.9434149265289307,-0.002801376162096858,0.004886922,0.015882496,14.9846525,22.637895999999998,24.821125,SIT
14831038000000.0,0.014454266987740993,1.2757344245910645,-0.7225172519683838,2.1451473236083984,-0.0028549558483064175,0.0067195175,0.008552114,14.925370000000001,22.5867,24.883505,SIT
16300621000000.0,0.016932884231209755,1.4001305103302002,-0.7937290072441101,2.365920305252075,-0.0029780904296785593,-0.0027488936,0.0070249503,14.863328,22.537056,24.947506,SIT
17766793000000.0,0.019603131338953972,1.5222383737564087,-0.8636875152587891,2.6033878326416016,-0.0027893108781427145,-0.0018325957999999999,0.01282817,14.789188000000001,22.498507,25.0297,SIT
19221660000000.0,0.022454064339399338,1.6440340280532837,-0.9332864284515381,2.8333640098571777,-0.0018963785842061043,0.009162978,0.0036651915999999997,14.721176000000002,22.456235999999997,25.112910999999997,SIT
20658350000000.0,0.025476649403572083,1.7649555206298828,-1.002200722694397,3.0546369552612305,-0.0015624576481059194,-0.00061086525,0.008857545999999999,14.6698065,22.413284,25.15731,SIT
22070960000000.0,0.028666257858276367,1.8845305442810059,-1.0701544284820557,3.2660789489746094,-0.001417148974724114,-0.0012217305,0.008552114,14.625947,22.36294,25.19776,SIT
23454520000000.0,0.032007623463869095,2.0023257732391357,-1.1369047164916992,3.46705961227417,-0.0012614523293450475,0.0033597588,0.004276057,14.581803,22.316011,25.238723999999998,SIT
24804923000000.0,0.035497698932886124,2.117138147354126,-1.2014714479446411,3.673609972000122,-0.0014098663814365864,0.004886922,0.008246681,14.539833999999999,22.273853,25.280891,SIT
26118856000000.0,0.03911570832133293,2.228461265563965,-1.263517141342163,3.8891565799713135,-0.001317861257120967,0.00580322,0.0027488936,14.502885000000001,22.227797,25.323118,SIT
27393730000000.0,0.042858969420194626,2.336174488067627,-1.323318600654602,4.0994462966918945,-0.0013558221980929375,0.005497787,0.004581489,14.443348,22.19915,25.38739,SIT
28627593000000.0,0.04671826958656311,2.4401931762695312,-1.381081461906433,4.2942352294921875,-0.0019950950518250465,0.010690141499999998,0.004581489,14.4160651181936,22.184568550504498,25.418811635528,SIT
29819073000000.0,0.050681762397289276,2.5404083728790283,-1.4367449283599854,4.473584175109863,-0.002496120287105441,0.013133603,0.0015271631,14.389102,22.170157999999997,25.449865,SIT
30967290000000.0,0.05474216863512993,2.6367506980895996,-1.4902702569961548,4.6375226974487305,-0.0032584085129201412,0.018936822,0.010079277,14.35956,22.130445,25.491295,SIT
32071802000000.0,0.05892609432339668,2.728877544403076,-1.5421847105026245,4.793822288513184,-0.0040214089676737785,0.020463986,0.004276057,14.335807999999998,22.090647,25.533258,SIT
33132533000000.0,0.06315664947032928,2.816843032836914,-1.5925509929656982,4.945761203765869,-0.004709149710834026,0.013744468000000001,-0.0015271631,14.309641000000001,22.0539,25.574226,SIT
34149723000000.0,0.06745923310518265,2.9006083011627197,-1.6414390802383423,5.0935845375061035,-0.005096272565424442,0.011911871999999999,-0.0015271631,14.2847427908745,22.042637304182502,25.6032064277567,SIT
35123871000000.0,0.071831114590168,2.9802260398864746,-1.68886137008667,5.23732328414917,-0.005345032550394535,0.0125227375,0.003970624,14.259463,22.031202,25.632631,SIT
36055693000000.0,0.07626082748174667,3.0560295581817627,-1.734578251838684,5.374744892120361,-0.005843960680067539,0.01282817,0.0015271631,14.213532,22.0099,25.693235,SIT
36946076000000.0,0.08074579387903214,3.1282224655151367,-1.7785018682479858,5.504857540130615,-0.006536935921758413,0.013439035,0.0070249503,14.164562,21.988377,25.751735999999998,SIT
37796056000000.0,0.08528191596269608,3.196743965148926,-1.8208274841308594,5.626781463623047,-0.007198464125394821,0.011301007,0.0067195175,14.122347,21.964691000000002,25.798388,SIT
38606770000000.0,0.08986348658800125,3.261617660522461,-1.861680030822754,5.74017858505249,-0.007938669994473457,0.0067195175,0.010079277,14.078114499999998,21.944107000000002,25.843892999999998,SIT
39379430000000.0,0.0944877490401268,3.3233089447021484,-1.9009523391723633,5.845083713531494,-0.008252283558249474,0.008857545999999999,0.00061086525,14.037644,21.921259,25.889656,SIT
40115320000000.0,0.09914901852607727,3.3821451663970947,-1.9385982751846313,5.9416823387146,-0.008314937353134155,0.00030543262000000003,0.0027488936,13.991773,21.901834,25.937061,SIT
40815758000000.0,0.10384316742420197,3.438227415084839,-1.9746732711791992,6.030307292938232,-0.008753557689487934,0.0012217305,0.008857545999999999,13.948364000000002,21.887384,25.984241,SIT
41482078000000.0,0.10856938362121582,3.4916598796844482,-2.009237051010132,6.11125373840332,-0.00959851499646902,0.006414085,0.010079277,13.906123000000001,21.871702,26.032257,SIT
42115623000000.0,0.11332288384437561,3.542546033859253,-2.0423457622528076,6.18487024307251,-0.010465456172823906,0.009468411,0.008857545999999999,13.8659115,21.853598,26.07901,SIT
42717740000000.0,0.11810413748025894,3.5909905433654785,-2.0740604400634766,6.251436710357666,-0.010747910477221012,0.0021380284,0.006414085,13.825861999999999,21.8347,26.126564000000002,SIT
43289756000000.0,0.12293724715709686,3.6372125148773193,-2.1034984588623047,6.311662197113037,-0.011287597008049488,0.0030543262,0.005192355,13.788126,21.820104999999998,26.170624,SIT
43832980000000.0,0.12775886058807373,3.681328058242798,-2.130354166030884,6.366875171661377,-0.011768130585551262,0.004276057,0.007941248,13.749791,21.801776999999998,26.215763,SIT
44348696000000.0,0.1325976699590683,3.723653793334961,-2.1554434299468994,6.418081283569336,-0.012817200273275375,-0.00061086525,0.008552114,13.711139000000001,21.794560999999998,26.279065999999997,SIT
44838154000000.0,0.13745300471782684,3.764455795288086,-2.1796340942382812,6.466427803039551,-0.013379515148699284,0.009773844,0.004886922,13.675803,21.781832,26.337376000000003,SIT
45302573000000.0,0.14232327044010162,3.803802728652954,-2.2029666900634766,6.51204776763916,-0.014234524220228195,0.006414085,0.003970624,13.632517000000002,21.776524,26.403992,SIT
45743126000000.0,0.14720717072486877,3.841761589050293,-2.225480556488037,6.555070400238037,-0.01488465815782547,-0.0015271631,0.009162978,13.590017000000001,21.766904999999998,26.467924,SIT
46160954000000.0,0.15210145711898804,3.878584384918213,-2.2472739219665527,6.5968017578125,-0.015340127050876617,0.008857545999999999,0.008552114,13.552194,21.757607999999998,26.527846999999998,SIT
46557160000000.0,0.1570073813199997,3.914505958557129,-2.268441677093506,6.638382434844971,-0.015433290041983128,0.00580322,0.0030543262,13.512214000000002,21.746449,26.5924,SIT
46932794000000.0,0.16192258894443512,3.949563503265381,-2.289011001586914,6.679806709289551,-0.015715360641479492,0.007941248,0.011301007,13.477417,21.735426,26.656069,SIT
47288873000000.0,0.16684876382350922,3.9838080406188965,-2.3090152740478516,6.721097946166992,-0.016192812472581863,0.0021380284,0.0015271631,13.44845,21.719566,26.724390000000003,SIT
47626372000000.0,0.1717812567949295,4.017508029937744,-2.3281073570251465,6.7619853019714355,-0.016257239505648613,-0.0076358155,0.0015271631,13.4341390189493,21.7081829565871,26.755697983256503,SIT
47946217000000.0,0.17672061920166016,4.050948619842529,-2.3459503650665283,6.802237510681152,-0.01635066047310829,-0.0030543262,-0.00030543262000000003,13.419758999999999,21.696745,26.787157,SIT
48249300000000.0,0.18166519701480865,4.0837812423706055,-2.3623862266540527,6.841975212097168,-0.016908753663301468,-0.010690141499999998,-0.00030543262000000003,13.406091304304098,21.6864038148632,26.8186879722446,SIT
48536477000000.0,0.18661345541477203,4.11561918258667,-2.377230167388916,6.881328105926514,-0.01696772500872612,-0.004581489,0.0027488936,13.392473,21.6761,26.850105,SIT
48808554000000.0,0.19157233834266663,4.145907878875732,-2.390803098678589,6.920809268951416,-0.017445024102926254,-0.0125227375,-0.0015271631,13.367151000000002,21.653313,26.916348,SIT
49066300000000.0,0.19653266668319702,4.173775672912598,-2.403578758239746,6.961019515991211,-0.017621520906686783,-0.0070249503,0.00030543262000000003,13.347679000000001,21.625511,26.983202000000002,SIT
49310460000000.0,0.20149189233779907,4.199355125427246,-2.4155991077423096,7.001895427703857,-0.017658935859799385,-0.011301007,0.0018325957999999999,13.323328,21.597471,27.052953999999996,SIT
49541735000000.0,0.2064601331949234,4.222733020782471,-2.4268999099731445,7.043509483337402,-0.017532095313072205,-0.0030543262,0.00030543262000000003,13.301910999999999,21.568232000000002,27.11703,SIT
49760790000000.0,0.2114274799823761,4.244052886962891,-2.43752121925354,7.085722923278809,-0.017558054998517036,0.0027488936,-0.0070249503,13.283838000000001,21.540173,27.183715999999997,SIT
49968260000000.0,0.21640439331531525,4.263388633728027,-2.447495222091675,7.128615856170654,-0.01717669889330864,-0.00030543262000000003,-0.002443461,13.262751999999999,21.510649,27.248219,SIT
50164757000000.0,0.22138220071792603,4.280984401702881,-2.456608772277832,7.171895980834961,-0.01759513095021248,0.006414085,0.0027488936,13.2457485,21.486872,27.30835,CSO
50350840000000.0,0.2263616919517517,4.2971930503845215,-2.4643290042877197,7.215160369873047,-0.01820259355008602,0.006414085,0.00061086525,13.236905121368899,21.4708738782332,27.3389583171508,CSO
50527065000000.0,0.23134668171405792,4.312096118927002,-2.470787763595581,7.258324146270752,-0.017884181812405586,0.0067195175,0.0021380284,13.227927,21.454632,27.370033000000003,CSO
50693944000000.0,0.23632997274398804,4.325953483581543,-2.4769041538238525,7.299964427947998,-0.01772891916334629,0.005497787,0.0021380284,13.216854000000001,21.430578,27.408737,CSO
50851972000000.0,0.24131305515766144,4.3388190269470215,-2.482696056365967,7.340166091918945,-0.01750062219798565,0.008246681,-0.0018325957999999999,13.217992,21.402279,27.446709999999996,CSO
51001613000000.0,0.24629952013492584,4.350741386413574,-2.48818039894104,7.379014492034912,-0.016910536214709282,0.0027488936,-0.00030543262000000003,13.216076999999999,21.374634,27.485771000000003,CSO
51143305000000.0,0.2512856125831604,4.361660480499268,-2.493345022201538,7.4167094230651855,-0.015961570665240288,0.01160644,-0.003970624,13.213182999999999,21.345282,27.517971000000003,CSO
51277470000000.0,0.25627458095550537,4.37076997756958,-2.4979891777038574,7.45436954498291,-0.015469536185264587,0.004581489,0.006414085,13.202805999999999,21.320747,27.553307,CSO
51404510000000.0,0.2612754702568054,4.378238677978516,-2.5020830631256104,7.492105484008789,-0.014580822549760342,0.0076358155,0.007330383,13.200532999999998,21.28882,27.580832,CSO
51524793000000.0,0.2662677764892578,4.385550498962402,-2.505119800567627,7.530234336853027,-0.01425979845225811,0.004276057,0.008246681,13.193427,21.265217,27.61015,CSO
51638685000000.0,0.27126672863960266,4.392726898193359,-2.5071072578430176,7.568872928619385,-0.014264886267483234,0.014049901000000002,0.0061086523,13.188342,21.242048,27.628484999999998,CSO
51746520000000.0,0.2762591242790222,4.399763584136963,-2.5081427097320557,7.607874870300293,-0.014741437509655952,-0.006414085,0.004581489,13.178425,21.222746,27.655078999999997,CSO
51848620000000.0,0.281249463558197,4.406671524047852,-2.508263111114502,7.647258758544922,-0.015745744109153748,-0.021685716,0.00061086525,13.168797,21.203444,27.675848,CSO
51945285000000.0,0.28624072670936584,4.414855480194092,-2.509004831314087,7.690542221069336,-0.018339764326810837,-0.08307768,-0.004581489,13.151313,21.191404000000002,27.713996999999996,CSO
52036810000000.0,0.2912316620349884,4.424358367919922,-2.5104591846466064,7.737788200378418,-0.02302469313144684,-0.14569137,-0.0067195175,13.132064999999999,21.184814000000003,27.756113,CSO
52123460000000.0,0.2962249219417572,4.435464382171631,-2.5092833042144775,7.789674758911133,-0.030161181464791298,-0.2843578,-0.009162978,13.102661,21.179385999999997,27.830376,CSO
52205500000000.0,0.3012358546257019,4.448232650756836,-2.504965305328369,7.846688747406006,-0.040481194853782654,-0.42394048,-0.014660766,13.066632,21.187476999999998,27.920715,CSO
52283174000000.0,0.30626440048217773,4.462170600891113,-2.496121883392334,7.912819862365723,-0.054140783846378326,-0.57848936,-0.008552114,13.008702,21.209354,28.044216,CSO
52356712000000.0,0.3112560212612152,4.476867198944092,-2.4838900566101074,7.985292911529541,-0.07330544292926788,-0.7724390999999999,-0.004886922,12.934141,21.24312,28.210825,CSO
52426334000000.0,0.31624817848205566,4.492791652679443,-2.4663355350494385,8.04726791381836,-0.09947219491004944,-0.90316427,0.008552114,12.843643,21.303986,28.395927,CSO
52492247000000.0,0.32124170660972595,4.509908199310303,-2.4435958862304688,8.097783088684082,-0.1329355090856552,-0.98990715,0.011911871999999999,12.736284,21.393206,28.616329999999998,CSO
52554654000000.0,0.3262355923652649,4.5269083976745605,-2.4127426147460938,8.123291969299316,-0.17281870543956757,-1.0091494,0.01985312,12.630267,21.4986,28.8402,CSO
52613735000000.0,0.331227570772171,4.5436835289001465,-2.37400484085083,8.124076843261719,-0.21591565012931824,-1.0064004999999998,0.05589417,12.507772000000001,21.63121,29.071327,CSO
52669670000000.0,0.3362210988998413,4.560142517089844,-2.3265695571899414,8.088855743408203,-0.2577912509441376,-0.9221011,0.08124508,12.396936,21.763912,29.306126000000003,CSO
52722628000000.0,0.34121304750442505,4.5762434005737305,-2.2705087661743164,8.014273643493652,-0.29616686701774597,-0.7476991,0.12522738,12.285002,21.912987,29.503925,CSO
52772762000000.0,0.34621018171310425,4.592670917510986,-2.201157331466675,7.9195404052734375,-0.32761573791503906,-0.5497787,0.17012598,12.170580000000001,22.035442,29.716389000000003,CSO
52820225000000.0,0.3512052595615387,4.60961389541626,-2.117887020111084,7.812935829162598,-0.35053738951683044,-0.37690386,0.22204952,12.064553,22.145951999999998,29.878854999999998,CSO
52865163000000.0,0.35620418190956116,4.625986099243164,-2.0280652046203613,7.713907241821289,-0.3680388331413269,-0.20189096,0.26816985,11.949442999999999,22.243717,30.053666999999997,CSO
52907706000000.0,0.3612074851989746,4.640946388244629,-1.9376301765441895,7.637430191040039,-0.38784676790237427,-0.05131268,0.27916542,11.853032,22.342821,30.185205,CSO
52947984000000.0,0.36620575189590454,4.647400856018066,-1.8519597053527832,7.591976165771484,-0.4167555272579193,0.008246681,0.25717425,11.772414,22.419691,30.348907,CSO
52986114000000.0,0.37120774388313293,4.641592979431152,-1.773643136024475,7.5824174880981445,-0.45611947774887085,-0.054367005999999996,0.21013765,11.701947,22.513832,30.505611,CSO
53022214000000.0,0.376240998506546,4.624723434448242,-1.6975257396697998,7.5798563957214355,-0.5008406043052673,-0.08093964,0.15424347,11.672812,22.612182999999998,30.62097,CSO
53056390000000.0,0.38123756647109985,4.600640296936035,-1.6218585968017578,7.569995403289795,-0.5464667081832886,0.036651913,0.118202426,11.666153999999999,22.736778,30.716755,CSO
53088744000000.0,0.3862307369709015,4.581689357757568,-1.5455350875854492,7.555934906005859,-0.5914683938026428,0.24007004,0.08582657,11.721989,22.880375,30.71005,CSO
53119375000000.0,0.3912282884120941,4.575677871704102,-1.468091607093811,7.540030479431152,-0.6338606476783752,0.39950588,0.035430185,11.806703,23.01636,30.690437,CSO
53148375000000.0,0.3962249755859375,4.597348690032959,-1.3903528451919556,7.521639823913574,-0.6737173199653625,0.5225952,0.01985312,11.917905000000001,23.163822,30.617485,CSO
53175830000000.0,0.4012194573879242,4.654019355773926,-1.3127392530441284,7.500463008880615,-0.7120198607444763,0.61666846,0.03940081,12.053891,23.307564000000003,30.513653,CSO
53201823000000.0,0.40622225403785706,4.743207931518555,-1.2397760152816772,7.475704193115234,-0.7460514903068542,0.7098253999999999,0.109650314,12.193056,23.4169,30.421967,CSO
53226430000000.0,0.4112195372581482,4.860265254974365,-1.1739134788513184,7.447322368621826,-0.7735494375228882,0.79168135,0.21685717,12.328192,23.522993,30.302353000000004,CSO
53249726000000.0,0.416215181350708,4.992680072784424,-1.1216974258422852,7.4244232177734375,-0.7942270040512085,0.8197812,0.32345316,12.425162,23.585794,30.296644,CSO
53271780000000.0,0.42121395468711853,5.1320109367370605,-1.0873812437057495,7.413051605224609,-0.809310257434845,0.82863873,0.4175264,12.50427,23.643814000000003,30.262053,CSO
53292660000000.0,0.4262160658836365,5.273232936859131,-1.0740629434585571,7.414745807647705,-0.8199273943901062,0.81397796,0.50426924,12.521253999999999,23.67831,30.327011,CSO
53312427000000.0,0.4312137961387634,5.407750606536865,-1.087188482284546,7.432228088378906,-0.8278139233589172,0.81489426,0.5665775,12.522822,23.7092,30.374185999999998,CSO
53331140000000.0,0.4362109303474426,5.526077747344971,-1.1272788047790527,7.460339069366455,-0.8342547416687012,0.81306165,0.591623,12.48756,23.760202,30.431896000000002,CSO
53348860000000.0,0.44120943546295166,5.61940336227417,-1.1946474313735962,7.494181156158447,-0.8400593400001526,0.8454375,0.61636305,12.441463,23.813688,30.469434999999997,CSO
53365630000000.0,0.4462045133113861,5.680448532104492,-1.292003870010376,7.5309343338012695,-0.845733642578125,0.9120218000000001,0.6249151,12.37917,23.91541,30.445248,CSO
53381510000000.0,0.4512023627758026,5.699006080627441,-1.424439549446106,7.567535877227783,-0.8534657955169678,0.96669424,0.6053675000000001,12.323691,24.023092000000002,30.414663,CSO
53396543000000.0,0.4561961889266968,5.68014669418335,-1.5786442756652832,7.602625846862793,-0.8635692596435547,1.0103711,0.5647449000000001,12.260349,24.239498,30.275517999999998,CSO
53410775000000.0,0.46119508147239685,5.626982688903809,-1.7410428524017334,7.6346025466918945,-0.8764222860336304,1.0705414,0.52687126,12.217917,24.460064000000003,30.122128000000004,CSO
53424250000000.0,0.4661918580532074,5.543625354766846,-1.905627965927124,7.665036678314209,-0.8908854722976685,1.1178834,0.45875978,12.193419,24.817297,29.815483,CSO
53437010000000.0,0.4711928069591522,5.4333930015563965,-2.063284397125244,7.696480751037598,-0.9065311551094055,1.1621711000000001,0.39920044,12.19485,25.171398,29.503414000000003,CSO
53449090000000.0,0.47618886828422546,5.303675651550293,-2.2088494300842285,7.728383541107178,-0.9226126670837402,1.1982121000000001,0.36651915,12.228342,25.60598,29.072496,CSO
53460523000000.0,0.4811882972717285,5.162504196166992,-2.334240198135376,7.760138511657715,-0.940750777721405,1.221425,0.3210097,12.2953005,26.0332,28.650617999999998,CSO
53471350000000.0,0.4861830472946167,5.0156097412109375,-2.4373817443847656,7.791989326477051,-0.961454451084137,1.2009611,0.26633725,12.393003,26.502641999999998,28.151697,CSO
53481595000000.0,0.49118298292160034,4.87014627456665,-2.5132761001586914,7.824445724487305,-0.9863123297691345,1.151481,0.25870144,12.495451,26.981668,27.661871,CSO
53491297000000.0,0.496177077293396,4.728058815002441,-2.5669825077056885,7.854206085205078,-1.0132800340652466,1.1200215,0.27519479999999996,12.636032,27.4499,27.144331,CSO
53500482000000.0,0.5011765360832214,4.592264652252197,-2.6040170192718506,7.875475883483887,-1.0412521362304688,1.0806206,0.28924468,12.773004,27.92656,26.650109999999998,CSO
53509177000000.0,0.5061724185943604,4.467356204986572,-2.62577486038208,7.885823726654053,-1.0673428773880005,1.0595458,0.31948254,12.9273205,28.350845,26.160513,CSO
53517410000000.0,0.5111699104309082,4.363031387329102,-2.6329524517059326,7.8791608810424805,-1.091310739517212,1.0280862,0.4083634,13.054955,28.787302,25.679329,CSO
53525204000000.0,0.5161779522895813,4.280435562133789,-2.6354217529296875,7.853913307189941,-1.1112178564071655,1.0115929,0.49205196,13.181775,29.182647999999997,25.220579999999998,CSO
53532586000000.0,0.5211794972419739,4.220854759216309,-2.652021646499634,7.808496952056885,-1.1269062757492065,1.0122037,0.5354234,13.294626000000001,29.572046000000004,24.76438,CSO
53539573000000.0,0.526177704334259,4.178216934204102,-2.68406081199646,7.747644901275635,-1.1382590532302856,0.9966267,0.58368176,13.366804,29.920132000000002,24.384956,CSO
53546188000000.0,0.53117835521698,4.1361494064331055,-2.73700213432312,7.683958053588867,-1.1452304124832153,0.9877690999999998,0.65576386,13.424423,30.254269,23.99842,CSO
53552450000000.0,0.5361770391464233,4.093526840209961,-2.8114311695098877,7.61814022064209,-1.1501537561416626,0.9660834,0.6759224,13.437327999999999,30.65902,23.717695000000003,CSO
53558380000000.0,0.5411762595176697,4.042644500732422,-2.920590877532959,7.553380966186523,-1.1515592336654663,0.95264435,0.70280045,13.433760000000001,31.040685999999997,23.428219,CSO
53563993000000.0,0.5461851954460144,3.984499454498291,-3.062267780303955,7.489213466644287,-1.1501389741897583,0.9416488000000002,0.6945538,13.410718,31.509698999999998,23.141006,CSO
53569307000000.0,0.5511818528175354,3.930723190307617,-3.2124826908111572,7.422114849090576,-1.1457667350769043,0.8912524,0.6609562,13.385186,31.948967,22.868216,CSO
53574340000000.0,0.55617755651474,3.881135940551758,-3.3714537620544434,7.351975917816162,-1.1396417617797852,0.8875871999999999,0.6792821,13.353648999999999,32.50533,22.52028,CSO
53579105000000.0,0.5611755847930908,3.829265832901001,-3.5386276245117188,7.283198833465576,-1.1317434310913086,0.88270026,0.63255095,13.347485999999998,33.015972,22.202126999999997,CSO
53583614000000.0,0.5661733746528625,3.772947311401367,-3.7133073806762695,7.21734094619751,-1.1214011907577515,0.8426886,0.5751295999999999,13.341064999999999,33.497932,21.893663,CSO
53587883000000.0,0.5711730122566223,3.707373857498169,-3.9001548290252686,7.155978202819824,-1.109184741973877,0.7791585999999999,0.52106804,13.336793,34.015879999999996,21.600334,CSO
53591927000000.0,0.5761699080467224,3.6309821605682373,-4.100397109985352,7.099643707275391,-1.0959265232086182,0.7644979000000001,0.43218717,13.364407,34.495315999999995,21.322079000000002,CSO
53595756000000.0,0.5811682343482971,3.552151918411255,-4.295294761657715,7.049777030944824,-1.0830492973327637,0.7495316,0.2843578,13.408904999999999,35.002033000000004,21.042451999999997,CSO
53599380000000.0,0.5861662030220032,3.4750096797943115,-4.476036548614502,7.006840229034424,-1.0695887804031372,0.7171558000000001,0.15577064,13.470132000000001,35.47143,20.784032999999997,CSO
53602810000000.0,0.5911657214164734,3.3937556743621826,-4.643581867218018,6.9697651863098145,-1.0563898086547852,0.7079928000000001,0.06750060599999999,13.570054999999998,35.98735,20.472342,CSO
53606057000000.0,0.5961637496948242,3.3055930137634277,-4.798800468444824,6.937802314758301,-1.044219732284546,0.6603453,-0.04184427,13.695418,36.46795,20.206024,CSO
53609130000000.0,0.6011614799499512,3.2141783237457275,-4.935943126678467,6.903218746185303,-1.033788800239563,0.63224554,-0.14874569,13.84573,36.942825,19.957039,CSO
53612043000000.0,0.6061602234840393,3.1210808753967285,-5.0531721115112305,6.862915515899658,-1.0250694751739502,0.61117065,-0.24007004,14.01089,37.393536,19.735826,CSO
53614800000000.0,0.6111595630645752,3.031797170639038,-5.149169921875,6.822781085968018,-1.0177751779556274,0.6007859999999999,-0.31581733,14.204532999999998,37.82895,19.501879000000002,CSO
53617407000000.0,0.6161589622497559,2.9487602710723877,-5.223925590515137,6.785530090332031,-1.0104464292526245,0.5543602,-0.3979787,14.407979999999998,38.23877,19.300293,CSO
53619877000000.0,0.6211578845977783,2.8727190494537354,-5.277277946472168,6.7490129470825195,-1.0031989812850952,0.4896085,-0.43035457,14.62299,38.663242,19.124998,CSO
53622218000000.0,0.6261575818061829,2.8039963245391846,-5.309447288513184,6.7119293212890625,-0.9959633946418762,0.4718934,-0.4654793,14.85377,39.063390000000005,18.965725,CSO
53624432000000.0,0.6311913728713989,2.7428548336029053,-5.3271098136901855,6.674675941467285,-0.9885925650596619,0.45051312,-0.48136179999999995,15.071155,39.42893,18.852332999999998,CSO
53626530000000.0,0.6361880898475647,2.688098907470703,-5.337576866149902,6.638067722320557,-0.9812889695167542,0.40653083,-0.49877146,15.284146,39.779037,18.753729,CSO
53628518000000.0,0.6411839723587036,2.6396749019622803,-5.346341133117676,6.601434707641602,-0.9733003377914429,0.3304781,-0.5439755000000001,15.497646,40.065006,18.706068,CSO
53630397000000.0,0.6461792588233948,2.59712553024292,-5.3576788902282715,6.564473628997803,-0.9646305441856384,0.2611449,-0.57879484,15.700925,40.34207,18.667074,CSO
53632180000000.0,0.6511754989624023,2.5604376792907715,-5.37380313873291,6.524120807647705,-0.9547137022018433,0.20647246,-0.6087272,15.899113,40.585648,18.671705,CSO
53633865000000.0,0.6561723351478577,2.5295000076293945,-5.396151542663574,6.478328704833984,-0.9400677680969238,0.22052236,-0.6096435,16.094735999999997,40.800484000000004,18.676268,CSO
53635464000000.0,0.6611681580543518,2.5038414001464844,-5.433480262756348,6.437129020690918,-0.9212377667427063,0.16920967,-0.6603453,16.280796,41.008316,18.737316,CSO
53636973000000.0,0.6661664843559265,2.48311448097229,-5.492495536804199,6.408053398132324,-0.8979257941246033,0.059864793,-0.72295904,16.456366,41.181515000000005,18.808117000000003,CSO
53638404000000.0,0.6711629033088684,2.464353084564209,-5.569384574890137,6.387911796569824,-0.8716403245925903,-0.070249505,-0.79168135,16.616385,41.367603,18.926136,CSO
53639760000000.0,0.6761606335639954,2.4451794624328613,-5.661471843719482,6.374256134033203,-0.8424422144889832,-0.16187929,-0.8558222,16.769308,41.51321,19.066317,CSO
53641040000000.0,0.6811603307723999,2.4246878623962402,-5.766585826873779,6.362554550170898,-0.8125864267349243,-0.21471913,-0.93370754,16.924301,41.67842,19.231401,CSO
53642260000000.0,0.6861584782600403,2.4013986587524414,-5.881397247314453,6.345512390136719,-0.7836868762969971,-0.23579398,-0.9975429,17.072283,41.816505,19.413094,CSO
53643408000000.0,0.691152811050415,2.374659538269043,-5.9989190101623535,6.326228141784668,-0.7551717758178711,-0.2144137,-1.0387764000000002,17.234247,41.978120000000004,19.582447,CSO
53644500000000.0,0.6961491107940674,2.3432607650756836,-6.109384059906006,6.309029579162598,-0.7252789735794067,-0.19517145,-1.0699303999999998,17.39694,42.11272,19.760920000000002,CSO
53645530000000.0,0.701164960861206,2.30704927444458,-6.21311616897583,6.293875694274902,-0.6934633255004883,-0.19639318,-1.1481212,17.582148,42.264545,19.931395000000002,CSO
53646507000000.0,0.706159770488739,2.267178773880005,-6.310591220855713,6.280501365661621,-0.6615039110183716,-0.20983220000000002,-1.2052372,17.7647,42.40104,20.096611,CSO
53647434000000.0,0.7111543416976929,2.2245426177978516,-6.394594192504883,6.2699055671691895,-0.6308407783508301,-0.17592919,-1.2147056,17.970865,42.523303999999996,20.263557000000002,CSO
53648310000000.0,0.7161497473716736,2.1803665161132812,-6.458617687225342,6.2629241943359375,-0.6013234257698059,-0.16065755,-1.2345587,18.177073,42.620876,20.444403,CSO
53649140000000.0,0.7211467623710632,2.138171911239624,-6.505626201629639,6.261406898498535,-0.5718490481376648,-0.17745635,-1.2620476,18.403952,42.712738,20.586664000000003,CSO
53649925000000.0,0.7261426448822021,2.1012425422668457,-6.5385661125183105,6.2670087814331055,-0.5431153178215027,-0.21594086,-1.29198,18.626776,42.79845,20.730368,CSO
53650668000000.0,0.7311373949050903,2.069105863571167,-6.5597357749938965,6.277580738067627,-0.5160431265830994,-0.25259277,-1.3362677,18.87368,42.82891,20.881058,CSO
53651373000000.0,0.7361342906951904,2.0413289070129395,-6.571353912353516,6.290958404541016,-0.49051132798194885,-0.3136793,-1.3814718000000001,19.10683,42.849926,21.046860000000002,CSO
53652040000000.0,0.7411308288574219,2.013241767883301,-6.5715718269348145,6.304179668426514,-0.4649403393268585,-0.40011674,-1.4416419,19.352716,42.808609999999994,21.2521,CSO
53652673000000.0,0.7461309432983398,1.9763104915618896,-6.556146621704102,6.311886787414551,-0.43921828269958496,-0.47922380000000003,-1.4874569,19.587970000000002,42.76277,21.470121,CSO
53653273000000.0,0.7511288523674011,1.93529212474823,-6.529569625854492,6.315392017364502,-0.4144112765789032,-0.4783075,-1.5506815,19.849145999999998,42.67172,21.72022,CSO
53653840000000.0,0.7561330795288086,1.9069350957870483,-6.505752086639404,6.318576335906982,-0.3879801034927368,-0.5161811,-1.6032158,20.087355,42.55728,21.995413,CSO
53654376000000.0,0.7611298561096191,1.8900467157363892,-6.484480381011963,6.321463108062744,-0.36082518100738525,-0.5729916,-1.6371188,20.344532,42.422333,22.26294,CSO
53654883000000.0,0.7661316990852356,1.884482502937317,-6.465678691864014,6.324062347412109,-0.3330339193344116,-0.5919284,-1.6804903000000002,20.611656,42.266224,22.537931,CSO
53655365000000.0,0.7711342573165894,1.8906378746032715,-6.452509880065918,6.3284478187561035,-0.3031264543533325,-0.60994893,-1.7360790000000001,20.879738,42.086876000000004,22.830547,CSO
53655823000000.0,0.7761399745941162,1.9104019403457642,-6.451615333557129,6.3388214111328125,-0.2723386585712433,-0.6438520000000001,-1.8026633,21.148584,41.896626,23.135437,CSO
53656255000000.0,0.7811407446861267,1.9426391124725342,-6.462000370025635,6.35468053817749,-0.24022915959358215,-0.5723807,-1.8029686999999999,21.418606,41.670258000000004,23.485796,CSO
53656666000000.0,0.7861409783363342,1.9868967533111572,-6.483239650726318,6.375827789306641,-0.20322225987911224,-0.51007247,-1.8719965,21.705070000000003,41.397556,23.864954,CSO
53657056000000.0,0.7911407947540283,2.0449860095977783,-6.509972095489502,6.401394367218018,-0.16773180663585663,-0.5821546,-1.8796324,21.969278,41.149998,24.240309,CSO
53657425000000.0,0.7961411476135254,2.128450870513916,-6.5179595947265625,6.428208351135254,-0.13646039366722107,-0.636827,-1.8936822,22.264666000000002,40.877045,24.608057000000002,CSO
53657773000000.0,0.8011617660522461,2.2361998558044434,-6.507701873779297,6.456928730010986,-0.10635092109441757,-0.7147123000000001,-1.8997909,22.519714,40.592265999999995,25.055166,CSO
53658104000000.0,0.8061628937721252,2.3454768657684326,-6.490016460418701,6.492092609405518,-0.07312563806772232,-0.6957755,-1.8671096999999999,22.77512,40.305836,25.479132,CSO
53658420000000.0,0.8111754059791565,2.4570934772491455,-6.464288711547852,6.534403324127197,-0.041947733610868454,-0.71776664,-1.8026633,22.994989999999998,39.949368,26.039942,CSO
53658717000000.0,0.8161753416061401,2.570683240890503,-6.430426120758057,6.584870338439941,-0.01090131513774395,-0.79168135,-1.8289305,23.218576000000002,39.558327,26.606956,CSO
53658998000000.0,0.821176290512085,2.6865456104278564,-6.388376712799072,6.643590927124023,0.023227263242006302,-0.82527894,-1.8127426,23.4406,39.126263,27.163702,CSO
53659260000000.0,0.8261747360229492,2.8060295581817627,-6.339405059814453,6.706930637359619,0.06006213650107384,-0.8378017,-1.8017471,23.657238,38.688393,27.724974,CSO
53659514000000.0,0.8311719298362732,2.9292831420898438,-6.28397274017334,6.774097442626953,0.09345274418592453,-0.91232723,-1.779145,23.845222,38.266224,28.287771000000003,CSO
53659753000000.0,0.8361700773239136,3.0449700355529785,-6.224854946136475,6.836023807525635,0.12249204516410828,-1.0085385,-1.8307631000000002,24.067959,37.764179999999996,28.8878,CSO
53659980000000.0,0.8411703109741211,3.152575969696045,-6.162422180175781,6.8922553062438965,0.15091156959533691,-0.95722586,-1.8109099999999998,24.287018,37.276759999999996,29.441181,CSO
53660193000000.0,0.846168577671051,3.2557380199432373,-6.098145008087158,6.934187889099121,0.17679107189178467,-0.95386606,-1.7993035,24.505056,36.75764,30.058740000000004,CSO
53660400000000.0,0.851164698600769,3.3555541038513184,-6.03245210647583,6.960168361663818,0.1960337907075882,-0.86437434,-1.8179349999999999,24.759365,36.25782,30.636337,CSO
53660590000000.0,0.8561639189720154,3.4541501998901367,-5.963364601135254,6.974617958068848,0.21496722102165222,-0.8014551999999999,-1.8732183,25.0283,35.725654999999996,31.217676,CSO
53660776000000.0,0.8611598610877991,3.5517234802246094,-5.890989780426025,6.978838920593262,0.23533323407173157,-0.77518797,-1.9449949,25.319954,35.20863,31.782133,CSO
53660950000000.0,0.866161048412323,3.6479382514953613,-5.8221635818481445,6.979794025421143,0.2597249746322632,-0.8240572,-1.9614881999999998,25.603188,34.682625,32.370415,CSO
53661110000000.0,0.8711604475975037,3.7426915168762207,-5.7577385902404785,6.978743076324463,0.2808960974216461,-0.89858276,-2.0506747,25.923920000000003,34.155483000000004,32.973824,CSO
53661267000000.0,0.8761640191078186,3.8483943939208984,-5.688721179962158,6.954348087310791,0.30445486307144165,-0.8371908000000001,-2.0589213,26.248096000000004,33.588528000000004,33.572990000000004,CSO
53661414000000.0,0.8811593055725098,3.966571092605591,-5.6136908531188965,6.903964996337891,0.32495132088661194,-0.8249735,-2.0983222,26.57631,33.03504,34.207714,CSO
53661550000000.0,0.8861578702926636,4.0964789390563965,-5.519103050231934,6.866499900817871,0.3477086126804352,-0.7834346999999999,-2.1041252999999998,26.920319,32.456806,34.821459999999995,CSO
53661686000000.0,0.8911572098731995,4.237184047698975,-5.403825283050537,6.848023414611816,0.37307825684547424,-0.83016586,-2.1001546,27.255921999999998,31.885948,35.443504,CSO
53661812000000.0,0.8961563110351562,4.379149913787842,-5.297700881958008,6.837393760681152,0.3976655900478363,-0.84421575,-2.05098,27.546059000000003,31.31392,36.150220000000004,CSO
53661934000000.0,0.9011557102203369,4.519394874572754,-5.209683895111084,6.830888271331787,0.4237423241138458,-0.8371908000000001,-2.0195205,27.834834999999998,30.722656,36.849632,CSO
53662047000000.0,0.9061557054519653,4.655174732208252,-5.134642124176025,6.822821140289307,0.4449459910392761,-0.8564331000000001,-2.0506747,28.201036,30.028528,37.603004,CSO
53662156000000.0,0.9111544489860535,4.785730838775635,-5.070390224456787,6.8114118576049805,0.4688936769962311,-0.7959574,-2.0222695,28.567047,29.323833,38.303864000000004,CSO
53662257000000.0,0.9161561727523804,4.913877964019775,-4.9964399337768555,6.799188137054443,0.49102795124053955,-0.8567385000000001,-2.057394,28.931406,28.65888,39.03335,CSO
53662353000000.0,0.9211612343788147,5.040713787078857,-4.905613899230957,6.78711462020874,0.5118687152862549,-0.8341365,-2.0882428,29.323437,27.994684000000003,39.708084,CSO
53662445000000.0,0.9261600971221924,5.168485164642334,-4.824893951416016,6.784323215484619,0.535000741481781,-0.72173727,-2.1212296000000004,29.721163,27.341372999999997,40.37125,CSO
53662534000000.0,0.9311590194702148,5.2984819412231445,-4.766307830810547,6.794994831085205,0.55966717004776,-0.6450737,-2.159714,30.129728000000004,26.693419,41.02685,CSO
53662617000000.0,0.9361574649810791,5.431416988372803,-4.716063022613525,6.8049445152282715,0.5825144648551941,-0.66706485,-2.1997259,30.600246000000002,25.975683,41.71505,CSO
53662697000000.0,0.9411574006080627,5.568018436431885,-4.661726474761963,6.801356792449951,0.6012793183326721,-0.66645396,-2.2153027,31.102362,25.265307999999997,42.365635,CSO
53662773000000.0,0.9461563229560852,5.707993030548096,-4.603578567504883,6.785071849822998,0.6180186867713928,-0.66706485,-2.2427917,31.612436,24.582966,42.984837,CSO
53662844000000.0,0.9511545896530151,5.851171016693115,-4.541815757751465,6.756753444671631,0.6325963139533997,-0.63224554,-2.1841487999999996,32.11029,23.939054000000002,43.566925,CSO
53662910000000.0,0.956188440322876,5.98223876953125,-4.472280502319336,6.71115779876709,0.6487247347831726,-0.56138515,-2.08977,32.62194,23.296976,44.12089,CSO
53662974000000.0,0.9611863493919373,6.097045421600342,-4.396733283996582,6.652090072631836,0.669072151184082,-0.5345071,-2.0121900000000004,33.118946,22.67065,44.654617,CSO
53663037000000.0,0.9661868214607239,6.191086769104004,-4.3170294761657715,6.583974838256836,0.6938207149505615,-0.49785519999999994,-1.9529362000000001,33.571822999999995,22.020247,45.272964,CSO
53663096000000.0,0.9711855053901672,6.263525009155273,-4.2352294921875,6.510950088500977,0.7221335172653198,-0.47952923,-1.9184223000000002,34.0111,21.377533,45.864259999999994,CSO
53663150000000.0,0.9761842489242554,6.316588878631592,-4.151632785797119,6.442317962646484,0.7526975274085999,-0.42638394,-1.8729129,34.452521999999995,20.729605,46.43979,CSO
53663205000000.0,0.9811823964118958,6.352273464202881,-4.066527366638184,6.384976863861084,0.7853114008903503,-0.42271876,-1.8997909,34.903816,20.068082999999998,47.013504,CSO
53663255000000.0,0.9861790537834167,6.380372524261475,-3.981597661972046,6.3319196701049805,0.81856369972229,-0.40133846,-1.885741,35.36037,19.425774,47.52649,CSO
53663300000000.0,0.9911772012710571,6.413558483123779,-3.8989992141723633,6.274008274078369,0.8486928343772888,-0.50854534,-1.9315558999999998,35.825309999999995,18.775059,48.07022,CSO
53663347000000.0,0.9961751103401184,6.446747303009033,-3.80989408493042,6.220791816711426,0.8758490085601807,-0.40683624,-1.9254471999999998,36.371376,18.127708,48.480816,CSO
53663390000000.0,1.0011719465255737,6.476069927215576,-3.7075932025909424,6.179500102996826,0.9031205773353577,-0.38087448,-1.8777997,36.882754999999996,17.48526,48.925957000000004,CSO
53663430000000.0,1.0061756372451782,6.510798454284668,-3.596917152404785,6.150455474853516,0.9295085072517395,-0.42210788,-1.8668042,37.414906,16.840998000000003,49.387695,CSO
53663470000000.0,1.0111737251281738,6.564461708068848,-3.4861223697662354,6.133625507354736,0.9555807113647461,-0.40866885,-1.7721201000000002,37.912440000000004,16.23065,49.800484000000004,CSO
53663507000000.0,1.016176700592041,6.626915454864502,-3.376891613006592,6.128243446350098,0.9806053042411804,-0.40256020000000003,-1.6798794,38.50251,15.560178,50.20298,CSO
53663544000000.0,1.021175742149353,6.6894707679748535,-3.270787239074707,6.13294792175293,1.0048822164535522,-0.3979787,-1.6475036,39.082428,14.904612,50.586285,CSO
53663580000000.0,1.0262019634246826,6.747157096862793,-3.17120099067688,6.14589262008667,1.0284351110458374,-0.40011674,-1.5442673,39.632059999999996,14.256317000000001,50.964222,CSO
53663610000000.0,1.0311990976333618,6.7967963218688965,-3.080312490463257,6.163346290588379,1.0519535541534424,-0.3998113,-1.5143349,40.200520000000004,13.606782,51.33294,CSO
53663640000000.0,1.0361965894699097,6.836231231689453,-2.997817277908325,6.185674667358398,1.0742675065994263,-0.40530908,-1.4633276000000002,40.7487,12.981914,51.66095,CSO
53663670000000.0,1.0411958694458008,6.863667011260986,-2.923017740249634,6.212649822235107,1.0960270166397095,-0.40469822,-1.4282030000000001,41.2909,12.366391,51.97469,CSO
53663700000000.0,1.0461945533752441,6.8810014724731445,-2.854583501815796,6.243800640106201,1.1175873279571533,-0.4071417,-1.3952162000000001,41.807213,11.786812,52.23872,CSO
53663730000000.0,1.051195502281189,6.890131950378418,-2.7910962104797363,6.278751850128174,1.138275384902954,-0.41172317,-1.3787228999999999,42.31228,11.222541,52.492194999999995,CSO
53663754000000.0,1.056193232536316,6.891890525817871,-2.7291324138641357,6.314902305603027,1.1568191051483154,-0.42058071,-1.3561208,42.795086,10.694879,52.690155000000004,CSO
53663780000000.0,1.061192512512207,6.886839866638184,-2.664998769760132,6.349623203277588,1.1741467714309692,-0.40866885,-1.344209,43.27306,10.174936,52.875859999999996,CSO
53663804000000.0,1.0661872625350952,6.875490665435791,-2.5998995304107666,6.385206699371338,1.1892813444137573,-0.40317106,-1.3387111,43.743427000000004,9.681151,53.021730000000005,CSO
53663825000000.0,1.071189284324646,6.857885837554932,-2.5352203845977783,6.425246238708496,1.2018675804138184,-0.41050145,-1.3200798,55.609547,9.204403,53.159916,CSO
53663846000000.0,1.0761830806732178,6.838151454925537,-2.470918655395508,6.467345714569092,1.211992621421814,-0.42027529999999996,-1.3121386,55.579117000000004,8.723169,53.27693000000001,CSO
53663867000000.0,1.0811830759048462,6.823352813720703,-2.4064180850982666,6.507848739624023,1.2197223901748657,-0.43463063,-1.2990049,55.542480000000005,8.2617235,53.39006800000001,CSO
53663890000000.0,1.086178183555603,6.813074111938477,-2.3418729305267334,6.546814918518066,1.2257543802261353,-0.46609017,-1.2904528,55.503,7.804274,53.471706000000005,CSO
53663910000000.0,1.0911767482757568,6.807189464569092,-2.277177572250366,6.584345817565918,1.2310742139816284,-0.49480084,-1.2877040000000002,55.45918,7.3595667,53.551390000000005,CSO
53663926000000.0,1.0961953401565552,6.8110671043396,-2.21134614944458,6.6198344230651855,1.2355083227157593,-0.52503866,-1.2864822,55.407245999999994,6.9291406,53.630145999999996,CSO
53663943000000.0,1.1011914014816284,6.830934047698975,-2.1439383029937744,6.652302265167236,1.2391037940979004,-0.5708536,-1.2815952,55.349895,6.509173400000001,53.716705000000005,CSO
53663960000000.0,1.1061903238296509,6.867541313171387,-2.0745346546173096,6.681797981262207,1.2434355020523071,-0.54733527,-1.217149,55.269314,6.0789,53.7981,CSO
53663976000000.0,1.1111875772476196,6.911546230316162,-2.000565767288208,6.707276344299316,1.2490990161895752,-0.59712076,-1.2394456,55.199017000000005,5.637605000000001,53.912643,CSO
53663993000000.0,1.1161831617355347,6.960825443267822,-1.9216907024383545,6.72869348526001,1.2570487260818481,-0.6630941999999999,-1.2599095,55.10246,5.213239700000001,54.01746,CSO
53664010000000.0,1.1211817264556885,7.011485576629639,-1.8301383256912231,6.753735065460205,1.2656490802764893,-0.7119634,-1.2394456,54.99031,4.768398,54.177963,CSO
53664027000000.0,1.1261765956878662,7.062160015106201,-1.7244670391082764,6.784498691558838,1.277127981185913,-0.79168135,-1.2055426,54.853559999999995,4.3157043,54.360527000000005,CSO
53664040000000.0,1.1311744451522827,7.109762191772461,-1.6027792692184448,6.825070381164551,1.2876858711242676,-0.7180721,-1.1591167,54.707145999999995,3.8527169999999997,54.530235,CSO
53664050000000.0,1.1361706256866455,7.154093265533447,-1.466037392616272,6.8752288818359375,1.300236701965332,-0.7058548000000001,-1.1157454,54.522617000000004,3.3871660000000006,54.732124,CSO
53664064000000.0,1.141169548034668,7.191463947296143,-1.315551996231079,6.9311676025390625,1.3113048076629639,-0.7162395,-1.0821478,54.344246,2.8865676,54.90511,CSO
53664077000000.0,1.146164894104004,7.22156286239624,-1.1527197360992432,6.991668701171875,1.3199762105941772,-0.7266241999999999,-1.0531317,54.145702,2.4003810000000003,55.066883,CSO
53664090000000.0,1.1511625051498413,7.2387847900390625,-0.9740138053894043,7.062076091766357,1.3259066343307495,-0.71959925,-1.0189233,53.94643000000001,1.8598284999999999,55.19172,CSO
53664102000000.0,1.15615975856781,7.242646217346191,-0.7796972393989563,7.142916202545166,1.3275656700134277,-0.72143185,-1.0082331,53.754321999999995,1.3422055,55.314693000000005,CSO
53664115000000.0,1.161158800125122,7.244063854217529,-0.5828307867050171,7.215659141540527,1.3242367506027222,-0.77640975,-1.0054842,53.570809999999994,0.7819853,55.41861,CSO
53664127000000.0,1.166178822517395,7.24614143371582,-0.38640695810317993,7.274966716766357,1.3151766061782837,-0.7367035,-1.0128145,53.402588,0.24812618,55.48814,CSO
53664140000000.0,1.1711777448654175,7.254941940307617,-0.2091289609670639,7.330704212188721,1.3054598569869995,-0.66767573,-0.81306165,53.204097999999995,-0.3061408,55.502880000000005,CSO
53664153000000.0,1.1761761903762817,7.2753777503967285,-0.06385619193315506,7.388973236083984,1.29375422000885,-0.64476824,-0.64812803,53.039604000000004,-0.8369549999999999,55.512848,CSO
53664160000000.0,1.1811740398406982,7.300510406494141,0.05275518819689751,7.447025299072266,1.2804913520812988,-0.713796,-0.79809546,52.881156999999995,-1.4209496000000001,55.54713,CSO
53664170000000.0,1.1861718893051147,7.327226161956787,0.1429382711648941,7.503688335418701,1.2659982442855835,-0.82650065,-0.89461213,52.69400400000001,-1.936977,55.582209999999996,CSO
53664178000000.0,1.1911698579788208,7.3555073738098145,0.23425085842609406,7.55375337600708,1.2484523057937622,-0.83016586,-0.9673050999999999,52.530327,-2.387244,55.595486,CSO
53664186000000.0,1.1961681842803955,7.385316848754883,0.3447488248348236,7.593911170959473,1.2298718690872192,-0.79779,-0.94897914,52.36461,-2.8292203,55.62565,CSO
53664194000000.0,1.2011654376983643,7.4183220863342285,0.46686598658561707,7.619679927825928,1.2107353210449219,-0.7675522,-0.91538155,52.208816999999996,-3.1907208,55.644656999999995,CSO
53664203000000.0,1.2061680555343628,7.457156658172607,0.5906254053115845,7.62384033203125,1.1901932954788208,-0.70646566,-0.8903360999999999,52.06348,-3.5340285000000002,55.643814,CSO
53664210000000.0,1.211166501045227,7.4994683265686035,0.6992995142936707,7.610424995422363,1.1713320016860962,-0.62796944,-0.6554584,51.865074,-3.9087129000000003,55.65851,CSO
53664220000000.0,1.2161664962768555,7.543766021728516,0.7804794311523438,7.581759452819824,1.1528736352920532,-0.59528816,-0.66920286,51.71288,-4.316845400000001,55.658356000000005,CSO
53664230000000.0,1.2211657762527466,7.5848517417907715,0.8510686755180359,7.543497085571289,1.1354151964187622,-0.60139686,-0.75777835,51.505590000000005,-4.7126779999999995,55.702515000000005,CSO
53664236000000.0,1.2261649370193481,7.617834091186523,0.9268951416015625,7.500845909118652,1.1200916767120361,-0.6545420999999999,-0.9239337,51.30576,-5.1242676,55.74299,CSO
53664245000000.0,1.231163501739502,7.644551753997803,1.0107251405715942,7.458981990814209,1.1065126657485962,-0.66553766,-0.9831876,51.06923,-5.4475574,55.814544999999995,CSO
53664253000000.0,1.236164927482605,7.666619777679443,1.1052241325378418,7.422574996948242,1.0929573774337769,-0.65209866,-1.0277808000000002,50.853752,-5.7988586,55.884003,CSO
53664260000000.0,1.2411636114120483,7.6826887130737305,1.2087693214416504,7.394625663757324,1.0776828527450562,-0.6337727,-1.0818423000000001,50.643814,-6.192391000000001,55.945885,CSO
53664270000000.0,1.2461625337600708,7.690877437591553,1.3200627565383911,7.379091262817383,1.0584694147109985,-0.6386596,-1.1490375,50.453884,-6.5831523,56.003204000000004,CSO
53664280000000.0,1.251160979270935,7.693187713623047,1.4366573095321655,7.365378379821777,1.0341920852661133,-0.63499445,-1.2122620000000002,50.288788000000004,-7.020841000000001,56.022693999999994,CSO
53664287000000.0,1.2561604976654053,7.6916704177856445,1.5560674667358398,7.342209339141846,1.0057719945907593,-0.6374379,-1.2770138,50.149029999999996,-7.454142599999999,56.036094999999996,CSO
53664295000000.0,1.2611600160598755,7.685827732086182,1.6770738363265991,7.311025142669678,0.9748296737670898,-0.6258314,-1.3347405,50.048107,-7.921202,55.989517000000006,CSO
53664304000000.0,1.2661619186401367,7.673806190490723,1.7967106103897095,7.274730682373047,0.9434040188789368,-0.61544675,-1.3857478,49.967620000000004,-8.382456,55.93499,CSO
53664310000000.0,1.2711610794067383,7.658966541290283,1.9149541854858398,7.238288879394531,0.91368567943573,-0.6133086999999999,-1.4483615,49.889206,-8.8861065,55.882805000000005,CSO
53664320000000.0,1.2761622667312622,7.645171165466309,2.031966209411621,7.207592010498047,0.8846884369850159,-0.6026186,-1.5079208999999998,49.826316999999996,-9.382759,55.81551700000001,CSO
53664330000000.0,1.281158447265625,7.635444641113281,2.1484901905059814,7.182866096496582,0.8545507788658142,-0.59773165,-1.5555683,49.765705,-9.89777,55.73639,CSO
53664337000000.0,1.2861570119857788,7.634362697601318,2.2659454345703125,7.164875030517578,0.8237241506576538,-0.5815437,-1.5741998,49.70565,-10.40882,55.642426,CSO
53664340000000.0,1.2911525964736938,7.641574859619141,2.3844146728515625,7.152480602264404,0.7910569906234741,-0.5647449000000001,-1.5760323,49.664394,-10.921472999999999,55.524174,CSO
53664345000000.0,1.296151876449585,7.657469749450684,2.504657030105591,7.143932342529297,0.7582100033760071,-0.52778757,-1.5540411,49.621655,-11.420651,55.391490000000005,CSO
53664350000000.0,1.3011482954025269,7.682209014892578,2.6286261081695557,7.142236232757568,0.7254695296287537,-0.4718934,-1.5100589,68.7558,-11.912346000000001,55.23970799999999,CSO
53664360000000.0,1.306148648262024,7.719064235687256,2.7657289505004883,7.160919189453125,0.6913812160491943,-0.38026363,-1.4165965,69.44434,-12.366821,55.072844999999994,CSO
53664362000000.0,1.3111448287963867,7.76796817779541,2.9109013080596924,7.192264080047607,0.65071040391922,-0.3210097,-1.3048081,70.107155,-12.796669,54.90515500000001,CSO
53664366000000.0,1.316144585609436,7.830892562866211,3.0554990768432617,7.222194671630859,0.6062983870506287,-0.22968534,-1.2327261,70.70024000000001,-13.202085,54.709681999999994,CSO
53664370000000.0,1.3211461305618286,7.90873908996582,3.191988706588745,7.242808818817139,0.5527777075767517,-0.19914207,-1.072374,71.23249,-13.549929,54.500813,CSO
53664375000000.0,1.3261463642120361,8.004518508911133,3.3036396503448486,7.236478805541992,0.4952565133571625,-0.24037547,-0.91232723,71.70953,-13.867303,54.297419999999995,CSO
53664383000000.0,1.3311445713043213,8.116752624511719,3.391517400741577,7.212871074676514,0.4438120722770691,-0.2284636,-0.732122,72.08986,-14.140467000000001,54.117219999999996,CSO
53664387000000.0,1.336143970489502,8.243528366088867,3.4558591842651367,7.195055961608887,0.40051335096359253,-0.15851954,-0.5439755000000001,72.37907,-14.353539999999999,53.955493999999995,CSO
53664390000000.0,1.3411428928375244,8.381237983703613,3.4973344802856445,7.183974266052246,0.3630543053150177,-0.09162979,-0.36957347,72.49795,-14.464374,53.92335500000001,CSO
53664396000000.0,1.3461427688598633,8.50994873046875,3.5121195316314697,7.188419818878174,0.32894256711006165,0.020158553,-0.22785273,72.52123,-14.545320499999999,53.880680000000005,CSO
53664400000000.0,1.3511797189712524,8.62991714477539,3.4983339309692383,7.209580421447754,0.29837414622306824,0.15515977,-0.08093964,72.28454599999999,-14.505767,53.877340000000004,CSO
53664404000000.0,1.3561766147613525,8.719270706176758,3.4772939682006836,7.224735260009766,0.27298325300216675,0.2724459,-0.016493361,72.010635,-14.464599,53.856487,CSO
53664413000000.0,1.3611756563186646,8.767037391662598,3.452707290649414,7.226893901824951,0.2550007104873657,0.37812558,-0.020158553,71.68669,-14.420876000000002,53.813187,CSO
53664417000000.0,1.366174340248108,8.769784927368164,3.4259796142578125,7.219163417816162,0.24723830819129944,0.48502702,-0.04520403,71.12240600000001,-14.284351999999998,53.71861,CSO
53664420000000.0,1.3711820840835571,8.72547721862793,3.3976821899414062,7.20286226272583,0.2492816150188446,0.5503895999999999,-0.106901415,70.58551999999999,-14.183421,53.60409,CSO
53664425000000.0,1.376182198524475,8.637750625610352,3.3704373836517334,7.18477725982666,0.2605266869068146,0.5873469,-0.20280726,70.1126,-14.150129999999999,53.42663,CSO
53664430000000.0,1.381179690361023,8.506904602050781,3.3458893299102783,7.169149875640869,0.27786245942115784,0.6017023,-0.33383787,69.68963000000001,-14.163425,53.231155,CSO
53664438000000.0,1.3861768245697021,8.34260368347168,3.3278720378875732,7.157732009887695,0.2985227406024933,0.56046885,-0.49632803,69.4,-14.263085,52.96592,CSO
53664440000000.0,1.391175627708435,8.153318405151367,3.3196520805358887,7.152010440826416,0.3188307285308838,0.46609017,-0.6395759,69.17268,-14.397779000000002,52.703876,CSO
53664446000000.0,1.3961737155914307,7.951801300048828,3.3235585689544678,7.153013706207275,0.33553346991539,0.3323107,-0.7669413,69.09881999999999,-14.608196,52.362488,CSO
53664450000000.0,1.4011707305908203,7.745705604553223,3.340756893157959,7.1612324714660645,0.3483673334121704,0.17318029999999998,-0.88361657,69.10195,-14.846789000000001,52.041843,CSO
53664455000000.0,1.4061728715896606,7.543689250946045,3.373758316040039,7.175670146942139,0.356220006942749,0.00580322,-0.9896017,69.24195,-15.141639000000001,51.675045000000004,CSO
53664463000000.0,1.4111711978912354,7.350169658660889,3.4226510524749756,7.195389747619629,0.3585430979728699,-0.09896017,-1.072374,69.43165,-15.441529000000001,51.32504,CSO
53664467000000.0,1.4161685705184937,7.1703057289123535,3.4786503314971924,7.221258640289307,0.35849612951278687,-0.31642818,-1.0983357,69.737465,-15.790117,50.985003999999996,CSO
53664470000000.0,1.4211859703063965,7.006781578063965,3.537609100341797,7.254124164581299,0.35431721806526184,-0.53969944,-1.1227703000000002,70.08781,-16.129901999999998,50.665040000000005,CSO
53664476000000.0,1.4261854887008667,6.8566508293151855,3.5974371433258057,7.286539077758789,0.3469102084636688,-0.77518797,-1.1297953,70.53454,-16.511333,50.371918,CSO
53664480000000.0,1.4311827421188354,6.718872547149658,3.6577413082122803,7.3156232833862305,0.33885619044303894,-1.0268645,-1.1502593,71.03255,-16.890398,50.134632,CSO
53664490000000.0,1.4361791610717773,6.590423107147217,3.7182114124298096,7.336831092834473,0.32781314849853516,-1.221425,-1.1685851999999999,71.558624,-17.253204,49.929634,CSO
53664492000000.0,1.4411778450012207,6.467461109161377,3.7784461975097656,7.343872547149658,0.3134520649909973,-1.344209,-1.1884383,72.11877,-17.610432,49.765236,CSO
53664496000000.0,1.4461761713027954,6.344918251037598,3.836728811264038,7.333596706390381,0.29503822326660156,-1.4227052,-1.2162327,72.72279,-17.965193,49.63955,CSO
53664500000000.0,1.451172947883606,6.21856689453125,3.891653299331665,7.30344295501709,0.27410605549812317,-1.4694363000000001,-1.2724323,73.35364,-18.317127,49.526505,CSO
53664505000000.0,1.4561712741851807,6.100855827331543,3.942620277404785,7.260058879852295,0.2522222101688385,-1.4605788,-1.3341296999999999,74.02354,-18.681244,49.42794,CSO
53664513000000.0,1.461169719696045,6.002970218658447,3.989114284515381,7.209701061248779,0.23044659197330475,-1.4300356,-1.4135422,74.715614,-19.048911999999998,49.320408,CSO
53664517000000.0,1.46616792678833,5.926548004150391,4.041451930999756,7.151345729827881,0.20931057631969452,-1.3921618,-1.4666874,75.45289,-19.441656,49.218323,CSO
53664520000000.0,1.4711673259735107,5.873469829559326,4.110271453857422,7.083836555480957,0.18827548623085022,-1.3023646999999998,-1.486846,76.17669000000001,-19.834578,49.083614000000004,CSO
53664526000000.0,1.476166009902954,5.846505165100098,4.198489189147949,7.009549140930176,0.1690613329410553,-1.178359,-1.4535538000000001,76.86318,-20.215270999999998,48.973279999999995,CSO
53664530000000.0,1.481164574623108,5.849684238433838,4.310208320617676,6.931162357330322,0.15345926582813263,-1.0790935,-1.3787228999999999,77.51371,-20.587835000000002,48.84633,CSO
53664534000000.0,1.4861613512039185,5.879510879516602,4.439047336578369,6.853603363037109,0.1434253752231598,-0.92485,-1.2858714,78.17585,-21.006739000000003,48.724872999999995,CSO
53664543000000.0,1.4911826848983765,5.934432506561279,4.5783514976501465,6.784029006958008,0.13990001380443573,-0.79473567,-1.1737776000000002,78.771904,-21.409487,48.596474,CSO
53664547000000.0,1.4961780309677124,6.002792835235596,4.718014717102051,6.721068382263184,0.14281302690505981,-0.74281216,-1.0824533,79.41141999999999,-21.873476,48.503036,CSO
53664550000000.0,1.501174807548523,6.076538562774658,4.848479270935059,6.66422176361084,0.149379700422287,-0.72082096,-0.99021256,79.97126,-22.314167,48.40043,CSO
53664555000000.0,1.506173014640808,6.149696350097656,4.964583873748779,6.61107873916626,0.16026800870895386,-0.72204274,-0.94897914,80.52344000000001,-22.78014,48.319824,CSO
53664560000000.0,1.5111713409423828,6.211228370666504,5.056149005889893,6.557387351989746,0.17488954961299896,-0.743423,-0.9410379000000001,81.03943000000001,-23.233856,48.244915,CSO
53664568000000.0,1.516168236732483,6.260309219360352,5.124084949493408,6.501634120941162,0.19083164632320404,-0.7816021,-0.9300423000000001,81.49605,-23.655704,48.191364,CSO
53664570000000.0,1.5211725234985352,6.291901111602783,5.167191982269287,6.4381103515625,0.20942378044128418,-0.79076505,-0.9605855999999999,81.94884499999999,-24.094097,48.127056,CSO
53664576000000.0,1.5261672735214233,6.3079400062561035,5.190169334411621,6.367990493774414,0.22918997704982758,-0.79717916,-1.0106765,82.33009,-24.479656,48.077076,CSO
53664580000000.0,1.5311657190322876,6.30879545211792,5.197849273681641,6.291372299194336,0.24881429970264435,-0.79779,-1.0916162,82.72238,-24.879179999999998,48.014472999999995,CSO
53664585000000.0,1.5361628532409668,6.297170639038086,5.191806316375732,6.212162017822266,0.26784855127334595,-0.7968736999999999,-1.1808025,83.072395,-25.254663,47.951584000000004,CSO
53664593000000.0,1.541162133216858,6.277470111846924,5.17380952835083,6.138452053070068,0.28676366806030273,-0.75869465,-1.2605205,83.42683000000001,-25.644592000000003,47.865916999999996,CSO
53664597000000.0,1.5461593866348267,6.249326705932617,5.147812366485596,6.067655563354492,0.3062659502029419,-0.88056225,-1.3472633,83.81835,-26.038158,47.798027000000005,CSO
53664600000000.0,1.551156997680664,6.21078634262085,5.12196159362793,5.9939398765563965,0.32331275939941406,-0.9669996999999999,-1.4385877,84.20812,-26.438791,47.69713,CSO
53664606000000.0,1.5561580657958984,6.1629509925842285,5.097816467285156,5.916524887084961,0.33853957056999207,-1.0192287,-1.5097535,84.5801,-26.826054,47.593464000000004,CSO
53664610000000.0,1.5611603260040283,6.108612537384033,5.080389499664307,5.832890033721924,0.3529711663722992,-1.0830641,-1.5635096000000002,84.99413,-27.22294,47.495502,CSO
53664620000000.0,1.5661585330963135,6.0495805740356445,5.070949554443359,5.74268913269043,0.3667476177215576,-1.1459832,-1.6111571000000002,85.46429,-27.649607,47.376892,CSO
53664622000000.0,1.5711584091186523,5.989916801452637,5.074527263641357,5.643363952636719,0.3784388601779938,-1.2098186000000002,-1.6462818,85.954666,-28.074837,47.2619,CSO
53664627000000.0,1.5761570930480957,5.92961311340332,5.090697765350342,5.535566329956055,0.38739097118377686,-1.2770138,-1.6737707999999998,86.52930500000001,-28.545624,47.13449,CSO
53664630000000.0,1.5811561346054077,5.867660045623779,5.123923301696777,5.419948101043701,0.39423826336860657,-1.3161091999999999,-1.6914859,87.10857,-29.012556,47.006084,CSO
53664635000000.0,1.5861541032791138,5.804135799407959,5.173248767852783,5.297771453857422,0.39976030588150024,-1.3344351,-1.6850718,87.797455,-29.538658,46.873996999999996,CSO
53664643000000.0,1.5911539793014526,5.738643169403076,5.238555431365967,5.179047107696533,0.4050043225288391,-1.4135422,-1.6905695,88.50928,-30.062195000000003,46.750248,CSO
53664647000000.0,1.5961567163467407,5.671383857727051,5.3187055587768555,5.062781810760498,0.40983864665031433,-1.4731014999999998,-1.7030922999999998,89.321556,-30.657328000000003,46.597823999999996,CSO
53664650000000.0,1.6011546850204468,5.603996276855469,5.4081244468688965,4.939391136169434,0.41384562849998474,-1.505172,-1.7092009999999997,90.1309,-31.24274,46.447746,CSO
53664656000000.0,1.6061593294143677,5.536329746246338,5.506894111633301,4.808687686920166,0.4168414771556854,-1.5690073999999998,-1.7241671000000003,91.04455,-31.894564000000003,46.262783,CSO
53664660000000.0,1.6111584901809692,5.46952486038208,5.615937232971191,4.6717848777771,0.41735002398490906,-1.5989398000000001,-1.7168368000000003,91.93209,-32.527557,46.071667,CSO
53664664000000.0,1.6161556243896484,5.403772354125977,5.735470771789551,4.528886318206787,0.41641533374786377,-1.6639968999999997,-1.7092009999999997,92.83389,-33.155518,45.886105,CSO
53664673000000.0,1.6211559772491455,5.3387885093688965,5.861636161804199,4.3813910484313965,0.41424456238746643,-1.7489072,-1.6811011999999999,93.82163,-33.836242999999996,45.687527,CSO
53664677000000.0,1.6261521577835083,5.2745466232299805,5.992507457733154,4.230326175689697,0.41059428453445435,-1.8325957,-1.6530013,94.80533,-34.500847,45.490520000000004,CSO
53664680000000.0,1.6311519145965576,5.210331439971924,6.118569850921631,4.076093673706055,0.40624329447746277,-1.9193386000000001,-1.6316211,95.88105999999999,-35.21887,45.28288,CSO
53664685000000.0,1.6361490488052368,5.14614725112915,6.238882541656494,3.919179677963257,0.3998616337776184,-1.9975294,-1.6032158,96.948654,-35.910095,45.082176000000004,CSO
53664690000000.0,1.6411477327346802,5.080681800842285,6.349146366119385,3.76127028465271,0.39157378673553467,-2.0638082,-1.5876386999999998,98.079704,-36.636192,44.867603,CSO
53664698000000.0,1.646144151687622,5.01377534866333,6.448863506317139,3.602954864501953,0.3817906081676483,-2.1688771,-1.5711454,99.21781,-37.339382,44.662827,CSO
53664700000000.0,1.6511434316635132,4.942951202392578,6.521002769470215,3.4349937438964844,0.37018486857414246,-2.2736403999999997,-1.5522084999999999,100.38743000000001,-38.04548,44.4581,CSO
53664706000000.0,1.6561405658721924,4.8681416511535645,6.564516067504883,3.256709337234497,0.35608866810798645,-2.3542747000000004,-1.5473217,101.55805,-38.734120000000004,44.24944,CSO
53664710000000.0,1.6611380577087402,4.7943196296691895,6.587360382080078,3.078967571258545,0.33999282121658325,-2.4135287,-1.5308283999999999,102.7505,-39.40889,44.05082,CSO
53664715000000.0,1.6661350727081299,4.722406387329102,6.592027187347412,2.9038636684417725,0.320962131023407,-2.4517076,-1.5335771999999999,103.940674,-40.068333,43.840084000000004,CSO
53664723000000.0,1.6711338758468628,4.650679588317871,6.587791442871094,2.7289462089538574,0.29890885949134827,-2.5228734,-1.5488488999999999,105.14043400000001,-40.685253,43.672756,CSO
53664727000000.0,1.6761722564697266,4.578217029571533,6.576005458831787,2.5523574352264404,0.2733429968357086,-2.5864034,-1.568091,106.3288,-41.286774,43.49067,CSO
53664730000000.0,1.6811702251434326,4.508692741394043,6.569908618927002,2.378142833709717,0.24490748345851898,-2.5986207,-1.5989398000000001,107.48727,-41.84617,43.326565,CSO
53664736000000.0,1.6861666440963745,4.442740440368652,6.574131965637207,2.2054831981658936,0.21370644867420197,-2.5909847999999998,-1.6471981,108.644714,-42.39932,43.14262,CSO
53664740000000.0,1.6911615133285522,4.38016939163208,6.588120937347412,2.0342986583709717,0.17850367724895477,-2.6068675999999997,-1.6875153000000003,109.80755,-42.94482,42.95118,CSO
53664750000000.0,1.6961557865142822,4.320799350738525,6.611389636993408,1.8644843101501465,0.14118900895118713,-2.6465737999999996,-1.6951511000000001,110.95511,-43.483833000000004,42.743076,CSO
53664752000000.0,1.7011500597000122,4.2660417556762695,6.650756359100342,1.6954058408737183,0.10159827768802643,-2.6505444,-1.6963727,112.066154,-44.014767,42.509064,CSO
53664757000000.0,1.7061452865600586,4.215997219085693,6.706999778747559,1.5268763303756714,0.06266876310110092,-2.6551259,-1.6991217,113.1688,-44.540585,42.264796999999994,CSO
53664760000000.0,1.7111406326293945,4.172928810119629,6.7811784744262695,1.3646222352981567,0.023356031626462936,-2.6429085999999997,-1.6991217,114.33526,-45.119409999999995,41.973812,CSO
53664765000000.0,1.7161364555358887,4.136988639831543,6.872771263122559,1.209488868713379,-0.01493592094630003,-2.6160305,-1.676825,115.467606,-45.68623,41.67514,CSO
53664770000000.0,1.721133828163147,4.104450702667236,6.979563236236572,1.0613079071044922,-0.05193595215678215,-2.5738807,-1.6392567999999998,116.62001000000001,-46.291340000000005,41.333717,CSO
53664778000000.0,1.7261303663253784,4.074401378631592,7.100283145904541,0.9197662472724915,-0.08707808703184128,-2.5405886000000004,-1.593442,117.73201999999999,-46.879265000000004,40.988409999999995,CSO
53664780000000.0,1.7311276197433472,4.050552845001221,7.224287033081055,0.790546178817749,-0.11994046717882156,-2.4895812999999998,-1.5509868999999998,118.81181000000001,-47.490494,40.603382,CSO
53664786000000.0,1.7361265420913696,4.03354549407959,7.348948001861572,0.6745093464851379,-0.14935867488384247,-2.4782802999999998,-1.4905111999999998,119.85665,-48.07626,40.22818,CSO
53664790000000.0,1.7411285638809204,4.020774841308594,7.467597007751465,0.5746546387672424,-0.17642779648303986,-2.4859161,-1.409877,120.883804,-48.681507,39.81876,CSO
53664800000000.0,1.7461401224136353,4.0110650062561035,7.577542781829834,0.4920218884944916,-0.20208688080310822,-2.4663684,-1.3628403999999998,121.86313,-49.269775,39.408424,CSO
53664803000000.0,1.7511414289474487,4.000269889831543,7.673903465270996,0.42002731561660767,-0.22655756771564484,-2.4605650000000003,-1.3213016000000002,122.78339,-49.823414,39.011444,CSO
53664807000000.0,1.7561445236206055,3.986884117126465,7.754899978637695,0.3564966917037964,-0.25045663118362427,-2.4514022,-1.2916746000000001,123.66471000000001,-50.356438,38.61954,CSO
53664810000000.0,1.7611463069915771,3.981463670730591,7.810464859008789,0.30166858434677124,-0.273993581533432,-2.4120014,-1.3026701,124.45092,-50.85913,38.22999,CSO
53664815000000.0,1.7661473751068115,3.9906561374664307,7.834420204162598,0.25559818744659424,-0.29580414295196533,-2.3970351,-1.271516,125.21511000000001,-51.333633,37.86056,CSO
53664820000000.0,1.7711470127105713,4.006631374359131,7.833996295928955,0.2145065814256668,-0.3180963695049286,-2.3490822000000002,-1.2394456,125.90671999999999,-51.78318,37.495323,CSO
53664828000000.0,1.7761472463607788,4.02559757232666,7.813026428222656,0.17650897800922394,-0.34087714552879333,-2.2971587,-1.2388347,126.57213,-52.225887,37.12984,CSO
53664830000000.0,1.7811816930770874,4.051396369934082,7.77584981918335,0.1434783786535263,-0.3631763458251953,-2.239432,-1.2654073000000001,127.06219499999999,-52.53841,36.8759,CSO
53664836000000.0,1.7861804962158203,4.084921360015869,7.732291221618652,0.1161436215043068,-0.3855242431163788,-2.1499403,-1.3118331,127.512276,-52.85012,36.614243,CSO
53664840000000.0,1.7911783456802368,4.129427909851074,7.683576583862305,0.08894196152687073,-0.4066811501979828,-2.0894647,-1.2962561000000001,127.82845,-53.064053,36.441179999999996,CSO
53664845000000.0,1.7961740493774414,4.185888767242432,7.631425857543945,0.05791193246841431,-0.4280453026294708,-2.0167716,-1.2327261,128.10526000000002,-53.27312,36.26583,CSO
53664853000000.0,1.8011740446090698,4.247469425201416,7.58017110824585,0.026832550764083862,-0.4475709795951843,-1.9624046000000002,-1.1798861999999999,128.21063,-53.40173000000001,36.161293,CSO
53664857000000.0,1.806174874305725,4.30904483795166,7.5329084396362305,-0.0015822387067601085,-0.4645422697067261,-1.829236,-1.1636983,128.26852,-53.523403,36.058516999999995,CSO
53664860000000.0,1.8111748695373535,4.369485855102539,7.4937591552734375,-0.02831728383898735,-0.48003941774368286,-1.707063,-1.1465940000000001,128.13786000000002,-53.5313,36.06566,CSO
53664866000000.0,1.816171646118164,4.427953720092773,7.465681076049805,-0.05412670597434044,-0.4916505217552185,-1.5778649,-1.1652255,127.981026,-53.555682999999995,36.055832,CSO
53664870000000.0,1.8211688995361328,4.487083911895752,7.447916507720947,-0.07974271476268768,-0.5000547766685486,-1.4553863999999999,-1.1557571000000002,127.75436,-53.55752,36.063572,CSO
53664880000000.0,1.826170802116394,4.549236297607422,7.439787864685059,-0.10582283139228821,-0.5053579211235046,-1.3735305,-1.0647381999999999,127.52023,-53.55198299999999,36.079487,CSO
53664882000000.0,1.8311711549758911,4.611560821533203,7.442050933837891,-0.13335824012756348,-0.5084414482116699,-1.2849549999999998,-0.9868528,127.31576499999998,-53.587334,36.054718,CSO
53664887000000.0,1.836168885231018,4.667009353637695,7.458138465881348,-0.1651683896780014,-0.5093910694122314,-1.1542298999999998,-0.9468411,127.08541000000001,-53.615517000000004,36.036304,CSO
53664890000000.0,1.8411680459976196,4.715485095977783,7.4885430335998535,-0.19652684032917023,-0.5088251233100891,-1.022283,-0.915687,126.84143,-53.63556,36.026314,CSO
53664895000000.0,1.846166729927063,4.756795406341553,7.533873081207275,-0.2208685725927353,-0.5060430765151978,-0.90377516,-0.85918194,126.573494,-53.64539,36.02595,CSO
53664903000000.0,1.8511850833892822,4.790904521942139,7.592967510223389,-0.23858046531677246,-0.5019605755805969,-0.81061816,-0.8179486,126.379906,-53.714638,35.969822,CSO
53664908000000.0,1.8561826944351196,4.818807125091553,7.661154747009277,-0.2511906027793884,-0.4960609972476959,-0.7058548000000001,-0.77518797,126.150604,-53.77253,35.923770000000005,CSO
53664910000000.0,1.861180305480957,4.841145038604736,7.735554218292236,-0.25710999965667725,-0.49028047919273376,-0.61666846,-0.73731434,125.98621999999999,-53.887386,35.817932,CSO
53664916000000.0,1.8661785125732422,4.859376430511475,7.809876441955566,-0.25396642088890076,-0.4844987690448761,-0.559858,-0.7104363,125.801674,-53.99465,35.719402,CSO
53664920000000.0,1.8711766004562378,4.873211860656738,7.882249355316162,-0.24204957485198975,-0.478943794965744,-0.54519725,-0.6939429,125.66998999999998,-54.146519999999995,35.574615,CSO
53664924000000.0,1.876177430152893,4.881348609924316,7.947370529174805,-0.22110576927661896,-0.4733918607234955,-0.571159,-0.7049385,125.535866,-54.297115000000005,35.431103,CSO
53664933000000.0,1.8811742067337036,4.883781909942627,8.004363059997559,-0.1910596787929535,-0.4686078429222107,-0.6105598000000001,-0.7247916,125.42101000000001,-54.463264,35.26747,CSO
53664937000000.0,1.886174201965332,4.879558563232422,8.050033569335938,-0.1500626802444458,-0.4651530981063843,-0.68019843,-0.74128497,125.32825,-54.62874,35.105793,CSO
53664940000000.0,1.8911718130111694,4.869788646697998,8.086334228515625,-0.09870679676532745,-0.46347764134407043,-0.77396625,-0.7696901999999999,125.26961499999999,-54.80935,34.925340000000006,CSO
53664945000000.0,1.8961710929870605,4.856831073760986,8.117733001708984,-0.03649052232503891,-0.46495160460472107,-0.8949176,-0.79473567,125.24618999999998,-54.988693000000005,34.74698,CSO
53664950000000.0,1.9011703729629517,4.841145038604736,8.144512176513672,0.034709423780441284,-0.4704326391220093,-0.93951076,-0.8051204000000001,125.227066,-55.17054,34.558052,CSO
53664958000000.0,1.906175971031189,4.824297904968262,8.166869163513184,0.10785631835460663,-0.47733068466186523,-1.0436633,-0.80878556,125.271194,-55.35295,34.372440000000005,CSO
53664960000000.0,1.9111789464950562,4.806811332702637,8.18505573272705,0.1820424497127533,-0.48869550228118896,-1.1148291000000001,-0.8127562,125.31585,-55.53398000000001,34.176414,CSO
53664966000000.0,1.916178822517395,4.793447971343994,8.19839859008789,0.24976760149002075,-0.5032961368560791,-1.1539245,-0.8258898000000001,125.38563500000001,-55.713013000000004,33.983532000000004,CSO
53664970000000.0,1.921176552772522,4.78399658203125,8.207143783569336,0.31136900186538696,-0.5188440084457397,-1.1801916000000001,-0.8445212,125.47801000000001,-55.888507999999995,33.79047,CSO
53664975000000.0,1.92617666721344,4.772928237915039,8.208361625671387,0.3556792736053467,-0.5351910591125488,-1.1927143,-0.8720101,125.57933999999999,-56.061962,33.597256,CSO
53664983000000.0,1.9311943054199219,4.762414932250977,8.202690124511719,0.38270410895347595,-0.5509110689163208,-1.1905763,-0.9086620999999999,125.68486000000001,-56.237359999999995,33.401863,CSO
53664987000000.0,1.9361933469772339,4.780757427215576,8.202191352844238,0.4136230945587158,-0.5655165910720825,-1.2605205,-0.8527679,125.79748500000001,-56.373430000000006,33.247153999999995,CSO
53664990000000.0,1.941210389137268,4.830223083496094,8.207113265991211,0.4482114315032959,-0.5807924270629883,-1.321607,-0.81581056,125.91199499999999,-56.517993999999995,33.090346999999994,CSO
53664996000000.0,1.9462087154388428,4.899816989898682,8.212934494018555,0.4698066711425781,-0.5963447690010071,-1.3029754999999998,-0.79351395,126.02108999999999,-56.647312,32.949135,CSO
53665000000000.0,1.9512044191360474,4.989841938018799,8.219676971435547,0.4784274101257324,-0.6101730465888977,-1.2443326000000001,-0.7690793,126.01583000000001,-56.67245500000001,32.905384000000005,CSO
53665010000000.0,1.95620858669281,5.099410533905029,8.223496437072754,0.4802591800689697,-0.6212459802627563,-1.2134838,-0.74097955,126.01966000000002,-56.689873,32.87017,CSO
53665012000000.0,1.961203694343567,5.2259039878845215,8.224390029907227,0.47654980421066284,-0.6274315714836121,-1.1887437,-0.6872234,126.010605,-56.695533999999995,32.848440000000004,CSO
53665017000000.0,1.9662021398544312,5.354924201965332,8.206221580505371,0.46118828654289246,-0.628518283367157,-1.1737776000000002,-0.63071835,125.989006,-56.65279399999999,32.883340000000004,CSO
53665020000000.0,1.9711980819702148,5.484927177429199,8.169037818908691,0.4345201849937439,-0.6230849623680115,-1.1398746000000002,-0.56291234,125.95835,-56.600719999999995,32.932083,CSO
53665025000000.0,1.9761967658996582,5.600132465362549,8.124520301818848,0.3995523154735565,-0.6131068468093872,-1.071763,-0.49205196,126.03945,-56.533768,33.00302,CSO
53665030000000.0,1.9811925888061523,5.693947792053223,8.078497886657715,0.358176589012146,-0.5988911986351013,-0.9746355,-0.41233405,126.09648,-56.453587,33.090824,CSO
53665038000000.0,1.986191749572754,5.766943454742432,8.031454086303711,0.31499719619750977,-0.5819823741912842,-0.818254,-0.33292156,126.21836,-56.353786,33.20625,CSO
53665040000000.0,1.9911879301071167,5.82051420211792,7.983712196350098,0.2718997299671173,-0.5636469721794128,-0.6762278,-0.2501493,126.30649,-56.235485,33.34028,CSO
53665046000000.0,1.9961873292922974,5.856708526611328,7.937266826629639,0.23682960867881775,-0.5460282564163208,-0.52503866,-0.1881465,126.34725,-56.13779399999999,33.45425,CSO
53665050000000.0,2.001189708709717,5.877109050750732,7.893029689788818,0.21322718262672424,-0.5305530428886414,-0.45875978,-0.15607607,126.36536399999999,-56.028088000000004,33.578759999999996,CSO
53665054000000.0,2.006190776824951,5.884291172027588,7.854530334472656,0.2046681046485901,-0.5172210335731506,-0.35888332,-0.11728613,126.31371999999999,-55.931458,33.685688,CSO
53665063000000.0,2.0111913681030273,5.879427909851074,7.822646617889404,0.21177732944488525,-0.5058854222297668,-0.33108896,-0.083383106,126.2634,-55.828674,33.797756,CSO
53665067000000.0,2.0161914825439453,5.865316390991211,7.797230243682861,0.22910328209400177,-0.49505624175071716,-0.3210097,-0.04428773,126.13106,-55.726234,33.900753,CSO
53665070000000.0,2.0211918354034424,5.8431878089904785,7.778014183044434,0.2545055150985718,-0.48483672738075256,-0.33139440000000003,-0.020463986,125.99871999999999,-55.620569999999994,34.005866999999995,CSO
53665075000000.0,2.026191234588623,5.8132781982421875,7.76409387588501,0.2874809801578522,-0.47527578473091125,-0.37384954,-0.019242255,125.77866999999999,-55.515392000000006,34.100120000000004,CSO
53665080000000.0,2.031190872192383,5.7757744789123535,7.754698753356934,0.3276168704032898,-0.4679660499095917,-0.39278635,-0.028710667000000002,125.5618,-55.409209999999995,34.1941,CSO
53665088000000.0,2.036222219467163,5.732438564300537,7.749914169311523,0.3823394477367401,-0.46407344937324524,-0.42332962,-0.052534412999999995,125.336624,-55.336315,34.24674,CSO
53665090000000.0,2.04121994972229,5.686180591583252,7.748568534851074,0.44983962178230286,-0.46330195665359497,-0.47555858,-0.06505715,125.13578999999999,-55.264256,34.298809999999996,CSO
53665096000000.0,2.046217203140259,5.636034965515137,7.747015953063965,0.5272904634475708,-0.46533873677253723,-0.56779927,-0.0888809,124.94638,-55.219597,34.3171,CSO
53665100000000.0,2.0512142181396484,5.581989288330078,7.7432708740234375,0.61198890209198,-0.46969228982925415,-0.67256266,-0.09712757,124.78948999999999,-55.17276999999999,34.337788,CSO
53665105000000.0,2.05621600151062,5.523787975311279,7.736650466918945,0.6949588656425476,-0.47492069005966187,-0.7846564,-0.10445796,124.71921,-55.143913,34.334034,CSO
53665113000000.0,2.061213493347168,5.461708068847656,7.727013111114502,0.7715815305709839,-0.4804564416408539,-0.88208944,-0.110872045,124.68372,-55.114006,34.33249,CSO
53665117000000.0,2.0662107467651367,5.39690637588501,7.713208198547363,0.8422911763191223,-0.4840205907821655,-0.91874135,-0.11698069400000001,124.69293,-55.090385,34.321125,CSO
53665120000000.0,2.071213960647583,5.330246448516846,7.694321155548096,0.907461941242218,-0.4868251085281372,-0.91690874,-0.12339478,124.72273999999999,-55.06502,34.311626000000004,CSO
53665126000000.0,2.0762102603912354,5.263403415679932,7.67124605178833,0.9818587899208069,-0.49024519324302673,-0.8927795000000001,-0.13347405,124.77453600000001,-55.057109999999994,34.286694,CSO
53665130000000.0,2.0812084674835205,5.197619915008545,7.644394874572754,1.0800729990005493,-0.49519214034080505,-0.8756753,-0.15974127,124.828156,-55.053043,34.257397,CSO
53665140000000.0,2.0862061977386475,5.132658004760742,7.621541500091553,1.18435800075531,-0.5009985566139221,-0.95539325,-0.18753563,124.9124,-55.05874300000001,34.22052,CSO
53665142000000.0,2.091203212738037,5.0682196617126465,7.611927509307861,1.2740026712417603,-0.5057142376899719,-1.0543533999999999,-0.20128010000000002,124.99722,-55.065567,34.182716,CSO
53665147000000.0,2.0962016582489014,5.010983943939209,7.616223335266113,1.3442050218582153,-0.5058000087738037,-1.0845913,-0.23304509,125.08542,-55.057327,34.14082,CSO
53665150000000.0,2.1011996269226074,4.966307163238525,7.634681701660156,1.3913917541503906,-0.5036349296569824,-1.0699303999999998,-0.2593123,125.19061,-55.04667,34.101177,CSO
53665155000000.0,2.10623836517334,4.940133571624756,7.665033340454102,1.4217121601104736,-0.5005922913551331,-0.9996809999999999,-0.35338554,125.31338500000001,-55.100159999999995,34.008697999999995,CSO
53665160000000.0,2.1112351417541504,4.9296112060546875,7.701524257659912,1.443498134613037,-0.5016346573829651,-0.98990715,-0.37904188,125.44721000000001,-55.13567,33.93277,CSO
53665168000000.0,2.11623215675354,4.936272621154785,7.744573593139648,1.451534390449524,-0.5043957233428955,-1.0351112,-0.41386122,125.569855,-55.22511,33.820248,CSO
53665170000000.0,2.121230363845825,4.9591217041015625,7.793218612670898,1.4418362379074097,-0.5068631172180176,-1.0955868,-0.41935900000000004,125.69271,-55.307487,33.712955,CSO
53665176000000.0,2.126227378845215,4.995603561401367,7.847223281860352,1.4232066869735718,-0.5044623613357544,-1.0989466,-0.42607849999999997,125.77259,-55.382693999999994,33.619938,CSO
53665180000000.0,2.1312246322631836,5.043372631072998,7.906492233276367,1.4045522212982178,-0.49715980887413025,-1.1120802,-0.4343252,125.876915,-55.45745,33.531616,CSO
53665184000000.0,2.136220932006836,5.093754291534424,7.96645975112915,1.3916653394699097,-0.486714243888855,-1.1377366000000002,-0.42546764,125.94321399999998,-55.52437,33.466393,CSO
53665193000000.0,2.141219139099121,5.137394428253174,8.022217750549316,1.3910006284713745,-0.4729838967323303,-1.1969905,-0.39461896,126.02774,-55.593081999999995,33.40849,CSO
53665197000000.0,2.14621639251709,5.17469596862793,8.074000358581543,1.4017829895019531,-0.4575762450695038,-1.271516,-0.37384954,126.17508000000001,-55.659985,33.361294,CSO
53665200000000.0,2.1512131690979004,5.205988883972168,8.122018814086914,1.423425316810608,-0.44028767943382263,-1.3368785,-0.3286455,126.334915,-55.71575,33.332024,CSO
53665205000000.0,2.1562092304229736,5.229210376739502,8.166471481323242,1.4494224786758423,-0.421902060508728,-1.4056008999999998,-0.29626966,126.52383400000001,-55.77111,33.308205,CSO
53665210000000.0,2.161207675933838,5.2412261962890625,8.207531929016113,1.4709670543670654,-0.4030475914478302,-1.4535538000000001,-0.28008172,126.72317,-55.82049,33.29355,CSO
53665220000000.0,2.166203260421753,5.244184494018555,8.245397567749023,1.4890440702438354,-0.38565367460250854,-1.4819591,-0.30298916,126.89095,-55.856205,33.272263,CSO
53665222000000.0,2.17120361328125,5.240470886230469,8.280202865600586,1.5048549175262451,-0.3716283440589905,-1.4819591,-0.30757064,127.06197,-55.881275,33.26165,CSO
53665226000000.0,2.1762197017669678,5.230982303619385,8.30897331237793,1.5200837850570679,-0.3616222143173218,-1.4718798,-0.30176744,127.27507,-55.934585999999996,33.226738,CSO
53665230000000.0,2.181217670440674,5.21760368347168,8.329176902770996,1.5364792346954346,-0.35514435172080994,-1.4749341,-0.30115658,127.48872,-55.98661,33.190575,CSO
53665235000000.0,2.186213731765747,5.202388286590576,8.341403007507324,1.554308533668518,-0.35210442543029785,-1.4752395,-0.33994650000000004,127.73228999999999,-56.05996700000001,33.131954,CSO
53665243000000.0,2.1912102699279785,5.192401885986328,8.347862243652344,1.5742107629776,-0.3523842990398407,-1.4911219999999998,-0.37048978,127.97608000000001,-56.125409999999995,33.078083,CSO
53665247000000.0,2.1962175369262695,5.187942981719971,8.348567962646484,1.595113754272461,-0.35642561316490173,-1.4850134,-0.42119157,128.22314,-56.20064,33.00665,CSO
53665250000000.0,2.2012150287628174,5.193231105804443,8.34305477142334,1.6039670705795288,-0.3625629246234894,-1.473407,-0.441961,128.46778999999998,-56.271440000000005,32.937909999999995,CSO
53665256000000.0,2.2062325477600098,5.208725929260254,8.330883026123047,1.5997238159179688,-0.369382381439209,-1.3924674,-0.50426924,128.67113,-56.341919999999995,32.858006,CSO
53665260000000.0,2.2112295627593994,5.230283737182617,8.311996459960938,1.5757533311843872,-0.379598468542099,-1.3579534,-0.52442783,128.88081,-56.39751999999999,32.788887,CSO
53665270000000.0,2.2162435054779053,5.2587151527404785,8.285805702209473,1.530446171760559,-0.38972586393356323,-1.2754866000000002,-0.56505036,129.02003,-56.457905000000004,32.715813,CSO
53665272000000.0,2.2212395668029785,5.295646667480469,8.256438255310059,1.4729657173156738,-0.3987438380718231,-1.1749994,-0.5900958000000001,129.14087,-56.513577000000005,32.642754,CSO
53665277000000.0,2.226233720779419,5.341233253479004,8.223786354064941,1.4030753374099731,-0.4061906337738037,-1.0855075,-0.6026186,129.36356999999998,-56.593033,32.564834999999995,CSO
53665280000000.0,2.2312304973602295,5.3954386711120605,8.186751365661621,1.3263710737228394,-0.4106850326061249,-1.0042624,-0.6105598000000001,129.55057,-56.677634999999995,32.480152000000004,CSO
53665285000000.0,2.2362239360809326,5.457638740539551,8.145362854003906,1.2448956966400146,-0.41113102436065674,-0.93584555,-0.6114761,129.70731999999998,-56.763615,32.393615999999994,CSO
53665290000000.0,2.2412216663360596,5.523844242095947,8.103793144226074,1.1606963872909546,-0.40644213557243347,-0.8604037,-0.6133086999999999,129.91568,-56.855785,32.317566,CSO
53665298000000.0,2.246216058731079,5.5926032066345215,8.06322193145752,1.0746595859527588,-0.3957689106464386,-0.74097955,-0.64568454,130.08215,-56.959724,32.230225,CSO
53665300000000.0,2.2512128353118896,5.668079853057861,8.043099403381348,0.9897456765174866,-0.3792186677455902,-0.5992588000000001,-0.7431175999999999,130.26103,-57.073887,32.140625,CSO
53665306000000.0,2.2562084197998047,5.751442909240723,8.04985237121582,0.9071241021156311,-0.35952994227409363,-0.50762904,-0.72082096,130.40784,-57.165028,32.07505,CSO
53665310000000.0,2.26120662689209,5.819786071777344,8.070318222045898,0.8271057605743408,-0.33634909987449646,-0.43035457,-0.5543602,130.53468,-57.244087,32.029247,CSO
53665314000000.0,2.266202926635742,5.863133907318115,8.097668647766113,0.7498082518577576,-0.3099273443222046,-0.28985557,-0.39736784,130.60521,-57.320434999999996,31.983583000000003,CSO
53665323000000.0,2.271202564239502,5.888061046600342,8.136688232421875,0.674406886100769,-0.2800467610359192,-0.12705997,-0.34788775,130.64412,-57.402542000000004,31.936087,CSO
53665327000000.0,2.2762012481689453,5.898152828216553,8.188608169555664,0.6005681157112122,-0.24933326244354248,0.032070424,-0.29565877,130.62798999999998,-57.44011,31.929470000000002,CSO
53665330000000.0,2.2811999320983887,5.879966735839844,8.238626480102539,0.5217399597167969,-0.21941015124320984,0.21258110000000002,-0.23457226,130.53258,-57.522009999999995,31.876425,CSO
53665335000000.0,2.2861990928649902,5.826869010925293,8.278802871704102,0.4344925880432129,-0.19041435420513153,0.3753767,-0.17104226,130.38756999999998,-57.589367,31.83447,CSO
53665340000000.0,2.291196346282959,5.772517681121826,8.32602596282959,0.34562382102012634,-0.16260571777820587,0.47983465,-0.19394971,130.18941999999998,-57.72147,31.725813,CSO
53665350000000.0,2.2961952686309814,5.7409491539001465,8.392475128173828,0.25990018248558044,-0.13640929758548737,0.6921103,-0.23945917,129.90303,-57.841530000000006,31.620462,CSO
53665352000000.0,2.3011932373046875,5.7107439041137695,8.457173347473145,0.17465324699878693,-0.11320414394140244,0.820392,-0.19456059,129.60837,-58.02939,31.453262,CSO
53665356000000.0,2.3061976432800293,5.669995307922363,8.508598327636719,0.08826074749231339,-0.09377492219209671,0.95233893,-0.01740966,129.24721,-58.18999,31.30623,CSO
53665360000000.0,2.3111965656280518,5.620494842529297,8.549386978149414,0.00020540210243780166,-0.07463238388299942,1.1081096000000001,0.08979719,128.87227,-58.353504,31.15567,CSO
53665365000000.0,2.3161964416503906,5.562890529632568,8.580841064453125,-0.09006243199110031,-0.054247450083494186,1.2382239,0.09407325,128.46822,-58.494347,31.024171999999997,CSO
53665373000000.0,2.3211965560913086,5.500202655792236,8.606171607971191,-0.18299229443073273,-0.03428151458501816,1.3374895,0.08704830000000001,128.04575,-58.630683999999995,30.89651,CSO
53665377000000.0,2.3262009620666504,5.434197902679443,8.627335548400879,-0.278907835483551,-0.015037794597446918,1.4559973,0.10018189999999999,127.58341000000001,-58.761672999999995,30.772146000000003,CSO
53665380000000.0,2.3311994075775146,5.365204334259033,8.646156311035156,-0.3709808886051178,0.0030501559376716614,1.5647313999999999,0.13927728,127.11462399999999,-58.915066,30.626963,CSO
53665386000000.0,2.336197853088379,5.293188571929932,8.663743019104004,-0.45514410734176636,0.01931145042181015,1.6539177,0.17898351,126.62398,-59.06385,30.483991999999997,CSO
53665390000000.0,2.3411967754364014,5.218414783477783,8.683762550354004,-0.5277456045150757,0.03483635559678078,1.724778,0.22082779,126.13242,-59.227180000000004,30.330032,CSO
53665400000000.0,2.346195697784424,5.141251087188721,8.711861610412598,-0.5828970670700073,0.049566447734832764,1.7556266999999999,0.2565634,125.63531,-59.379875,30.185326,CSO
53665402000000.0,2.3511900901794434,5.062155723571777,8.749029159545898,-0.6226409077644348,0.06359291821718216,1.7684548999999998,0.3023783,125.13286599999999,-59.5426,30.027231,CSO
53665407000000.0,2.356191873550415,4.981179714202881,8.796651840209961,-0.6480752229690552,0.07703465223312378,1.772731,0.34208453,124.63565,-59.696667000000005,29.878390000000003,CSO
53665410000000.0,2.3612234592437744,4.896568298339844,8.855960845947266,-0.6591103076934814,0.08945076912641525,1.7602082,0.38637227,124.14777,-59.855865,29.718687,CSO
53665415000000.0,2.366219997406006,4.808992862701416,8.923977851867676,-0.6594464778900146,0.09952863305807114,1.7415768,0.41172317,123.67486000000001,-60.00695,29.567453000000004,CSO
53665420000000.0,2.3712148666381836,4.718105792999268,9.001104354858398,-0.6472609639167786,0.10648132115602493,1.7302758000000003,0.44684792,123.21188000000001,-60.168392000000004,29.400097,CSO
53665428000000.0,2.376216411590576,4.624774932861328,9.085874557495117,-0.6209145784378052,0.10923830419778824,1.68385,0.46761733,122.77991999999999,-60.32201,29.240776,CSO
53665430000000.0,2.381211042404175,4.529440402984619,9.177289962768555,-0.5822529792785645,0.10865800082683563,1.6245961000000002,0.48166725,122.34862,-60.49335500000001,29.058613,CSO
53665436000000.0,2.386206865310669,4.431775093078613,9.275078773498535,-0.5341511964797974,0.10441366583108902,1.5525141000000002,0.45723262,121.95038600000001,-60.662678,28.877440000000004,CSO
53665440000000.0,2.3912017345428467,4.331821441650391,9.37794303894043,-0.47762784361839294,0.09692844748497009,1.509448,0.45142943,121.550095,-60.832924,28.687265000000004,CSO
53665444000000.0,2.3962039947509766,4.228548526763916,9.47964859008789,-0.4159259796142578,0.08829578757286072,1.4230106000000002,0.44379359999999995,121.2002,-61.00473,28.498112,CSO
53665453000000.0,2.4011998176574707,4.122556209564209,9.580045700073242,-0.34972214698791504,0.0783815085887909,1.3503176000000001,0.42058071,120.82941000000001,-61.178993000000006,28.299957,CSO
53665457000000.0,2.4061977863311768,4.011634349822998,9.674304008483887,-0.2765450179576874,0.06684698164463043,1.2764030000000002,0.3811799,120.49833000000001,-61.354553,28.101677000000002,CSO
53665460000000.0,2.41119384765625,3.895773410797119,9.761731147766113,-0.19641754031181335,0.05442964285612106,1.185384,0.33444872,120.20692,-61.53385,27.901743,CSO
53665465000000.0,2.4161922931671143,3.777251958847046,9.840571403503418,-0.10999216139316559,0.041046325117349625,1.0769554,0.28496864,119.92053,-61.7224,27.689262,CSO
53665470000000.0,2.421189546585083,3.656663179397583,9.911017417907715,-0.01781609281897545,0.02743215300142765,0.9587530000000001,0.24404067,119.67596999999999,-61.917255000000004,27.472903999999996,CSO
53665480000000.0,2.42618727684021,3.5361199378967285,9.975912094116211,0.07501134276390076,0.013550600036978722,0.8582656999999999,0.20891592,119.42456999999999,-62.120693,27.241451,CSO
53665482000000.0,2.431213855743408,3.415472984313965,10.035988807678223,0.16778768599033356,-0.0006329169846139848,0.75777835,0.1826487,119.21883999999999,-62.328323,27.008318,CSO
53665486000000.0,2.436209201812744,3.2984514236450195,10.091736793518066,0.2572576701641083,-0.014337270520627499,0.6792821,0.15332718,119.01491000000001,-62.535927,26.769734999999997,CSO
53665490000000.0,2.4412059783935547,3.1850976943969727,10.143229484558105,0.343243807554245,-0.02814142405986786,0.6068946,0.13041973,118.84724399999999,-62.7439,26.531658,CSO
53665495000000.0,2.446202516555786,3.077310085296631,10.192239761352539,0.4277811050415039,-0.04251210764050484,0.52748215,0.10720685,118.70034,-62.959019999999995,26.284909999999996,CSO
53665503000000.0,2.4511966705322266,2.9755358695983887,10.239445686340332,0.5115806460380554,-0.05754934251308441,0.43890667,0.07452556,118.584946,-63.17841,26.034924,CSO
53665507000000.0,2.4561972618103027,2.881056547164917,10.27827262878418,0.5993131399154663,-0.07318504899740219,0.33414328,0.04153884,118.48663,-63.402423999999996,25.778881,CSO
53665510000000.0,2.461190938949585,2.79366135597229,10.308324813842773,0.6911253929138184,-0.08972916752099991,0.18325958,-0.009468411,118.43626,-63.63398000000001,25.516903,CSO
53665516000000.0,2.4661865234375,2.7141451835632324,10.327727317810059,0.7845681309700012,-0.10625430196523666,0.076358154,-0.058337633,118.39256999999999,-63.86176999999999,25.25581,CSO
53665520000000.0,2.4711883068084717,2.647274971008301,10.32703685760498,0.8679860234260559,-0.12258241325616837,0.0009162978999999999,-0.118507855,118.39102,-64.0998,24.985575,CSO
53665524000000.0,2.476182222366333,2.5920090675354004,10.31163501739502,0.9435538053512573,-0.13913093507289886,-0.070554934,-0.19028452,118.40688999999999,-64.312126,24.729761,CSO
53665532000000.0,2.481180191040039,2.5482137203216553,10.289031028747559,1.0145928859710693,-0.15554630756378174,-0.15699236,-0.24923302,118.45438,-64.53182,24.468082,CSO
53665537000000.0,2.486175060272217,2.514723062515259,10.260483741760254,1.079975962638855,-0.17137984931468964,-0.19425514,-0.30085114,118.51285,-64.7311,24.225275,CSO
53665540000000.0,2.49117374420166,2.490194082260132,10.228141784667969,1.1357611417770386,-0.1863044649362564,-0.258396,-0.3145956,118.60761000000001,-64.92984,23.985722,CSO
53665545000000.0,2.496168613433838,2.4732260704040527,10.192448616027832,1.182662844657898,-0.2002546489238739,-0.29565877,-0.3304781,118.705345,-65.10665,23.765272,CSO
53665553000000.0,2.50118350982666,2.4622111320495605,10.153343200683594,1.2206876277923584,-0.21245220303535461,-0.30268374,-0.31887165,118.81218,-65.27508,23.555464,CSO
53665558000000.0,2.5061841011047363,2.4560389518737793,10.109572410583496,1.252536654472351,-0.22356022894382477,-0.29779682,-0.30940324,118.92686499999999,-65.42554,23.36735,CSO
53665560000000.0,2.511183500289917,2.4540889263153076,10.05541706085205,1.2824287414550781,-0.2333112359046936,-0.31398472,-0.2941316,119.047646,-65.56752,23.190916,CSO
53665566000000.0,2.5161819458007812,2.4560611248016357,9.993583679199219,1.309464693069458,-0.24146828055381775,-0.3475823,-0.28221974,119.165695,-65.69448,23.034605,CSO
53665570000000.0,2.521181106567383,2.461580514907837,9.929567337036133,1.3314074277877808,-0.24761171638965607,-0.4089743,-0.29352075,119.29528,-65.82034,22.883242000000003,CSO
53665574000000.0,2.526183605194092,2.470449209213257,9.863334655761719,1.3487286567687988,-0.25264644622802734,-0.42821655,-0.29168814,119.40483,-65.90677,22.768425,CSO
53665583000000.0,2.531181573867798,2.4817686080932617,9.793988227844238,1.364861011505127,-0.2579174339771271,-0.4569272,-0.28985557,119.53380600000001,-65.992294,22.657770000000003,CSO
53665587000000.0,2.5361790657043457,2.4953949451446533,9.721840858459473,1.3796502351760864,-0.262630820274353,-0.4908302,-0.2837469,119.65575,-66.06212,22.567507,CSO
53665590000000.0,2.54117751121521,2.5109286308288574,9.648270606994629,1.39207124710083,-0.26702791452407837,-0.52931476,-0.28221974,119.78503,-66.12753000000001,22.481892000000002,CSO
53665595000000.0,2.546175479888916,2.528001070022583,9.574213981628418,1.4025516510009766,-0.27024656534194946,-0.5558874,-0.27763826,119.91501000000001,-66.1726,22.418943,CSO
53665600000000.0,2.5511722564697266,2.5456371307373047,9.502631187438965,1.412227988243103,-0.2720240652561188,-0.57971114,-0.26572640000000003,120.05211000000001,-66.2129,22.363148000000002,CSO
53665610000000.0,2.5561704635620117,2.5639615058898926,9.432927131652832,1.421159029006958,-0.27152568101882935,-0.6020076999999999,-0.23976462,120.1746,-66.23714,22.32565,CSO
53665612000000.0,2.561169147491455,2.5837109088897705,9.362513542175293,1.429487705230713,-0.26874247193336487,-0.61300325,-0.22357668,120.29786000000001,-66.26106999999999,22.291626,CSO
53665616000000.0,2.566169023513794,2.6048173904418945,9.291414260864258,1.4372457265853882,-0.2638775706291199,-0.61391956,-0.20769419,120.41009,-66.27531,22.269676,CSO
53665620000000.0,2.5711748600006104,2.6272525787353516,9.219584465026855,1.4444611072540283,-0.2577907145023346,-0.6102544,-0.19364429,120.52103400000001,-66.28711,22.253420000000002,CSO
53665625000000.0,2.576171875,2.6510443687438965,9.147100448608398,1.4512101411819458,-0.2501888871192932,-0.5992588000000001,-0.17898351,120.62665,-66.29805999999999,22.242532999999998,CSO
53665633000000.0,2.5811703205108643,2.6781253814697266,9.072150230407715,1.4578527212142944,-0.24167372286319733,-0.593761,-0.18203785,120.73053,-66.31084,22.231417,CSO
53665637000000.0,2.586168050765991,2.7084062099456787,8.994794845581055,1.4643299579620361,-0.232489213347435,-0.5867361,-0.17684549,120.82866999999999,-66.30579,22.23634,CSO
53665640000000.0,2.5911672115325928,2.743056058883667,8.913833618164062,1.4699634313583374,-0.22309425473213196,-0.58001655,-0.16646078,120.92293500000001,-66.3013,22.24193,CSO
53665646000000.0,2.596177339553833,2.781933307647705,8.82923698425293,1.474703073501587,-0.21345122158527374,-0.57818395,-0.13744467,121.01848999999999,-66.27964,22.263579999999997,CSO
53665650000000.0,2.601174831390381,2.82279372215271,8.742532730102539,1.477696180343628,-0.2031663954257965,-0.56107974,-0.1282817,121.1057,-66.262375,22.281544,CSO
53665660000000.0,2.6061737537384033,2.8657472133636475,8.653481483459473,1.4789563417434692,-0.1923716515302658,-0.5369505,-0.101098195,121.18808999999999,-66.21474,22.328241000000002,CSO
53665663000000.0,2.6111719608306885,2.9102518558502197,8.564316749572754,1.4835734367370605,-0.18194058537483215,-0.50762904,-0.07391469,121.261505,-66.16574,22.37574,CSO
53665667000000.0,2.616166591644287,2.9560484886169434,8.475781440734863,1.4929821491241455,-0.1721956431865692,-0.47800204,-0.043676864,121.32465,-66.11067,22.429686,CSO
53665670000000.0,2.6211659908294678,3.0044877529144287,8.392463684082031,1.5074676275253296,-0.1619119942188263,-0.4538729,-0.013439035,121.38295,-66.03663,22.503764999999998,CSO
53665675000000.0,2.626166343688965,3.056445837020874,8.318022727966309,1.5270042419433594,-0.15141135454177856,-0.41935900000000004,0.026572637000000003,121.42634,-65.952545,22.58566,CSO
53665680000000.0,2.631164789199829,3.1112194061279297,8.255249977111816,1.5463238954544067,-0.14083550870418549,-0.41141775,0.05222898,121.47398000000001,-65.84885,22.680135999999997,CSO
53665688000000.0,2.6361632347106934,3.168503761291504,8.204954147338867,1.5633798837661743,-0.12922810018062592,-0.3933972,0.071776666,121.506165,-65.74115,22.780064000000003,CSO
53665690000000.0,2.641160726547241,3.226389169692993,8.167685508728027,1.5789088010787964,-0.1175556406378746,-0.34880406,0.08032878,121.53228,-65.617195,22.88854,CSO
53665696000000.0,2.6461572647094727,3.283825397491455,8.143472671508789,1.5933465957641602,-0.10617968440055847,-0.29229903,0.06566802,121.54924,-65.498924,22.992014,CSO
53665700000000.0,2.6511549949645996,3.339709758758545,8.129586219787598,1.6092413663864136,-0.09505188465118408,-0.27214047,0.10048734,121.57149,-65.37556,23.104708,CSO
53665704000000.0,2.6561524868011475,3.393627166748047,8.124528884887695,1.6275756359100342,-0.08547747880220413,-0.23518312,0.12858713,121.57252,-65.25851,23.205751,CSO
53665713000000.0,2.661149501800537,3.445852279663086,8.125232696533203,1.651654601097107,-0.07865959405899048,-0.20005837,0.14630222,121.57327,-65.14569,23.30326,CSO
53665717000000.0,2.666149139404297,3.4965708255767822,8.130239486694336,1.682876467704773,-0.07432111352682114,-0.16462818,0.15577064,121.56225,-65.02869,23.402079999999998,CSO
53665720000000.0,2.6711463928222656,3.5471785068511963,8.138399124145508,1.7190229892730713,-0.0719066858291626,-0.13530666,0.15393804,121.54748500000001,-64.91415400000001,23.49211,CSO
53665725000000.0,2.67614483833313,3.598381280899048,8.149162292480469,1.7590677738189697,-0.07072778791189194,-0.12339478,0.16676621,121.52714499999999,-64.79290999999999,23.585878,CSO
53665730000000.0,2.6811435222625732,3.6529181003570557,8.169183731079102,1.7988919019699097,-0.07034419476985931,-0.10598512,0.16554448,121.50043500000001,-64.66513,23.673855,CSO
53665740000000.0,2.6861796379089355,3.713200330734253,8.203606605529785,1.8363314867019653,-0.06929739564657211,-0.10323623,0.16829337,121.4752,-64.53596999999999,23.764675,CSO
53665742000000.0,2.691173553466797,3.78033185005188,8.254290580749512,1.8653908967971802,-0.06785061955451965,-0.10293079,0.15882497,121.45515,-64.40143,23.852127,CSO
53665746000000.0,2.6961677074432373,3.8601715564727783,8.331645965576172,1.8777790069580078,-0.06442999839782715,-0.10048734,0.14049901,121.43526999999999,-64.27534,23.935747,CSO
53665750000000.0,2.7011611461639404,3.945263385772705,8.428446769714355,1.8805605173110962,-0.059742990881204605,-0.0711658,0.09743301,121.42518600000001,-64.1647,24.007379999999998,CSO
53665755000000.0,2.706156015396118,4.031897068023682,8.540850639343262,1.8773703575134277,-0.05384080484509468,-0.055588737,0.057726767000000005,121.420166,-64.06446,24.073524,CSO
53665763000000.0,2.711150884628296,4.1129584312438965,8.657742500305176,1.8716202974319458,-0.04634871333837509,-0.049785517,0.019547688,121.42048,-64.0094,24.117992,CSO
53665767000000.0,2.7161457538604736,4.184764385223389,8.773093223571777,1.8651896715164185,-0.03655385598540306,-0.054061572999999995,-0.011911871999999999,121.42133000000001,-63.96917,24.151592,CSO
53665770000000.0,2.7211430072784424,4.241331577301025,8.876625061035156,1.8588218688964844,-0.024090630933642387,-0.08521569999999999,-0.054061572999999995,121.43522,-63.973415,24.157671,CSO
53665776000000.0,2.7261388301849365,4.278927803039551,8.96142578125,1.853042721748352,-0.010110443457961082,-0.113926366,-0.09621128,121.45123000000001,-63.989635,24.154484,CSO
53665780000000.0,2.7311344146728516,4.297115802764893,9.024681091308594,1.8484554290771484,0.002750323386862874,-0.105374254,-0.14446963,121.46681000000001,-64.03879,24.121354999999998,CSO
53665784000000.0,2.7361321449279785,4.295576572418213,9.06412410736084,1.8455555438995361,0.012207387015223503,-0.105374254,-0.17928895,121.49433,-64.09413,24.082558,CSO
53665793000000.0,2.7411317825317383,4.277782440185547,9.08273696899414,1.8426936864852905,0.01779104582965374,-0.10995574,-0.19242255,121.5413,-64.17173000000001,24.019835,CSO
53665797000000.0,2.7461321353912354,4.24808406829834,9.08409595489502,1.8376235961914062,0.019772835075855255,-0.11056661,-0.20433442,121.5871,-64.25093000000001,23.949417,CSO
53665800000000.0,2.7511301040649414,4.2104411125183105,9.073147773742676,1.8305684328079224,0.018735364079475403,-0.16554448,-0.22907446,121.6469,-64.34061,23.860636,CSO
53665805000000.0,2.7561705112457275,4.168054580688477,9.053783416748047,1.8213582038879395,0.016450993716716766,-0.21288654,-0.21899518,121.70188999999999,-64.41837,23.780716,CSO
53665810000000.0,2.7611653804779053,4.1237592697143555,9.030330657958984,1.8065037727355957,0.013523329049348831,-0.26267207,-0.21899518,121.78013600000001,-64.50813000000001,23.688301,CSO
53665818000000.0,2.766164779663086,4.077984809875488,9.004287719726562,1.7775933742523193,0.011842269450426102,-0.29352075,-0.24251351,121.865425,-64.59985999999999,23.596287,CSO
53665820000000.0,2.7711620330810547,4.0326104164123535,8.978370666503906,1.7378106117248535,0.012041307054460049,-0.32253686,-0.24892759999999997,121.97758,-64.6895,23.513706,CSO
53665826000000.0,2.7761611938476562,3.9910833835601807,8.957647323608398,1.6918092966079712,0.014345793053507805,-0.3576616,-0.24404067,122.09813999999999,-64.78237,23.432056,CSO
53665830000000.0,2.781157970428467,3.9537880420684814,8.942124366760254,1.640604853630066,0.019148118793964386,-0.36285394,-0.23457226,122.21938999999999,-64.907234,23.338410999999997,CSO
53665834000000.0,2.7861592769622803,3.923619508743286,8.933380126953125,1.5869898796081543,0.024899039417505264,-0.34880406,-0.23640485,122.34136000000001,-65.03217,23.245792,CSO
53665843000000.0,2.791158676147461,3.9006078243255615,8.930281639099121,1.5332897901535034,0.03197121247649193,-0.31001409999999996,-0.2312125,122.45683999999999,-65.17154000000001,23.154366,CSO
53665847000000.0,2.7961597442626953,3.8859481811523438,8.93078899383545,1.4854000806808472,0.03987101465463638,-0.26267207,-0.23151793,122.561195,-65.31118000000001,23.061432,CSO
53665850000000.0,2.8011581897735596,3.878857135772705,8.934749603271484,1.4435561895370483,0.049905359745025635,-0.2134974,-0.21135938,122.65665,-65.45293000000001,22.975128,CSO
53665855000000.0,2.8061625957489014,3.8780150413513184,8.942583084106445,1.4105790853500366,0.060886185616254807,-0.17318029999999998,-0.19120082,122.73641,-65.59169,22.888504,CSO
53665860000000.0,2.8111612796783447,3.882322311401367,8.953448295593262,1.3853294849395752,0.0722258985042572,-0.10323623,-0.18936823,122.788925,-65.71328000000001,22.814007,CSO
53665870000000.0,2.816164493560791,3.887967586517334,8.963994979858398,1.3648217916488647,0.08351471275091171,-0.086132,-0.16371189,122.84052,-65.822365,22.753397,CSO
53665872000000.0,2.8211653232574463,3.8945045471191406,8.974051475524902,1.3487019538879395,0.09301367402076721,-0.040317107000000005,-0.12797627,122.86308000000001,-65.90823,22.70175,CSO
53665876000000.0,2.8261971473693848,3.8998680114746094,8.982471466064453,1.3370165824890137,0.10112743079662323,-0.00580322,-0.10903945,122.881805,-65.991295,22.653122,CSO
53665880000000.0,2.831197738647461,3.9041178226470947,8.98956298828125,1.3283921480178833,0.10757170617580414,0.021380282999999996,-0.10293079,122.89079,-66.05790999999999,22.612182999999998,CSO
53665885000000.0,2.8361964225769043,3.905345916748047,8.995260238647461,1.318448543548584,0.11215875297784805,0.038789943,-0.11209377,122.89131,-66.12035,22.571775,CSO
53665893000000.0,2.8411941528320312,3.903766393661499,8.99986743927002,1.3073495626449585,0.11568747460842133,0.06536258,-0.11453723,122.878624,-66.17211,22.53592,CSO
53665897000000.0,2.8461930751800537,3.9002273082733154,9.00627326965332,1.2963311672210693,0.11712369322776794,0.09010262,-0.12186762,122.86171000000002,-66.2223,22.49615,CSO
53665900000000.0,2.8511929512023926,3.8948607444763184,9.01435375213623,1.2852973937988281,0.11667658388614655,0.096516706,-0.14660765,122.84822,-66.28214,22.448097,CSO
53665906000000.0,2.8561949729919434,3.8880605697631836,9.023722648620605,1.273132085800171,0.11524410545825958,0.06963864,-0.13652839,122.83646999999999,-66.33162,22.409075,CSO
53665910000000.0,2.8612098693847656,3.879866600036621,9.034408569335938,1.259902000427246,0.11328570544719696,0.046731193,-0.13958271,122.82303999999999,-66.395645,22.353495000000002,CSO
53665920000000.0,2.866210699081421,3.8712735176086426,9.04682445526123,1.2475860118865967,0.1106015294790268,0.014660766,-0.13897185,122.8202,-66.45259,22.304443,CSO
53665923000000.0,2.8712286949157715,3.862201452255249,9.06115436553955,1.2361605167388916,0.10804412513971329,-0.016493361,-0.13958271,122.83112,-66.523575,22.244201999999998,CSO
53665927000000.0,2.8762266635894775,3.853633403778076,9.07494068145752,1.2264217138290405,0.1060299426317215,-0.055588737,-0.13591751,122.85348,-66.59091,22.188398,CSO
53665930000000.0,2.881223678588867,3.8459055423736572,9.087352752685547,1.2187365293502808,0.10415565967559814,-0.06719518,-0.14141529999999997,122.87645,-66.65862,22.131420000000002,CSO
53665935000000.0,2.886220932006836,3.838974952697754,9.098461151123047,1.2130024433135986,0.10277191549539566,-0.10781772,-0.13958271,122.91811000000001,-66.728096,22.076845000000002,CSO
53665940000000.0,2.8912148475646973,3.832794189453125,9.108343124389648,1.2090952396392822,0.10182002186775208,-0.13683382,-0.13988814,122.95877,-66.79789,22.021557,CSO
53665948000000.0,2.89622163772583,3.8301360607147217,9.115141868591309,1.2050023078918457,0.1009514108300209,-0.15241088,-0.13408493,123.00504,-66.86610999999999,21.967823000000003,CSO
53665950000000.0,2.9012186527252197,3.8317387104034424,9.118429183959961,1.1999160051345825,0.09973843395709991,-0.14874569,-0.13805555,123.05287,-66.93517,21.912971,CSO
53665956000000.0,2.9062206745147705,3.838395118713379,9.119010925292969,1.195878267288208,0.09787389636039734,-0.1142318,-0.14630222,123.09351000000001,-66.993256,21.864433,CSO
53665960000000.0,2.9112164974212646,3.8500289916992188,9.117530822753906,1.1938331127166748,0.09576690196990967,-0.13408493,-0.15424347,123.14811,-67.05078,21.81795,CSO
53665964000000.0,2.9162168502807617,3.8638079166412354,9.113240242004395,1.1899068355560303,0.09286066144704819,-0.1423316,-0.13286320000000001,123.19908000000001,-67.09284,21.782942000000002,CSO
53665973000000.0,2.9212183952331543,3.8783345222473145,9.105968475341797,1.1824851036071777,0.0894419327378273,-0.12308934,-0.12217305,123.24663500000001,-67.13835,21.743624,CSO
53665977000000.0,2.9262161254882812,3.894547939300537,9.09740924835205,1.1729639768600464,0.08615656197071075,-0.06597344599999999,-0.13530666,123.28448999999999,-67.16541,21.718113,CSO
53665980000000.0,2.9312143325805664,3.913022756576538,9.08852481842041,1.162127137184143,0.08304627984762192,-0.053450707,-0.14385876,123.32808,-67.18652,21.698528,CSO
53665985000000.0,2.936211585998535,3.9332454204559326,9.077871322631836,1.1474553346633911,0.08044357597827911,-0.04062254,-0.12186762,123.34641,-67.20521,21.680489,CSO
53665990000000.0,2.941209316253662,3.9549307823181152,9.064736366271973,1.1277223825454712,0.07828884571790695,-0.006414085,-0.10415252,123.35428,-67.2265,21.658451,CSO
53666000000000.0,2.946207284927368,3.9780149459838867,9.049399375915527,1.105778694152832,0.07701398432254791,0.020158553,-0.10170906,123.361145,-67.241905,21.644539,CSO
53666002000000.0,2.951204776763916,4.002427577972412,9.032065391540527,1.0832135677337646,0.07696275413036346,0.046120327,-0.08796459400000001,123.35647,-67.25022,21.637972,CSO
53666006000000.0,2.9562063217163086,4.026282787322998,9.013809204101562,1.0610437393188477,0.07776068150997162,0.06261369,-0.08307768,123.36095,-67.266205,21.628398999999998,CSO
53666010000000.0,2.961204767227173,4.04861307144165,8.995259284973145,1.039802074432373,0.07931367307901382,0.09743301,-0.07971791,123.35128999999999,-67.28036999999999,21.620813000000002,CSO
53666015000000.0,2.9662060737609863,4.070000648498535,8.976584434509277,1.0214487314224243,0.0818907618522644,0.12003502,-0.07391469,123.34041,-67.28842,21.621553,CSO
53666023000000.0,2.971205949783325,4.090750217437744,8.957901954650879,1.0068331956863403,0.0851932093501091,0.15913039999999998,-0.06261369,123.31378000000001,-67.29486999999999,21.6229,CSO
53666027000000.0,2.9762046337127686,4.1089582443237305,8.939038276672363,0.9974063634872437,0.0891660824418068,0.18936823,-0.06261369,123.28371399999999,-67.30399,21.622667,CSO
53666030000000.0,2.981203079223633,4.123630523681641,8.919897079467773,0.993868887424469,0.0941968634724617,0.1908954,-0.06414085,123.25085,-67.31257,21.624617,CSO
53666036000000.0,2.986201286315918,4.131766319274902,8.904378890991211,0.9980917572975159,0.0988781526684761,0.18509217,-0.064751714,123.21148000000001,-67.31336999999999,21.629654000000002,CSO
53666040000000.0,2.9911985397338867,4.131937026977539,8.894457817077637,1.0108765363693237,0.10446565598249435,0.16829337,-0.08643743400000001,123.17686,-67.32451999999999,21.62829,CSO
53666044000000.0,2.99619722366333,4.127425193786621,8.88991641998291,1.022170901298523,0.11047158390283585,0.15821409,-0.052839845,123.138756,-67.31806999999999,21.638454,CSO
53666053000000.0,3.0011959075927734,4.120341777801514,8.890474319458008,1.025960922241211,0.11690620332956314,0.18142697,-0.03756821,123.09801999999999,-67.32443,21.63668,CSO
53666057000000.0,3.006195545196533,4.112408638000488,8.894782066345215,1.0247584581375122,0.1225421354174614,0.21807889999999996,-0.044898596,123.05228400000001,-67.3359,21.622604,CSO
53666060000000.0,3.0111937522888184,4.10465145111084,8.901946067810059,1.0201640129089355,0.12652669847011566,0.23762658,-0.058643065,123.00553000000001,-67.344734,21.61091,CSO
53666065000000.0,3.0161938667297363,4.097057819366455,8.911849975585938,1.0123172998428345,0.12979431450366974,0.25900686,-0.0711658,122.95093,-67.38172,21.577734,CSO
53666070000000.0,3.0211946964263916,4.089620113372803,8.924335479736328,1.0014070272445679,0.1319599747657776,0.25686884,-0.08093964,122.89934,-67.41838,21.54226,CSO
53666078000000.0,3.026193857192993,4.081533432006836,8.937804222106934,0.9892476201057434,0.13420554995536804,0.26022860000000003,-0.09101892,122.84635,-67.4571,21.505966,CSO
53666080000000.0,3.0311930179595947,4.072048187255859,8.95081615447998,0.9774748086929321,0.1366569995880127,0.25381452,-0.09468412,122.79848,-67.49484,21.469944,CSO
53666086000000.0,3.0361900329589844,4.060710906982422,8.962995529174805,0.9665970802307129,0.13972656428813934,0.26206118,-0.10567969,122.74781000000002,-67.558304,21.416307,CSO
53666090000000.0,3.0411899089813232,4.047126293182373,8.974050521850586,0.9570119976997375,0.14295808970928192,0.2648101,-0.105068825,122.70147,-67.61832,21.366433999999998,CSO
53666095000000.0,3.046184778213501,4.031497001647949,8.984320640563965,0.9484652876853943,0.14727075397968292,0.2648101,-0.11209377,122.65465,-67.68970999999999,21.307920000000003,CSO
53666103000000.0,3.0511834621429443,4.013855457305908,8.994302749633789,0.940632700920105,0.15146753191947937,0.24953845,-0.11575896,122.61249,-67.75748,21.252160999999997,CSO
53666107000000.0,3.056180953979492,3.9938881397247314,9.0045804977417,0.9334709644317627,0.15617312490940094,0.24465153,-0.1020145,122.56537,-67.82695,21.197405,CSO
53666110000000.0,3.06118106842041,3.9708948135375977,9.01609992980957,0.9269465208053589,0.16116510331630707,0.2302962,-0.09560041,122.52701599999999,-67.89791,21.141592000000003,STD
53666115000000.0,3.0661752223968506,3.9450020790100098,9.028557777404785,0.9222456216812134,0.1667049080133438,0.21685717,-0.09437868,122.48279,-67.974304,21.081038,STD
53666120000000.0,3.071173667907715,3.9159111976623535,9.04162311553955,0.9216102361679077,0.17105422914028168,0.21502456,-0.089186326,122.439865,-68.04467,21.024723,STD
53666130000000.0,3.076169729232788,3.883039712905884,9.05475902557373,0.9253149628639221,0.1744067221879959,0.21685717,-0.09773844,122.399574,-68.12949,20.956045,STD
53666132000000.0,3.0811927318573,3.8440136909484863,9.066939353942871,0.934943437576294,0.17689689993858337,0.21074851,-0.09712757,122.36241000000001,-68.20755,20.893124,STD
53666136000000.0,3.086189031600952,3.8012499809265137,9.078460693359375,0.9481310844421387,0.1787172257900238,0.1994475,-0.09896017,122.32516499999998,-68.29168,20.820636999999998,STD
53666140000000.0,3.0911874771118164,3.7591044902801514,9.090751647949219,0.9584016799926758,0.17954528331756592,0.1826487,-0.099265605,122.29213,-68.37194000000001,20.750809,STD
53666145000000.0,3.0961825847625732,3.7181954383850098,9.103696823120117,0.9659052491188049,0.17914097011089325,0.17654006,-0.10048734,122.2534,-68.45976,20.667212,STD
53666153000000.0,3.1011791229248047,3.6801846027374268,9.117149353027344,0.9706153273582458,0.1774885654449463,0.16982053,-0.10567969,122.22085,-68.54531999999999,20.585079999999998,STD
53666157000000.0,3.1061792373657227,3.644723653793335,9.130860328674316,0.9723780155181885,0.1751103550195694,0.15454891,-0.10751228,122.193665,-68.63396,20.502079000000002,STD
53666160000000.0,3.1111788749694824,3.6104109287261963,9.143345832824707,0.969596803188324,0.17167064547538757,0.13316862,-0.10659598599999999,122.17103,-68.71876,20.420984,STD
53666166000000.0,3.116180896759033,3.577134370803833,9.154790878295898,0.9627325534820557,0.16828402876853943,0.118507855,-0.11178834,122.15218999999999,-68.80790999999999,20.338488,STD
53666170000000.0,3.1211788654327393,3.5443694591522217,9.166635513305664,0.9549725651741028,0.16468723118305206,0.092240654,-0.106901415,122.143196,-68.88981,20.262276,STD
53666174000000.0,3.1261768341064453,3.512192726135254,9.17890739440918,0.9463302493095398,0.16237270832061768,0.09468412,-0.10445796,122.11702,-68.98235,20.17945,STD
53666183000000.0,3.1311752796173096,3.4821088314056396,9.192037582397461,0.9366363286972046,0.16029547154903412,0.08124508,-0.09590584,122.10343,-69.06773000000001,20.103134,STD
53666187000000.0,3.136183023452759,3.45401930809021,9.206032752990723,0.9258948564529419,0.1586056500673294,0.064446285,-0.09040806,122.09005,-69.15496,20.029239999999998,STD
53666190000000.0,3.1411831378936768,3.4277939796447754,9.22075080871582,0.9142565727233887,0.15738025307655334,0.049480084,-0.09040806,122.08006,-69.239685,19.958332000000002,STD
53666195000000.0,3.1461963653564453,3.4034571647644043,9.236188888549805,0.9018052220344543,0.15652944147586823,0.029321532999999997,-0.084910266,122.07626,-69.319786,19.89285,STD
53666204000000.0,3.1512277126312256,3.3821187019348145,9.251290321350098,0.8905035853385925,0.1553170382976532,0.007941248,-0.0720821,122.07683600000001,-69.39551,19.831501,STD
53666208000000.0,3.1562230587005615,3.3633029460906982,9.265982627868652,0.8802000880241394,0.15452735126018524,-0.009773844,-0.074830994,122.082306,-69.48305500000001,19.761997,STD
53666210000000.0,3.1612207889556885,3.348067045211792,9.280599594116211,0.8711532354354858,0.15374718606472015,-0.029321532999999997,-0.070554934,122.09353999999999,-69.562035,19.700315,STD
53666216000000.0,3.166213035583496,3.3364241123199463,9.295195579528809,0.8633469343185425,0.15147852897644043,-0.053145275,-0.064446285,122.110634,-69.63775,19.640438,STD
53666220000000.0,3.1712119579315186,3.3266215324401855,9.308380126953125,0.8551223278045654,0.14933077991008759,-0.05222898,-0.057726767000000005,122.12548999999999,-69.7079,19.587020000000003,STD
53666225000000.0,3.1762051582336426,3.3180718421936035,9.3198881149292,0.8461182117462158,0.14635339379310608,-0.04642576,-0.0571159,122.14504,-69.772964,19.535372,STD
53666233000000.0,3.181203603744507,3.310554027557373,9.330706596374512,0.8383952975273132,0.14285103976726532,-0.048563786,-0.06017022599999999,122.16068999999999,-69.831154,19.488762,STD
53666237000000.0,3.1861977577209473,3.3039302825927734,9.341195106506348,0.8325639367103577,0.1390632838010788,-0.04062254,-0.06750060599999999,122.17091,-69.887985,19.441809,STD
53666240000000.0,3.191195011138916,3.297637462615967,9.350167274475098,0.8237085342407227,0.1343054175376892,-0.034513887,-0.059253927000000005,122.1855,-69.938034,19.400751,STD
53666246000000.0,3.1961886882781982,3.2914414405822754,9.357231140136719,0.8100796341896057,0.1289546936750412,-0.03145956,-0.06719518,122.19854,-69.99305,19.354,STD
53666250000000.0,3.2011878490448,3.2866506576538086,9.364157676696777,0.7976645231246948,0.12305898219347,-0.008857545999999999,-0.08521569999999999,122.203224,-70.04243000000001,19.309288000000002,STD
53666260000000.0,3.2061917781829834,3.284088134765625,9.372124671936035,0.7904202342033386,0.11713564395904541,-0.02443461,-0.07391469,122.21745,-70.084175,19.272709,STD
53666262000000.0,3.211191177368164,3.2826592922210693,9.379207611083984,0.784151554107666,0.11154425889253616,-0.018020526000000002,-0.06841691,122.21926,-70.13865,19.225618,STD
53666266000000.0,3.2161905765533447,3.2820558547973633,9.384913444519043,0.7777174711227417,0.10572997480630875,-0.0018325957999999999,-0.08277224,122.22253400000001,-70.19305,19.177393,STD
53666270000000.0,3.2212026119232178,3.283217430114746,9.390417098999023,0.7701537013053894,0.10011161118745804,-0.00580322,-0.08521569999999999,122.22905,-70.232635,19.14166,STD
