timestamp,rel_time,acc_x,acc_y,acc_z,gyro_x,gyro_y,gyro_z,azimuth,pitch,roll,label
0.0,0.0,0.0,0.0,0.0,0.0,-0.011301007,-0.7153232,54.404472,-96.23603,6.0628980000000015,STD
10622884.0,4.471331749300589e-08,-6.981635124247987e-06,8.127929322654381e-05,-6.927802587597398e-06,3.910170562448911e-06,-0.10140363,-0.75625116,54.443523,-95.96154,5.7442765,STD
73697752.0,4.871094461122993e-07,-4.6393317461479455e-05,0.0005666398210451007,-4.89948142785579e-05,2.4549150111852214e-05,-0.22327125,-0.7333437,54.516537,-95.70501,5.436522,STD
259855872.0,2.3176799004431814e-06,-0.0001566512801218778,0.0020072937477380037,-0.00017591661890037358,7.460812048520893e-05,-0.3491095,-0.6783658,54.615704,-95.4387,5.1300397,STD
664489600.0,7.444821221724851e-06,-0.0003830495697911829,0.005156572442501783,-0.00045784469693899155,0.00015727138088550419,-0.44837508,-0.59742624,54.74159,-95.18624,4.841211,STD
1402404608.0,1.8892187654273584e-05,-0.0007717066910117865,0.010932430624961853,-0.0009830374037846923,0.00026735535357147455,-0.46761733,-0.42913285,54.880703,-94.97147,4.5970445,STD
2601588736.0,4.092017115908675e-05,-0.00136376463342458,0.020372068509459496,-0.0018545747734606266,0.00038455415051430464,-0.44226643,-0.20280726,55.035496,-94.785576,4.396172,STD
4396562432.0,7.906098471721634e-05,-0.00219029001891613,0.03458203747868538,-0.0031863541807979345,0.00044919020729139447,-0.41691554,-0.061086524,55.19526,-94.60998,4.222338,STD
6921775104.0,0.0001400728360749781,-0.0032681431621313095,0.05468743294477463,-0.005098688416182995,0.00042351806769147515,-0.39828414,0.22296582,55.35182,-94.53657,4.1563993,STD
10305460224.0,0.00023176558897830546,-0.0045976522378623486,0.08178254961967468,-0.007713516242802143,0.00024038324772845954,-0.3848451,0.5002986,55.50248000000001,-94.480865,4.1309094,STD
14664279040.0,0.0003628903650678694,-0.006160109303891659,0.11688856035470963,-0.01115044578909874,-0.000149635219713673,-0.37812558,0.72509706,55.650436,-94.490295,4.171958999999998,STD
20098990080.0,0.0005427446449175477,-0.00791927333921194,0.16091451048851013,-0.015521947294473648,-0.0007639258401468396,-0.40530908,0.8943066999999999,55.80472,-94.55785,4.2751737,STD
26691272704.0,0.0007816787110641599,-0.009813277050852776,0.21464107930660248,-0.02093401923775673,-0.0015622867504134774,-0.38606682,1.162782,55.94484300000001,-94.71726,4.469338400000002,STD
34501722112.0,0.0010887881508097053,-0.011779865249991417,0.2786695063114166,-0.027472764253616333,-0.0023800465278327465,-0.23182335,1.3023646999999998,56.05269200000001,-94.89852,4.672658,STD
43568975872.0,0.001473711454309523,-0.013735010288655758,0.353442907333374,-0.03521331399679184,-0.0030182001646608114,0.0030543262,1.575116,56.133266000000006,-95.19344,4.987165,STD
53909839872.0,0.0019456420559436083,-0.015584413893520832,0.43923184275627136,-0.044214699417352676,-0.003295426955446601,0.21044308,1.8570304,56.17753,-95.536446,5.339966,STD
65520242688.0,0.0025131565053015947,-0.017226168885827065,0.5361388921737671,-0.05451955273747444,-0.0030418236274272203,0.35735616,2.1358902000000004,56.173595,-95.95926,5.7647486,STD
78376869888.0,0.003184161614626646,-0.018552515655755997,0.6441102623939514,-0.066154845058918,-0.0020067053847014904,0.75808376,2.201253,56.03816,-96.406075,6.204827,STD
92439232512.0,0.0039656017906963825,-0.01945468783378601,0.7629469037055969,-0.07913167774677277,0.00024292361922562122,1.207986,2.1664336,55.848774,-96.908295,6.688973,STD
107652079616.0,0.004863462410867214,-0.019824570044875145,0.8923227787017822,-0.0934467688202858,0.0041177538223564625,1.312444,2.1267273,55.64638000000001,-97.42745,7.1821213,STD
123947892736.0,0.005882852710783482,-0.01955551654100418,1.0318052768707275,-0.10908451676368713,0.009784688241779804,1.3833044,2.0448713,55.327198,-97.9256,7.6486974,STD
141249445888.0,0.007027717772871256,-0.018547458574175835,1.1808700561523438,-0.12601706385612488,0.0177655890583992,1.2754866000000002,2.0121900000000004,55.03473,-98.45241,8.11027,STD
159472254976.0,0.008300947025418282,-0.016707396134734154,1.338921070098877,-0.14420640468597412,0.02859862707555294,0.89369583,1.920255,54.80448000000001,-98.94597,8.522053,STD
178526830592.0,0.00970455165952444,-0.013948945328593254,1.5053107738494873,-0.16360674798488617,0.042255837470293045,0.38759398,1.8329011,54.646145,-99.43152,8.915839,STD
198320750592.0,0.01123969815671444,-0.010193399153649807,1.679356336593628,-0.18416602909564972,0.05818532779812813,-0.0061086523,1.7614299,54.56951,-99.90101,9.277661,STD
218760495104.0,0.012906620278954506,-0.0053720539435744286,1.8603519201278687,-0.20582658052444458,0.07562513649463654,-0.20830505,1.6811012,54.58559399999999,-100.33805,9.60088,STD
239752986624.0,0.014706434682011604,0.0005936723318882287,2.0476088523864746,-0.22853562235832214,0.09382926672697067,-0.21533,1.5845844999999998,54.658924,-100.72924,9.889614,STD
261206917120.0,0.01663626730442047,0.007735046092420816,2.240389585494995,-0.2522205114364624,0.11223158985376358,-0.15607607,1.5231925,54.770916,-101.08112,10.157155,STD
283033796608.0,0.0186944417655468,0.01609518751502037,2.4379968643188477,-0.27681663632392883,0.1305740773677826,-0.013744468,1.4382823,54.857845,-101.37939,10.387023,STD
305148755968.0,0.020878752693533897,0.025708524510264397,2.6397526264190674,-0.3022589385509491,0.14838966727256775,0.16462818,1.425454,54.916634,-101.64118,10.617559,STD
327471235072.0,0.023186776787042618,0.03660391643643379,2.84500789642334,-0.3284838795661926,0.16535337269306183,0.34025195,1.4850134,54.934387,-101.8908,10.843762,STD
349925408768.0,0.02561536245048046,0.048798512667417526,3.0531387329101562,-0.3554271161556244,0.18113961815834045,0.5290093000000001,1.5103643,54.89513,-102.10247,11.057205,STD
372440498176.0,0.02816096320748329,0.06230129674077034,3.263552665710449,-0.3830253481864929,0.19574637711048126,0.65270954,1.5500705,54.82578,-102.32838,11.290191,STD
394950901760.0,0.030820271000266075,0.07712039351463318,3.475700855255127,-0.4112198054790497,0.20929782092571259,0.59956425,1.5763378,54.75371,-102.54351,11.522368,STD
417396260864.0,0.03358961641788483,0.09324236214160919,3.6889894008636475,-0.43991798162460327,0.22192297875881195,0.6062838,1.5164729,54.627796,-102.74112,11.741151,STD
439721459712.0,0.03646518662571907,0.11060572415590286,3.902616500854492,-0.4689202904701233,0.2337685525417328,0.6762278,1.4318681,54.499672,-102.939415,11.955965,STD
461876494336.0,0.03944307193160057,0.12914903461933136,4.115844249725342,-0.49804195761680603,0.24483807384967804,0.818254,1.3283265,54.347736,-103.30258,12.317921,STD
483816275968.0,0.042519617825746536,0.14881359040737152,4.327996253967285,-0.5271111726760864,0.2550535798072815,0.96669424,1.1704178,54.171738,-103.62139,12.63393,STD
505500499968.0,0.04569072276353836,0.16953858733177185,4.538461685180664,-0.5559733510017395,0.26437050104141235,0.9633345,1.0103711,53.99824,-103.904594,12.912384,STD
526893383680.0,0.048952437937259674,0.19126565754413605,4.746687889099121,-0.5844873189926147,0.2726494073867798,0.82619524,0.84238315,53.819073,-104.129326,13.137968,STD
547963404288.0,0.0523022897541523,0.21394824981689453,4.952166557312012,-0.6125168800354004,0.2797476053237915,0.57910025,0.64568454,53.671066,-104.29504,13.302206,STD
568683069440.0,0.055735308676958084,0.23752348124980927,5.154467582702637,-0.6399544477462769,0.285488486289978,0.19058995,0.42546764,53.601948,-104.39708,13.401276,STD
589028655104.0,0.059247542172670364,0.2619372010231018,5.353203773498535,-0.6666991710662842,0.2895256280899048,-0.25686884,0.18448131,53.61801,-104.4239,13.428523,STD
608979845120.0,0.06283538043498993,0.28713908791542053,5.548033714294434,-0.6926605701446533,0.29157668352127075,-0.66706485,-0.06566802,53.73043000000001,-104.37998,13.380999,STD
628519600128.0,0.0664953663945198,0.3130815029144287,5.738659858703613,-0.7177586555480957,0.2918088734149933,-0.70157874,-0.16493362,53.859226,-104.31159,13.307588,STD
647633829888.0,0.07022413611412048,0.3397188186645508,5.924826622009277,-0.741923987865448,0.29062578082084656,-0.5723807,-0.1777618,54.051914,-104.19519,13.184393,STD
666311196672.0,0.0740184485912323,0.3670077323913574,6.106317520141602,-0.7650965452194214,0.2879640758037567,-0.5155702999999999,-0.17654006,54.269753,-104.04225,13.038131,STD
684542787584.0,0.07787522673606873,0.39490747451782227,6.2829508781433105,-0.7872248888015747,0.28380414843559265,-0.44226643,-0.18448131,54.441013,-103.89649,12.8933325,STD
702321983488.0,0.08179136365652084,0.4233783781528473,6.454578876495361,-0.8082666993141174,0.2781439423561096,-0.42485678,-0.19211712,54.6093,-103.74697,12.752747,STD
719644196864.0,0.08576404303312302,0.45238402485847473,6.621082782745361,-0.8281860947608948,0.2711872458457947,-0.43463063,-0.15210545,54.76293,-103.612434,12.628322,STD
736506675200.0,0.08979041129350662,0.4818890392780304,6.782371997833252,-0.8469550609588623,0.2631226181983948,-0.44959682,-0.10415252,54.91096,-103.4753,12.507851,STD
752908435456.0,0.09386773407459259,0.5118600130081177,6.938380718231201,-0.8645517230033875,0.2541036903858185,-0.44868052,-0.09162979,55.055298,-103.34317,12.391948,STD
768849870848.0,0.0979933962225914,0.5422653555870056,7.089066028594971,-0.8809601068496704,0.24432653188705444,-0.39278635,-0.084910266,55.186916,-103.22845,12.291722,STD
784332750848.0,0.10216495394706726,0.5730758309364319,7.234404563903809,-0.8961688876152039,0.2340058982372284,-0.30757064,-0.09040806,55.30761,-103.11833,12.194768,STD
799360024576.0,0.10638009756803513,0.6042641401290894,7.374390602111816,-0.9101713299751282,0.2233220934867859,-0.22418754,-0.070554934,55.411522,-103.021324,12.110584,STD
813935689728.0,0.11063659936189651,0.6358043551445007,7.509035587310791,-0.9229651689529419,0.21235501766204834,-0.16523905,-0.051923547,55.49609,-102.92578,12.028185,STD
828064727040.0,0.11493222415447235,0.6676713228225708,7.638366222381592,-0.9345524907112122,0.20114120841026306,-0.14935656,-0.05009095,55.56792,-102.83533,11.949632,STD
841752903680.0,0.11926514655351639,0.6998437643051147,7.7624192237854,-0.9449369311332703,0.18971508741378784,-0.20005837,-0.05100725,55.64158000000001,-102.751495,11.877239,STD
855006642176.0,0.1236332356929779,0.7322987914085388,7.881247043609619,-0.9541276097297668,0.1780685931444168,-0.30390546,-0.06597344599999999,55.725147,-102.66394,11.80223,STD
867833020416.0,0.1280347853899002,0.7650172710418701,7.994908809661865,-0.9621344208717346,0.16616147756576538,-0.43157628,-0.07880162,55.82959,-102.57644,11.727545,STD
880239575040.0,0.1324682980775833,0.7979823350906372,8.103470802307129,-0.9689685702323914,0.15401355922222137,-0.5479460999999999,-0.089491755,55.959385,-102.48704,11.64884,STD
892234432512.0,0.13693208992481232,0.8311761021614075,8.207011222839355,-0.9746453762054443,0.14160104095935822,-0.6407976,-0.08399397,56.117775,-102.39535,11.570569,STD
903825915904.0,0.14142431318759918,0.8645802140235901,8.305615425109863,-0.9791833162307739,0.12897758185863495,-0.68477994,-0.07360926,56.293358,-102.30507,11.490961,STD
915022807040.0,0.145945742726326,0.8981956243515015,8.399351119995117,-0.9825868606567383,0.11624296009540558,-0.6713409,-0.07574729,56.476406,-102.21347,11.410356,STD
925833953280.0,0.15049248933792114,0.931990385055542,8.488336563110352,-0.9848908185958862,0.10351035743951797,-0.59528816,-0.06566802,56.651684,-102.130035,11.338279,STD
936268595200.0,0.15506316721439362,0.9659507870674133,8.572669982910156,-0.9861162304878235,0.09085281193256378,-0.43401974,-0.021380283,56.796158,-102.05725,11.279125,STD
946335973376.0,0.1596601903438568,1.0000907182693481,8.652417182922363,-0.9862625598907471,0.07842300087213516,-0.26206118,0.010079277,56.91291999999999,-101.99061,11.222506,STD
956045459456.0,0.1642783284187317,1.0343698263168335,8.727721214294434,-0.9853768348693848,0.06639358401298523,-0.1872302,0.022602014,57.0099,-101.934586,11.175623,STD
965406556160.0,0.16891637444496155,1.0687769651412964,8.798688888549805,-0.9834825992584229,0.05484126880764961,-0.09468412,0.03023783,57.051323,-101.88843,11.141208,STD
974428700672.0,0.17357341945171356,1.10330331325531,8.865426063537598,-0.980602502822876,0.043937377631664276,-0.04734206,0.02076942,57.08342,-101.85117,11.10683,STD
983121330176.0,0.1782485991716385,1.1379406452178955,8.92803955078125,-0.976759672164917,0.03368738293647766,-0.036651913,0.0842994,57.100735,-101.83417,11.097322,STD
991493881856.0,0.18294094502925873,1.172680139541626,8.986639022827148,-0.971978485584259,0.024237213656306267,-0.019242255,0.07727446,57.10057,-101.80794,11.066812,STD
999555727360.0,0.187649205327034,1.2075114250183105,9.041336059570312,-0.9662854671478271,0.01577608846127987,-0.0009162979,0.01985312,57.09725600000001,-101.78915,11.040586,STD
1007316172800.0,0.19237278401851654,1.2424288988113403,9.09223747253418,-0.9597035646438599,0.0082768015563488,-0.0027488936,0.0018325958,57.095398,-101.779015,11.023935,STD
1014784393216.0,0.19711089134216309,1.2773990631103516,9.139484405517578,-0.9522871971130371,0.001665423042140901,-0.028405234,-0.01160644,57.09403,-101.762276,10.992865,STD
1021969498112.0,0.20186275243759155,1.3122994899749756,9.183324813842773,-0.9441904425621033,-0.00422131922096014,-0.060170225999999986,-0.020463986,57.09467,-101.741066,10.958681,STD
1028880400384.0,0.20662757754325867,1.3470209836959839,9.223989486694336,-0.9355533123016357,-0.009475545957684517,-0.07452556,-0.016798794,57.02113000000001,-101.82877,11.081208,STD
1035525881856.0,0.21140702068805695,1.3814629316329956,9.261696815490723,-0.9265108108520508,-0.014161717146635056,-0.046120327,-0.015577064,56.947357,-101.90931,11.196298,STD
1041914593280.0,0.21619781851768494,1.4155418872833252,9.296648025512695,-0.9171695113182068,-0.018335772678256035,-0.025350908,-0.022296581,56.88274000000001,-101.98599,11.305473,STD
1048054988800.0,0.22099938988685608,1.4491809606552124,9.329032897949219,-0.9076337218284607,-0.022043250501155853,-0.014049901000000002,-0.021991149,56.81567,-102.06303,11.413362,STD
1053955457024.0,0.22581122815608978,1.4823126792907715,9.359029769897461,-0.8979976773262024,-0.025321971625089645,0.013439035,-0.0027488936,56.7762983614915,-102.10245179346201,11.4673432749175,STD
1059624058880.0,0.23063278198242188,1.5148779153823853,9.38680362701416,-0.8883457779884338,-0.028179313987493515,0.025961773,-0.0061086523,56.73716999999999,-102.14163,11.520991,STD
1065068789760.0,0.23546354472637177,1.5468252897262573,9.412508964538574,-0.8787539601325989,-0.03062048926949501,0.04550946,0.004581489,56.66398,-102.21729,11.623435,STD
1070297382912.0,0.24030297994613647,1.5781105756759644,9.436290740966797,-0.8692898154258728,-0.03267476707696915,0.054367006,0.0070249503,56.58521,-102.29354,11.725086,STD
1075317440512.0,0.24515080451965332,1.6086957454681396,9.458285331726074,-0.8600142598152161,-0.034336529672145844,0.0711658,0.011301007,56.501408,-102.37341,11.8274,STD
1080136302592.0,0.2500065565109253,1.6385489702224731,9.478617668151855,-0.8509808778762817,-0.03562180697917938,0.08093964,0.01038471,56.419674,-102.45044,11.925682,STD
1084761178112.0,0.2548697590827942,1.6676437854766846,9.497406005859375,-0.8422368764877319,-0.03653910011053085,0.08032878,0.009773844,56.33876400000001,-102.52833,12.022251,STD
1089199079424.0,0.25974008440971375,1.6959584951400757,9.514760971069336,-0.8338240385055542,-0.0371161550283432,0.08674286,0.008857545999999999,56.25546,-102.604195,12.115792,STD
1093456756736.0,0.26461729407310486,1.723475694656372,9.53078556060791,-0.8257791996002197,-0.03733370453119278,0.09254608,0.013133603,56.174965,-102.68159,12.207789,STD
1097540894720.0,0.2695009112358093,1.7501825094223022,9.545575141906738,-0.8181334733963013,-0.037203263491392136,0.103847094,0.015577064,56.09324599999999,-102.755974,12.296511,STD
1101457784832.0,0.2743907868862152,1.7760692834854126,9.559219360351562,-0.8109146356582642,-0.03669797629117966,0.1142318,0.022296581,56.01244000000001,-102.833435,12.3851795,STD
1105213784064.0,0.2792873978614807,1.80112886428833,9.57180118560791,-0.8041484951972961,-0.035872895270586014,0.12370021,0.018936822,55.930634,-102.905685,12.469352,STD
1108814856192.0,0.2841893136501312,1.825359582901001,9.583398818969727,-0.7978506684303284,-0.034722764045000076,0.116980694,0.02107485,55.85286,-102.98268,12.554533,STD
1112266899456.0,0.28909626603126526,1.8487608432769775,9.594084739685059,-0.7920374870300293,-0.03328109160065651,0.113926366,0.031154128,55.773415,-103.057945,12.638948,STD
1115575549952.0,0.2940080165863037,1.8713345527648926,9.603926658630371,-0.78672194480896,-0.031594354659318924,0.11209377,0.032070424,55.697414,-103.13025,12.71907,STD
1118746312704.0,0.2989242672920227,1.8930848836898804,9.612987518310547,-0.781914234161377,-0.029676279053092003,0.105374254,0.03848451,55.62584,-103.206,12.80133,STD
1121784561664.0,0.3038448393344879,1.9140177965164185,9.621325492858887,-0.7776222825050354,-0.027561509981751442,0.100792766,0.037873644,55.55583000000001,-103.277565,12.87972,STD
1124695408640.0,0.3087696433067322,1.934140682220459,9.628995895385742,-0.7738521695137024,-0.02529206871986389,0.09010262,0.04520403,55.49145,-103.351616,12.959924,STD
1127483703296.0,0.31369832158088684,1.953463077545166,9.636049270629883,-0.7706068158149719,-0.022909527644515038,0.08277224,0.047036625,55.428883,-103.42215,13.036339,STD
1130154426368.0,0.3186306655406952,1.9719953536987305,9.642533302307129,-0.7678878307342529,-0.020434986799955368,0.07666359,0.05009095,55.37064,-103.49346,13.113041,STD
1132712034304.0,0.3235666751861572,1.9897490739822388,9.648491859436035,-0.7656957507133484,-0.01793098822236061,0.06811147,0.04795292,55.316536,-103.56077,13.18665,STD
1135161114624.0,0.328506201505661,2.0067367553710938,9.653965950012207,-0.7640292048454285,-0.01545540802180767,0.07086037,0.053145275,55.262306,-103.62931,13.261385,STD
1137505992704.0,0.3334488272666931,2.022972345352173,9.6589937210083,-0.7628844380378723,-0.013012327253818512,0.06414085,0.046731193,55.214294,-103.69253,13.330013,STD
1139750731776.0,0.33839425444602966,2.0384702682495117,9.663610458374023,-0.7622570991516113,-0.01064174622297287,0.06566802,0.047647487,55.164387,-103.755806,13.400512,STD
1141899395072.0,0.3433423936367035,2.0532453060150146,9.667848587036133,-0.7621421813964844,-0.00838711392134428,0.07422013,0.04886922,55.11536,-103.81579,13.467473000000002,STD
1143955914752.0,0.3482932448387146,2.067312717437744,9.67173957824707,-0.7625341415405273,-0.006237601861357689,0.07941248,0.046731193,55.0679,-103.873985,13.531951,STD
1145924091904.0,0.3532501459121704,2.080683946609497,9.675312042236328,-0.7634376287460327,-0.0042378525249660015,0.0983493,0.03390302,55.014812,-103.92601,13.592316,STD
1147807334400.0,0.3582092821598053,2.0933797359466553,9.67859172821045,-0.7648328542709351,-0.0024135750718414783,0.09590584,0.03176499,54.967724,-103.97956,13.653207,STD
1149609181184.0,0.3631702959537506,2.105416774749756,9.68160343170166,-0.7667109966278076,-0.0007933840388432145,0.11911872,0.0290161,54.90852,-104.02701,13.709362,STD
1151333040128.0,0.3681331276893616,2.1168112754821777,9.684369087219238,-0.7690635323524475,0.0005386677221395075,0.14813483,0.018936822,54.849365,-104.06872,13.761323999999998,STD
1152982056960.0,0.3730977475643158,2.127580165863037,9.686910629272461,-0.7718815207481384,0.0015418954426422715,0.15149458,0.014049901000000002,54.792286,-104.109955,13.812461,STD
1154559377408.0,0.37806403636932373,2.137739896774292,9.68924617767334,-0.7751554846763611,0.0021946479100733995,0.16798794,0.0018325958,54.724064,-104.14367,13.857797,STD
1156067885056.0,0.3830317556858063,2.1473076343536377,9.691394805908203,-0.7788750529289246,0.0024845879524946213,0.1908954,0.004581489,54.654633,-104.178215,13.904742,STD
1157510594560.0,0.388001024723053,2.156299591064453,9.69337272644043,-0.7830308675765991,0.00238433969207108,0.20586158,-0.009773844,54.583885,-104.202515,13.9421015,STD
1158890127360.0,0.3929717242717743,2.164741277694702,9.695197105407715,-0.787599503993988,0.0018938962602987885,0.22937989,-0.015271631,54.505787,-104.229034,13.981889,STD
1160209104896.0,0.3979438245296478,2.1727046966552734,9.696887969970703,-0.792489767074585,0.000987469102256,0.23793201,-0.025961773,54.429264,-104.24791,14.014857,STD
1161470148608.0,0.40291720628738403,2.18025541305542,9.698463439941406,-0.797619104385376,-0.0003273801412433386,0.25076020000000004,-0.029321533,54.32825500000001,-104.26037,14.032196,STD
1162675748864.0,0.4078918695449829,2.1874539852142334,9.69994068145752,-0.8029126524925232,-0.0020158232655376196,0.26542094,-0.038789943,54.22571,-104.26731,14.044577,STD
1163828133888.0,0.41286760568618774,2.19435453414917,9.701335906982422,-0.8083032369613647,-0.004082884173840284,0.2779437,-0.05100725,54.121765,-104.2712,14.055085,STD
1164929662976.0,0.4178445637226105,2.2010080814361572,9.702662467956543,-0.8137297034263611,-0.006517244502902031,0.29535335,-0.05925392700000001,54.01387800000001,-104.27367,14.064054,STD
1165982433280.0,0.42282283306121826,2.2074601650238037,9.703933715820312,-0.8191371560096741,-0.009322463534772396,0.31948254,-0.069027774,53.90211,-104.27133,14.069176,STD
1166988541952.0,0.4278022050857544,2.213752031326294,9.705161094665527,-0.8244771957397461,-0.012461640872061253,0.33444872,-0.076358154,53.78988,-104.26762,14.072562,STD
1167950086144.0,0.43278253078460693,2.2199208736419678,9.706355094909668,-0.8297064304351807,-0.015919841825962067,0.3576616,-0.08002335,53.670216,-104.261314,14.074467000000002,STD
1168868769792.0,0.4377637803554535,2.2260007858276367,9.707525253295898,-0.8347861170768738,-0.019694916903972626,0.40530908,-0.09407325,53.54097,-104.24998,14.071675,STD
1169746558976.0,0.4427459239959717,2.232022523880005,9.708680152893066,-0.8396819233894348,-0.02374587580561638,0.42088616,-0.10751228,53.41666,-104.238266,14.067839,STD
1170585288704.0,0.4477289021015167,2.238013744354248,9.70982837677002,-0.8443636894226074,-0.028032589703798294,0.46883908,-0.10170906,53.27141999999999,-104.2279,14.06638,STD
1171386531840.0,0.45271262526512146,2.2439992427825928,9.710975646972656,-0.8488050699234009,-0.03249327093362808,0.5323690999999999,-0.11911872,53.11925,-104.208015,14.054831,STD
1172151992320.0,0.4576972424983978,2.250001907348633,9.712129592895508,-0.8529825210571289,-0.037115417420864105,0.57543504,-0.1255328,52.962074,-104.19277,14.048407999999998,STD
1172883111936.0,0.4626825749874115,2.2560412883758545,9.713294982910156,-0.8568766117095947,-0.04185179993510246,0.6267477,-0.13652839,52.78671,-104.17281,14.036598,STD
1173581463552.0,0.4676686227321625,2.2621355056762695,9.714476585388184,-0.8604701161384583,-0.046689264476299286,0.68477994,-0.13041973,52.60021,-104.155914,14.02851,STD
1174248488960.0,0.4726552963256836,2.2682998180389404,9.715679168701172,-0.8637487888336182,-0.05159143730998039,0.74281216,-0.13591751,52.402,-104.13393,14.014693,STD
1174885629952.0,0.4776424765586853,2.274548292160034,9.716907501220703,-0.8667008280754089,-0.05649344250559807,0.79626286,-0.13439035,52.192104,-104.11665,14.005334,STD
1175494066176.0,0.4826301336288452,2.280893087387085,9.71816349029541,-0.8693164587020874,-0.0613657608628273,0.85062987,-0.13316862,51.968983,-104.09829,13.995069,STD
1176075108352.0,0.48761826753616333,2.2873449325561523,9.719450950622559,-0.8715876936912537,-0.06618115305900574,0.8961393,-0.13683382,51.737114,-104.08031,13.984479,STD
1176629936128.0,0.4926069974899292,2.2939136028289795,9.720772743225098,-0.873508095741272,-0.07091449946165085,0.9505063,-0.13897185,51.49128,-104.06405,13.975441,STD
1177159729152.0,0.49759626388549805,2.3006069660186768,9.72213077545166,-0.8750733137130737,-0.07549060136079788,1.0054842,-0.13561209,51.23671,-104.049866,13.967584,STD
1177665667072.0,0.5025860071182251,2.307431936264038,9.723526954650879,-0.8762804865837097,-0.07985465973615646,1.0497719,-0.1386664,50.974266,-104.03407,13.957913,STD
1178148667392.0,0.5075761079788208,2.314393997192383,9.724963188171387,-0.8771280646324158,-0.08397290110588074,1.1044444,-0.13744467,50.69787,-104.02181,13.951254999999998,STD
1178609778688.0,0.5125666260719299,2.321497917175293,9.7264404296875,-0.8776155114173889,-0.08783657848834991,1.1487321,-0.12705997,50.416943,-104.012474,13.946991,STD
1179050049536.0,0.517557680606842,2.3287482261657715,9.727959632873535,-0.8777430057525635,-0.09142556041479111,1.1856893999999998,-0.12034045,50.12767,-104.00379,13.942796,STD
1179470397440.0,0.5225495100021362,2.336148262023926,9.729522705078125,-0.8775116205215454,-0.09466100484132767,1.2287555,-0.105374254,49.82943,-104.001915,13.94466,STD
1179871739904.0,0.5275419354438782,2.3437001705169678,9.73112964630127,-0.8769240379333496,-0.09748104214668274,1.2632693000000002,-0.10415252,49.528633,-103.99894,13.945065,STD
1180254863360.0,0.5325362682342529,2.351409435272217,9.732781410217285,-0.8759801387786865,-0.09983575344085693,1.2993103,-0.08827003,49.220848,-104.00586,13.95461,STD
1180620554240.0,0.5375306606292725,2.359271764755249,9.734477043151855,-0.874688446521759,-0.1016261950135231,1.3307699,-0.08002335,48.910206,-104.01283,13.962972,STD
1180969598976.0,0.542525053024292,2.3672876358032227,9.736217498779297,-0.8730533719062805,-0.10274447500705719,1.3536774,-0.064751714,48.59771,-104.02782,13.978506,STD
1181302784000.0,0.5475194454193115,2.3754570484161377,9.738001823425293,-0.8710798621177673,-0.10319295525550842,1.3997977,-0.052534413,48.27523,-104.04525,13.996356,STD
1181620764672.0,0.5525140762329102,2.3837802410125732,9.739830017089844,-0.8687728047370911,-0.102889783680439,1.4312572,-0.04520403,47.95647,-104.068436,14.017872,STD
1181924327424.0,0.5575089454650879,2.392256498336792,9.74170207977295,-0.8661378026008606,-0.10177847743034363,1.4459181,-0.042760565999999986,47.63533,-104.09476,14.042208,STD
1182214127616.0,0.5625041127204895,2.4008848667144775,9.74361801147461,-0.863180935382843,-0.09979075193405151,1.4792101,-0.03268129,47.305733,-104.1276,14.071813,STD
1182490689536.0,0.5674992799758911,2.409662961959839,9.745576858520508,-0.8599092364311218,-0.0969095453619957,1.491733,-0.025045475,46.98415,-104.16218,14.102163,STD
1182754668544.0,0.5724945068359375,2.4185893535614014,9.747578620910645,-0.8563292026519775,-0.0931333675980568,1.4926492,-0.02107485,46.66241,-104.20094,14.135345,STD
1183006588928.0,0.5774897336959839,2.427661895751953,9.749622344970703,-0.8524477481842041,-0.0885111466050148,1.4935656000000002,-0.018020526,46.343185,-104.24335,14.171414000000002,STD
1183246974976.0,0.582485020160675,2.4368784427642822,9.751707077026367,-0.8482717871665955,-0.08311428874731064,1.4694363,-0.0076358155,46.037178,-104.29092,14.211476,STD
1183476482048.0,0.587480366230011,2.4462366104125977,9.753832817077637,-0.8438082337379456,-0.07704021781682968,1.4511104,-0.011301007,45.735,-104.33676,14.249319,STD
1183695503360.0,0.5924758315086365,2.4557299613952637,9.75601577758789,-0.8390747904777527,-0.07035389542579651,1.428203,-0.018020526,45.447014,-104.386406,14.289867,STD
1183904563200.0,0.5974713563919067,2.465332508087158,9.758349418640137,-0.8341380953788757,-0.06312481313943863,1.4165965,-0.02107485,45.16653,-104.43699,14.331123000000002,STD
1184104185856.0,0.6024953722953796,2.475050449371338,9.761129379272461,-0.8291086554527283,-0.05545583739876747,1.4065173,-0.035124752999999995,44.364307,-104.65278,14.53095,STD
1184294633472.0,0.6075446009635925,2.484858751296997,9.764406204223633,-0.8240351676940918,-0.047439537942409515,1.3888022,-0.043982297,44.110775,-104.720146,14.592969,STD
1184476430336.0,0.6126164793968201,2.4947354793548584,9.768226623535156,-0.818962037563324,-0.039155539125204086,1.3741413,-0.053450707,43.86593,-104.786446,14.653919,STD
1184649969664.0,0.6177083253860474,2.5046603679656982,9.772627830505371,-0.8139286041259766,-0.030680296942591667,1.3393221000000002,-0.056199603,43.63703,-104.85149,14.713562,STD
1184815644672.0,0.6228177547454834,2.514615058898926,9.777643203735352,-0.8089702129364014,-0.022108901292085648,1.289842,-0.05497787,43.42132,-104.91408,14.771043,STD
1184973848576.0,0.627942681312561,2.524583339691162,9.78330135345459,-0.804118275642395,-0.013512106612324715,1.2687671,-0.057421334,43.21163,-104.97444,14.826325,STD
1185124843520.0,0.6330811381340027,2.534550189971924,9.789626121520996,-0.7994007468223572,-0.004923902917653322,1.2018774,-0.05681047,43.03396,-105.03537,14.881453,STD
1185269022720.0,0.6382313370704651,2.5445024967193604,9.796635627746582,-0.7948421835899353,0.0035966436844319105,1.1252137,-0.064446285,42.86884000000001,-105.09195,14.932745,STD
1185406648320.0,0.6433915495872498,2.5544285774230957,9.804344177246094,-0.7904641032218933,0.011974232271313667,1.0613784,-0.06780604,42.72276,-105.14905,14.984405,STD
1185538113536.0,0.6485603451728821,2.5643179416656494,9.812765121459961,-0.7862855195999146,0.020070649683475494,0.99021256,-0.06688975,42.60388,-105.203156,15.033692000000002,CSI
1185663680512.0,0.6537363529205322,2.5741610527038574,9.821906089782715,-0.7823227047920227,0.027723781764507294,0.8906415000000001,-0.071776666,42.51412,-105.25266,15.078786,CSI
1185783480320.0,0.658918559551239,2.5839502811431885,9.83177375793457,-0.778590202331543,0.03476877510547638,0.8014551999999999,-0.062002823,42.443935,-105.30362,15.126957,CSI
1185897906176.0,0.6641058325767517,2.5936779975891113,9.842370986938477,-0.7750998139381409,0.04103097692131996,0.7247916,-0.06750060599999999,42.40003,-105.34504,15.167517000000002,CSI
1186007220224.0,0.6692970991134644,2.6033382415771484,9.85369873046875,-0.7718615531921387,0.046377766877412796,0.66828656,-0.06261369,42.37695,-105.38859,15.211984,CSI
1186111553536.0,0.6744914054870605,2.6129252910614014,9.865755081176758,-0.7688835859298706,0.050655581057071686,0.61911196,-0.07147124,42.37385,-105.42172,15.24893,CSI
1186211168256.0,0.6796878576278687,2.622434616088867,9.878535270690918,-0.766172468662262,0.05382698029279709,0.5885687,-0.08277224,42.381382,-105.452896,15.284803,CSI
1186306326528.0,0.6848856806755066,2.631862163543701,9.892035484313965,-0.763733446598053,0.05579822510480881,0.5684100999999999,-0.09590584,42.399445,-105.47555,15.315719,CSI
1186397290496.0,0.6900842189788818,2.641204833984375,9.906248092651367,-0.7615703344345093,0.056546833366155624,0.57910025,-0.11148291,42.41628,-105.492226,15.341318,CSI
1186484191232.0,0.6952828168869019,2.6504597663879395,9.921164512634277,-0.7596859931945801,0.05606566369533539,0.5879578000000001,-0.12705997,42.43853,-105.501686,15.361498999999998,CSI
1186567159808.0,0.7004811763763428,2.6596248149871826,9.93677806854248,-0.7580823302268982,0.054364822804927826,0.6093381,-0.15057829,42.452892,-105.50215,15.373864,CSI
1186646458368.0,0.7056784629821777,2.6686980724334717,9.953075408935547,-0.7567594647407532,0.05148719996213913,0.62888575,-0.16187929,42.464577,-105.499954,15.38407,CSI
1186722217984.0,0.7108742594718933,2.677678346633911,9.970046043395996,-0.7557172179222107,0.04747803881764412,0.63804877,-0.1826487,42.47237,-105.48685,15.383810999999998,CSI
1186794700800.0,0.7160681486129761,2.6865646839141846,9.987678527832031,-0.7549546360969543,0.04240279272198677,0.64843345,-0.19792034,42.473896,-105.47135,15.381023999999998,CSI
1186863906816.0,0.7212597727775574,2.6953563690185547,10.005959510803223,-0.7544699907302856,0.036286719143390656,0.6737844,-0.20280726,42.468235,-105.45188,15.37454,CSI
1186930098176.0,0.7264489531517029,2.7040536403656006,10.024876594543457,-0.7542611360549927,0.029172761365771294,0.71685034,-0.20769419,42.45432,-105.42806000000002,15.363059,CSI
1186993405952.0,0.731635332107544,2.712656259536743,10.044415473937988,-0.7543252110481262,0.021097902208566666,0.7476991,-0.2012801,42.437023,-105.40569,15.352667000000002,CSI
1187053830144.0,0.7368189096450806,2.7211649417877197,10.06456470489502,-0.7546591758728027,0.012074597179889679,0.7987063,-0.20158553,42.401688,-105.37991,15.338535999999998,CSI
1187111632896.0,0.7419992089271545,2.7295799255371094,10.085308074951172,-0.7552589774131775,0.002203448908403516,0.86345804,-0.19608775,42.354256,-105.35841,15.327262,CSI
1187166945280.0,0.7471797466278076,2.737905979156494,10.106657981872559,-0.756126880645752,-0.008480222895741463,0.9477574,-0.16982053,42.28743,-105.342575,15.321191,CSI
1187219898368.0,0.7523565292358398,2.7461397647857666,10.128571510314941,-0.7572517395019531,-0.019905151799321175,0.96883225,-0.16035213,42.222027,-105.32459,15.310928,CSI
1187270492160.0,0.7575292587280273,2.7542824745178223,10.151032447814941,-0.7586284875869751,-0.03199755400419235,1.0030408000000002,-0.13683382,42.130314,-105.318756,15.311421,CSI
1187318988800.0,0.7626981139183044,2.7623355388641357,10.174028396606445,-0.7602526545524597,-0.04464689642190933,1.0152581,-0.11453723,42.04148,-105.316086,15.313043,CSI
1187365388288.0,0.7678629755973816,2.7703003883361816,10.19754409790039,-0.7621190547943115,-0.05771263316273689,1.0290025,-0.07422013,41.94483,-105.32592,15.325295,CSI
1187409821696.0,0.773023784160614,2.7781784534454346,10.221565246582031,-0.7642225027084351,-0.0711292028427124,1.0054842,-0.034208454,41.85837,-74.65756999999998,15.342408,CSI
1187452289024.0,0.7781802415847778,2.78597092628479,10.246074676513672,-0.7665570974349976,-0.08481776714324951,0.9651671,0.008552114,41.77551,-74.62859,15.370338,CSI
1187493052416.0,0.7833324074745178,2.793679714202881,10.271059036254883,-0.7691173553466797,-0.09868260473012924,0.8863655,0.06169739,41.713448,-74.58554000000002,15.411018,CSI
1187532111872.0,0.7884803414344788,2.8013055324554443,10.296424865722656,-0.7718986868858337,-0.11256369203329086,0.78801614,0.099571034,41.671135,-74.5356,15.457742,CSI
1187569467392.0,0.7936239838600159,2.808844804763794,10.321749687194824,-0.7748993635177612,-0.1262863278388977,0.6963864000000001,0.13408493,41.6515,-74.47299,15.516659,CSI
1187605250048.0,0.7987633347511292,2.8162946701049805,10.34665298461914,-0.778117299079895,-0.13964320719242096,0.61361414,0.14782938,41.59493300000001,-74.42603000000003,15.560885,CSI
1187639590912.0,0.803898811340332,2.823652744293213,10.370787620544434,-0.7815507054328918,-0.15239578485488892,0.55863625,0.15821409,41.55888,-74.37255,15.612464,CSI
1187672489984.0,0.8090301752090454,2.8309173583984375,10.393857955932617,-0.7851962447166443,-0.16431376338005066,0.5369505,0.16584991,41.538452,-74.31851999999998,15.665625,CSI
1187704078336.0,0.8141574859619141,2.8380868434906006,10.415596008300781,-0.789050817489624,-0.17520873248577118,0.5314528000000001,0.16249016,41.530033,-74.26729,15.717115,CSI
1187734355968.0,0.8192811012268066,2.845160484313965,10.435759544372559,-0.7931115031242371,-0.1850222796201706,0.5338961999999999,0.13744467,41.526024,-74.22216999999998,15.763156,CSI
1187763453952.0,0.8244009017944336,2.852137565612793,10.454143524169922,-0.797374427318573,-0.1937875598669052,0.53023106,0.115453534,41.5256,-74.17898000000002,15.80789,CSI
1187791372288.0,0.8295167684555054,2.859017848968506,10.470573425292969,-0.8018353581428528,-0.2016109824180603,0.5149594,0.093767814,41.528107,-74.143906,15.844607,CSI
1187818242048.0,0.8346287608146667,2.8658010959625244,10.484891891479492,-0.8064903020858765,-0.20865130424499512,0.4972443,0.08277224,41.53254,-74.11263000000002,15.877346,CSI
1187844063232.0,0.8397369980812073,2.872487783432007,10.496964454650879,-0.8113350868225098,-0.2149932086467743,0.44806966,0.06841691,41.550938,-74.08910999999998,15.902421,CSI
1187868835840.0,0.844841480255127,2.8790783882141113,10.506677627563477,-0.8163654804229736,-0.2207379788160324,0.39461896,0.05955936,41.57576,-74.06728000000003,15.925369,CSI
1187892690944.0,0.8499423265457153,2.885573625564575,10.513936996459961,-0.8215770721435547,-0.2260197401046753,0.3585779000000001,0.070554934,41.609547,-74.04414,15.949407999999998,CSI
1187915628544.0,0.8550414443016052,2.8919756412506104,10.518622398376465,-0.8269693851470947,-0.23098601400852203,0.3032946,0.07727446,41.66419000000001,-74.02502,15.969293,CSI
1187937648640.0,0.8601369261741638,2.898284435272217,10.520715713500977,-0.8325338363647461,-0.2357187718153,0.23365596,0.10598512,41.732723,-73.996994,15.998014,CSI
1187958882304.0,0.8652289509773254,2.90450119972229,10.520164489746094,-0.8382660746574402,-0.24034155905246735,0.15790866,0.1423316,41.818123,-73.96526999999998,16.030098000000002,CSI
1187979329536.0,0.8703177571296692,2.9106273651123047,10.51693058013916,-0.8441619277000427,-0.244972363114357,0.062002823,0.16829337,41.928413,-73.92926,16.066446,CSI
1187998990336.0,0.8754034638404846,2.9166646003723145,10.510987281799316,-0.8502169847488403,-0.2497195154428482,-0.026572637000000003,0.204029,42.0567,-73.88125600000002,16.11463,CSI
1188017995776.0,0.8804858922958374,2.922614097595215,10.502324104309082,-0.8564262986183167,-0.2546754479408264,-0.09712757,0.23884831,42.205235,-73.827614,16.168318,CSI
1188036345856.0,0.8855651617050171,2.9284777641296387,10.490936279296875,-0.8627854585647583,-0.25988075137138367,-0.14446963,0.269697,42.369736,-73.76682,16.229094,CSI
1188054040576.0,0.8906413912773132,2.9342575073242188,10.476825714111328,-0.8692901134490967,-0.26530951261520386,-0.17989981,0.30787608,42.54779,-73.69626,16.29961,CSI
1188071079936.0,0.8957146406173706,2.939954996109009,10.460002899169922,-0.8759358525276184,-0.270932674407959,-0.20708331,0.33750305,42.733356,-73.6218,16.373935999999997,CSI
1188087595008.0,0.900784969329834,2.9455718994140625,10.440485000610352,-0.8827183246612549,-0.2766377627849579,-0.20189096,0.3717115,42.915493,-73.538124,16.457644000000002,CSI
1188103454720.0,0.9058525562286377,2.951110363006592,10.418292999267578,-0.8896334171295166,-0.2822907865047455,-0.14905111,0.3915646,43.087105,-73.45315,16.542665,CSI
1188118790144.0,0.910917341709137,2.9565722942352295,10.39345645904541,-0.896676778793335,-0.2876390516757965,-0.05925392700000001,0.40439278,43.24182,-73.36395,16.632273,CSI
1188133601280.0,0.9159796237945557,2.9619596004486084,10.366005897521973,-0.9038445353507996,-0.2924153208732605,0.052534413,0.41630468,43.370316,-73.27266,16.724121,CSI
1188148019200.0,0.9210395812988281,2.9672744274139404,10.335973739624023,-0.9111330509185791,-0.2963661253452301,0.16096300000000002,0.42363504,43.469814,-73.18223,16.815367000000002,CSI
1188161912832.0,0.9260984659194946,2.9725193977355957,10.303374290466309,-0.9185406565666199,-0.29930126667022705,0.2669481,0.4370741,43.53427,-73.089424,16.909063,CSI
1188175413248.0,0.9311549067497253,2.9776957035064697,10.26828384399414,-0.9260604977607727,-0.3011278510093689,0.30940324,0.45356745,43.583748,-72.9959,17.003431,CSI
1188188520448.0,0.9362090229988098,2.982805013656616,10.230748176574707,-0.933688759803772,-0.3018532991409302,0.37751472,0.46181414,43.593018,-72.90269,17.097170000000002,CSI
1188201234432.0,0.941260814666748,2.987849473953247,10.190814018249512,-0.9414217472076416,-0.30159586668014526,0.39675698,0.49296826,43.603706,-107.200325,17.200315,CSI
1188213555200.0,0.9463104009628296,2.992830991744995,10.148531913757324,-0.9492558836936951,-0.30041229724884033,0.41630468,0.52595496,43.59392,-107.304924,17.304570000000002,CSI
1188225482752.0,0.9513583779335022,2.9977517127990723,10.103940963745117,-0.957188606262207,-0.2983187437057495,0.45265114,0.56230146,43.573463,-107.41799,17.416801,CSI
1188237148160.0,0.956404447555542,3.002613067626953,10.057103157043457,-0.9652157425880432,-0.2952689528465271,0.5018258,0.589485,43.54361,-107.53647,17.53385,CSI
1188248420352.0,0.9614485502243042,3.0074172019958496,10.008074760437012,-0.9733336567878723,-0.2911851704120636,0.5195409000000001,0.6337727,43.512897,-107.668846,17.66404,CSI
1188259430400.0,0.9664907455444336,3.0121657848358154,9.9569091796875,-0.9815390706062317,-0.2859424948692322,0.514654,0.68844515,43.475212,-107.810974,17.802868,CSI
1188270178304.0,0.9715314507484436,3.0168607234954834,9.903653144836426,-0.9898295998573303,-0.27937591075897217,0.51007247,0.752586,43.43328,-107.96785,17.954864999999995,CSI
1188280664064.0,0.9765706658363342,3.0215039253234863,9.848362922668457,-0.9982019662857056,-0.2712831497192383,0.48716503,0.80878556,43.399517,-108.13803,18.117723,CSI
1188290756608.0,0.9816080927848816,3.0260965824127197,9.791101455688477,-1.0066524744033813,-0.26153063774108887,0.44226643,0.8943066999999999,43.37517,-108.33513,18.304571,CSI
1188300718080.0,0.9866438508033752,3.0306406021118164,9.73192310333252,-1.0151782035827637,-0.25003287196159363,0.41905355,0.97158116,43.35237,-108.547066,18.50235,CSI
1188310417408.0,0.9916779398918152,3.035179853439331,9.67099666595459,-1.023732304573059,-0.23683354258537292,0.36865717,1.0161743,43.35227,-108.77476,18.711643,CSI
1188319854592.0,0.9967108368873596,3.03996205329895,9.60903263092041,-1.0320544242858887,-0.22208508849143982,0.2941316,1.035722,43.367325,-109.01789,18.93191,CSI
1188329029632.0,1.0017421245574951,3.045253276824951,9.546608924865723,-1.0400382280349731,-0.2059181034564972,0.20219639,1.0595458,43.344963,-109.38412,19.263588,CSI
1188338073600.0,1.0067721605300903,3.0517075061798096,9.483977317810059,-1.0483511686325073,-0.1883573830127716,0.16035213,1.0900891,43.33104,-109.76173,19.599794,CSI
1188346855424.0,1.0118008852005005,3.0599138736724854,9.421384811401367,-1.0576345920562744,-0.16927815973758698,0.17837265,1.1233811000000002,43.245483,-110.14605,19.938618,CSI
1188355506176.0,1.0168282985687256,3.0706560611724854,9.359312057495117,-1.0691778659820557,-0.14845062792301178,0.21930063,1.1475104,43.168407,-110.54246,20.280739,CSI
1188363894784.0,1.0218548774719238,3.084613084793091,9.298203468322754,-1.0842527151107788,-0.12554973363876343,0.34208453,1.1600331,42.99292,-110.99624,20.666405,CSI
1188372152320.0,1.0268802642822266,3.101701498031616,9.23848819732666,-1.104793906211853,-0.10015123337507248,0.57360244,1.1325442,42.776817,-111.46003,21.048998,CSI
1188380278784.0,1.0319050550460815,3.121833562850952,9.180627822875977,-1.1325880289077759,-0.07173886895179749,0.8707884,1.1038336000000002,42.485264,-112.02414,21.50359,CSI
1188388274176.0,1.036928653717041,3.1446235179901123,9.125589370727539,-1.1678889989852905,-0.039926156401634216,1.0009027,1.1047498,42.18178,-112.60995,21.959196,CSI
1188396138496.0,1.0419517755508423,3.1697022914886475,9.074347496032715,-1.210928201675415,-0.004778001457452774,1.2235631,1.1001683,41.822,-113.27976,22.461214,CSI
1188403871744.0,1.0469738245010376,3.1965699195861816,9.027857780456543,-1.2608144283294678,0.03376026079058647,1.3991868,1.0965031,41.44574,-113.983154,22.964104000000006,CSI
1188411473920.0,1.0519945621490479,3.2247653007507324,8.987014770507812,-1.3167307376861572,0.07554236054420471,1.5427402,1.0946705,41.02932,-114.70225,23.458378,CSI
1188418945024.0,1.0570144653320312,3.254044532775879,8.952302932739258,-1.3773432970046997,0.12020938098430634,1.6927075,1.0943651,40.56616,-115.435875,23.955395000000006,CSI
1188426285056.0,1.0620331764221191,3.2842516899108887,8.92396354675293,-1.441267728805542,0.1672666370868683,1.8356501,1.0815369,40.069687,-116.175224,24.451265,CSI
1188433494016.0,1.0670517683029175,3.3157262802124023,8.90249252319336,-1.5069570541381836,0.21614773571491241,1.9566014,1.1270463,39.520664,-116.8756,24.916914,CSI
1188440571904.0,1.072069525718689,3.348855972290039,8.888252258300781,-1.5730751752853394,0.26632511615753174,2.0384574,1.2577715,38.952446,-117.590775,25.40486,CSI
1188447518720.0,1.0770862102508545,3.384199857711792,8.881166458129883,-1.6374881267547607,0.31729885935783386,2.0512855,1.4083499,38.321995,-118.26107,25.882977,CSI
1188454334464.0,1.0821020603179932,3.4224016666412354,8.880837440490723,-1.6976065635681152,0.36825427412986755,2.1255057,1.5167783,37.660378,-118.92506000000002,26.389938,CSI
1188461150208.0,1.0871169567108154,3.4620249271392822,8.887282371520996,-1.751486897468567,0.41835546493530273,2.2058344,1.5882497,36.904724,-119.549126,26.91598,CSI
1188467834880.0,1.0921310186386108,3.500633716583252,8.900731086730957,-1.7975713014602661,0.46686169505119324,2.2327125,1.5635096000000002,36.151154,-120.14198,27.440865,CSI
1188474388480.0,1.0971442461013794,3.5357460975646973,8.92054557800293,-1.8346209526062012,0.5131587982177734,2.2467623,1.5170839,35.09571,-120.63658,27.987885,CSI
1188480942080.0,1.1021567583084106,3.5649983882904053,8.945712089538574,-1.861626386642456,0.5567944645881653,2.2003367000000003,1.4340062,34.07154,-121.08688,28.508194,CSI
1188487364608.0,1.107168436050415,3.5861830711364746,8.97480583190918,-1.8774210214614868,0.597345769405365,2.0567832,1.3057245000000002,32.887814,-121.278564,28.845602000000003,CSI
1188493787136.0,1.1121793985366821,3.5973217487335205,9.006281852722168,-1.8808629512786865,0.6344258785247803,1.8759671,1.1951579,31.772148,-121.43848,29.152906,CSI
1188500078592.0,1.1171897649765015,3.597105026245117,9.038765907287598,-1.8715132474899292,0.6677995324134827,1.7195857,1.1053606000000002,30.713295,-121.40907,29.289253,CSI
1188506370048.0,1.1221997737884521,3.584831953048706,9.071057319641113,-1.8495488166809082,0.6973669528961182,1.606881,1.0290025,29.727417,-121.34546,29.38528,CSI
1188512530432.0,1.1272093057632446,3.560405731201172,9.102171897888184,-1.8157601356506348,0.7231215238571167,1.5488489,0.9636399,28.865843,-121.12129,29.332401,CSI
1188518690816.0,1.1322182416915894,3.5240836143493652,9.13129711151123,-1.7712419033050537,0.7451419234275818,1.4569136,0.92149025,28.066631,-120.88011000000002,29.25184,CSI
1188524720128.0,1.1372265815734863,3.4764621257781982,9.157779693603516,-1.7171539068222046,0.7636420130729675,1.3347405,0.8268061,27.306477,-120.53298999999998,29.062727,CSI
1188530749440.0,1.1422345638275146,3.4183194637298584,9.181085586547852,-1.6546560525894165,0.7786846160888672,1.2116512,0.75961095,26.59173,-120.17773400000002,28.860434,CSI
1188536778752.0,1.1472420692443848,3.3509151935577393,9.201332092285156,-1.5849039554595947,0.7904061675071716,1.1291844,0.6795876000000001,25.905588,-119.76555,28.58829,CSI
1188542676992.0,1.152250051498413,3.2757630348205566,9.21902084350586,-1.5090223550796509,0.7989365458488464,1.0842858999999998,0.5992588000000001,25.261354,-119.33449,28.289156,CSI
1188548575232.0,1.1572575569152832,3.194284677505493,9.234662055969238,-1.4280818700790405,0.8043597340583801,1.0512991000000005,0.49846604,24.642237,-118.86608,27.941504,CSI
1188554473472.0,1.1622647047042847,3.1078834533691406,9.248826026916504,-1.3431378602981567,0.8066989779472351,1.0064004999999998,0.410196,24.056473,-118.37918,27.569052000000006,CSI
1188560240640.0,1.167271375656128,3.0176422595977783,9.26181411743164,-1.2554112672805786,0.8059700727462769,0.9465357,0.3136793,23.498465,-117.875336,27.17041,CSI
1188566007808.0,1.1722776889801025,2.9243979454040527,9.273736953735352,-1.166208267211914,0.802229642868042,0.8613200000000001,0.21838433,22.97747,-117.349266,26.743149,CSI
1188571774976.0,1.177283525466919,2.828691005706787,9.284798622131348,-1.0768404006958008,0.7955718040466309,0.77213365,0.118507855,22.485952,-116.81331000000002,26.296701,CSI
1188577411072.0,1.1822911500930786,2.730727434158325,9.295334815979004,-0.9888059496879578,0.7861558794975281,0.700357,0.0143553335,22.03013,-116.25458,25.820465,CSI
1188583047168.0,1.187298059463501,2.630887985229492,9.305538177490234,-0.9030850529670715,0.7741619944572449,0.5885687,-0.10751228,21.607096,-115.67672,25.309505,CSI
1188588683264.0,1.1923043727874756,2.5296952724456787,9.315546035766602,-0.8206688165664673,0.7597971558570862,0.4642576,-0.21930063,21.226965,-115.07975,24.772724,CSI
1188594319360.0,1.197310209274292,2.4276974201202393,9.325396537780762,-0.742911696434021,0.7432795763015747,0.31948254,-0.31642818,20.849161,-114.42645,24.162632,CSI
1188599824384.0,1.2023154497146606,2.3254754543304443,9.335026741027832,-0.6715627312660217,0.7249263525009155,0.15057829,-0.41355577,20.541258,-113.753426,23.525684,CSI
1188605329408.0,1.2073205709457397,2.223548412322998,9.34436321258545,-0.6084334254264832,0.7051101922988892,0.018936822,-0.49510628,20.253319,-113.06161000000002,22.857695,CSI
1188610834432.0,1.2123252153396606,2.1223583221435547,9.353325843811035,-0.5553192496299744,0.6841970086097717,-0.070554934,-0.5540548000000001,20.02629,-112.361755,22.17708,CSI
1188616339456.0,1.217329502105713,2.0223209857940674,9.361891746520996,-0.5136697888374329,0.662461519241333,-0.07574729,-0.6239988000000001,19.8848,-111.693115,21.51466,CSI
1188621844480.0,1.2223337888717651,1.9238841533660889,9.370254516601562,-0.48407888412475586,0.6401548385620117,0.0018325958,-0.66645396,19.753107,-111.02688,20.85246,CSI
1188627218432.0,1.2273377180099487,1.827426791191101,9.378578186035156,-0.4669382572174072,0.617418646812439,0.06078109,-0.68600166,19.763,-110.43455,20.252537,CSI
1188632592384.0,1.2323412895202637,1.733625054359436,9.387361526489258,-0.4615320861339569,0.5943499803543091,0.14538592,-0.7104363,19.737844,-109.83689,19.647255,CSI
1188637966336.0,1.23734450340271,1.6431529521942139,9.397130966186523,-0.4669511020183563,0.5710783004760742,0.15607607,-0.7021896,19.71505,-109.251305,19.052536,CSI
1188643340288.0,1.2423474788665771,1.557169795036316,9.408430099487305,-0.4824463129043579,0.5478859543800354,0.12156218,-0.6795876000000001,19.721561,-108.718765,18.49669,CSI
1188648714240.0,1.2473500967025757,1.477087378501892,9.421792984008789,-0.5073828101158142,0.5251394510269165,0.11209377,-0.65209866,19.712997,-108.20118,17.95198,CSI
1188654088192.0,1.252354621887207,1.4043819904327393,9.437850952148438,-0.5415517091751099,0.5032014846801758,0.23457226,-0.5897904,19.658468,-107.74613,17.4626,CSI
1188659331072.0,1.2573587894439697,1.339857816696167,9.45694351196289,-0.584608256816864,0.48253104090690613,0.29871312,-0.5729916,19.619448,-107.30493,16.974306,CSI
1188664573952.0,1.2623624801635742,1.2845220565795898,9.479290008544922,-0.6358513832092285,0.46313947439193726,0.44135013,-0.5479460999999999,19.500599,-106.9768,16.595957000000002,CSI
1188669816832.0,1.26736581325531,1.239304542541504,9.504983901977539,-0.6943798661231995,0.4450177252292633,0.5833763000000001,-0.5348125,19.359362,-106.671165,16.227076999999998,CSI
1188675059712.0,1.2723687887191772,1.205369472503662,9.534114837646484,-0.7586364150047302,0.4281037151813507,0.6826419,-0.5045747,19.184162,-106.48501,15.96736,CSI
1188680302592.0,1.2773716449737549,1.183988332748413,9.566770553588867,-0.8267477750778198,0.4123401641845703,0.72204274,-0.44990227,18.983320000000006,-106.32157,15.725491,CSI
1188685545472.0,1.2823741436004639,1.1763434410095215,9.602880477905273,-0.8970044851303101,0.3977244794368744,0.7425067,-0.3622431,18.740303,-106.27911,15.601420999999998,CSI
1188690788352.0,1.2873762845993042,1.183602213859558,9.64231014251709,-0.9678100347518921,0.3843230605125427,0.7510588,-0.24312437,18.491297,-106.269745,15.50583,CSI
1188696031232.0,1.2923781871795654,1.2061140537261963,9.684415817260742,-1.037469744682312,0.37223538756370544,0.743423,-0.129198,18.163553,-106.377235,15.543917,CSI
1188701274112.0,1.297379732131958,1.243578314781189,9.728184700012207,-1.104264259338379,0.36155641078948975,0.7101309,-0.028710667,17.847387,-106.518654,15.611716,CSI
1188706385920.0,1.302380919456482,1.2949423789978027,9.77261734008789,-1.166640281677246,0.35215646028518677,0.6747006999999999,0.076358154,17.43808,-106.787384,15.837764000000002,CSI
1188711497728.0,1.3073819875717163,1.3582135438919067,9.816679954528809,-1.2231603860855103,0.3437612056732178,0.6215554,0.18234327,17.05566,-107.07944,16.087536,CSI
1188716609536.0,1.3123828172683716,1.4315822124481201,9.859469413757324,-1.2725963592529297,0.33602485060691833,0.58276546,0.28619036,16.559814000000006,-107.41888,16.425928,CSI
1188721721344.0,1.3173835277557373,1.5133919715881348,9.900167465209961,-1.3138427734375,0.32861384749412537,0.5717699,0.36651915,16.091703,-107.77031,16.782854,CSI
1188726833152.0,1.3223848342895508,1.602247714996338,9.937727928161621,-1.3463740348815918,0.3212665617465973,0.59131753,0.42638394,15.632126,-108.1289,17.157394,CSI
1188731944960.0,1.3273859024047852,1.6969966888427734,9.971132278442383,-1.3702200651168823,0.31370747089385986,0.6252206,0.44409904,15.187581,-108.48245,17.53663,CSI
1188737056768.0,1.3323867321014404,1.7967089414596558,9.999797821044922,-1.3855514526367188,0.30583691596984863,0.7431175999999999,0.44440445,14.690079999999998,-108.78219,17.904676000000006,CSI
1188742168576.0,1.3373873233795166,1.9006388187408447,10.023518562316895,-1.392669916152954,0.2974328398704529,0.90133166,0.4578435,14.184369,-109.07985,18.278784,CSI
1188747280384.0,1.3423877954483032,2.007965326309204,10.042353630065918,-1.392285943031311,0.2879524827003479,1.0781771999999998,0.51007247,13.6807995,-109.39301,18.683617,CSI
1188752392192.0,1.3473881483078003,2.1177947521209717,10.056617736816406,-1.3854988813400269,0.27696365118026733,1.3191634,0.5873469,13.119757,-109.71504,19.099619,CSI
1188757504000.0,1.3523882627487183,2.2289271354675293,10.066713333129883,-1.373297095298767,0.26406329870224,1.5491543,0.6432411,12.512169,-110.04544,19.538446,CSI
1188762615808.0,1.3573883771896362,2.3399124145507812,10.073111534118652,-1.356576919555664,0.24898497760295868,1.6914859,0.6731735,11.867274,-110.38709,19.987083,CSI
1188767727616.0,1.3623887300491333,2.4495084285736084,10.07628059387207,-1.3361719846725464,0.2317276895046234,1.7531831999999998,0.71837753,11.164796,-110.73733,20.435284,CSI
1188772839424.0,1.3673889636993408,2.5573911666870117,10.077117919921875,-1.3130502700805664,0.21258559823036194,1.7290541,0.7455609999999999,10.457042,-111.09608,20.87869,CSI
1188777951232.0,1.3723891973495483,2.6633083820343018,10.076460838317871,-1.2880672216415405,0.19200117886066437,1.6740761999999998,0.77640975,9.755461,-111.4078,21.258013,CSI
1188783063040.0,1.3773893117904663,2.7672011852264404,10.07508373260498,-1.261826753616333,0.1705433875322342,1.6395624,0.83077675,9.069446,-111.742775,21.644146,CSI
1188788174848.0,1.382389783859253,2.868983030319214,10.073694229125977,-1.2348796129226685,0.14878623187541962,1.6236799,0.89858276,8.405135000000001,-112.07651,22.013012,CSI
1188793286656.0,1.3873900175094604,2.968129873275757,10.072738647460938,-1.2076027393341064,0.12737341225147247,1.5790867,0.947452,7.775456,-112.42578,22.385443,CSI
1188798398464.0,1.3923901319503784,3.0641067028045654,10.072593688964844,-1.1803109645843506,0.10693290084600449,1.5360206,0.97310835,7.1715817,-112.77884,22.752907,CSI
1188803510272.0,1.3973901271820068,3.1558947563171387,10.073148727416992,-1.1529297828674316,0.08799440413713455,1.5149458999999998,1.0012082,6.588297,-113.146835,23.129759,CSI
1188808622080.0,1.4023910760879517,3.2425129413604736,10.074281692504883,-1.1253383159637451,0.07089915871620178,1.5619823999999998,1.0070114,6.0195349999999985,-113.480705,23.468864,CSI
1188813733888.0,1.4073917865753174,3.3233680725097656,10.075424194335938,-1.0965386629104614,0.05582632124423981,1.6279559,1.0048733,5.463717,-113.81893,23.810118,CSI
1188818845696.0,1.41239333152771,3.39780855178833,10.075982093811035,-1.065490484237671,0.042827483266592026,1.6337591,1.0045679,4.8777556,-114.09308,24.087242,CSI
1188823957504.0,1.4173945188522339,3.465353012084961,10.07530403137207,-1.0318388938903809,0.03193605691194534,1.5265521999999998,1.0228939,4.321342,-114.37096,24.36679,CSI
1188828938240.0,1.4223958253860474,3.5255022048950195,10.072744369506836,-0.9952102303504944,0.023105738684535027,1.3652838,1.0189233,3.7685843,-114.59993,24.597696,CSI
1188833918976.0,1.4273970127105713,3.5777854919433594,10.067898750305176,-0.9557675719261169,0.016236256808042526,1.2953397,1.0167851,3.234548,-114.8337,24.832619,CSI
1188838899712.0,1.4323978424072266,3.621760368347168,10.060457229614258,-0.913830578327179,0.011167983524501324,1.1395692,1.0177015,2.7904313,-115.06589,25.065289,CSI
1188843880448.0,1.4373983144760132,3.6574573516845703,10.050042152404785,-0.8700503706932068,0.007757939863950014,0.9950995,1.0173961,2.3617487,-115.255005,25.254854,CSI
1188848861184.0,1.4423986673355103,3.68503737449646,10.036299705505371,-0.825108528137207,0.005778717342764139,0.820392,1.0060950000000002,1.9991202,-115.43943,25.43942,CSI
1188853841920.0,1.4473987817764282,3.704392910003662,10.01904296875,-0.7796819806098938,0.004968653433024883,0.63255095,0.99112886,1.6929704,-64.42376999999999,25.576204,CSI
1188858822656.0,1.452398657798767,3.7153778076171875,9.998146057128906,-0.7343951463699341,0.005052610300481319,0.42424592,0.9621128,1.4542488000000002,-64.29601,25.703854,CSI
1188863803392.0,1.457398533821106,3.7179877758026123,9.973587989807129,-0.6898291110992432,0.00576410535722971,0.19394971,0.91721416,1.2920709,-64.19416,25.805664,CSI
1188868784128.0,1.4623982906341553,3.7122819423675537,9.945390701293945,-0.6465036273002625,0.006830425001680851,-0.004276057,0.8365799999999999,1.1895383999999998,-64.11288499999999,25.88691,CSI
1188873764864.0,1.467397928237915,3.698888063430786,9.914215087890625,-0.6047547459602356,0.008046911098062992,-0.16768251,0.77488256,1.1239405,-64.08623,25.913599,CSI
1188878745600.0,1.4723976850509644,3.6785757541656494,9.880882263183594,-0.5648417472839355,0.009167253039777279,-0.26267207,0.7290677,1.102075,-64.07993,25.919899,CSI
1188883726336.0,1.4773974418640137,3.6528704166412354,9.846580505371094,-0.526924729347229,0.00998571515083313,-0.32192600000000005,0.6881397,1.1380289,-64.12604,25.873854,CSI
1188888707072.0,1.4823969602584839,3.6235597133636475,9.812607765197754,-0.4911130964756012,0.01025196723639965,-0.28924468,0.64751714,1.1750258,-64.18717,25.81269,CSI
1188893687808.0,1.4873963594436646,3.592482089996338,9.780168533325195,-0.4571719467639923,0.009671219624578953,-0.23732115,0.6123924,1.2335538,-64.27618000000001,25.723618,CSI
1188898668544.0,1.4923956394195557,3.5613834857940674,9.750357627868652,-0.42475375533103943,0.008048465475440025,-0.16982053,0.5839871999999999,1.2765377,-64.37613,25.623438,CSI
1188903649280.0,1.4973948001861572,3.531916856765747,9.724185943603516,-0.39346495270729065,0.005263068713247776,-0.08277224,0.5757405,1.235039,-64.45181,25.546896,CSI
1188908630016.0,1.5023938417434692,3.505619764328003,9.702567100524902,-0.3628859221935272,0.0012232231674715877,0.008857545999999999,0.56230146,1.1730621,-64.53624,25.460667,CSI
1188913741824.0,1.5073952674865723,3.483492136001587,9.68564510345459,-0.33253857493400574,-0.004080392885953188,0.09773844,0.5726861999999999,1.0609,-64.55553,25.437935,CSI
1188918722560.0,1.5123964548110962,3.4658665657043457,9.673126220703125,-0.30212828516960144,-0.01056493166834116,0.1695151,0.57910025,0.9292051,-64.577774,25.410488,CSI
1188923703296.0,1.517397403717041,3.4529690742492676,9.66431999206543,-0.2715131342411041,-0.018118087202310562,0.23579398,0.57848936,0.74595636,-64.53983000000001,25.440464,CSI
1188928684032.0,1.5223981142044067,3.4448766708374023,9.658347129821777,-0.2406749129295349,-0.02662055566906929,0.25595254,0.5879578000000001,0.5600231,-64.49528000000001,25.475052,CSI
1188933664768.0,1.5273985862731934,3.4415841102600098,9.654144287109375,-0.20969080924987793,-0.035946231335401535,0.23884831,0.5873469,0.3457884,-64.40533,25.551693,CSI
1188938645504.0,1.5323989391326904,3.4430127143859863,9.650464057922363,-0.17872802913188934,-0.04591035842895508,0.21502456,0.59528816,0.13334823,-64.30973,25.632467,CSI
1188943626240.0,1.5373990535736084,3.449068546295166,9.646124839782715,-0.1480104923248291,-0.05641146004199982,0.19914207,0.6007859999999999,359.90497,-64.165375,25.759287,CSI
1188948738048.0,1.5423989295959473,3.459645986557007,9.639930725097656,-0.1178756058216095,-0.06734752655029297,0.16523905,0.6062838,359.6954,-64.02005,25.886728,CSI
1188953718784.0,1.5473986864089966,3.474515438079834,9.631057739257812,-0.08856955915689468,-0.0785989910364151,0.16615535,0.61483586,359.47083,-63.816086,26.07204,CSI
1188958699520.0,1.5523983240127563,3.4933273792266846,9.61903190612793,-0.06025237217545509,-0.09006041288375854,0.14599679999999998,0.61544675,359.26834,-63.615326,26.254152,CSI
1188963680256.0,1.5573978424072266,3.515648126602173,9.603475570678711,-0.03291776776313782,-0.10159678012132645,0.12064589,0.6221663000000001,359.0488,-63.35978299999999,26.491583,CSI
1188968660992.0,1.5623971223831177,3.5408334732055664,9.584162712097168,-0.0062268818728625774,-0.11307733505964279,0.1133155,0.62980205,358.834,-63.10770400000001,26.72575,CSI
1188973641728.0,1.5673964023590088,3.5682947635650635,9.560893058776855,0.020130589604377747,-0.12436076253652573,0.12461651,0.63071835,358.6190200000001,-62.827587,26.989674,CSI
1188978622464.0,1.5723955631256104,3.597501039505005,9.533506393432617,0.04642900824546814,-0.1354033648967743,0.14996742,0.6383542,358.4050299999999,-62.547325,27.253645,CSI
1188983734272.0,1.5773968696594238,3.6279194355010986,9.50200080871582,0.07281012088060379,-0.14619790017604828,0.19700404,0.65301496,358.1741600000001,-62.2684,27.515015,CSI
1188988715008.0,1.5823978185653687,3.65913462638855,9.466691017150879,0.09923553466796875,-0.15666571259498596,0.2761111,0.6704246,357.92838,-61.991627,27.7744,CSI
1188993695744.0,1.5873985290527344,3.690791130065918,9.427765846252441,0.12555144727230072,-0.16666263341903687,0.36163223,0.6560693,357.65515,-61.706123,28.038866,CSI
1188998676480.0,1.5923988819122314,3.722648859024048,9.385318756103516,0.1514463722705841,-0.17605644464492798,0.46609017,0.65179324,357.35385,-61.417076,28.305851,CSI
1189003657216.0,1.5973989963531494,3.7546305656433105,9.339484214782715,0.17662398517131805,-0.18476593494415283,0.55741453,0.63499445,357.03482,-61.146187,28.55407,CSI
1189008637952.0,1.6023988723754883,3.7869396209716797,9.290464401245117,0.20078016817569733,-0.19275927543640137,0.61300325,0.61269784,356.6995,-60.882294,28.795263,CSI
1189013618688.0,1.6073983907699585,3.8198235034942627,9.23858642578125,0.22377322614192963,-0.20003603398799896,0.6423248,0.5766568,356.35724,-60.622524,29.03206,CSI
1189018730496.0,1.6123977899551392,3.8536295890808105,9.184368133544922,0.24568352103233337,-0.20666028559207916,0.6417139000000001,0.54702985,356.01367,-60.36986,29.261322,CSI
1189023711232.0,1.6173967123031616,3.8886945247650146,9.12829875946045,0.26662319898605347,-0.21273469924926758,0.6389651,0.5348125,355.66983,-60.099026,29.509548,CSI
1189028691968.0,1.6223955154418945,3.9255764484405518,9.070931434631348,0.2868961989879608,-0.21835283935070038,0.63713247,0.48441613,355.33432,-59.849625,29.736046,CSI
1189033672704.0,1.6273939609527588,3.964601516723633,9.0127592086792,0.30674752593040466,-0.22364845871925354,0.6310238,0.441961,354.9989,-59.573036,29.988361,CSI
1189038653440.0,1.632392168045044,4.005832672119141,8.954236030578613,0.32636937499046326,-0.22874145209789276,0.6273586,0.41386122,354.6706200000001,-59.308487,30.227726,CSI
1189043634176.0,1.63739013671875,4.04923152923584,8.895795822143555,0.3459046185016632,-0.23371733725070953,0.63621616,0.3753767,354.3414,-59.01768000000001,30.486769,CSI
1189048614912.0,1.6423879861831665,4.094615936279297,8.837876319885254,0.3654341399669647,-0.23866954445838928,0.6404922,0.33994650000000004,354.02164,-58.73552,30.73533,CSI
1189053595648.0,1.6473857164382935,4.141690254211426,8.780887603759766,0.38495445251464844,-0.24364544451236725,0.6084218000000001,0.31764993,353.70425,-58.443974,30.989690000000003,CSI
1189058576384.0,1.6523833274841309,4.189777374267578,8.72525691986084,0.4042169153690338,-0.248589426279068,0.58551437,0.2941316,353.39,-58.16666800000001,31.229462,CSI
1189063557120.0,1.6573808193206787,4.238266468048096,8.671363830566406,0.42299890518188477,-0.2534525692462921,0.5891795,0.2761111,353.08182,-57.896477,31.460468,CSI
1189068668928.0,1.6623783111572266,4.286609649658203,8.619542121887207,0.4411027431488037,-0.2581869661808014,0.6072,0.2611449,352.78305,-57.63674,31.682238,CSI
1189073649664.0,1.667375922203064,4.33425760269165,8.570051193237305,0.45836058259010315,-0.26274046301841736,0.63316184,0.25350907,352.4826,-57.38024,31.896662,CSI
1189078761472.0,1.67237389087677,4.38050651550293,8.522943496704102,0.474671870470047,-0.2671110928058624,0.6389651,0.25076020000000004,352.1893,-57.130276,32.10481,CSI
1189083742208.0,1.6773720979690552,4.424818515777588,8.47824478149414,0.4899488091468811,-0.2713123559951782,0.6441574000000001,0.26725355,351.91904,-56.95349,32.240036,CSI
1189088854016.0,1.682371735572815,4.466944217681885,8.435944557189941,0.5040857791900635,-0.27535855770111084,0.65668017,0.2574797,351.652,-56.78740300000001,32.364456,CSI
1189093834752.0,1.6873713731765747,4.506741046905518,8.39602279663086,0.5170441269874573,-0.2792655825614929,0.66767573,0.26206118,351.40143,-56.65547,32.452890000000004,CSI
1189098815488.0,1.6923710107803345,4.544219493865967,8.358569145202637,0.5289618968963623,-0.28302809596061707,0.7144069000000001,0.26511553,351.14133,-56.528637,32.53487,CSI
1189103796224.0,1.697371006011963,4.5793914794921875,8.323665618896484,0.5399778485298157,-0.286685973405838,0.7788531999999999,0.25595254,350.88953,-56.42790600000001,32.590121999999994,CSI
1189108776960.0,1.7023708820343018,4.612277984619141,8.291397094726562,0.5503444671630859,-0.2902813255786896,0.8527679,0.26083946,350.6240200000001,-56.323673,32.64697,CSI
1189113757696.0,1.7073707580566406,4.642899990081787,8.26183795928955,0.5602952837944031,-0.29383036494255066,0.90224797,0.2275473,350.3404,-56.247433,32.66795,CSI
1189118738432.0,1.7123706340789795,4.671293258666992,8.23494815826416,0.5700816512107849,-0.2973703145980835,0.93676186,0.22968534,350.0421,-56.159245,32.697197,CSI
1189123719168.0,1.7173702716827393,4.697498321533203,8.210660934448242,0.5799375176429749,-0.30094587802886963,0.95081174,0.22357668,349.74396,-56.08241999999999,32.713123,CSI
1189128699904.0,1.722369909286499,4.7216315269470215,8.189201354980469,0.5901147723197937,-0.30455446243286133,0.99204516,0.19181168,349.42404,-56.028408,32.69755,CSI
1189133680640.0,1.7273696660995483,4.743852138519287,8.17094898223877,0.6008644104003906,-0.308260440826416,0.9950995,0.16707164,349.1208,-55.971203,32.683594,CSI
1189138661376.0,1.732369303703308,4.76434326171875,8.155877113342285,0.6125826239585876,-0.31212562322616577,0.9776898,0.16462818,348.8134,-55.92446,32.652122,CSI
1189143642112.0,1.7373689413070679,4.783307075500488,8.143616676330566,0.6257967948913574,-0.31626132130622864,0.93615097,0.13408493,348.526,-55.88824,32.607864,CSI
1189148753920.0,1.7423685789108276,4.8008856773376465,8.133736610412598,0.6406532526016235,-0.32079076766967773,0.8533788,0.098043874,348.26334,-55.86874,32.53945,CSI
1189153734656.0,1.7473682165145874,4.817165374755859,8.125750541687012,0.6569465398788452,-0.32583463191986084,0.77213365,0.074830994,348.02444,-55.84884,32.469947999999995,CSI
1189158846464.0,1.7523685693740845,4.832228183746338,8.119207382202148,0.6744886040687561,-0.33146315813064575,0.71959925,0.07727446,347.79297,-55.811478,32.409187,CSI
1189163827200.0,1.7573689222335815,4.8461503982543945,8.11371898651123,0.6931067705154419,-0.3377861976623535,0.68783426,0.07513642,347.59125,-55.774357,32.34546,CSI
1189168807936.0,1.7623692750930786,4.8589653968811035,8.10889720916748,0.7126050591468811,-0.3448403775691986,0.63713247,0.05131268,347.3957200000001,-55.738533,32.274498,CSI
1189173788672.0,1.7673696279525757,4.8706841468811035,8.104374885559082,0.7327826619148254,-0.35271981358528137,0.59773165,0.04734206,347.213,-55.689342,32.21125,CSI
1189178769408.0,1.7723699808120728,4.881328105926514,8.099348068237305,0.7534745335578918,-0.36143794655799866,0.5516113,0.06291912,347.0382,-55.61673,32.1664,CSI
1189183750144.0,1.7773703336715698,4.890925407409668,8.092817306518555,0.7745418548583984,-0.3709549903869629,0.48655418,0.045814894,346.89166,-55.549377,32.116165,CSI
1189188730880.0,1.782370686531067,4.899550437927246,8.084373474121094,0.7957804203033447,-0.3811974823474884,0.39522982,0.01160644,346.76254,-55.46963,32.0754,CSI
1189193711616.0,1.7873709201812744,4.907306671142578,8.07399845123291,0.8169518113136292,-0.3920922875404358,0.30604348,-0.00580322,346.65918,-55.388172,32.03976,CSI
1189198692352.0,1.7923709154129028,4.914222717285156,8.061667442321777,0.8375349640846252,-0.4035104215145111,0.2574797,0.014049901000000002,346.54282,-55.26807,32.041546000000004,CSI
1189203673088.0,1.7973709106445312,4.920273303985596,8.04735279083252,0.8568134903907776,-0.41538166999816895,0.24098633,0.015577064,346.4514200000001,-55.15600000000001,32.03773,CSI
1189208653824.0,1.8023707866668701,4.925457954406738,8.031209945678711,0.874258279800415,-0.4276426434516907,0.23182335,0.01863139,346.3581,-55.03185300000001,32.049736,CSI
1189213765632.0,1.807370662689209,4.929797172546387,8.013555526733398,0.8894940614700317,-0.44032564759254456,0.21746802,0.01863139,346.27478,-54.90569300000001,32.06301,CSI
1189218746368.0,1.8123705387115479,4.93332576751709,7.994645595550537,0.9024723172187805,-0.4534124732017517,0.19120082,0.021380283,346.2163700000001,-54.781746,32.084343,CSI
1189223727104.0,1.8173704147338867,4.936089992523193,7.974677085876465,0.913444995880127,-0.4668830335140228,0.17562376,0.018936822,346.16162,-54.6566,32.104374,CSI
1189228707840.0,1.8223702907562256,4.9382171630859375,7.953817367553711,0.9225847721099854,-0.4807251989841461,0.15699236,0.018020526,346.1305200000001,-54.541096,32.12126,CSI
1189233688576.0,1.827370047569275,4.939905166625977,7.9322052001953125,0.9299930930137634,-0.49495217204093933,0.13103059,0.013439035,346.10913,-54.4253,32.138126,CSI
1189238669312.0,1.8323695659637451,4.941320896148682,7.910014629364014,0.935744047164917,-0.5095946788787842,0.11728613,0.0076358155,346.0859,-54.30777,32.15082,CSI
1189243781120.0,1.8373692035675049,4.942598342895508,7.887505531311035,0.9398564696311951,-0.5245758295059204,0.13591751,0.009468411,346.0618,-54.191547,32.163647,CSI
1189248761856.0,1.8423686027526855,4.943826198577881,7.8649420738220215,0.9425771832466125,-0.5398916602134705,0.17531833,0.009773844,346.0322,-54.061638,32.181346999999995,CSI
1189253742592.0,1.8473681211471558,4.945019721984863,7.842657089233398,0.9446804523468018,-0.5555411577224731,0.18020524,0.014660766,346.00876,-53.931305,32.20183,CSI
1189258723328.0,1.852367639541626,4.946196556091309,7.820852279663086,0.9469083547592163,-0.5715216398239136,0.14049901,0.016187929,345.99075,-53.800648,32.222363,CSI
1189263704064.0,1.8573672771453857,4.947381496429443,7.79949951171875,0.9500874280929565,-0.5878019332885742,0.07544186,0.022602014,345.98026,-53.667194,32.247177,CSI
1189268684800.0,1.8623669147491455,4.948708534240723,7.778605937957764,0.954883337020874,-0.6043540835380554,0.01160644,0.021380283,345.96558,-53.53378000000001,32.26058,CSI
1189273796608.0,1.8673686981201172,4.950782299041748,7.758304595947266,0.9617985486984253,-0.6211463212966919,-0.08216137400000001,0.023823744,345.98175,-53.398117000000006,32.284874,CSI
1189278777344.0,1.8723702430725098,4.953969478607178,7.738643646240234,0.9709784388542175,-0.6381181478500366,-0.20219639,0.023518313,345.994,-53.238544,32.31173,CSI
1189283758080.0,1.8773716688156128,4.958616256713867,7.719481945037842,0.9820050001144409,-0.6551654934883118,-0.3191771,0.009773844,346.03723,-53.08483,32.343582,CSI
1189288738816.0,1.8823728561401367,4.9650492668151855,7.7007222175598145,0.9944025278091431,-0.6721444129943848,-0.42546764,0.011911872,346.08145,-52.89298,32.412476,CSI
1189293719552.0,1.887373924255371,4.973843574523926,7.682643413543701,1.0065572261810303,-0.6889331936836243,-0.48533243,0.029321533,346.14728,-52.706234,32.487213,CSI
1189298700288.0,1.8923746347427368,4.985489845275879,7.665487766265869,1.0170581340789795,-0.7053658962249756,-0.49602258,0.044898596,346.22876,-52.495575,32.60072,CSI
1189303681024.0,1.8973753452301025,4.9999799728393555,7.649312973022461,1.0255500078201294,-0.7213364839553833,-0.4633413,0.06841691,346.311,-52.285027,32.720306,CSI
1189308661760.0,1.9023758172988892,5.0171895027160645,7.634129524230957,1.0319395065307617,-0.7368250489234924,-0.39553526,0.07452556,346.38385,-52.082596,32.83455,CSI
1189313773568.0,1.9073762893676758,5.037022113800049,7.6199140548706055,1.0365344285964966,-0.7518211007118225,-0.3109304,0.09132435,346.50412,-51.872276,33.004288,CSI
1189318754304.0,1.9123764038085938,5.059376239776611,7.606633186340332,1.0397082567214966,-0.7663443684577942,-0.25992316,0.095294975,346.61444,-51.6682,33.165726,CSI
1189323735040.0,1.9173765182495117,5.08420467376709,7.5940117835998535,1.0423667430877686,-0.7804261445999146,-0.13072516,0.10567969,346.68018,-51.4602,33.32647,CSI
1189328846848.0,1.9223768711090088,5.111466407775879,7.5817437171936035,1.0454541444778442,-0.7940895557403564,-0.011301007,0.10873401,346.73392,-51.25763,33.478962,CSI
1189333827584.0,1.9273772239685059,5.141427040100098,7.56935977935791,1.0503618717193604,-0.8072949647903442,0.07452556,0.11301007,346.75156,-51.03616,33.633396000000005,CSI
1189338808320.0,1.9323774576187134,5.174452304840088,7.556351661682129,1.0585788488388062,-0.8200168013572693,0.12644911,0.09132435,346.7465,-50.824093,33.77013,CSI
1189343920128.0,1.9373795986175537,5.211001396179199,7.5425519943237305,1.070812463760376,-0.8321919441223145,0.119729586,0.071776666,346.6866,-50.5685,33.922670000000004,CSI
1189348900864.0,1.942381501197815,5.251276969909668,7.527977466583252,1.0871901512145996,-0.843734085559845,0.048563786,0.06414085,346.63467,-50.32402,34.070892,CSI
1189353881600.0,1.947383165359497,5.29543924331665,7.512496471405029,1.1074259281158447,-0.8546040654182434,-0.010690141499999998,0.06597344599999999,346.4798600000001,-49.993465,34.256153000000005,CSI
1189358862336.0,1.9523845911026,5.34356689453125,7.495925426483154,1.131014347076416,-0.8646646738052368,-0.06688975,0.06566802,346.35153,-49.68341,34.441723,CSI
1189363843072.0,1.9573860168457031,5.395766258239746,7.478072166442871,1.1571615934371948,-0.8738420605659485,-0.10873401,0.08216137400000001,346.20972,-49.30636,34.67678,CSI
1189368823808.0,1.962387204170227,5.45216703414917,7.458735942840576,1.1846486330032349,-0.8820127248764038,-0.08093964,0.08307768,346.06863,-48.954323,34.900185,CSI
1189373804544.0,1.9673882722854614,5.512471675872803,7.437722682952881,1.2125905752182007,-0.8891138434410095,0.015271631,0.10048734,345.91534,-48.55282,35.178856,CSI
1189378916352.0,1.9723899364471436,5.575831413269043,7.414821147918701,1.2404736280441284,-0.8950263261795044,0.13561209,0.129198,345.74612,-48.17091,35.447468,CSI
1189383897088.0,1.9773913621902466,5.641241550445557,7.390041351318359,1.2679784297943115,-0.8997352123260498,0.25320363,0.15393804,345.57278,-47.765,35.76535399999999,CSI
1189388877824.0,1.98239266872406,5.7074432373046875,7.363574981689453,1.2949395179748535,-0.903288722038269,0.36132678,0.17470746,345.36365,-47.37001,36.068893,CSI
1189393858560.0,1.9873936176300049,5.773307800292969,7.335598945617676,1.321210265159607,-0.905689001083374,0.52503866,0.20616703,345.11404,-46.978683,36.362766,CSI
1189398839296.0,1.9923945665359497,5.8378071784973145,7.3062744140625,1.3466585874557495,-0.9069066643714905,0.70005155,0.24648413,344.82535,-46.593258,36.642994,CSI
1189403820032.0,1.9973951578140259,5.899791717529297,7.275613784790039,1.3712663650512695,-0.9069958329200745,0.8384125,0.29138273,344.50064,-46.20381500000001,36.911545,CSI
1189408800768.0,2.0023956298828125,5.957737445831299,7.243375301361084,1.395188570022583,-0.9059267640113831,0.93218035,0.31673363,344.13596,-45.828526,37.16292,CSI
1189413912576.0,2.007397413253784,6.010652542114258,7.209497928619385,1.4183969497680664,-0.903719425201416,1.0430524,0.32895094,343.75375,-45.52442,37.31675,CSI
1189418893312.0,2.0123987197875977,6.058438301086426,7.1742024421691895,1.4406704902648926,-0.9003862738609314,1.1023063999999998,0.32162055,343.36304,-45.23205,37.46311,CSI
1189423874048.0,2.017399787902832,6.101062297821045,7.137829303741455,1.4618977308273315,-0.8959832787513733,1.2449434,0.32620203,342.91867,-44.980076,37.522007,CSI
1189428854784.0,2.0224006175994873,6.138820648193359,7.101226329803467,1.482377290725708,-0.890431821346283,1.400714,0.3387248,342.4581,-44.74427,37.56942,CSI
1189433835520.0,2.0274012088775635,6.171738624572754,7.065252780914307,1.5023959875106812,-0.8836725354194641,1.5274686000000002,0.35094208,341.98578,-44.539135,37.578213,CSI
1189438816256.0,2.0324015617370605,6.199275970458984,7.030991077423096,1.5222886800765991,-0.8756599426269531,1.6694947,0.42638394,341.45453,-44.328896,37.582066,CSI
1189443796992.0,2.0374016761779785,6.2206573486328125,6.999457836151123,1.5426678657531738,-0.8663577437400818,1.8002199,0.5308419,340.8985600000001,-44.147068,37.547142,CSI
1189448777728.0,2.0424017906188965,6.234439373016357,6.971762180328369,1.5648094415664673,-0.8557881712913513,1.8689423,0.6395759,340.31354,-43.95637,37.52025,CSI
1189453758464.0,2.0474016666412354,6.239520072937012,6.948454856872559,1.5902940034866333,-0.8439973592758179,1.8570304,0.74372846,339.73578,-43.836174,37.415474,CSI
1189458739200.0,2.052401304244995,6.2352294921875,6.929020881652832,1.621730923652649,-0.8311463594436646,1.78617,0.76174897,339.16284,-43.71431,37.315216,CSI
1189463719936.0,2.057401180267334,6.221169471740723,6.913023471832275,1.6614317893981934,-0.8174996972084045,1.672549,0.73456544,338.6325700000001,-43.68649,37.056103,CSI
1189468700672.0,2.062401056289673,6.198298931121826,6.900300025939941,1.7110248804092407,-0.8033616542816162,1.5314392,0.70402217,338.1449,-43.652664,36.81717,CSI
1189473681408.0,2.0674006938934326,6.167591571807861,6.890578269958496,1.771733045578003,-0.7890723347663879,1.3460416000000002,0.677755,337.62918,-43.60729600000001,36.46036,CSI
1189478793216.0,2.0724008083343506,6.130593299865723,6.882749557495117,1.8430203199386597,-0.7749525904655457,1.1499538,0.61483586,337.19028,-43.566795,36.11279,CSI
1189483905024.0,2.0774013996124268,6.088691711425781,6.8758344650268555,1.9243566989898682,-0.7611567974090576,0.94134337,0.5342017,336.72214,-43.499466,35.731705,CSI
1189488885760.0,2.082401752471924,6.042504787445068,6.869495391845703,2.014390230178833,-0.7478293180465698,0.7415904000000001,0.48533243,336.33063,-43.421474,35.375225,CSI
1189493866496.0,2.087401866912842,5.992449760437012,6.863545894622803,2.1116859912872314,-0.7350825667381287,0.58368176,0.48899764,336.00644,-43.34127,35.041744,CSI
1189498847232.0,2.0924019813537598,5.9378862380981445,6.858213424682617,2.214797019958496,-0.7230243682861328,0.44715336,0.4972443,335.6773,-43.167713,34.786625,CSI
1189503827968.0,2.0974016189575195,5.877947807312012,6.853828430175781,2.322380304336548,-0.7118040919303894,0.29871312,0.50671273,335.40616,-42.98229,34.56142,CSI
1189508808704.0,2.1024012565612793,5.810741901397705,6.851248741149902,2.4335477352142334,-0.7016728520393372,0.07941248,0.54428095,335.2022,-42.779263,34.380795,CSI
1189513789440.0,2.10740065574646,5.734334945678711,6.851380825042725,2.5475986003875732,-0.6929740905761719,-0.002443461,0.473726,335.02768,-42.57905,34.1804,CSI
1189518770176.0,2.1124000549316406,5.648945331573486,6.854709148406982,2.6627304553985596,-0.6860107183456421,-0.13622294,0.4175264,334.96143,-42.433144,33.945793,CSI
1189523750912.0,2.117399215698242,5.555596828460693,6.861520290374756,2.776853561401367,-0.6808202266693115,-0.19761491,0.28527406,334.93195,-42.305244,33.681824,CSI
1189528731648.0,2.1223983764648438,5.455868721008301,6.872323989868164,2.889263153076172,-0.6775813102722168,-0.24831672,0.20647246,335.01593,-42.305073,33.238403000000005,CSI
1189533712384.0,2.1273975372314453,5.351432800292969,6.887653827667236,2.9997897148132324,-0.6764042973518372,-0.31520647,0.15393804,335.14548,-42.3105,32.791515000000004,CSI
1189538693120.0,2.132396697998047,5.244046688079834,6.907594680786133,3.1080832481384277,-0.6773163080215454,-0.44440445,0.122478485,335.40738,-42.37387,32.356590000000004,CSI
1189543673856.0,2.1373958587646484,5.135356903076172,6.932101726531982,3.2137818336486816,-0.6803504228591919,-0.6169739000000001,0.11789699,335.7028200000001,-42.415123,31.943058,CSI
1189548785664.0,2.142395257949829,5.026869297027588,6.960681915283203,3.316593647003174,-0.6854062676429749,-0.7892378999999999,0.115453534,336.06482,-42.464478,31.562265000000004,CSI
1189553766400.0,2.1473946571350098,4.919942378997803,6.992763996124268,3.4162721633911133,-0.6923690438270569,-0.93279123,0.099265605,336.46393,-42.496635,31.210962,CSI
1189558878208.0,2.152397632598877,4.816009044647217,7.027488708496094,3.512583017349243,-0.7011365294456482,-1.0604621,0.09407325,336.90518,-42.50354,30.940887,CSI
1189563858944.0,2.157400369644165,4.715830326080322,7.064190864562988,3.605440855026245,-0.7117143273353577,-1.0958921999999998,0.10140363,337.35233,-42.493526,30.685623,CSI
1189568839680.0,2.162402868270874,4.620624542236328,7.101274490356445,3.6946637630462646,-0.7239383459091187,-1.1963795,0.118507855,337.83102,-42.445103,30.534723,CSI
1189573820416.0,2.167404890060425,4.531605243682861,7.136936664581299,3.7800705432891846,-0.7377037405967712,-1.2834278,0.14508049,338.302,-42.37444,30.395885,CSI
1189578801152.0,2.1724069118499756,4.44908332824707,7.1699137687683105,3.8614084720611572,-0.7529277205467224,-1.3466524,0.1826487,338.7494,-42.24267,30.34999,CSI
1189583781888.0,2.177408456802368,4.372925758361816,7.199270725250244,3.93841552734375,-0.7695580124855042,-1.4080443,0.22204952,339.2036700000001,-42.098793,30.327133,CSI
1189588762624.0,2.1824097633361816,4.302588939666748,7.224111557006836,4.010870456695557,-0.7874934077262878,-1.4608842,0.25289822,339.5832200000001,-41.822014,30.454737,CSI
1189593743360.0,2.187411069869995,4.237329006195068,7.243610858917236,4.078591346740723,-0.8066689968109131,-1.5381587,0.29932398,339.96494,-41.529263,30.607958,CSI
1189598724096.0,2.1924118995666504,4.176458358764648,7.257627487182617,4.141127109527588,-0.8269069194793701,-1.6178766000000002,0.3286455,340.31778,-41.182796,30.827007,CSI
1189603704832.0,2.1974127292633057,4.119343280792236,7.266392707824707,4.197905540466309,-0.8479431867599487,-1.6526959,0.36987892,340.65875,-40.83233,31.061272,CSI
1189608685568.0,2.202413320541382,4.066095352172852,7.270002841949463,4.249251842498779,-0.8694608211517334,-1.640784,0.40378192,340.97153,-40.455635,31.327206,CSI
1189613797376.0,2.207413911819458,4.0172505378723145,7.268473148345947,4.295997142791748,-0.891108512878418,-1.6154331,0.43188173,341.27423,-40.09312,31.6002,CSI
1189618778112.0,2.212414264678955,3.973829746246338,7.261904716491699,4.339283466339111,-0.9126099944114685,-1.525636,0.44868052,341.5803200000001,-39.758156,31.865822,CSI
1189623758848.0,2.217414379119873,3.9371185302734375,7.250431537628174,4.380405902862549,-0.9338405132293701,-1.3866642,0.4654793,341.855,-39.43395,32.11858400000001,CSI
1189628739584.0,2.222414493560791,3.9083609580993652,7.23433780670166,4.420051097869873,-0.9547157883644104,-1.2687671,0.43401974,342.0782200000001,-39.06744000000001,32.398407,CSI
1189633720320.0,2.227414608001709,3.88873291015625,7.213986873626709,4.458528518676758,-0.9752689003944397,-1.1670581,0.4016439000000001,342.26154,-38.703796,32.65376,CSI
1189638701056.0,2.232414484024048,3.879254102706909,7.189633369445801,4.496147632598877,-0.9954575300216675,-1.1145236,0.36560285,342.37122,-38.253498,32.975227000000004,CSI
1189643681792.0,2.2374141216278076,3.880802869796753,7.161454677581787,4.533210277557373,-1.0150773525238037,-0.9972375,0.36713,342.43393,-37.82037,33.260662,CSI
1189648793600.0,2.2424137592315674,3.8938119411468506,7.12955904006958,4.5697808265686035,-1.0339078903198242,-0.8689558000000001,0.37904188,342.45914,-37.319225,33.63326,CSI
1189653774336.0,2.247413396835327,3.918048143386841,7.0939555168151855,4.605558395385742,-1.0517789125442505,-0.7290677,0.4016439000000001,342.44693,-36.838863,33.976209999999995,CSI
1189658755072.0,2.252412796020508,3.9531047344207764,7.054643154144287,4.6402459144592285,-1.0685900449752808,-0.58459806,0.4111123,342.36945,-36.282207,34.40815,CSI
1189663735808.0,2.2574124336242676,3.998441219329834,7.011600971221924,4.673544883728027,-1.0842820405960083,-0.35124752,0.43982297,342.22528,-35.743244,34.793243,CSI
1189668847616.0,2.262413263320923,4.053317070007324,6.965153217315674,4.705475330352783,-1.098799705505371,-0.058948494,0.47494772,342.02805,-35.173041999999995,35.203445,CSI
1189673828352.0,2.267414093017578,4.1167683601379395,6.91590690612793,4.736294746398926,-1.1121065616607666,0.2489276,0.49327368,341.7691,-34.62266,35.554817,CSI
1189678809088.0,2.2724146842956543,4.187632083892822,6.864602565765381,4.766578197479248,-1.1241474151611328,0.5662721,0.50610185,341.4312700000001,-34.04391,35.902664,CSI
1189683789824.0,2.2774150371551514,4.2644453048706055,6.812160491943359,4.7972941398620605,-1.1348475217819214,0.8194756999999999,0.5271766999999999,341.03363,-33.48474,36.194954,CSI
1189688770560.0,2.2824151515960693,4.345590114593506,6.7593817710876465,4.829286098480225,-1.1441594362258911,0.9993755,0.54458636,340.591,-32.939423,36.431576,CSI
1189693751296.0,2.2874152660369873,4.429199695587158,6.7069597244262695,4.863296985626221,-1.1521097421646118,1.0946705,0.5571090999999999,340.11392,-32.412712,36.62718,CSI
1189698732032.0,2.292414903640747,4.513460636138916,6.655299186706543,4.899984359741211,-1.1587251424789429,1.1123856,0.56382865,339.62988,-31.925167,36.730446,CSI
1189703712768.0,2.297414541244507,4.596357822418213,6.604324817657471,4.940005302429199,-1.1640957593917847,1.1426234,0.5558874,339.1344,-31.453691,36.80424,CSI
1189708693504.0,2.3024139404296875,4.676151752471924,6.554105281829834,4.984051704406738,-1.1683980226516724,1.171945,0.5555819000000001,338.664,-31.030088,36.77102,CSI
1189713805312.0,2.307413339614868,4.751224517822266,6.504924297332764,5.0330328941345215,-1.1717852354049683,1.2486086,0.54336464,338.19604,-30.624943,36.71465,CSI
1189718786048.0,2.3124125003814697,4.820546627044678,6.457008361816406,5.0873799324035645,-1.1744822263717651,1.3481796,0.5421429,337.71704,-30.229864000000006,36.54362,CSI
1189723766784.0,2.3174116611480713,4.8837785720825195,6.4105401039123535,5.146928787231445,-1.1767109632492065,1.4114041000000002,0.5338961999999999,337.25027,-29.842598,36.359737,CSI
1189728747520.0,2.3224105834960938,4.940822601318359,6.365498065948486,5.2112226486206055,-1.178553581237793,1.4034628999999998,0.5186246,336.7842,-29.486805,36.039387,CSI
1189733728256.0,2.3274097442626953,4.991947174072266,6.321465969085693,5.279229640960693,-1.1799380779266357,1.3472633,0.50915617,336.33307,-29.137892,35.717712,CSI
1189738708992.0,2.3324084281921387,5.037415504455566,6.278078079223633,5.350024223327637,-1.1807737350463867,1.2589933,0.49571714,335.9157,-28.811176,35.348724,CSI
1189743689728.0,2.337407350540161,5.07747220993042,6.234991550445557,5.422756671905518,-1.1809988021850586,1.1426234,0.48808134,335.53293,-28.49792,35.00262,CSI
1189748670464.0,2.3424060344696045,5.112259387969971,6.191839218139648,5.496636867523193,-1.1805475950241089,1.0534371,0.46914452,335.1907700000001,-28.202726,34.670986,CSI
1189753782272.0,2.347404718399048,5.141358375549316,6.147899150848389,5.570768356323242,-1.179471731185913,0.9660834,0.4642576,334.88287,-27.912798,34.37117,CSI
1189758763008.0,2.352403402328491,5.1644368171691895,6.102707862854004,5.644346237182617,-1.177748680114746,0.82741696,0.4538729,334.60754,-27.62591,34.119408,CSI
1189763743744.0,2.3574023246765137,5.181267261505127,6.056446075439453,5.716625690460205,-1.1753482818603516,0.6942484,0.44929138,334.3579,-27.347076,33.890053,CSI
1189768724480.0,2.362401247024536,5.191679000854492,6.009309768676758,5.786971092224121,-1.1722997426986694,0.5479460999999999,0.4538729,334.12753,-27.055819,33.686546,CSI
1189773836288.0,2.3674004077911377,5.195524215698242,5.961747169494629,5.854963779449463,-1.1686383485794067,0.37843102,0.45112398,333.9376,-26.779446000000004,33.52037,CSI
1189778817024.0,2.3723995685577393,5.192761421203613,5.914170742034912,5.920250415802002,-1.1643503904342651,0.24678956,0.47403142,333.7834,-26.529436,33.360409999999995,CSI
1189783797760.0,2.377398729324341,5.183720588684082,5.867041110992432,5.982563018798828,-1.1594176292419434,0.17959438,0.48747048,333.65723,-26.29024,33.22489,CSI
1189788909568.0,2.3823983669281006,5.168776988983154,5.820794582366943,6.041722297668457,-1.1538506746292114,0.172264,0.49602258,333.5665,-26.090292,33.075874,CSI
1189793890304.0,2.3873980045318604,5.149205207824707,5.775935649871826,6.098391056060791,-1.1476504802703857,0.2501493,0.5155702999999999,333.46933,-25.898785,32.926759999999994,CSI
1189799002112.0,2.3923985958099365,5.126262664794922,5.732950687408447,6.153265953063965,-1.1409220695495605,0.33322698,0.528093,333.40744,-25.738008,32.76184,CSI
1189803982848.0,2.3973989486694336,5.101403713226318,5.692068576812744,6.207370758056641,-1.1337515115737915,0.36346483,0.5448918,333.3378600000001,-25.584213,32.59559,CSI
1189808963584.0,2.402400016784668,5.076063632965088,5.6535258293151855,6.261748313903809,-1.1262449026107788,0.35369098,0.5488624,333.2735600000001,-25.431448,32.430172,CSI
1189813944320.0,2.4074010848999023,5.051941394805908,5.617549419403076,6.3175129890441895,-1.1184957027435303,0.3549127,0.56046885,333.19894,-25.277689,32.260384,CSI
1189818925056.0,2.4124016761779785,5.030684947967529,5.58434534072876,6.3757243156433105,-1.1106162071228027,0.33108896,0.5671884,333.1344,-25.122553,32.10119,CSI
1189823905792.0,2.4174022674560547,5.013216972351074,5.553699970245361,6.43671989440918,-1.102748990058899,0.30024028,0.57879484,333.05115,-24.931164000000006,31.973894,CSI
1189828886528.0,2.422402858734131,5.000086784362793,5.525278568267822,6.500533103942871,-1.0949350595474243,0.23426682,0.5839871999999999,332.9816,-24.746151,31.863615000000006,CSI
1189833867264.0,2.427403211593628,4.991790294647217,5.498771667480469,6.56719446182251,-1.0871225595474243,0.17318029999999998,0.5867361,332.89264,-24.5205,31.81004,CSI
1189838848000.0,2.432403564453125,4.9887542724609375,5.473897457122803,6.636720657348633,-1.0792467594146729,0.11148291,0.56107974,332.8251,-24.304455,31.771122,CSI
1189843828736.0,2.437403678894043,4.990933418273926,5.450012683868408,6.708667755126953,-1.071252465248108,0.07880162,0.5357288,332.75574,-24.093952,31.737555,CSI
1189848809472.0,2.442403793334961,4.99804162979126,5.426313400268555,6.782374382019043,-1.063104510307312,0.08093964,0.52320606,332.6972,-23.896786,31.709743,CSI
1189853790208.0,2.4474036693573,5.009186744689941,5.402174472808838,6.857076644897461,-1.0548287630081177,0.1020145,0.50976706,332.59793,-23.6367,31.75506,CSI
1189858770944.0,2.4524035453796387,5.023218631744385,5.377079010009766,6.931992530822754,-1.046529769897461,0.14905111,0.52106804,332.49362,-23.380465,31.79349,CSI
1189863751680.0,2.4574036598205566,5.038861274719238,5.35067081451416,7.006434440612793,-1.038332462310791,0.18600847,0.5525276,332.3502200000001,-23.0819,31.857967,CSI
1189868732416.0,2.4624035358428955,5.054880142211914,5.3227033615112305,7.079809665679932,-1.0302989482879639,0.20677789,0.5537493,332.21146,-22.792513,31.910173,CSI
1189873713152.0,2.4674036502838135,5.070245742797852,5.292663097381592,7.151562213897705,-1.0225105285644531,0.23335053,0.5705481,332.0361,-22.471386,31.939493,CSI
1189878824960.0,2.4724037647247314,5.084097862243652,5.259965896606445,7.221195220947266,-1.01503586769104,0.25961772,0.57879484,331.86435,-22.155325,31.961393,CSI
1189883805696.0,2.4774038791656494,5.096405982971191,5.224486827850342,7.288063049316406,-1.0078810453414917,0.28405234,0.5876524000000001,331.67493,-21.833763,31.940240000000006,CSI
1189888786432.0,2.4824037551879883,5.107737064361572,5.186429977416992,7.351422309875488,-1.001023530960083,0.27183503,0.593761,331.4904,-21.51495,31.922235,CSI
1189893767168.0,2.487403631210327,5.118611812591553,5.146009922027588,7.410913944244385,-0.9945032596588135,0.27275133,0.6093381,331.26523,-21.159597,31.872997,CSI
1189898747904.0,2.492403268814087,5.129508018493652,5.1034369468688965,7.466391086578369,-0.9883158802986145,0.28771752,0.6221663000000001,331.0442,-20.814802,31.823433,CSI
1189903728640.0,2.4974029064178467,5.140963554382324,5.0589752197265625,7.517588138580322,-0.9824643731117249,0.30115658,0.636827,330.82877,-20.465843,31.823336,CSI
1189908709376.0,2.5024025440216064,5.153518199920654,5.012906551361084,7.5642008781433105,-0.9769096970558167,0.29840767,0.6386596,330.61823,-20.126337,31.822857,CSI
1189913690112.0,2.507402181625366,5.167342185974121,4.96552848815918,7.6061482429504395,-0.9716082215309143,0.2843578,0.6356053,330.4053600000001,-19.771837,31.854103,CSI
1189918670848.0,2.512401819229126,5.182383060455322,4.91713809967041,7.643494129180908,-0.9665036201477051,0.25411993,0.64812803,330.19403,-19.424976,31.891315,CSI
1189923782656.0,2.5174014568328857,5.198434829711914,4.86781644821167,7.6763596534729,-0.9615890979766846,0.22204952,0.6597345,330.0022600000001,-19.076122,31.981237,CSI
1189928763392.0,2.5224010944366455,5.215184211730957,4.817488193511963,7.7049126625061035,-0.9569361209869385,0.21930063,0.6759224,329.8084,-18.728971,32.071575,CSI
1189933744128.0,2.527400493621826,5.232370853424072,4.765991687774658,7.729347229003906,-0.9526183605194092,0.19028452,0.6765333,329.62918,-18.384203,32.18536,CSI
1189938724864.0,2.532399892807007,5.249775409698486,4.713092803955078,7.749870777130127,-0.9486939311027527,0.12644911,0.70096785,329.44495,-18.034101,32.311440000000005,CSI
1189943705600.0,2.5373990535736084,5.267304420471191,4.658567428588867,7.766554832458496,-0.9452468752861023,0.04153884,0.71685034,329.26526,-17.669611,32.45087,CSI
1189948686336.0,2.54239821434021,5.285058975219727,4.602175235748291,7.779245853424072,-0.9423597455024719,-0.05772676700000001,0.72265357,329.0926,-17.302607000000002,32.61033,CSI
1189953667072.0,2.5473973751068115,5.302876949310303,4.543740749359131,7.787951469421387,-0.9400381445884705,-0.12339478,0.73914695,328.9052700000001,-16.898011999999998,32.785748,CSI
1189958778880.0,2.5524003505706787,5.32029390335083,4.482996940612793,7.79273796081543,-0.9382309317588806,-0.18600847,0.74281216,328.73254,-16.496853,32.982994,CSI
1189963759616.0,2.5574028491973877,5.336982727050781,4.419995307922363,7.793952941894531,-0.9368125796318054,-0.22510384,0.75441855,328.53644,-16.066965,33.215070000000004,CSI
1189968740352.0,2.5624048709869385,5.352468967437744,4.354659557342529,7.792001247406006,-0.9355785250663757,-0.2678644,0.7431175999999999,328.35425,-15.655581,33.459126,CSI
1189973721088.0,2.567406415939331,5.3665008544921875,4.286789894104004,7.787233829498291,-0.9343734979629517,-0.30604348,0.71959925,328.15982,-15.227275,33.704514,CSI
1189978701824.0,2.5724074840545654,5.379233360290527,4.215908050537109,7.7799272537231445,-0.9330504536628723,-0.3381139,0.7098253999999999,327.96808,-14.82059,33.956013,CSI
1189983682560.0,2.5774083137512207,5.390899658203125,4.141726970672607,7.77021598815918,-0.9314388632774353,-0.3555236,0.6844745,327.76862,-14.412129,34.181274,CSI
1189988663296.0,2.5824086666107178,5.401829242706299,4.064148426055908,7.7580718994140625,-0.9294093251228333,-0.38331795,0.6621779000000001,327.57562,-14.021775,34.413662,CSI
1189993775104.0,2.5874104499816895,5.412535190582275,3.983069658279419,7.7436017990112305,-0.9268157482147217,-0.3735441,0.62888575,327.33942,-13.603836,34.64354,CSI
1189998755840.0,2.592411756515503,5.423542499542236,3.8986124992370605,7.727100849151611,-0.9234741926193237,-0.39187005,0.59589905,327.11597,-13.2137,34.882736,CSI
1190003736576.0,2.597412586212158,5.435361385345459,3.810962200164795,7.708878517150879,-0.9192167520523071,-0.40775254,0.5656611999999999,326.8732,-12.806546,35.144787,CSI
1190008717312.0,2.6024131774902344,5.448400497436523,3.7204749584198,7.68927001953125,-0.9140255451202393,-0.42394048,0.56199604,326.63358,-12.415762,35.40703,CSI
1190013698048.0,2.6074132919311523,5.463068962097168,3.6275746822357178,7.668646812438965,-0.9077077507972717,-0.42149702,0.55833083,326.3717,-12.030985,35.700462,CSI
1190018678784.0,2.612413167953491,5.479840278625488,3.5328264236450195,7.647476673126221,-0.9000945687294006,-0.39187005,0.56016344,326.1071,-11.661208,35.98576,CSI
1190023659520.0,2.617412567138672,5.499135494232178,3.436765670776367,7.626199722290039,-0.8911833167076111,-0.3555236,0.5665775,325.83472,-11.27822,36.28887,CSI
1190028771328.0,2.6224119663238525,5.521463394165039,3.3400075435638428,7.605363368988037,-0.881070613861084,-0.3323107,0.57360244,325.55923,-10.916677,36.58197,CSI
1190033752064.0,2.627410650253296,5.547173976898193,3.243109703063965,7.585291862487793,-0.8699002265930176,-0.3222314000000001,0.5821546,325.27762,-10.555109,36.887688,CSI
1190038732800.0,2.63240909576416,5.576529502868652,3.14660382270813,7.5660834312438965,-0.8578795790672302,-0.3304781,0.5928446999999999,324.99216,-10.19658,37.186512,CSI
1190043713536.0,2.6374073028564453,5.6097493171691895,3.050963878631592,7.547823429107666,-0.8452308177947998,-0.34819320000000004,0.57818395,324.72665,-9.839157,37.496384,CSI
1190048694272.0,2.6424055099487305,5.647017478942871,2.956611156463623,7.530585289001465,-0.8321148753166199,-0.37720928,0.5867361,324.45087,-9.480228,37.806915,CSI
1190053675008.0,2.6474032402038574,5.688557147979736,2.8638226985931396,7.514598846435547,-0.8187362551689148,-0.4092797,0.61483586,324.178,-9.109552,38.11447,CSI
1190058655744.0,2.6524007320404053,5.734734535217285,2.772644519805908,7.500430583953857,-0.8052331209182739,-0.4437936,0.6374379,323.90628,-8.743955999999999,38.42406,CSI
1190063636480.0,2.657398223876953,5.785758018493652,2.6833486557006836,7.48861837387085,-0.7917279005050659,-0.5143485,0.66553766,323.63773,-8.388919,38.803864,CSI
1190068617216.0,2.662395477294922,5.841618537902832,2.5966193675994873,7.479720592498779,-0.778357982635498,-0.6041456999999999,0.7125743,323.35773,-8.025383999999999,39.191708,CSI
1190073729024.0,2.6673927307128906,5.902257919311523,2.5129952430725098,7.474196434020996,-0.765230655670166,-0.6918049,0.754724,323.0610700000001,-7.6464405,39.61205,CSI
1190078709760.0,2.6723902225494385,5.967495441436768,2.432750701904297,7.472339630126953,-0.7524455785751343,-0.7742717,0.81581056,322.7454,-7.2554617,40.0478,CSI
1190083690496.0,2.6773877143859863,6.037111759185791,2.356194019317627,7.474311351776123,-0.7401276230812073,-0.82894415,0.8744536,322.4565,-6.880663,40.481224,CSI
1190088671232.0,2.6823854446411133,6.110640048980713,2.2840449810028076,7.479695796966553,-0.728381335735321,-0.8374963,0.9443977,322.14334,-6.494375700000001,40.915367,CSI
1190093783040.0,2.6873836517333984,6.187633514404297,2.216965675354004,7.488034248352051,-0.7173655033111572,-0.8032878000000001,1.0280862,321.81958,-6.106866,41.337585,CSI
1190098763776.0,2.6923820972442627,6.267486095428467,2.1558685302734375,7.498039722442627,-0.7072628736495972,-0.74067414,1.0937542,321.4762,-5.7060223,41.74306,CSI
1190103744512.0,2.697380542755127,6.349623680114746,2.101472854614258,7.508559226989746,-0.698167085647583,-0.6951646,1.1346822,321.16016,-5.3491263,42.134457,CSI
1190108725248.0,2.702378988265991,6.433345794677734,2.053825855255127,7.518550872802734,-0.6901147961616516,-0.6246096999999999,1.2113458,320.803,-4.966734400000001,42.493004,CSI
1190113837056.0,2.7073781490325928,6.517994403839111,2.0129554271698,7.527044296264648,-0.6832679510116577,-0.5705481,1.2928963,320.49814,-4.63807,42.859814,CSI
1190118817792.0,2.7123773097991943,6.602757453918457,1.9781951904296875,7.5336689949035645,-0.6777550578117371,-0.5506949999999999,1.3588698,320.1702,-4.295678,43.208435,CSI
1190123929600.0,2.717377185821533,6.686853408813477,1.9488945007324219,7.538058280944824,-0.6737084984779358,-0.5571090999999999,1.4208726,319.84912,-3.966523000000001,43.567795,CSI
1190128910336.0,2.722377061843872,6.769570350646973,1.9241726398468018,7.540046215057373,-0.6711428761482239,-0.5546656,1.4636332,319.51117,-3.6239364,43.911438,CSI
1190133891072.0,2.727376937866211,6.850254535675049,1.9032129049301147,7.5394768714904785,-0.6700575351715088,-0.5326744999999999,1.4978416,319.15472,-3.256472,44.24435,CSI
1190138871808.0,2.732377052307129,6.927971363067627,1.885157585144043,7.5362420082092285,-0.6703740358352661,-0.5103779,1.5140295,318.7914,-2.8846607000000004,44.56876,CSI
1190143852544.0,2.737377166748047,7.001867294311523,1.8692281246185303,7.530266284942627,-0.6720666289329529,-0.49846604,1.5091426,318.4257,-2.50302,44.882015,CSI
1190148833280.0,2.742377281188965,7.07131814956665,1.854670524597168,7.521319389343262,-0.6750362515449524,-0.46578476,1.5012014,318.03253,-2.099731,45.1691,CSI
1190153814016.0,2.7473771572113037,7.135837078094482,1.8408106565475464,7.5091753005981445,-0.6791333556175232,-0.4034765,1.4929546,317.64435,-1.7003511999999998,45.436836,CSI
1190158925824.0,2.752377510070801,7.195135593414307,1.8269096612930298,7.493521213531494,-0.6841981410980225,-0.31703907,1.4795157,317.23898,-1.2775835,45.65897800000001,CSI
1190163906560.0,2.757377862930298,7.249053478240967,1.8123444318771362,7.474125385284424,-0.6900854110717773,-0.24862215,1.4587462,316.8439,-0.8662624,45.86225,CSI
1190168887296.0,2.762377977371216,7.297735691070557,1.7970372438430786,7.451197624206543,-0.69661945104599,-0.17837265,1.428203,316.4319,-0.43801236,46.029705,CSI
1190173868032.0,2.767378091812134,7.341371536254883,1.7809958457946777,7.4250006675720215,-0.7036390900611877,-0.116980694,1.3988813999999998,316.03296,-0.023777597,46.175194,CSI
1190178979840.0,2.7723796367645264,7.380183219909668,1.7641873359680176,7.3957977294921875,-0.7109733819961548,-0.07544186,1.3738358999999998,315.60886,0.41270232,46.309708,CSI
1190183960576.0,2.77738094329834,7.415002822875977,1.746360421180725,7.364214897155762,-0.7184795141220093,-0.059864793,1.3588698,315.19833,0.83314514,46.429993,CSI
1190188941312.0,2.782382011413574,7.446639537811279,1.7272480726242065,7.330847263336182,-0.726081907749176,-0.08582657,1.3472633,314.7948,1.252139,46.543488,CSI
1190193922048.0,2.7873828411102295,7.475806713104248,1.7066797018051147,7.296270370483398,-0.733688235282898,-0.12308934,1.3359623,314.40283,1.6530411,46.652493,CSI
1190198902784.0,2.7923836708068848,7.5031352043151855,1.6845414638519287,7.261017322540283,-0.7411888837814331,-0.14691310000000002,1.3182472,314.0235,2.038812,46.76195,CSI
1190203883520.0,2.79738450050354,7.529065132141113,1.6608322858810425,7.225192546844482,-0.7485232353210449,-0.18997909,1.3197743999999998,313.62317,2.4515903,46.895916,CSI
1190208864256.0,2.8023853302001953,7.553925037384033,1.6356065273284912,7.1887006759643555,-0.7556590437889099,-0.23060162,1.321607,313.23425,2.8489654,47.032116,CSI
1190213844992.0,2.8073859214782715,7.5780439376831055,1.6089415550231934,7.150707244873047,-0.7625584602355957,-0.22632557,1.31672,312.83484,3.2541373,47.169495,CSI
1190218825728.0,2.8123865127563477,7.601729393005371,1.580926537513733,7.110103130340576,-0.7691969871520996,-0.20891592,1.3393221000000002,312.42694,3.6566668,47.30909000000001,CSI
1190223806464.0,2.8173868656158447,7.624809741973877,1.5514618158340454,7.066870212554932,-0.7755420207977295,-0.13744467,1.3716979,312.01117,4.065197,47.44792,CSI
1190228787200.0,2.822387456893921,7.646904945373535,1.5203648805618286,7.021481513977051,-0.7815287709236145,-0.12583824,1.3958270000000002,311.59238,4.4649286,47.593258,CSI
1190233767936.0,2.827388048171997,7.667729377746582,1.4874588251113892,6.974485874176025,-0.7869848608970642,-0.09040806,1.4175128,311.1425,4.868431,47.78026,CSI
1190238748672.0,2.832388401031494,7.687055587768555,1.452553391456604,6.926483154296875,-0.7917433977127075,-0.05375614,1.432479,310.69022,5.262663400000001,47.957424,CSI
1190243729408.0,2.837388753890991,7.704803943634033,1.4153871536254883,6.877989768981934,-0.7957469820976257,-0.023518313,1.4477507,310.20862,5.679467,48.097023,CSI
1190248710144.0,2.8423891067504883,7.720975399017334,1.3756762742996216,6.829456806182861,-0.7989766597747803,0.0009162979,1.4822645,309.7198,6.0849720000000005,48.22155,CSI
1190253690880.0,2.8473892211914062,7.735786437988281,1.3332144021987915,6.78122615814209,-0.8015660047531128,0.018020526,1.4920383999999998,309.21802,6.516411,48.305595,CSI
1190258802688.0,2.8523895740509033,7.749691486358643,1.2878679037094116,6.7335309982299805,-0.8036149144172668,0.033292156,1.543351,308.69263,6.9497137,48.37519,CSI
1190263783424.0,2.8573896884918213,7.762772560119629,1.2398080825805664,6.6865010261535645,-0.8051857352256775,0.056505036,1.5662584,308.1515,7.424097,48.409813,CSI
1190268764160.0,2.8623898029327393,7.77480936050415,1.1894397735595703,6.640180587768555,-0.8062082529067993,0.07849618,1.5247196,307.62634,7.8811216,48.43702,CSI
1190273744896.0,2.867389678955078,7.78561544418335,1.1371327638626099,6.594608783721924,-0.8065890073776245,0.08704830000000001,1.5399913,307.04913,8.381563,48.45621,CSI
1190278856704.0,2.872389793395996,7.795013427734375,1.0832233428955078,6.5498175621032715,-0.8063145279884338,0.10934488,1.5836681,306.49103,8.866809,48.46141400000001,CSI
1190283837440.0,2.877389669418335,7.802864074707031,1.028001308441162,6.505882263183594,-0.805418848991394,0.12034045,1.6578883000000002,305.92374,9.346242,48.45993,CSI
1190288818176.0,2.882389545440674,7.809025764465332,0.971689760684967,6.462978839874268,-0.8039993643760681,0.14019357,1.6710218,305.37772,9.812048,48.44704,CSI
1190293798912.0,2.8873891830444336,7.813467025756836,0.9144057035446167,6.421345233917236,-0.8021308779716492,0.1432479,1.6835446,304.8091,10.29363,48.39931,CSI
1190298779648.0,2.8923888206481934,7.816328048706055,0.8560832142829895,6.381363391876221,-0.7998228073120117,0.113926366,1.7101171999999998,304.2399,10.770193,48.349926,CSI
1190303760384.0,2.897388219833374,7.817758083343506,0.7966535687446594,6.343325614929199,-0.7971160411834717,0.05681047,1.7296648999999995,303.6794,11.248309,48.28517,CSI
1190308741120.0,2.9023876190185547,7.817955493927002,0.7359859943389893,6.307392120361328,-0.7939398884773254,-0.0033597588,1.7602082,303.1116600000001,11.715585,48.223694,CSI
1190313721856.0,2.9073872566223145,7.817100524902344,0.6740333437919617,6.27364444732666,-0.7902697324752808,-0.05497787,1.7870862,302.52676,12.204075,48.139484,CSI
1190318833664.0,2.912388563156128,7.815362930297852,0.6109883785247803,6.241936683654785,-0.786084771156311,-0.09987647,1.8072448,301.93823,12.68038,48.065105,CSI
1190323814400.0,2.917389392852783,7.812898635864258,0.5470772981643677,6.212100982666016,-0.781386137008667,-0.12492194,1.8270979,301.32465,13.177728,47.974205,CSI
1190328795136.0,2.9223902225494385,7.809955596923828,0.4826820194721222,6.1837239265441895,-0.776197075843811,-0.14752395,1.851838,300.70886,13.666573,47.889515,CSI
1190333775872.0,2.9273908138275146,7.806681156158447,0.4180285930633545,6.156510829925537,-0.770499050617218,-0.16218472,1.8726074,300.08414,14.152747,47.800755,CSI
1190338756608.0,2.932391405105591,7.802701950073242,0.3525206446647644,6.1306915283203125,-0.7642326354980469,-0.17592919,1.8872682,299.4627,14.627627,47.713078,CSI
1190343868416.0,2.937392473220825,7.797685623168945,0.2855793237686157,6.106485366821289,-0.757361888885498,-0.20769419,1.8955148,298.8318,15.0882635,47.647305,CSI
1190348849152.0,2.9423935413360596,7.791553974151611,0.21656864881515503,6.08414363861084,-0.7497720718383789,-0.24648413,1.9275852,298.19525,15.534891,47.579807,CSI
1190353960960.0,2.9473955631256104,7.784215927124023,0.1447952836751938,6.06392765045166,-0.741356372833252,-0.28863382,1.9498819,297.5343299999999,16.027729,47.470608,CSI
1190359072768.0,2.9523987770080566,7.775710582733154,0.0699201449751854,6.045834541320801,-0.7320265769958496,-0.34025195,1.9941696,296.8591,16.510122,47.36513,CSI
1190364053504.0,2.9574015140533447,7.766088008880615,-0.008259034715592861,6.0298380851745605,-0.7216715216636658,-0.38698313,2.043955,296.13986,17.046764000000003,47.215214,CSI
1190369034240.0,2.9624040126800537,7.75573205947876,-0.08895032852888107,6.01569938659668,-0.7101945281028748,-0.40408736,2.0857995,295.42078,17.56691,47.064175,CSI
1190374014976.0,2.9674060344696045,7.745025157928467,-0.1713181585073471,6.003173351287842,-0.6974817514419556,-0.32742378,2.1135938,294.71515,18.066637,46.894585,CSI
1190378995712.0,2.972407579421997,7.734233379364014,-0.25428029894828796,5.992112159729004,-0.6834589242935181,-0.20861048,2.116648,293.95227,18.592047,46.68153,CSI
1190383976448.0,2.9774088859558105,7.723530292510986,-0.33661720156669617,5.982439994812012,-0.6680580377578735,-0.08735373,2.1209242,293.2146,19.09501,46.443798,CSI
1190389088256.0,2.9824116230010986,7.713211536407471,-0.41800615191459656,5.9749298095703125,-0.6512888669967651,0.002443461,2.1041253,292.54547,19.548342,46.211163,CSI
1190394068992.0,2.9874136447906494,7.7035136222839355,-0.4984082281589508,5.970282077789307,-0.6331735253334045,0.027794369,2.1209242,291.89255,19.984419,45.960976,CSI
1190399049728.0,2.992415428161621,7.694021224975586,-0.5783163905143738,5.968809604644775,-0.6137852072715759,0.040011674,2.1551325,291.31183,20.346287,45.712086,CSI
1190404030464.0,2.9974169731140137,7.68408203125,-0.6583876609802246,5.970590591430664,-0.5932806134223938,-0.005497787,2.1560488,290.7451200000001,20.691269,45.47705,CSI
1190409011200.0,3.002418279647827,7.673111915588379,-0.739082932472229,5.975584983825684,-0.5717817544937134,-0.084910266,2.1591032,290.1892,21.01507,45.201263,CSI
1190413991936.0,3.0074193477630615,7.660583019256592,-0.8207610249519348,5.983703136444092,-0.5494251251220703,-0.1432479,2.1181753,289.65714,21.321037,44.94278,CSI
1190418972672.0,3.012420177459717,7.646172046661377,-0.9034889340400696,5.9945149421691895,-0.5263440608978271,-0.16096300000000002,2.0992384,289.0872,21.677082,44.626884,CSI
1190423953408.0,3.017420768737793,7.629650115966797,-0.9872100949287415,6.007450580596924,-0.5026949644088745,-0.12858713,2.0390682,288.5590200000001,22.006807,44.33071500000001,CSI
1190428934144.0,3.02242112159729,7.610918998718262,-1.0716896057128906,6.021711826324463,-0.4785648286342621,-0.037873644,2.0048597,287.98984,22.366417,43.962795,CSI
1190433914880.0,3.027421474456787,7.589951992034912,-1.1566213369369507,6.036440849304199,-0.4541146159172058,0.058643065,1.996613,287.45544,22.715708,43.59697,CSI
1190438895616.0,3.032421588897705,7.566699981689453,-1.2416021823883057,6.050872802734375,-0.42947474122047424,0.18906279,1.9413297,286.9539,23.062908,43.19976,CSI
1190443876352.0,3.037421464920044,7.5410919189453125,-1.3261266946792603,6.064335823059082,-0.4047339856624603,0.29077184,1.9080375,286.4763,23.404398,42.791264,CSI
1190448857088.0,3.042421340942383,7.512916564941406,-1.4099857807159424,6.076227188110352,-0.3799765706062317,0.35124752,1.9162843,285.9924,23.75667,42.376682,CSI
1190453837824.0,3.0474212169647217,7.481879711151123,-1.4931704998016357,6.0860090255737305,-0.3552875220775604,0.38728857,1.8961257,285.5578,24.087435,41.960464,CSI
1190458949632.0,3.052422285079956,7.447868347167969,-1.5758339166641235,6.093421459197998,-0.3307134211063385,0.41416663,1.8484782,285.13684,24.40762,41.5518,CSI
1190463930368.0,3.0574233531951904,7.41099214553833,-1.6581530570983887,6.098480224609375,-0.3062661290168762,0.46822822,1.8503108,284.73138,24.724348000000006,41.130596,CSI
1190468911104.0,3.0624241828918457,7.371532917022705,-1.7400950193405151,6.101292610168457,-0.28200802206993103,0.5222898,1.813048,284.33047,25.052391,40.71081,CSI
1190473891840.0,3.067424774169922,7.329936504364014,-1.8214267492294312,6.102057456970215,-0.2579900622367859,0.6035349,1.790446,283.95245,25.372334,40.27604,CSI
1190478872576.0,3.072425127029419,7.286645889282227,-1.901789665222168,6.101235866546631,-0.23425211012363434,0.6918049,1.7803668,283.5594,25.71317,39.81409,CSI
1190483853312.0,3.077425241470337,7.24211311340332,-1.9806666374206543,6.099606037139893,-0.21083514392375946,0.7797695,1.7693712,283.20117,26.041613,39.34405,CSI
1190488834048.0,3.082425355911255,7.19661283493042,-2.057657241821289,6.097850322723389,-0.187814861536026,0.86315256,1.7638733,282.87445,26.360632,38.868694,CSI
1190493814784.0,3.0874252319335938,7.150246620178223,-2.132469654083252,6.096564292907715,-0.16527535021305084,0.904386,1.7537941000000004,282.57135,26.669949,38.393177,CSI
1190498795520.0,3.0924248695373535,7.1031084060668945,-2.204848289489746,6.0962815284729,-0.14327064156532288,0.9486737,1.7486018,282.32004,26.931751,37.89702,CSI
1190503776256.0,3.0974245071411133,7.05528450012207,-2.274571180343628,6.097476482391357,-0.12190404534339905,0.96669424,1.7351627,282.08408,27.190563,37.409615,CSI
1190508756992.0,3.102423906326294,7.0067315101623535,-2.3416948318481445,6.100412368774414,-0.10125245153903961,0.9505063,1.7235563000000005,281.8576700000001,27.442936,36.929768,CSI
1190513737728.0,3.1074233055114746,6.957231044769287,-2.4066221714019775,6.105116367340088,-0.08140182495117188,0.90408057,1.6951511,281.64374,27.69045,36.467014,CSI
1190518718464.0,3.112422466278076,6.906536102294922,-2.4697771072387695,6.111621856689453,-0.0624607689678669,0.86101454,1.6841555,281.46405,27.879951,35.964306,CSI
1190523699200.0,3.1174216270446777,6.854290008544922,-2.5316779613494873,6.120001316070557,-0.04455180466175079,0.8042041,1.6374242,281.2937,28.059990000000006,35.496307,CSI
1190528811008.0,3.1224210262298584,6.800159931182861,-2.5926706790924072,6.130364418029785,-0.027780069038271904,0.7602218000000001,1.5818355,281.11136,28.261812,35.005833,CSI
1190533791744.0,3.127420425415039,6.743872165679932,-2.6528706550598145,6.142852306365967,-0.01221574004739523,0.7458665,1.5238034,280.9411,28.458384,34.53942,CSI
1190538772480.0,3.1324195861816406,6.685190200805664,-2.7122678756713867,6.157498359680176,0.0020773725118488073,0.73761976,1.4636332,280.7516,28.684946000000004,34.036713,CSI
1190543753216.0,3.137418746948242,6.623900890350342,-2.7706198692321777,6.174155235290527,0.015024004504084587,0.7476991,1.4138476,280.58005,28.90822,33.550434,CSI
1190548733952.0,3.1424176692962646,6.559889316558838,-2.827664375305176,6.192643165588379,0.026597823947668076,0.8011498,1.3603969,280.42868,29.135418,33.014725,CSI
1190553714688.0,3.147416591644287,6.493225574493408,-2.8829805850982666,6.21266508102417,0.03674096241593361,0.88025683,1.3133603,280.29956,29.363674,32.487697999999995,CSI
1190558826496.0,3.152419090270996,6.423887729644775,-2.9361045360565186,6.2339372634887695,0.045401282608509064,0.9941832,1.3026701,280.19943,29.590803,31.911652,CSI
1190563807232.0,3.157421350479126,6.35221529006958,-2.986619472503662,6.256088733673096,0.052578769624233246,1.0815369,1.318858,280.1172,29.816948,31.33693,CSI
1190568787968.0,3.1624231338500977,6.278489589691162,-3.034010410308838,6.278726577758789,0.058275021612644196,1.1606439,1.3234396000000002,280.06354,30.045742,30.751822,CSI
1190573768704.0,3.167424440383911,6.202972412109375,-3.078706979751587,6.301333427429199,0.0625043511390686,1.2140946,1.3133603,280.02264,30.257057,30.139082,CSI
1190578749440.0,3.1724257469177246,6.125903606414795,-3.1211695671081543,6.323433876037598,0.06533406674861908,1.2144,1.3255776,279.98016,30.471865,29.526686,CSI
1190583730176.0,3.177426815032959,6.047206878662109,-3.1624083518981934,6.344906806945801,0.06689352542161942,1.1533136,1.3277156,279.95294,30.653904,28.937086,CSI
1190588710912.0,3.182427406311035,5.966790676116943,-3.2033889293670654,6.365682125091553,0.06737080961465836,1.1175779,1.3326025,279.92654,30.831392,28.349377,CSI
1190593691648.0,3.1874277591705322,5.884669780731201,-3.2448511123657227,6.385732173919678,0.06701736152172089,1.0012082,1.3292428,279.85004,31.030882,27.798006,CSI
1190598672384.0,3.19242787361145,5.800907135009766,-3.287389039993286,6.405048370361328,0.06597848981618881,0.8536841999999999,1.3185526,279.76282000000003,31.224731,27.2722,CSI
1190603784192.0,3.197427749633789,5.715277671813965,-3.3313989639282227,6.423523902893066,0.06441152840852737,0.72326446,1.2968669,279.622,31.473854,26.724909000000004,CSI
1190608764928.0,3.202427625656128,5.627464771270752,-3.377171516418457,6.441021919250488,0.06247807666659355,0.589485,1.2565498,279.46353,31.704638,26.226534,CSI
1190613745664.0,3.207427501678467,5.5372114181518555,-3.424778699874878,6.457350254058838,0.06034829840064049,0.50426924,1.2147056,279.27173,31.971834,25.720278,CSI
1190618726400.0,3.2124271392822266,5.444333076477051,-3.474167585372925,6.472311973571777,0.058137089014053345,0.42241332,1.1499538,279.07565,32.21708,25.262907,CSI
1190623707136.0,3.2174267768859863,5.34874153137207,-3.5251376628875732,6.485696792602539,0.05595286563038826,0.37048978,1.0937542,278.85645,32.496387,24.770836,CSI
1190628687872.0,3.222426414489746,5.2504096031188965,-3.5774319171905518,6.497308254241943,0.05391353741288185,0.34177909999999995,1.0244209999999998,278.65018,32.747925,24.312988,CSI
1190633799680.0,3.2274258136749268,5.149178504943848,-3.6307456493377686,6.507061004638672,0.052137382328510284,0.36743546,0.93309665,278.45047,33.011463,23.828403,CSI
1190638780416.0,3.2324252128601074,5.04480504989624,-3.6847500801086426,6.51494836807251,0.050656791776418686,0.35216382,0.8723155999999999,278.25143,33.25935,23.373528,CSI
1190643892224.0,3.237426519393921,4.9371256828308105,-3.738618850708008,6.521224021911621,0.04955373704433441,0.34422258,0.818254,278.06885,33.49978,22.895376,CSI
1190648872960.0,3.2424275875091553,4.826232433319092,-3.7915866374969482,6.526188373565674,0.04893098026514053,0.33964106,0.7629706999999999,277.90298,33.71824,22.437351,CSI
1190653853696.0,3.2474284172058105,4.712164878845215,-3.843637466430664,6.529950141906738,0.04883241280913353,0.29565877,0.73792523,277.73053,33.937344,21.949282,CSI
1190658834432.0,3.2524290084838867,4.594985485076904,-3.895202159881592,6.532503128051758,0.04936615005135536,0.2574797,0.72143185,277.573,34.12582800000001,21.475714,CSI
1190663815168.0,3.257429599761963,4.474998950958252,-3.9463918209075928,6.533799171447754,0.050654180347919464,0.26083946,0.68416905,277.44565,34.249363,20.977404,CSI
1190668795904.0,3.26242995262146,4.352652549743652,-3.9971261024475098,6.533780574798584,0.052784617990255356,0.28893927,0.61361414,277.3299,34.34901,20.497292,CSI
1190673776640.0,3.267430067062378,4.22852897644043,-4.047244071960449,6.532550811767578,0.05567355826497078,0.31306845,0.5589417,277.2024,34.48481,19.977554,CSI
1190678888448.0,3.272430658340454,4.103285789489746,-4.096532821655273,6.530320167541504,0.059258393943309784,0.31215215,0.5036584,277.0951,34.590412,19.476511,CSI
1190683869184.0,3.2774312496185303,3.977536916732788,-4.144833564758301,6.5272111892700195,0.06346976011991501,0.2764165,0.44929138,276.99744,34.698166,18.983994,CSI
1190688849920.0,3.2824316024780273,3.8518738746643066,-4.192020416259766,6.523272514343262,0.06819859892129898,0.23640485,0.39950588,276.91333,34.797897,18.508171,CSI
1190693830656.0,3.2874317169189453,3.7268621921539307,-4.238007068634033,6.518563270568848,0.07339514046907425,0.16035213,0.37934732,276.82278,34.870472,18.066895,CSI
1190698811392.0,3.292431592941284,3.6030642986297607,-4.282759189605713,6.513162136077881,0.07902733981609344,0.07880162,0.33078352,276.7445,34.933052,17.655659,CSI
1190703792128.0,3.297431230545044,3.481074094772339,-4.326328754425049,6.507043361663818,0.08509211987257004,-0.004581489,0.27977628,276.66028,34.979824,17.288202,CSI
1190708772864.0,3.3024306297302246,3.3615102767944336,-4.3688459396362305,6.500088691711426,0.09159503877162933,-0.08979719,0.23335053,276.57288,35.016075,16.95245,CSI
1190713884672.0,3.307432174682617,3.245112419128418,-4.4105095863342285,6.49225378036499,0.09858667850494385,-0.22907446,0.15913039999999998,276.47662,35.027374,16.685177,CSI
1190718865408.0,3.3124332427978516,3.132437229156494,-4.45148229598999,6.483606338500977,0.10617777705192566,-0.28069258,0.12980886,276.38226000000003,35.02476,16.421529999999994,CSI
