acc_x,acc_y,acc_z,gyro_x,gyro_y,gyro_z,label
0.0,0.0,0.0,0.0,0.74464476,0.03604105,1
0.01885873451828957,0.2888549268245697,0.004275617655366659,-0.03478994220495224,0.74189585,0.034513887,1
0.06571086496114731,0.9788259863853456,0.012596676126122476,-0.11574140191078185,0.77488256,0.035430185,1
0.1390179544687271,1.9324772357940676,0.026079658418893814,-0.2364503890275955,0.7339545999999999,0.06414085,1
0.2394348978996277,3.0018341541290283,0.05137411504983902,-0.371151864528656,0.66950834,0.1133155,1
0.36320534348487854,4.085250377655028,0.08015351742506027,-0.4817438125610352,0.3827071,0.11484267,1
0.4924153685569763,5.0917134284973145,0.1093725934624672,-0.4836295247077942,-0.08796459400000001,0.030848695,1
0.5976890921592712,5.968310832977295,0.1305919587612152,-0.4002791047096253,-0.029626964,0.04550946,1
0.6765875816345215,6.708585262298584,0.14479507505893707,-0.3363154232501984,0.019242255,0.043982297,1
0.7233697175979614,7.318175315856934,0.16000331938266754,-0.2867043912410736,0.03176499,0.032375857,1
0.7494586706161499,7.804903030395508,0.17338179051876068,-0.2468936443328857,0.023518313,0.019547688,1
0.7656255960464478,8.206533432006836,0.1856950521469116,-0.2148207426071167,0.005192355,0.02076942,1
0.774679958820343,8.527860641479492,0.18258942663669586,-0.1864096224308014,-0.015577064,0.012217305,1
0.785790741443634,8.786684989929201,0.17274005711078644,-0.16111677885055542,-0.043676864,0.00061086525,1
0.8089173436164856,8.996319770812988,0.16152603924274445,-0.13853000104427338,-0.032986723,0.0061086523,1
0.8488482236862183,9.161494255065918,0.13461793959140778,-0.12008001655340195,-0.015882496,0.01282817,1
0.8831278681755066,9.293628692626953,0.18548113107681274,-0.10609545558691023,-0.015577064,0.0076358155,1
0.9209027886390686,9.394394874572754,0.1462031900882721,-0.09565667808055878,0.0018325958,0.013744468,1
0.9603372812271118,9.486437797546387,0.050632920116186135,-0.0868971049785614,0.01985312,0.015577064,1
0.989822506904602,9.564523696899414,0.10745012015104294,-0.07980876415967941,0.04520403,0.01160644,1
1.0052099227905271,9.622437477111816,0.13903148472309113,-0.07277701795101166,0.090713486,0.011911872,1
1.0128458738327026,9.659768104553224,0.19780972599983213,-0.0657147690653801,0.1020145,0.007941248,1
1.0088144540786743,9.684158325195312,0.2758459448814392,-0.05982628464698792,0.10048734,0.007330383,1
0.991176187992096,9.704224586486816,0.31094881892204285,-0.05540367215871811,0.076052725,0.011911872,1
0.9661579728126526,9.727513313293457,0.28683754801750183,-0.05088753625750542,0.07422013,0.0143553335,1
0.9415766596794128,9.74752140045166,0.22041599452495572,-0.04507778212428093,0.0693332,0.013133603,1
0.9122102856636048,9.766690254211426,0.11712448298931122,-0.03724384307861328,0.040317107000000005,0.012217305,1
0.8826716542243958,9.78079605102539,0.010732181370258331,-0.029706975445151333,0.01740966,0.009162978,1
0.8692202568054199,9.793815612792967,-0.0685345008969307,-0.020070558413863186,0.01863139,0.010995574,1
0.8683258891105652,9.803876876831056,-0.09724991023540497,-0.014384347945451738,0.022602014,0.009162978,1
0.8750321269035339,9.811012268066406,-0.06590966880321503,-0.008842529729008675,0.018936822,0.0009162979,1
0.8950019478797913,9.819711685180664,0.02160376682877541,-0.005504075903445482,0.018020526,0.008246681,1
0.9146768450737,9.832128524780273,0.1040346622467041,-0.004285575356334448,0.025961773,0.0067195175,1
0.9253171682357788,9.842846870422363,0.15001949667930606,-0.00463606882840395,0.035430185,0.0125227375,1
0.9297107458114624,9.849920272827148,0.1567891538143158,-0.006935576908290386,0.04062254,0.009773844,1
0.921132743358612,9.858656883239746,0.12632356584072113,-0.0111203882843256,0.047647487,0.019242255,1
0.9043095111846924,9.869998931884766,0.06462012976408005,-0.016757884994149208,0.052534413,0.011911872,1
0.8772403001785278,9.876462936401367,-0.01479658205062151,-0.0207973625510931,0.06597344599999999,0.002443461,1
0.8545185327529907,9.875828742980957,-0.06159074231982231,-0.02359490282833576,0.05497787,0.005497787,1
0.8362720608711243,9.867668151855467,-0.057181965559720986,-0.023859912529587742,0.038179077,0.0015271631,1
0.8270902633666992,9.865989685058594,0.005027906503528357,-0.023018175736069683,0.028099801,0.0021380284,1
0.8275302648544312,9.867429733276367,0.1038367599248886,-0.02454774640500545,0.01160644,0.0015271631,1
0.8213601112365723,9.863262176513672,0.1724611073732376,-0.027707301080226898,0.02107485,0.004581489,1
0.8018838763237,9.849337577819824,0.19291171431541446,-0.0281770508736372,0.03848451,-0.0036651916,1
0.7795416116714478,9.834132194519043,0.17995116114616394,-0.022033054381608963,0.04062254,-0.011911872,1
0.7735387086868286,9.834738731384276,0.14467665553092954,-0.01599702052772045,0.04795292,0.00580322,1
0.7936418652534485,9.851786613464355,0.09527985006570816,-0.010628117248415949,0.030848695,0.004886922,1
0.8180429339408875,9.860638618469238,0.05221643298864365,-0.009387688711285593,0.028099801,0.012217305,1
0.8322663307189941,9.860840797424316,0.031363289803266525,-0.008795755915343761,0.0693332,0.0076358155,1
0.8377889394760132,9.866161346435547,0.0270904153585434,-0.007633128203451634,0.10567969,0.013744468,1
0.8432639241218567,9.876794815063477,0.0474315956234932,-0.007832671515643597,0.118202426,0.021685716,1
0.8378110527992249,9.885751724243164,0.08792463690042496,-0.009466752409935,0.12644911,0.016493361,1
0.8229870200157166,9.886439323425293,0.12402725219726562,-0.01282462663948536,0.13133603,0.023823744,1
0.7921653985977173,9.882418632507324,0.13805659115314484,-0.015227974392473698,0.13316862,0.025350908,1
0.7435035705566406,9.8768892288208,0.12943291664123535,-0.019192896783351898,0.12156218,0.022296581,1
0.7047701478004456,9.873791694641113,0.11301051080226898,-0.020851537585258484,0.105068825,0.014660766,1
0.6884171366691589,9.875060081481934,0.10791055858135223,-0.019684208557009697,0.10903945,-0.0009162979,1
0.7105529904365541,9.882566452026367,0.1376880258321762,-0.018692085519433018,0.16279559,0.01038471,1
0.7922468185424805,9.893637657165527,0.12330205738544465,-0.026370150968432426,0.24037547,0.044593163,1
0.8626410365104675,9.911417961120604,0.17595474421977994,-0.03166698291897774,0.09590584,0.062002823,1
0.8856643438339233,9.920894622802734,0.2543295919895172,-0.04230739176273346,0.09101892,0.030848695,1
0.91358083486557,9.926484107971193,0.3122198581695557,-0.05812286958098412,0.24098633,0.01985312,1
0.9849795699119568,9.938677787780762,0.4061785340309143,-0.0797542929649353,0.16646078,0.02443461,1
1.0380958318710327,9.967362403869627,0.4808881282806397,-0.11004940420389177,0.1518,0.021380283,1
1.0169988870620728,9.94993782043457,0.4659883677959442,-0.13927976787090302,0.2706133,-0.022296581,1
1.018797755241394,9.87062168121338,0.4449254274368286,-0.15155792236328125,0.1020145,-0.03176499,1
1.0571067333221436,9.824803352355957,0.6535636782646179,-0.16638176143169406,-0.37048978,-0.00580322,1
0.9468841552734376,9.792020797729492,0.8450260758399963,-0.1968085765838623,-0.12583824,-0.064751714,1
0.7766650915145874,9.734504699707033,0.8235979080200195,-0.2116657048463821,0.22632557,-0.14141529999999994,1
0.7023110389709473,9.672704696655273,0.7397050857543945,-0.1855793297290802,0.0842994,-0.17745635,1
0.7345529794692993,9.658354759216307,0.7016838192939758,-0.13572193682193756,-0.08521569999999999,-0.1386664,1
0.7825841307640076,9.658689498901367,0.6940600275993347,-0.0836106389760971,-0.028405234,-0.11178834,1
0.837177038192749,9.676663398742676,0.7360783219337463,-0.04368400946259498,-0.07086037,-0.09743301,1
0.8567506670951843,9.706982612609863,0.7623783349990845,-0.011471888050436974,-0.021685716,-0.10995574,1
0.8440907597541809,9.752150535583496,0.7458036541938782,0.002574492944404483,0.0125227375,-0.13652839,1
0.8215327262878418,9.797564506530762,0.6482746601104736,0.005792936310172081,0.04337143,-0.14966199,1
0.7525426149368286,9.818004608154297,0.5307597517967224,0.011369324289262295,-0.0018325958,-0.14080444,1
0.5681164860725403,9.809165954589844,0.4239136278629303,0.013119295239448549,0.061391957,-0.14813483,1
0.3828933835029602,9.81166934967041,0.3199896216392517,0.016919422894716263,0.17165314,-0.17104226,1
0.30707865953445435,9.834006309509276,0.2835391461849213,0.02109544165432453,0.11026118,-0.13744467,1
0.2640707790851593,9.840744972229004,0.3112642168998718,0.01558720227330923,-0.0070249503,-0.07880162,1
0.10928595066070557,9.852001190185547,0.37506741285324097,0.0002373035968048498,0.04734206,-0.079107046,1
-0.12174690514802933,9.870058059692383,0.3338087201118469,-0.01219405885785818,0.19639318,-0.12492194,1
-0.2572169601917267,9.895113945007324,0.2860015630722046,-0.005854141898453236,0.06688975,-0.13561209,1
-0.25680238008499146,9.933167457580566,0.3008787333965301,-0.010688204318284987,0.011301007,-0.06261369,1
-0.2550636529922485,9.925277709960938,0.3058147132396698,-0.036136820912361145,0.02321288,-0.018936822,1
-0.2663014531135559,9.904683113098145,0.31096190214157104,-0.06220129132270812,-0.024129177,-0.015577064,1
-0.26258134841918945,9.906837463378906,0.3040391504764557,-0.07562585920095444,-0.038179077,0.009468411,1
-0.2966895997524261,9.916858673095703,0.3132956027984619,-0.08385562896728516,0.04428773,0.047036625,1
-0.40280550718307495,9.912379264831543,0.3193100988864899,-0.09756789356470108,0.3268129,0.06872234,1
-0.5163329839706421,9.883054733276367,0.3268018960952759,-0.11018454283475876,0.40042216,0.095294975,1
-0.6132370829582214,9.836592674255373,0.3330232501029968,-0.11600147932767868,0.29535335,0.15882497,1
-0.6840714812278748,9.814260482788086,0.3091678917407989,-0.12298255413770676,0.38545597,0.22204952,1
-0.6696499586105347,9.84725856781006,0.26712390780448914,-0.1365889459848404,0.46120325,0.28221974,1
-0.5845178365707397,9.876848220825195,0.2957593500614166,-0.15192042291164398,0.2782491,0.39064834,1
-0.5916727185249329,9.861921310424805,0.30798086524009705,-0.1705896556377411,0.22724187,0.45265114,1
-0.6583337187767029,9.860502243041992,0.2508147656917572,-0.19747275114059448,0.27000242,0.45723262,1
-0.7575057744979858,9.896132469177246,0.1365516483783722,-0.22658222913742065,0.26297748,0.45081854,1
-0.9140801429748536,9.947183609008787,-0.06460617482662201,-0.2526456415653229,0.42180246,0.38240165,1
-1.031399130821228,10.013028144836426,-0.2928870916366577,-0.2782953083515167,0.5225952,0.25900686,1
-1.0200245380401611,10.06788158416748,-0.449371725320816,-0.30608782172203064,0.50885075,0.19425514,1
-0.8964478373527527,10.115463256835938,-0.5650004744529724,-0.3395201563835144,0.6780604,0.25289822,1
-0.671890914440155,10.210785865783693,-0.6974306702613831,-0.3722127974033356,0.9550878,0.30604348,1
-0.3437735736370087,10.389968872070312,-0.8033428788185121,-0.3878587782382965,1.2846496,0.27916542,1
0.13740277290344238,10.63606071472168,-0.6690626740455627,-0.3617729842662811,1.4657712,0.2846632,1
0.6184422373771667,10.830733299255373,-0.2605558633804321,-0.2660955190658569,1.4941764,0.41722095,1
0.8943862915039062,10.753801345825195,0.31106048822402954,-0.17693734169006348,1.597718,0.45662177,1
1.0164164304733276,10.345904350280762,0.8107117414474487,-0.15328529477119446,1.462106,0.4456262,1
1.1568264961242676,9.898786544799805,1.1134470701217651,-0.14676256477832794,1.2061534,0.5161811,1
1.2832038402557373,9.51388931274414,1.3664865493774414,-0.13566377758979795,1.1490375,0.6178902,1
1.4101510047912598,9.289708137512207,1.6346172094345093,-0.12080083042383195,1.3264938999999998,0.61636305,1
1.5191373825073242,9.330520629882812,1.8978729248046875,-0.1015544906258583,1.4654657,0.5390885999999999,1
1.4978183507919312,9.512743949890137,2.2237966060638428,-0.06631262600421907,1.6310102,0.32314770000000004,1
1.390835523605347,9.67300033569336,2.667767286300659,-0.049481604248285294,1.3753631000000002,0.2406809,1
1.1968685388565063,9.612375259399414,3.0456054210662837,-0.05257822945713997,1.1343768,0.18051068,1
0.9746049642562866,9.43667697906494,3.1987524032592773,-0.08466944843530655,0.9266826,0.09468412,1
0.8117454051971436,9.234223365783693,2.9593083858489986,-0.08528187870979309,0.9266826,0.08704830000000001,1
0.7543796896934509,9.076563835144043,2.548739433288574,-0.0123427864164114,1.2324207,0.07727446,1
0.8169839978218079,8.962611198425293,2.2696754932403564,0.11685439944267273,1.2635747,0.044898596,1
1.0269464254379272,8.943537712097168,2.2137339115142822,0.2790049910545349,0.8979719,0.055283304000000005,1
1.2687244415283203,9.017376899719238,2.346029281616211,0.43444204330444336,0.58062744,0.08063421400000001,1
1.3783384561538696,9.104022979736328,2.488452911376953,0.5249992609024048,0.7724390999999999,0.116675265,1
1.4325376749038696,9.170055389404297,2.5706663131713867,0.551555335521698,0.9071349,0.14019357,1
1.519825100898743,9.283056259155273,2.576542615890503,0.5543959140777588,0.86834496,0.14172074,1
1.5745382308959959,9.464385032653807,2.531885862350464,0.5499522686004639,0.77946407,0.14813483,1
1.5125467777252195,9.56312084197998,2.45952582359314,0.525147020816803,0.7690793,0.10170906,1
1.371856927871704,9.539292335510254,2.425816535949707,0.4883068799972534,0.65240407,0.046120327,1
1.226054549217224,9.552864074707033,2.4477171897888184,0.4522483646869659,0.5357288,0.052839845,1
1.0954174995422363,9.604903221130373,2.305471658706665,0.4139385223388672,0.5717699,0.07971791,1
1.031147599220276,9.65780544281006,2.0134422779083248,0.3864829838275909,0.453262,0.12156218,1
1.0441056489944458,9.728854179382324,1.822837829589844,0.3714462518692017,0.25320363,0.15974127,1
1.1467058658599854,9.794629096984863,1.8077061176300049,0.342234879732132,-0.06994407,0.1826487,1
1.2806951999664309,9.820352554321287,1.955029845237732,0.2972536385059357,-0.4361577999999999,0.21960606,1
1.2906979322433472,9.79939079284668,2.0432162284851074,0.24408552050590515,-0.301462,0.22602014,1
1.116990327835083,9.73264980316162,1.7841721773147583,0.21831944584846494,0.31398472,0.19700404,1
0.9773378968238832,9.576152801513672,1.3445414304733276,0.23868054151535034,0.33444872,0.129198,1
0.9753105044364928,9.42507553100586,1.043432116508484,0.313740611076355,-0.13133603,0.07238753,1
1.0047801733016968,9.370739936828613,0.9055524468421936,0.4141370952129364,-0.26725355,0.05589417,1
0.955125629901886,9.42092514038086,0.8123753070831299,0.5179389715194702,0.013439035,0.035430185,1
0.8939594626426697,9.437103271484377,0.6142374873161316,0.6049403548240662,0.3912592,-0.013439035,1
0.9787731170654296,9.438472747802734,0.3533601760864258,0.6592574715614319,0.34147367,-0.03023783,1
1.1761019229888916,9.51733684539795,0.20213478803634646,0.6837130188941956,0.17379116,-0.03023783,1
1.3856085538864136,9.72822093963623,0.28816771507263184,0.6624309420585632,0.1957823,-0.02107485,1
1.520113825798035,9.997735977172852,0.493148148059845,0.5969911217689514,0.16554448,-0.03756821,1
1.4780157804489136,10.205522537231444,0.642105221748352,0.4956413209438324,0.11056661,-0.093767814,1
1.3236532211303709,10.340169906616213,0.7317934632301331,0.3636694550514221,0.0290161,-0.12797627,1
1.1771074533462524,10.422985076904297,0.7980776429176331,0.21652142703533173,0.07452556,-0.13469578,1
1.1033287048339844,10.506929397583008,0.8243082761764526,0.09155134111642838,0.09437868,-0.14752395,1
1.0819681882858276,10.5358304977417,0.8221630454063416,-0.012088089250028132,-0.028099801,-0.15210545,1
1.0095231533050537,10.429387092590332,0.8382932543754578,-0.11171899735927583,-0.25870144,-0.17592919,1
0.949040710926056,10.308501243591307,0.8250401020050049,-0.20765602588653564,-0.4269948,-0.17959438,1
0.9692049026489258,10.20926284790039,0.7504189014434814,-0.29562947154045105,-0.4392121,-0.16187929,1
1.0367264747619631,10.105968475341797,0.6047180891036987,-0.3692798912525177,-0.33261612,-0.16065755,1
1.1110732555389404,10.016155242919922,0.3903173506259918,-0.4211563169956207,-0.17470746,-0.13591751,1
1.1429930925369265,9.919088363647461,0.15143127739429474,-0.4436227977275848,-0.04642576,-0.06536258,1
1.1077930927276611,9.817503929138184,-0.06545225530862807,-0.4328950643539429,-0.040317107000000005,-0.07360926,1
1.041630744934082,9.683944702148438,-0.2626930177211761,-0.3806887865066528,-0.105374254,-0.118507855,1
1.0029729604721072,9.574697494506836,-0.3874225616455078,-0.302261084318161,-0.17806722,-0.12370021,1
1.0137429237365725,9.52991008758545,-0.4100458025932312,-0.21373020112514496,-0.18570304,-0.110872045,1
1.0163033008575442,9.52120304107666,-0.3970015645027161,-0.1258096992969513,-0.10873401,-0.09590584,1
0.9684230089187622,9.53839874267578,-0.400500625371933,-0.033745154738426215,-0.019547688,-0.106901415,1
0.9124271273612976,9.550090789794922,-0.3949109315872192,0.06503468006849289,-0.011911872,-0.13805555,1
0.8961936235427856,9.592930793762207,-0.3710470497608185,0.1593388170003891,-0.018936822,-0.09682214,1
0.8912842869758606,9.634081840515137,-0.35100582242012024,0.24065348505973816,-0.046120327,-0.08582657,1
0.8581047654151917,9.658743858337402,-0.34091368317604065,0.31262531876564026,-0.12614368,-0.09987647,1
0.7968383431434631,9.70284652709961,-0.3067799806594849,0.3722343444824219,-0.14996742,-0.106901415,1
0.7471839785575867,9.789219856262207,-0.2429064363241196,0.4060955345630646,-0.09254608,-0.08124508,1
0.7252026200294495,9.860857009887695,-0.1872549951076508,0.4190521538257599,-0.073303826,-0.03176499,1
0.7169986367225647,9.874690055847168,-0.16295617818832395,0.42176353931427,-0.17623462,-0.026572637000000003,1
0.7330772876739502,9.881174087524414,-0.1696317344903946,0.4134504497051239,-0.28680122,-0.029932396,1
0.7316192984580994,9.906214714050293,-0.17415441572666168,0.3954375982284546,-0.29229903,-0.05467244,1
0.6886270046234131,9.947837829589844,-0.1880823075771332,0.36782270669937134,-0.21533,-0.09437868,1
0.6236773729324341,9.959293365478516,-0.2450186312198639,0.33921921253204346,-0.22082779,-0.13255776,1
0.5584807395935059,9.998553276062012,-0.3005154430866241,0.31201475858688354,-0.24587326,-0.13225232,1
0.4905708432197571,10.05141544342041,-0.2885711491107941,0.28402599692344666,-0.29168814,-0.15454891,1
0.4719519019126892,10.085537910461426,-0.2785642147064209,0.2561561465263367,-0.22113322,-0.1563815,1
0.5051252841949463,10.098669052124023,-0.2830486595630646,0.22461862862110135,-0.21380283,-0.1337795,1
0.5466858744621277,10.076166152954102,-0.3209457993507385,0.1829475611448288,-0.19975294,-0.12522738,1
0.5423689484596252,10.016579627990724,-0.35039061307907104,0.14527525007724762,-0.23396139,-0.07941248,1
0.4512001872062683,9.960725784301758,-0.39239928126335133,0.109862819314003,-0.30451632,-0.054367006,1
0.3146173357963562,9.91651439666748,-0.4329891502857208,0.08937530964612961,-0.40011674,-0.040927973,1
0.14836865663528442,9.885716438293457,-0.4542657732963562,0.08204775303602219,-0.5345071,-0.040317107000000005,1
0.029786027967929837,9.793453216552734,-0.5453848838806152,0.08569251745939255,-0.6301074999999999,-0.052839845,1
-0.029311470687389374,9.74236011505127,-0.6392725706100464,0.10017267614603044,-0.6927211999999999,-0.04795292,1
-0.061444643884897225,9.751188278198242,-0.6501790881156921,0.1165958046913147,-0.7840455,-0.024740042,1
-0.09252679347991943,9.765536308288574,-0.6750961542129517,0.12408130615949632,-0.6945538,0.0030543262,1
-0.09866403043270112,9.777825355529783,-0.7035942673683167,0.13087250292301178,-0.6579019,0.004581489,1
-0.12477511167526245,9.789708137512207,-0.7201651334762573,0.14006783068180084,-0.46273044,-0.015271631,1
-0.2016495913267136,9.807229042053224,-0.7335621118545532,0.148164302110672,-0.30543262,-0.06994407,1
-0.3100219666957855,9.89177131652832,-0.7192057967185974,0.15337640047073364,-0.21685717,-0.089491755,1
-0.4411748349666596,9.992753982543944,-0.6951900720596313,0.15240049362182614,-0.09437868,-0.064751714,1
-0.5779592394828796,9.991003036499023,-0.6815847158432007,0.14566174149513245,-0.06627888,-0.040011674,1
-0.623586893081665,9.949671745300293,-0.6394243836402893,0.13875263929367065,-0.20738874,0.0070249503,1
-0.6073194146156311,9.903876304626463,-0.5724961757659912,0.13313105702400208,-0.2501493,0.037873644,1
-0.5985437035560608,9.85955810546875,-0.5715537071228027,0.13398775458335874,-0.31398472,0.08155051,1
-0.599107027053833,9.843090057373047,-0.6912071704864502,0.13373631238937378,-0.2284636,0.02687807,1
-0.5857999920845032,9.932336807250977,-0.8380836844444275,0.11249678581953047,-0.19150625,-0.043066,1
-0.4829978346824646,10.078604698181152,-0.95353502035141,0.08128304034471512,-0.049785517,-0.12186762,1
-0.2281801402568817,10.166425704956056,-0.9692804217338562,0.05174989253282547,-0.0067195175,-0.061391957,1
0.08592395484447479,10.158194541931152,-0.9289419054985046,0.01027811784297228,-0.0070249503,0.0580322,1
0.26132887601852417,10.048462867736816,-0.9165021777153016,-0.027276989072561264,-0.1020145,0.15241088,1
0.267912358045578,9.919963836669922,-0.9565463662147522,-0.049596861004829414,-0.12705997,0.16035213,1
0.1667722463607788,9.803866386413574,-1.0647445917129517,-0.06032184511423111,-0.06383542,0.081855945,1
0.040593136101961136,9.756377220153807,-1.2138047218322754,-0.057381603866815574,-0.015882496,-0.00580322,1
-0.06405331939458847,9.772979736328123,-1.3737095594406128,-0.0417998768389225,0.032070424,-0.06536258,1
-0.09046930819749832,9.801159858703613,-1.4802051782608032,-0.032821308821439736,0.09437868,-0.116675265,1
-0.015131523832678797,9.851190567016602,-1.50086510181427,-0.030686093494296074,0.18509217,-0.1563815,1
0.14866013824939728,9.94933795928955,-1.412010669708252,-0.028657484799623486,0.32559118,-0.14385876,1
0.2929269373416901,9.98418140411377,-1.338086724281311,-0.03527044504880905,0.419359,-0.07147124,1
0.2887672483921051,9.96226978302002,-1.2828717231750488,-0.05127425864338875,0.43982297,-0.02107485,1
0.15520644187927246,9.91484260559082,-1.2533159255981443,-0.06478621810674667,0.42638394,-0.020158553,1
-0.014188306406140327,9.855934143066406,-1.24000346660614,-0.06638091802597046,0.42638394,-0.03359759,1
-0.14227229356765747,9.792806625366213,-1.225232481956482,-0.057268761098384864,0.364992,-0.03145956,1
-0.21816229820251465,9.72687816619873,-1.206021785736084,-0.03863960132002831,0.29565877,-0.005192355,1
-0.2848649621009827,9.676180839538574,-1.1991817951202393,-0.015654385089874268,0.22296582,0.0021380284,1
-0.34738588333129883,9.662360191345217,-1.194538712501526,0.01083535235375166,0.1423316,-0.0009162979,1
-0.406525194644928,9.680466651916504,-1.1708788871765137,0.04233093559741974,0.09682214,-0.0015271631,1
-0.44797733426094055,9.707847595214844,-1.143133282661438,0.07161268591880797,0.03176499,-0.009162978,1
-0.4423533082008362,9.73938274383545,-1.086568832397461,0.0920490026473999,0.044593163,-0.004581489,1
-0.4150185585021973,9.787653923034668,-1.0044190883636477,0.09999851882457733,-0.024129177,0.017104227,1
-0.401211678981781,9.851245880126953,-0.9471459388732909,0.09581271559000017,-0.04520403,-0.0036651916,1
-0.3936215043067932,9.920875549316406,-0.9120154380798341,0.08534804731607437,-0.040927973,-0.00580322,1
-0.3750363886356354,9.967432022094727,-0.8803071975708008,0.07162022590637207,-0.062002823,-0.02687807,1
-0.34090858697891235,9.985514640808104,-0.8577386736869812,0.053794685751199715,-0.08674286,-0.029932396,1
-0.3096388876438141,9.994593620300293,-0.8430109024047852,0.034591492265462875,-0.093462385,-0.025045475,1
-0.28452980518341064,9.991869926452637,-0.8312456607818604,0.014197645708918571,-0.10048734,-0.028099801,1
-0.2565575540065765,9.975876808166504,-0.824557900428772,-0.005118532106280328,-0.12003502,-0.033292156,1
-0.23309649527072904,9.956809997558594,-0.8203783631324768,-0.02303469181060791,-0.16035213,-0.028710667,1
-0.2243724763393402,9.940160751342773,-0.8271679282188416,-0.039944503456354134,-0.1777618,-0.022907447,1
-0.2267298400402069,9.915811538696287,-0.8299920558929443,-0.053840253502130515,-0.18936823,-0.009773844,1
-0.2508254051208496,9.886545181274414,-0.8503525257110596,-0.06602200120687485,-0.19456059,-0.013744468,1
-0.2856369912624359,9.861312866210938,-0.8761321306228638,-0.07123501598834991,-0.21471913,-0.024740042,1
-0.3206915557384491,9.838139533996582,-0.9293395280838012,-0.07037446647882463,-0.2098322,-0.03359759,1
-0.3282201886177063,9.815526008605957,-1.0075869560241701,-0.06431519985198975,-0.18661933,-0.035124752999999995,1
-0.2926226556301117,9.813854217529297,-1.0535951852798462,-0.05656951293349266,-0.21227567,-0.021685716,1
-0.269904226064682,9.821093559265137,-1.087646245956421,-0.04955532401800156,-0.20280726,-0.0125227375,1
-0.26029372215271,9.82999324798584,-1.1190354824066162,-0.044685419648885734,-0.17256944,-0.008857545999999999,1
-0.23904892802238464,9.842264175415039,-1.1430370807647705,-0.04370847344398498,-0.18753563,-0.013744468,1
-0.21635538339614868,9.84678554534912,-1.1536531448364258,-0.04573648795485497,-0.17195857,-0.0070249503,1
-0.2015584707260132,9.843053817749023,-1.1727497577667236,-0.04495222121477127,-0.13622294,-0.0015271631,1
-0.1925676167011261,9.834068298339844,-1.2111363410949707,-0.04157392680644989,-0.1151481,-0.0021380284,1
-0.17295926809310913,9.829208374023438,-1.253032922744751,-0.03833981230854988,-0.10354166,0.004276057,1
-0.1374739706516266,9.823254585266113,-1.281898021697998,-0.03538984060287476,-0.05772676700000001,0.0076358155,1
-0.10184361785650252,9.809812545776367,-1.2949426174163818,-0.03104549832642078,-0.005192355,0.009468411,1
-0.07576535642147064,9.800287246704102,-1.3023953437805176,-0.023449407890439037,0.027488936,0.016493361,1
-0.05986035242676735,9.787208557128906,-1.295297384262085,-0.016215197741985318,0.03390302,0.03359759,1
-0.06597515940666199,9.78302001953125,-1.274366021156311,-0.009027653373777866,0.029932396,0.043066,1
-0.09014809876680374,9.788488388061523,-1.254035472869873,-0.002600946696475148,0.06688975,0.033292156,1
-0.10134682804346083,9.805908203125,-1.2223234176635742,0.003730321303009987,0.08368854,0.04153884,1
-0.10601750761270523,9.830695152282717,-1.1676666736602783,0.007168481592088938,0.099265605,0.042760565999999986,1
-0.13060589134693146,9.84593391418457,-1.1043639183044434,0.005544756073504686,0.12492194,0.043066,1
-0.1761159598827362,9.852496147155762,-1.0507255792617798,0.0017903444822877645,0.17470746,0.028405234,1
-0.21507371962070465,9.851556777954102,-1.0016245841979978,-0.0026406324468553066,0.16829337,0.018020526,1
-0.22487717866897586,9.873482704162598,-0.9455936551094056,-0.0021373385097831488,0.14385876,0.020463986,1
-0.2063744366168976,9.895146369934082,-0.9144532680511476,-0.005270225927233696,0.24281894,0.02321288,1
-0.16425073146820068,9.9081449508667,-0.8807608485221863,-0.012017901986837387,0.24098633,0.022907447,1
-0.13020239770412445,9.918057441711426,-0.8375893235206604,-0.02131293900310993,0.19608775,0.013744468,1
-0.16777403652668,9.907840728759766,-0.8010053038597107,-0.02735469304025173,0.20922135,-0.008246681,1
-0.2595794200897217,9.902413368225098,-0.7436162829399109,-0.027265317738056183,0.14446963,-0.02565634,1
-0.3802878260612488,9.944172859191896,-0.6533769965171814,-0.030457042157649994,-0.0070249503,-0.007941248,1
-0.4750367701053619,9.95500373840332,-0.6015517115592957,-0.040705207735300064,-0.020463986,-0.01863139,1
-0.5442001819610596,9.94756031036377,-0.5731483697891235,-0.0534457266330719,-0.08582657,-0.004886922,1
-0.5768040418624878,9.929336547851562,-0.5665065050125122,-0.06443016976118088,-0.103847094,-0.009162978,1
-0.5798531174659729,9.896937370300293,-0.5586479902267456,-0.06895655393600464,-0.108123146,-0.012217305,1
-0.5778867602348328,9.862085342407227,-0.5477174520492554,-0.06648776680231094,-0.12797627,-0.008246681,1
-0.588596522808075,9.823062896728516,-0.5379035472869873,-0.061085432767868035,-0.14446963,-0.015271631,1
-0.5775424838066101,9.786781311035156,-0.5202043652534485,-0.04943007603287697,-0.15515977,-0.0125227375,1
-0.5396712422370911,9.772937774658203,-0.4874455630779266,-0.03320210799574852,-0.16157386,0.0015271631,1
-0.4840040504932404,9.774351119995117,-0.4629120826721192,-0.016452869400382042,-0.119729586,0.025961773,1
-0.42110329866409296,9.792101860046387,-0.4607530534267426,-0.002844545291736722,-0.11301007,0.04734206,1
-0.3720323443412781,9.82380485534668,-0.471944272518158,0.007293898146599531,-0.10903945,0.043066,1
-0.3563660979270935,9.85534954071045,-0.5002953410148621,0.014199111610651016,-0.083383106,0.032375857,1
-0.3508179187774658,9.878294944763184,-0.5502446293830872,0.017765242606401443,-0.02321288,0.023823744,1
-0.3157324492931366,9.90150260925293,-0.5942143201828003,0.018302910029888157,0.0027488936,0.019547688,1
-0.2792657017707825,9.909283638000488,-0.6408978104591371,0.012397781945765018,-0.006414085,0.02443461,1
-0.2674172818660736,9.893861770629883,-0.6991515755653381,0.005795033182948828,0.008246681,0.0067195175,1
-0.2531079351902008,9.875252723693848,-0.7750785946846008,0.0058577051386237144,0.016493361,0.021380283,1
-0.2396664023399353,9.860221862792967,-0.8395020365715027,0.01092076487839222,0.01038471,0.030543262,1
-0.2296290099620819,9.843417167663574,-0.8899050354957581,0.017726901918649673,-0.0061086523,0.047036625,1
-0.2350802570581436,9.83053207397461,-0.938517153263092,0.02686472609639168,0.013744468,0.05497787,1
-0.25402864813804626,9.826603889465332,-0.9843287467956544,0.03603541105985642,0.03573562,0.049785517,1
-0.2719404697418213,9.829629898071287,-1.0285876989364624,0.04084685444831848,0.043676864,0.044898596,1
-0.28383728861808777,9.846044540405273,-1.0583233833312988,0.0387750044465065,0.016493361,0.0571159,1
-0.3156960904598236,9.86904239654541,-1.0691916942596436,0.03345432132482529,0.022907447,0.02687807,1
-0.33510252833366394,9.879965782165527,-1.059407353401184,0.03146510198712349,0.081855945,0.00580322,1
-0.2974212467670441,9.889586448669434,-1.0313280820846558,0.029919881373643875,0.05131268,0.00580322,1
-0.2526012063026428,9.874083518981934,-1.0043796300888062,0.02132519334554672,-0.018020526,0.014049901000000002,1
-0.2282194346189499,9.848800659179688,-0.9858323931694032,0.010270442813634872,-0.0033597588,0.029626964,1
-0.2464511841535568,9.823789596557617,-0.9621627926826476,0.0027167557273060088,-0.004276057,0.021380283,1
-0.2499837428331375,9.807522773742676,-0.9357001185417176,0.0025591251906007533,-0.0018325958,0.0143553335,1
-0.19697827100753784,9.808561325073242,-0.894209086894989,0.008927332237362862,-0.0030543262,0.02687807,1
-0.16740694642066956,9.822307586669922,-0.8476052284240723,0.017032945528626442,0.0030543262,0.03145956,1
-0.17678430676460266,9.829498291015623,-0.8022571206092834,0.01848517917096615,-0.021380283,0.036651913,1
-0.23015639185905454,9.851278305053713,-0.7675242424011229,0.017442664131522182,-0.09132435,0.01863139,1
-0.28278258442878723,9.867280006408693,-0.7772006988525391,0.011791893281042576,-0.07360926,0.007330383,1
-0.30762338638305664,9.87249755859375,-0.7679059505462646,0.00840891432017088,-0.17501289,0.005497787,1
-0.3246890902519226,9.865845680236816,-0.7772941589355469,0.0032750116661190987,-0.12950343,-0.009162978,1
-0.3521987795829773,9.876635551452637,-0.760096549987793,-0.0018897055415436625,-0.26145032,0.004886922,1
-0.4243413507938385,9.89853572845459,-0.7593596577644348,-0.015697136521339417,-0.3155119,-0.0070249503,1
-0.438433825969696,9.890782356262207,-0.768871545791626,-0.03555826470255852,-0.29504790000000003,-0.010995574,1
-0.3572889268398285,9.862674713134766,-0.792306125164032,-0.039079681038856506,-0.17806722,-0.034208454,1
-0.27422118186950684,9.86256504058838,-0.8026631474494934,-0.028611287474632263,-0.28221974,-0.023823744,1
-0.23105837404727936,9.865665435791016,-0.821249783039093,-0.02868502214550972,-0.23609942,-0.008857545999999999,1
-0.20471327006816864,9.876664161682127,-0.8123018741607666,-0.03877980262041092,-0.23243423,0.03145956,1
-0.16869032382965088,9.8930082321167,-0.8278695940971375,-0.05319607630372048,-0.15485434,0.03176499,1
-0.15496188402175906,9.92866039276123,-0.8449640274047852,-0.07542891055345535,-0.26267207,0.025045475,1
-0.1295253336429596,9.945599555969238,-0.9145416021347046,-0.09077058732509613,-0.21288654,0.015271631,1
-0.02944290451705456,9.944122314453123,-1.0148082971572876,-0.09986048936843872,0.05925392700000001,-0.062002823,1
0.2118977010250092,9.939976692199707,-1.0922937393188477,-0.07193885743618011,0.408058,-0.11636983,1
0.5147213935852051,9.929098129272461,-1.108606457710266,-0.03635644167661667,0.61269784,-0.053145275,1
0.7667002081871033,9.893776893615724,-1.105916976928711,0.006879338994622231,0.85154617,0.05955936,1
0.7245427966117859,9.874666213989258,-0.9792853593826294,0.010899442248046398,0.6053675000000001,0.2180789,1
0.2993848919868469,9.84091567993164,-0.853864848613739,-0.04731827601790428,0.20861048,0.25076020000000004,1
-0.18763190507888794,9.796250343322754,-0.8243750929832458,-0.09782607108354567,0.064446285,0.16340645,1
-0.5165759325027466,9.777853012084961,-0.7950136065483093,-0.11749164760112762,-0.07788532,0.099265605,1
-0.6968244314193726,9.761941909790039,-0.7628989815711975,-0.09894423186779022,0.003970624,0.0290161,1
-0.7364272475242615,9.76667022705078,-0.6968883872032166,-0.05519117414951325,0.09285152,0.02107485,1
-0.6914483904838562,9.823453903198242,-0.5325443744659424,-0.025509923696517944,-0.013744468,0.07086037,1
-0.7219924330711365,9.90532398223877,-0.380713015794754,-0.02656419947743416,-0.14508049,0.08002335,1
-0.8059795498847961,9.952969551086426,-0.3257112205028534,-0.04319761693477631,-0.17867808,0.06627888,1
-0.8192638754844666,9.972477912902832,-0.3782317638397217,-0.04042858257889748,-0.01038471,-0.039095376,1
-0.7996528148651123,9.986162185668944,-0.3608751595020294,-0.03592642769217491,-0.38698313,0.013439035,1
-0.8008089661598206,9.979146957397461,-0.3817493915557861,-0.0474083423614502,-0.27488935,-0.030848695,1
-0.7264755964279175,9.981385231018066,-0.4059150218963623,-0.05497478693723679,-0.23335053,-0.022602014,1
-0.6323516964912415,9.96257209777832,-0.4263002574443817,-0.06701991707086563,-0.27458394,0.013744468,1
-0.6005141735076904,9.94269561767578,-0.4911241233348846,-0.08791948854923247,-0.36163223,0.003970624,1
-0.5888620615005493,9.936062812805176,-0.5717399716377258,-0.09566905349493028,-0.3475823,-0.062308256,1
-0.5548925399780273,9.931306838989258,-0.618643581867218,-0.094086192548275,-0.43004912,-0.04062254,1
-0.4967508614063263,9.895112991333008,-0.6442624926567078,-0.10313834995031357,-0.47769663,-0.019547688,1
-0.3581103384494781,9.86558437347412,-0.6550366282463074,-0.09563948214054108,-0.3933972,-0.026267206,1
-0.1164057031273842,9.863755226135254,-0.644465446472168,-0.07750745117664337,-0.28802297,-0.027183503,1
0.1392025500535965,9.887767791748047,-0.5885950922966003,-0.048714186996221535,-0.2012801,0.015577064,1
0.4000156223773956,9.858234405517578,-0.5358859300613403,-0.023071181029081345,0.10476339,0.0009162979,1
0.6171846985816956,9.862227439880373,-0.4344889223575592,-0.0033561638556420803,0.26297748,0.07513642,1
0.5599296689033508,9.880249977111816,-0.39359191060066223,-0.00746008288115263,0.13041973,0.1432479,1
0.29629120230674744,9.880966186523438,-0.3986642956733704,-0.005838708952069282,0.074830994,0.08399397,1
0.07228376716375351,9.87924098968506,-0.4142830669879913,0.012715027667582037,0.118507855,-0.008246681,1
0.07289782911539078,9.85988998413086,-0.4169686436653137,0.07217423617839812,0.5216789000000001,0.016187929,1
0.10007273405790328,9.979522705078123,-0.28019633889198303,0.062474045902490616,0.043066,0.18784106,1
-0.07640144228935243,9.981797218322754,-0.3478717803955078,0.06424575299024582,0.020158553,0.057421334,1
-0.28393030166625977,9.990965843200684,-0.4049777686595917,0.07895927131175995,0.03848451,-0.070249505,1
-0.3047797381877899,9.987419128417967,-0.42759037017822266,0.0834604874253273,-0.07422013,-0.027794369,1
-0.2355949580669403,9.966251373291016,-0.4526477754116058,0.07456357032060623,-0.070249505,0.010995574,1
-0.19572308659553528,9.948742866516113,-0.4942715167999268,0.06847166270017624,-0.045814894,0.007330383,1
-0.20160843431949613,9.936380386352539,-0.5531209111213684,0.06474957615137099,-0.01985312,-0.021991149,1
-0.2192414402961731,9.908674240112305,-0.6409885883331299,0.06983647495508194,0.004886922,-0.027794369,1
-0.23788996040821075,9.901065826416016,-0.6759663224220276,0.07193874567747116,-0.05222898,-0.009162978,1
-0.2541414201259613,9.900527000427246,-0.6987985968589783,0.06459897011518477,-0.09193522,0.0061086523,1
-0.2506360113620758,9.898515701293944,-0.7201967239379883,0.059467677026987076,-0.07696902,0.00061086525,1
-0.2302055060863495,9.927350044250488,-0.7440891265869141,0.052744932472705834,-0.13591751,-0.0125227375,1
-0.2268309444189072,9.940400123596193,-0.7653379440307617,0.04351387545466423,-0.12034045,0.004276057,1
-0.2410077601671219,9.945204734802246,-0.783814013004303,0.0294011402875185,-0.10781772,-0.0012217305,1
-0.2562001645565033,9.931676864624023,-0.7832017540931702,0.0163190346211195,-0.12034045,0.004581489,1
-0.27917468547821045,9.913650512695312,-0.7700144648551941,0.003210207913070917,-0.15515977,0.004581489,1
-0.304609477519989,9.89185619354248,-0.77425217628479,-0.005850124172866345,-0.16554448,-0.004581489,1
-0.3312077522277832,9.872051239013672,-0.7807446122169495,-0.009604788385331629,-0.19883664,-0.013439035,1
-0.3581115305423737,9.857422828674316,-0.7779865264892578,-0.010252307169139385,-0.20280726,-0.024740042,1
-0.3709792196750641,9.856330871582033,-0.7586793303489685,-0.010569714941084385,-0.21227567,-0.029932396,1
-0.346751868724823,9.866358757019043,-0.7479622960090637,-0.01108609791845083,-0.21227567,-0.04428773,1
-0.2889158427715301,9.882802963256836,-0.7398005127906799,-0.011763554997742176,-0.20433442,-0.025961773,1
-0.2165137231349945,9.899709701538086,-0.7267319560050964,-0.015533587895333769,-0.15974127,-0.011911872,1
-0.14666031301021576,9.912701606750488,-0.7130312919616699,-0.020594442263245586,-0.10995574,-0.01282817,1
-0.08766378462314606,9.916672706604004,-0.7059330940246582,-0.026819370687007904,-0.070249505,-0.006414085,1
-0.0336245596408844,9.916915893554688,-0.7052954435348511,-0.032975055277347565,-0.027488936,-0.0030543262,1
0.0270145945250988,9.916051864624023,-0.7092137932777405,-0.03938737139105797,0.025350908,-0.005497787,1
0.09589222818613052,9.911152839660645,-0.7114353179931641,-0.04644177481532097,0.12034045,-0.00061086525,1
0.16325347125530246,9.90058708190918,-0.7149521708488464,-0.05175596848130226,0.20097467,0.00030543262000000003,1
0.21056367456912994,9.897967338562012,-0.723997950553894,-0.05592269450426102,0.28099802,0.0015271631,1
0.2440870851278305,9.895076751708984,-0.7304286956787109,-0.05944034829735756,0.32314770000000004,0.012217305,1
0.2551286816596985,9.885721206665039,-0.7286630868911743,-0.061795629560947425,0.39095375,0.0030543262,1
0.2481459081172943,9.881364822387695,-0.7235397696495056,-0.06322368234395981,0.43249258,0.009468411,1
0.23172958195209506,9.87618923187256,-0.7222555875778198,-0.061873737722635276,0.46578476,0.010995574,1
0.19994138181209564,9.860527992248537,-0.7131807208061218,-0.05944603309035301,0.40011674,0.009468411,1
0.16594377160072327,9.830700874328613,-0.7247947454452515,-0.05189643800258637,0.50518554,0.006414085,1
0.12898845970630646,9.822484016418457,-0.7208718657493591,-0.044135011732578285,0.50946164,-0.002443461,1
0.08963536471128464,9.824414253234863,-0.7047175765037537,-0.035461749881505966,0.39858958,0.007941248,1
0.04048049077391625,9.834444046020508,-0.6917059421539307,-0.029298003762960437,0.49846604,-0.023823744,1
-0.014146127738058569,9.85162353515625,-0.6560071706771851,-0.027256552129983902,0.49693888,-0.022602014,1
-0.05860316380858421,9.868902206420898,-0.6206567287445068,-0.02724299021065235,0.4633413,-0.033292156,1
-0.07857454568147659,9.90139102935791,-0.572136640548706,-0.03603513166308403,0.35399640000000004,-0.055588737,1
-0.08647236227989198,9.934979438781738,-0.5328963398933411,-0.05065881833434105,0.34697145,-0.05681047,1
-0.1449785977602005,9.937646865844727,-0.5138831734657288,-0.07361796498298645,0.28283059999999993,-0.04795292,1
-0.24940258264541626,9.931763648986816,-0.5181142687797546,-0.0999019369482994,0.1966986,-0.05681047,1
-0.3733537793159485,9.916543960571287,-0.5300863981246948,-0.11991344392299652,0.10354166,-0.05467244,1
-0.5018652677536011,9.87704372406006,-0.5354887843132019,-0.12915213406085968,0.009773844,-0.051923547,1
-0.6117555499076843,9.842926025390623,-0.5388527512550354,-0.1301123946905136,-0.025350908,-0.054367006,1
-0.6515705585479736,9.831315994262695,-0.5200074911117554,-0.12836337089538574,-0.04917465,-0.022907447,1
-0.6059394478797913,9.828633308410645,-0.455061286687851,-0.12538571655750275,-0.051923547,0.022296581,1
-0.5666794180870056,9.81382656097412,-0.4078725874423981,-0.11430376768112185,0.040927973,0.03145956,1
-0.5881795287132263,9.799924850463867,-0.3598847985267639,-0.09083936363458632,0.13194689,0.03634648,1
-0.6528552770614624,9.76496124267578,-0.29138270020484924,-0.060994666069746024,0.14172074,0.05222898,1
-0.7209500074386597,9.73977279663086,-0.25064224004745483,-0.028032928705215454,0.1133155,0.057421334,1
-0.7900295853614807,9.732134819030762,-0.2326264828443527,0.005043431650847197,0.12308934,0.061086524,1
-0.8427197933197021,9.744905471801758,-0.2302802801132202,0.03375163674354553,0.09285152,0.06505715,1
-0.834385871887207,9.771913528442383,-0.21843221783638,0.06019791215658187,0.05009095,0.06688975,1
-0.7645941376686096,9.812529563903807,-0.2471177875995636,0.08084404468536377,0.079107046,0.042455133,1
-0.6536913514137268,9.856234550476074,-0.3410001397132873,0.09317652136087418,0.0580322,0.01282817,1
-0.5124067068099976,9.90685749053955,-0.4299980401992798,0.09533508867025377,0.06414085,-0.024740042,1
-0.34656068682670593,9.944835662841797,-0.5091359615325928,0.08480013161897659,0.084910266,-0.05681047,1
-0.12727129459381106,9.963688850402832,-0.5571270585060121,0.07009566575288773,0.03481932,-0.052839845,1
0.12442047148942947,9.945042610168457,-0.5663155913352966,0.05501985177397728,0.13011430000000002,-0.015577064,1
0.3204497098922729,9.904114723205566,-0.5359200239181519,0.04190557077527046,0.10629055,0.06719518,1
0.3931266665458679,9.860730171203613,-0.5211344957351685,0.03169820457696915,0.14019357,0.099265605,1
0.36631909012794495,9.817242622375488,-0.5535228252410889,0.029379004612565037,0.17409660000000002,0.10354166,1
0.289010614156723,9.780143737792967,-0.5668873786926271,0.03635208681225777,0.16493362,0.08796459400000001,1
0.170176699757576,9.780405044555664,-0.5791080594062805,0.04964375495910645,0.15241088,0.09560041,1
0.011496678926050665,9.774481773376463,-0.6303253173828125,0.062052309513092034,0.25534168,0.05009095,1
-0.11258891224861144,9.798684120178224,-0.6841036081314087,0.07801789790391922,0.31245756,0.024740042,1
-0.17122375965118408,9.85522747039795,-0.6808305978775024,0.09153390675783156,0.30787608,0.023823744,1
-0.19733488559722898,9.937215805053713,-0.6273928284645081,0.09691284596920012,0.3005457,0.01985312,1
-0.23201926052570346,9.989410400390623,-0.566763699054718,0.09095118939876556,0.32895094,0.005497787,1
-0.2887503802776337,9.990516662597656,-0.5232731699943542,0.07730364799499513,0.35613444,-0.009468411,1
-0.3500134348869324,9.980752944946287,-0.4822963774204254,0.060698449611663825,0.31948254,0.0036651916,1
-0.4256942272186279,9.982197761535645,-0.4735516905784607,0.041941341012716286,0.32559118,-0.0036651916,1
-0.4788016676902771,9.987837791442873,-0.4789797067642212,0.02627982571721077,0.2406809,0.015271631,1
-0.5618729591369629,9.955687522888184,-0.4853097200393677,0.01220642402768135,0.21471913,0.010079277,1
-0.6111088991165161,9.928893089294434,-0.4682548940181732,0.004788773600012064,0.14141529999999994,0.04153884,1
-0.643954336643219,9.908169746398926,-0.4255075454711914,-0.0012502978788688779,0.033292156,0.04642576,1
-0.6723484992980957,9.888456344604492,-0.4005310833454132,-0.001112698344513774,-0.011911872,0.015882496,1
-0.6521893739700317,9.86523151397705,-0.3899723887443543,0.0032491665333509445,-0.0580322,0.008246681,1
-0.5890523791313171,9.85142993927002,-0.3572162985801697,0.008815319277346134,-0.06780604,0.02076942,1
-0.5201875567436218,9.8494291305542,-0.32622599601745605,0.013409040868282318,-0.06811147,0.018936822,1
-0.4506844580173493,9.842915534973145,-0.3267099857330322,0.016035404056310654,-0.071776666,0.0070249503,1
-0.3937437832355499,9.844453811645508,-0.3256648182868957,0.0195284690707922,-0.053450707,0.005192355,1
-0.3508345484733581,9.853678703308104,-0.3331775367259979,0.02060198225080967,-0.023823744,0.017715093,1
-0.3260684609413147,9.868692398071287,-0.3482361435890198,0.019933640956878662,-0.015577064,0.01740966,1
-0.3226085603237152,9.876107215881348,-0.34811797738075256,0.017644766718149185,-0.030543262,0.008246681,1
-0.3281000554561615,9.892582893371582,-0.3486356735229492,0.015430592000484468,-0.03940081,-0.0018325958,1
-0.3436285257339477,9.913830757141113,-0.35447219014167786,0.01110075879842043,-0.028099801,-0.0076358155,1
-0.3562891483306885,9.930386543273926,-0.3649240434169769,0.003046215046197176,-0.04428773,-0.016493361,1
-0.35886675119400024,9.932507514953613,-0.3697225749492645,-0.0077788769267499456,-0.05955936,-0.02443461,1
-0.34289345145225525,9.925684928894043,-0.3687280714511871,-0.014690455980598928,-0.069027774,-0.03176499,1
-0.3154134750366211,9.910238265991213,-0.37379249930381775,-0.01918149180710316,-0.063224554,-0.026267206,1
-0.281623512506485,9.892666816711426,-0.40561380982398987,-0.022370122373104092,-0.037873644,-0.032070424,1
-0.24881455302238464,9.87887954711914,-0.4581676423549652,-0.021072853356599808,-0.014660766,-0.027488936,1
-0.2306170165538788,9.873286247253418,-0.5129056572914124,-0.01741619221866131,0.03359759,-0.009773844,1
-0.2210429459810257,9.866942405700684,-0.5655950307846069,-0.011918243020772934,0.03726278,0.00061086525,1
-0.24028702080249786,9.85958766937256,-0.6167793869972229,-0.004546831361949444,0.04184427,0.008246681,1
-0.2596694231033325,9.865083694458008,-0.65741366147995,0.003014161717146635,0.047647487,-0.016798794,1
-0.24829503893852234,9.876026153564453,-0.6722694635391235,0.011235772632062435,0.035124752999999995,-0.025350908,1
-0.2080121487379074,9.892943382263184,-0.6594498753547668,0.01373759564012289,0.03604105,-0.004276057,1
-0.1675003468990326,9.907072067260742,-0.6365172266960144,0.008595976047217846,0.044593163,-0.0021380284,1
-0.14162607491016388,9.928033828735352,-0.6177680492401123,-0.002193306572735309,0.021685716,-0.013439035,1
-0.13663649559020996,9.939855575561523,-0.6116374731063843,-0.015579571016132832,0.0018325958,-0.021380283,1
-0.1534765362739563,9.940321922302246,-0.6155688762664795,-0.028708705678582188,-0.010079277,-0.028710667,1
-0.2055548131465912,9.927419662475586,-0.6219903230667114,-0.04297785833477974,-0.046120327,-0.01038471,1
-0.28627756237983704,9.910168647766113,-0.6431686878204346,-0.054639358073472984,-0.0693332,-0.016493361,1
-0.3530510365962982,9.894511222839355,-0.6651033163070679,-0.060183845460414886,-0.08521569999999999,-0.026572637000000003,1
-0.3869398832321167,9.870080947875977,-0.6660400629043579,-0.05865553393959999,-0.08216137400000001,-0.034513887,1
-0.3964009881019592,9.850098609924316,-0.6564648151397705,-0.05227182433009148,-0.086132,-0.011301007,1
-0.38965359330177307,9.841193199157717,-0.6373327374458313,-0.04388035088777542,-0.102319926,0.011301007,1
-0.388587087392807,9.826786994934082,-0.6180034279823303,-0.03284277021884918,-0.113926366,0.03176499,1
-0.39705944061279297,9.805536270141602,-0.6093370318412781,-0.01987594179809093,-0.13041973,0.023518313,1
-0.4113784730434418,9.79731273651123,-0.602636456489563,-0.00340696144849062,-0.105068825,0.02443461,1
-0.41528764367103577,9.795730590820312,-0.5863450169563293,0.012426578439772127,-0.11056661,0.038179077,1
-0.41186875104904175,9.804789543151855,-0.5697054266929626,0.025036187842488292,-0.10995574,0.04642576,1
-0.402229368686676,9.822310447692873,-0.5498654246330261,0.034547612071037286,-0.09590584,0.038789943,1
-0.3800947070121765,9.843401908874512,-0.5342212915420532,0.04123436659574509,-0.07727446,0.028099801,1
-0.3630917370319367,9.854741096496582,-0.5274211168289185,0.04448569193482399,-0.08368854,0.03268129,1
-0.3609468340873718,9.876465797424316,-0.5210684537887573,0.044643927365541465,-0.07238753,0.02321288,1
-0.3629307746887207,9.892276763916016,-0.5172109007835388,0.04179147258400917,-0.051618114000000014,0.018020526,1
-0.35159754753112793,9.905481338500977,-0.5158588886260986,0.038541261106729514,-0.05772676700000001,0.022296581,1
-0.34056684374809265,9.90872859954834,-0.5034600496292114,0.03361902013421059,-0.04734206,0.011301007,1
-0.3369476795196533,9.913226127624512,-0.48984932899475103,0.027556154876947403,-0.03145956,-0.0009162979,1
-0.3214867413043976,9.915308952331543,-0.4804532527923584,0.0214390866458416,-0.0036651916,0.010995574,1
-0.2970477640628815,9.9055757522583,-0.4836146831512451,0.016455283388495445,-0.0030543262,0.0036651916,1
-0.2859690487384796,9.896855354309082,-0.4950445592403412,0.012433815747499466,-0.0033597588,0.0015271631,1
-0.2873338460922241,9.887015342712402,-0.5139756798744202,0.008931887336075306,0.00061086525,-0.0009162979,1
-0.2883322536945343,9.892068862915039,-0.538006603717804,0.008022482506930828,0.011301007,-0.0033597588,1
-0.2780568897724152,9.887728691101074,-0.5492477416992188,0.006299535278230906,0.014966198,-0.0018325958,1
-0.26215422153472895,9.886119842529297,-0.5604651570320129,0.005499021615833044,0.013439035,0.0033597588,1
-0.2501923739910126,9.886089324951172,-0.5771117806434631,0.004752305801957846,0.017104227,0.004276057,1
-0.2542249858379364,9.888273239135742,-0.5916915535926819,0.003510297741740942,0.018325957,0.011301007,1
-0.2659815549850464,9.89905834197998,-0.6014870405197144,0.0026248248759657145,0.007941248,0.01038471,1
-0.2918564081192017,9.899453163146973,-0.6063169836997986,0.0016308120684698224,0.0018325958,0.009773844,1
-0.3239767253398895,9.89417552947998,-0.6121109127998352,0.0013240824919193985,-0.015577064,-0.0027488936,1
-0.3506821691989899,9.888096809387207,-0.615872323513031,0.0014774501323699953,-0.027183503,0.005192355,1
-0.3772022426128388,9.872132301330566,-0.6085075736045837,0.0019830898381769657,-0.023823744,-0.005497787,1
-0.3825406730175018,9.870644569396973,-0.6000836491584778,0.003155064769089222,-0.046731193,-0.011301007,1
-0.3791644871234894,9.884278297424316,-0.5955278277397156,0.0030678161419928074,-0.045814894,0.0061086523,1
-0.38291871547698975,9.889849662780762,-0.5959898233413696,0.0003204087552148849,-0.038179077,0.004581489,1
-0.3844060003757477,9.887847900390623,-0.5949591398239136,-0.0010063822846859694,-0.056199603,0.014966198,1
-0.37248435616493225,9.880569458007812,-0.602067768573761,-0.0015076015843078494,-0.062002823,0.019242255,1
-0.363804429769516,9.877634048461914,-0.6058308482170105,0.0008019785163924098,-0.07391469,0.008857545999999999,1
-0.3464969992637634,9.88759708404541,-0.5976718664169312,0.00315513159148395,-0.07360926,0.012217305,1
-0.3273160457611084,9.89710521697998,-0.5993691086769104,0.002857684623450041,-0.05955936,0.013439035,1
-0.3122799396514893,9.894784927368164,-0.6016581058502197,0.0006417341064661741,-0.055283304000000005,0.002443461,1
-0.30096182227134705,9.888053894042967,-0.6019692420959473,-0.001103869522921741,-0.06811147,0.0061086523,1
-0.2979987561702728,9.8836669921875,-0.6114548444747925,-0.0012591821141541006,-0.04886922,0.0030543262,1
-0.2999714314937592,9.884835243225098,-0.6173452734947205,6.969341484364122e-05,-0.032070424,0.013439035,1
-0.29919254779815674,9.88145637512207,-0.6130304336547852,0.0007902021170593798,-0.04520403,0.013439035,1
-0.30425843596458435,9.883090019226074,-0.619459867477417,0.0008021831745281817,-0.042760565999999986,0.003970624,1
-0.3136073648929596,9.8895845413208,-0.6152852773666382,0.000596804718952626,-0.035430185,0.022296581,1
-0.3173387348651886,9.891286849975586,-0.6093733310699463,0.0020506931468844414,-0.039095376,0.018325957,1
-0.3130277395248413,9.88741970062256,-0.602001965045929,0.003623615950345993,-0.032070424,0.014660766,1
-0.30706879496574396,9.88524341583252,-0.6037856936454773,0.004425770603120327,-0.0143553335,0.021991149,1
-0.3016752898693085,9.881714820861816,-0.6137451529502869,0.005308758467435837,-0.007941248,0.020463986,1
-0.2995537519454956,9.875661849975586,-0.6261860132217407,0.006856430321931839,-0.01863139,0.022602014,1
-0.3057984113693237,9.874258041381836,-0.6286683678627014,0.008791993372142315,-0.007941248,0.02076942,1
-0.30589067935943604,9.878607749938963,-0.620087742805481,0.01279125176370144,-0.0021380284,0.021380283,1
-0.30155590176582336,9.879412651062012,-0.5998511910438538,0.015438162721693516,-0.013133603,0.02687807,1
-0.29778459668159485,9.879232406616213,-0.5944246053695679,0.01630815491080284,-0.01740966,0.016187929,1
-0.2908807098865509,9.883133888244627,-0.5962581634521484,0.015246387571096419,0.00030543262000000003,0.02321288,1
-0.2845748960971832,9.892629623413086,-0.584781289100647,0.014452889561653137,0.0076358155,0.015271631,1
-0.2777526676654816,9.897002220153807,-0.5797374844551086,0.011836964637041092,0.014660766,0.010995574,1
-0.2781737446784973,9.895848274230957,-0.5848734974861145,0.008177450858056545,0.02076942,0.008246681,1
-0.28167781233787537,9.892104148864746,-0.5798711180686951,0.004399935714900494,0.026572637000000003,0.011301007,1
-0.2896681129932404,9.891592979431152,-0.5795887112617493,0.000531403929926455,0.030543262,0.014049901000000002,1
-0.30593568086624146,9.890360832214355,-0.5791015625,-0.004153027664870025,0.026267206,0.0070249503,1
-0.3153968155384064,9.88404655456543,-0.576242983341217,-0.007324156351387502,0.028710667,-0.0012217305,1
-0.3146014213562012,9.882575988769533,-0.5825765132904053,-0.009779459796845913,0.024129177,0.009773844,1
-0.3119918406009674,9.881563186645508,-0.5824040770530701,-0.0116096381098032,0.028710667,0.016798794,1
-0.3155266046524048,9.88052749633789,-0.585950493812561,-0.012733685784041882,0.03604105,0.009468411,1
-0.3186429738998413,9.883543014526367,-0.5899319648742676,-0.013066513463854791,0.040011674,0.003970624,1
-0.320995956659317,9.881403923034668,-0.5930037498474121,-0.01435016468167305,0.03145956,0.01282817,1
-0.3248160481452942,9.876141548156738,-0.6034333109855652,-0.015506749041378496,0.032986723,0.01038471,1
-0.32250818610191345,9.880228996276855,-0.6123101711273193,-0.015394166111946106,0.03604105,0.01038471,1
-0.3197250962257385,9.870694160461426,-0.610450029373169,-0.015814539045095444,0.037873644,0.014049901000000002,1
-0.3124367892742157,9.86666202545166,-0.6052129864692688,-0.014743756502866743,0.037873644,0.010079277,1
-0.30383506417274475,9.86474895477295,-0.6077838540077211,-0.014067218638956549,0.04337143,0.00580322,1
-0.30229297280311584,9.86379623413086,-0.6037951707839966,-0.012549921870231628,0.056199603,0.02076942,1
-0.30532047152519226,9.86807918548584,-0.6012998819351196,-0.01023156475275755,0.04734206,0.018020526,1
-0.3147823810577393,9.870194435119627,-0.6072874069213867,-0.006825840100646019,0.06536258,0.018325957,1
-0.32221853733062744,9.870820999145508,-0.6107567548751831,-0.0033658358734101053,0.055283304000000005,0.029932396,1
-0.3191768527030945,9.872017860412598,-0.6004667282104492,-0.001346013625152409,0.052839845,0.026572637000000003,1
-0.31791651248931885,9.867774963378906,-0.5842910408973694,-0.0002898208040278405,0.06414085,0.029626964,1
-0.317264199256897,9.871123313903807,-0.5810615420341492,0.00197341269813478,0.057421334,0.02076942,1
-0.3171505033969879,9.877204895019533,-0.5743074417114258,0.005024554207921028,0.04795292,0.021380283,1
-0.32252058386802673,9.879145622253418,-0.5620752573013306,0.005583936348557472,0.055588737,0.025045475,1
-0.3357486128807068,9.876418113708496,-0.5566818714141846,0.005225550383329392,0.047647487,0.02076942,1
-0.3463592529296875,9.87819004058838,-0.5535277724266052,0.004003272857517004,0.03756821,0.009162978,1
-0.3457831144332886,9.876246452331543,-0.5561729669570923,0.002214123960584402,0.01863139,0.003970624,1
-0.3367653489112854,9.878053665161133,-0.5502962470054626,-0.0006424906314350665,0.029321533,0.008552114,1
-0.3303270637989044,9.879481315612793,-0.5500507354736328,-0.002735431306064129,0.027794369,0.01160644,1
-0.3256355822086334,9.87786102294922,-0.5539803504943848,-0.004916075151413679,0.032375857,0.017715093,1
-0.3207816183567047,9.880301475524902,-0.5549795031547546,-0.007952922023832798,0.009773844,0.0076358155,1
-0.31861916184425354,9.881720542907717,-0.5424454212188721,-0.008767965249717236,0.010995574,0.0012217305,1
-0.3233659565448761,9.884137153625488,-0.5299851298332214,-0.008836950175464153,0.014966198,0.007941248,1
-0.3269275724887848,9.888875007629396,-0.5307267904281616,-0.00943693798035383,0.005192355,0.009773844,1
-0.3300404250621796,9.883474349975586,-0.5343141555786133,-0.009869268164038658,0.006414085,0.009162978,1
-0.3285684585571289,9.873523712158203,-0.5348566770553589,-0.008434146642684938,-0.0018325958,0.016187929,1
-0.3288378715515137,9.86915683746338,-0.5343610048294067,-0.0055564953945577145,0.0076358155,0.018936822,1
-0.3297867774963379,9.863632202148438,-0.5346506237983704,-0.003004462458193302,-0.0012217305,0.021685716,1
-0.3275217413902283,9.864156723022461,-0.5244027972221375,-7.606772123835981e-05,-0.007330383,0.028099801,1
-0.33637434244155884,9.866995811462402,-0.5135383009910583,0.0025487241800874467,-0.013439035,0.025045475,1
-0.34433528780937195,9.873150825500488,-0.5088328719139099,0.0041519682854413995,-0.00030543262000000003,0.027183503,1
-0.3458811640739441,9.876994132995604,-0.502285897731781,0.0039679515175521365,-0.007330383,0.014966198,1
-0.3427798748016357,9.88308811187744,-0.5040805935859679,0.0032704414334148173,-0.0015271631,0.004581489,1
-0.33976560831069946,9.889689445495604,-0.5171141028404236,0.0005519412225112318,0.00580322,0.00061086525,1
-0.3282100558280945,9.888265609741213,-0.5182011127471924,-0.0020445147529244427,-0.0012217305,0.0018325958,1
-0.3220942318439484,9.88280963897705,-0.5085049867630005,-0.005396307446062565,-0.009773844,0.004581489,1
-0.32244154810905457,9.88162326812744,-0.5048779249191284,-0.00807409267872572,-0.017715093,-0.0018325958,1
-0.32438045740127563,9.879103660583496,-0.5005114078521729,-0.008697356097400187,-0.022602014,0.00061086525,1
-0.3261120617389679,9.88099765777588,-0.502457320690155,-0.008397871628403664,-0.024740042,0.008246681,1
-0.3249367475509644,9.877371788024902,-0.5031923651695251,-0.007394954096525907,-0.02321288,0.007330383,1
-0.3220251500606537,9.872546195983887,-0.5002427697181702,-0.006076853722333908,-0.014660766,0.00061086525,1
-0.3157382607460022,9.871489524841307,-0.5035948157310486,-0.005440717563033104,-0.017715093,0.01985312,1
-0.31260114908218384,9.877503395080566,-0.5076108574867249,-0.0037653804756700993,-0.018936822,0.015882496,1
-0.3136783242225647,9.882847785949707,-0.5107181072235107,-0.002589502139016986,-0.018325957,0.01038471,1
-0.3132007122039795,9.884860038757324,-0.5095809698104858,-0.0025337296538054947,-0.009468411,0.005192355,1
-0.3094201982021332,9.88732624053955,-0.5066363811492921,-0.0033077625557780266,-0.016493361,0.0009162979,1
-0.30737048387527466,9.892112731933594,-0.5124924182891846,-0.0029079364612698555,-0.030848695,-0.0015271631,1
-0.30252647399902344,9.891393661499023,-0.51423579454422,-0.003935408778488636,-0.014966198,0.005192355,1
-0.2955126464366913,9.891156196594238,-0.5225088596343994,-0.0035149271134287123,-0.019547688,0.00030543262000000003,1
-0.2818439900875092,9.889803886413574,-0.5319764018058777,-0.0030077463015913963,-0.021685716,0.014660766,1
-0.2730085849761963,9.883325576782227,-0.5350226163864136,-0.0022411539684981108,-0.013744468,0.011911872,1
-0.2653572857379913,9.880889892578123,-0.5360532402992249,-0.0011588202323764565,-0.0018325958,0.016187929,1
-0.2619790136814117,9.880922317504883,-0.5307084321975708,0.00027600297471508384,-0.004276057,0.011911872,1
-0.261092871427536,9.878511428833008,-0.5293989181518555,0.0013154731132090092,-0.011301007,0.014966198,1
-0.27339345216751104,9.873991012573242,-0.5309846997261047,0.00137579464353621,-0.010690141499999998,0.008552114,1
-0.2845347225666046,9.872435569763184,-0.5300082564353943,0.0022367138881236315,0.003970624,0.0070249503,1
-0.2828921675682068,9.869020462036133,-0.5189027786254883,0.0008176621049642563,0.018936822,0.004886922,1
-0.27281510829925537,9.868809700012207,-0.5101184844970703,-0.00064142543124035,0.004886922,0.0012217305,1
-0.27886125445365906,9.873706817626953,-0.514386773109436,-0.002594434656202793,0.009468411,0.007330383,1
-0.27172690629959106,9.884319305419922,-0.5147852897644043,-0.00284337205812335,0.0143553335,0.004581489,1
-0.2671179175376892,9.888916015625,-0.5193474888801575,-0.003702583257108927,0.01740966,0.0143553335,1
-0.2677939832210541,9.888920783996582,-0.5265657305717468,-0.004580654203891754,0.023518313,0.009162978,1
-0.27514898777008057,9.885866165161133,-0.5249641537666321,-0.004616061225533485,0.027794369,0.002443461,1
-0.2782919406890869,9.882319450378418,-0.5193685293197632,-0.0033371462486684322,0.022602014,0.017104227,1
-0.28049683570861816,9.88320255279541,-0.5138081312179565,-0.0012975451536476614,0.031154128,0.01740966,1
-0.2858286499977112,9.881088256835938,-0.5109565854072571,0.00013034828589297828,0.032375857,0.01282817,1
-0.2938826084136963,9.881803512573242,-0.5153159499168396,0.0006548410165123641,0.02107485,0.010690141499999998,1
-0.2994113862514496,9.880615234375,-0.5194423198699951,0.0021429865155369048,0.01282817,0.01863139,1
-0.3006366789340973,9.885586738586426,-0.5217453241348267,0.003960970789194107,0.020463986,0.014049901000000002,1
-0.2954038977622986,9.890458106994627,-0.5248700380325317,0.004329179879277945,0.021380283,0.010995574,1
-0.2910123765468597,9.884810447692873,-0.5226498246192932,0.004133946727961303,0.020463986,0.018020526,1
-0.2899014949798584,9.8773193359375,-0.5201064944267273,0.0050412039272487155,0.0061086523,0.0143553335,1
-0.2944246530532837,9.874720573425293,-0.5215695500373839,0.006727680563926697,0.020463986,0.019547688,1
-0.3001527488231659,9.875354766845703,-0.5226776599884033,0.007961099967360497,0.011301007,0.0143553335,1
-0.30398982763290405,9.87824821472168,-0.5203981995582581,0.007883788086473942,0.014049901000000002,0.015271631,1
-0.3005317449569702,9.879008293151855,-0.5215948820114136,0.0067390957847237596,0.016493361,0.013744468,1
-0.2970251142978668,9.877731323242188,-0.5289984941482544,0.005514505319297314,0.010995574,0.02107485,1
-0.29086676239967346,9.880852699279783,-0.5299283266067505,0.00498852226883173,0.009468411,0.011301007,1
-0.2918711304664612,9.885037422180176,-0.5256025195121765,0.0043125119991600505,0.011301007,0.025045475,1
-0.29565954208374023,9.881439208984377,-0.5227546691894531,0.004038505721837282,0.0033597588,0.0076358155,1
-0.3005867302417755,9.879871368408203,-0.5198560953140259,0.003763424465432763,0.0015271631,0.004276057,1
-0.3061578869819641,9.880911827087402,-0.5098973512649536,0.003131120000034571,0.004276057,0.0036651916,1
-0.2976301312446594,9.881813049316406,-0.4925276041030884,0.00175174861215055,0.010690141499999998,0.015577064,1
-0.2996000647544861,9.88302993774414,-0.4810670614242554,0.0007805450586602093,0.004886922,0.00580322,1
-0.30465590953826904,9.882511138916016,-0.4817977845668793,-0.0009661620133556426,0.013133603,0.008552114,1
-0.30285149812698364,9.880082130432127,-0.4807246923446655,-0.0005059284740127623,-0.0015271631,0.013133603,1
-0.29286858439445496,9.885933876037598,-0.4689834117889404,-0.0003235439653508365,0.004581489,0.0070249503,1
-0.2882954180240631,9.888662338256836,-0.4614977538585663,-0.0022395823616534467,-0.002443461,0.00580322,1
-0.2904842495918274,9.88343620300293,-0.4589881002902985,-0.002620196435600519,-0.004581489,0.015271631,1
-0.2929310500621796,9.881373405456543,-0.4559123814105988,-0.001988922944292426,0.004276057,0.015271631,1
-0.2970194220542908,9.879064559936523,-0.4506757855415344,-0.0012291932944208386,0.010690141499999998,0.011301007,1
-0.2938616573810577,9.881937026977539,-0.4571442902088165,-0.0007540557999163866,0.016798794,0.01282817,1
-0.29173728823661804,9.885181427001953,-0.4653958678245544,-0.0007719098939560354,0.01282817,0.0067195175,1
-0.29274919629096985,9.883827209472656,-0.4676244556903839,-0.000641471182461828,0.015271631,0.0125227375,1
-0.2948126196861267,9.884967803955078,-0.4623110890388489,-0.0005509997718036175,0.0143553335,0.015577064,1
-0.2986863851547241,9.887659072875977,-0.4547379016876221,-0.0017983707366511226,0.006414085,0.00580322,1
-0.30600953102111816,9.888031959533693,-0.4533447027206421,-0.0032629685010761023,0.0009162979,0.0018325958,1
-0.3122163414955139,9.888590812683104,-0.4612457454204559,-0.003001240780577064,-0.0009162979,0.0033597588,1
-0.31318873167037964,9.889988899230957,-0.4685685932636261,-0.004486462101340294,-0.00580322,0.00030543262000000003,1
-0.3164648711681366,9.883588790893556,-0.47352242469787603,-0.005779220722615719,-0.005497787,0.0036651916,1
-0.3176993429660797,9.879270553588867,-0.4808971285820007,-0.004896854981780052,-0.0030543262,0.010690141499999998,1
-0.30539169907569885,9.874103546142578,-0.4836229681968689,-0.0036390307359397407,-0.01038471,0.0018325958,1
-0.2962151765823364,9.87503147125244,-0.4932818412780762,-0.0026058328803628683,-0.010995574,0.018325957,1
-0.295421302318573,9.872328758239746,-0.5036289691925049,0.00032066408311948186,-0.004276057,0.027183503,1
-0.2901504635810852,9.868171691894533,-0.5104032158851624,0.00285403523594141,-0.01038471,0.022907447,1
-0.2844901978969574,9.868103981018066,-0.5072818994522095,0.004304202739149332,0.008552114,0.021685716,1
-0.28041547536849976,9.872926712036133,-0.5081983208656311,0.00416893046349287,0.017104227,0.019242255,1
-0.2711566984653473,9.871986389160156,-0.5115331411361694,0.0032880979124456644,0.03604105,0.018325957,1
-0.2665490508079529,9.873082160949707,-0.5146719217300415,0.003940012771636248,0.05467244,0.02076942,1
-0.26779669523239136,9.875741004943848,-0.5170854330062866,0.004676266573369503,0.04734206,0.021685716,1
-0.2762516140937805,9.87901782989502,-0.5170852541923523,0.005390529986470939,0.04184427,0.021685716,1
-0.28674912452697754,9.879621505737305,-0.5153319239616394,0.006207195576280356,0.03390302,0.02076942,1
-0.29971930384635925,9.876124382019043,-0.5092685222625732,0.007905433885753155,0.017715093,0.018325957,1
-0.31433817744255066,9.87155818939209,-0.5000917315483093,0.0082447100430727,0.021685716,0.023518313,1
-0.3255522847175598,9.86710262298584,-0.4964265525341034,0.009811305440962316,0.015882496,0.016798794,1
-0.328177809715271,9.871097564697266,-0.4917517900466919,0.01165916956961155,0.020463986,0.01740966,1
-0.3171237111091614,9.87831974029541,-0.4908578991889954,0.01346251368522644,0.03023783,0.016493361,1
-0.29904988408088684,9.88140869140625,-0.4944306313991546,0.012257348746061323,0.03573562,0.018020526,1
-0.29315435886383057,9.884326934814453,-0.498186320066452,0.011547052301466463,0.03756821,0.010690141499999998,1
-0.2947101593017578,9.88530731201172,-0.4973649680614472,0.010850180871784687,0.026572637000000003,0.012217305,1
-0.2983797490596771,9.888218879699707,-0.4983275234699249,0.010567134246230124,0.023823744,0.0143553335,1
-0.2923114597797394,9.884979248046877,-0.5009497404098511,0.009029968641698359,0.030848695,0.011301007,1
-0.2852106988430023,9.885920524597168,-0.5060203075408936,0.0073133958503603935,0.023518313,0.008552114,1
-0.2857038378715515,9.889269828796387,-0.5198968648910522,0.006427871063351631,0.023823744,0.013744468,1
-0.2907346487045288,9.89171028137207,-0.5309638977050781,0.005877504125237465,0.02076942,0.010995574,1
-0.28456059098243713,9.886338233947754,-0.5295974016189575,0.00676232110708952,0.018020526,0.01863139,1
-0.2742433249950409,9.881979942321776,-0.5332880616188049,0.008447756990790367,0.018020526,0.01985312,1
-0.2686770558357239,9.880844116210938,-0.5371580719947815,0.009954660199582577,0.010995574,0.01863139,1
-0.2689761221408844,9.890296936035156,-0.535952091217041,0.010166903026401995,0.009773844,0.010690141499999998,1
-0.27117231488227844,9.893689155578613,-0.5305920243263245,0.009877927601337431,0.0018325958,0.010690141499999998,1
-0.28074440360069275,9.89394760131836,-0.5272414684295654,0.009121563285589218,-0.0027488936,0.0067195175,1
-0.284390389919281,9.896085739135742,-0.5261016488075256,0.0068924264051020145,-0.004581489,0.00580322,1
-0.28871625661849976,9.89778995513916,-0.5384480953216553,0.004909982904791832,-0.005497787,-0.004581489,1
-0.2922065258026123,9.898221969604492,-0.5488935112953186,0.003449851181358099,-0.008552114,-0.004276057,1
-0.2904070615768433,9.901845932006836,-0.5544677972793579,0.0009327490697614848,-0.006414085,0.0033597588,1
-0.2896883189678192,9.901494026184082,-0.5581344366073608,-0.0014946017181500793,-0.00580322,-0.0018325958,1
-0.28633370995521545,9.90302562713623,-0.5638598799705505,-0.0032552024349570274,-0.006414085,-0.0012217305,1
-0.2773474156856537,9.904963493347168,-0.5631445646286011,-0.00541343679651618,-0.00030543262000000003,-0.008552114,1
-0.2709031105041504,9.897122383117676,-0.5588172674179077,-0.0076499320566654205,-0.008857545999999999,0.006414085,1
-0.2710348665714264,9.889771461486816,-0.555743932723999,-0.009536475874483584,-0.006414085,0.0033597588,1
-0.2813619077205658,9.883793830871582,-0.5598249435424805,-0.010485797189176084,-0.0061086523,0.0012217305,1
-0.2894462049007416,9.877293586730957,-0.5612865090370178,-0.010522308759391308,-0.0067195175,-0.00061086525,1
-0.29018235206604004,9.875248908996582,-0.5654117465019226,-0.010419112630188463,-0.0027488936,-0.005192355,1
-0.28145265579223633,9.87777328491211,-0.5616034269332886,-0.011462775990366936,0.009162978,-0.00061086525,1
-0.28472816944122314,9.879562377929688,-0.5534113049507141,-0.012153777293860912,-0.005497787,-0.0021380284,1
-0.291419118642807,9.87837028503418,-0.5471542477607727,-0.01280923094600439,-0.009162978,0.0009162979,1
-0.29579439759254456,9.876967430114746,-0.5516607761383057,-0.01424357481300831,-0.03176499,-0.0018325958,1
-0.2962315082550049,9.884695053100586,-0.5651165843009949,-0.015342300757765768,-0.03848451,-0.0061086523,1
-0.2927209138870239,9.886747360229492,-0.5699576139450073,-0.016995856538414955,-0.01985312,0.011301007,1
-0.2899079322814941,9.885580062866213,-0.5626447200775146,-0.017905611544847492,-0.026267206,0.009773844,1
-0.29199251532554626,9.884556770324707,-0.561141848564148,-0.019362663850188252,-0.024740042,0.004886922,1
-0.2919497489929199,9.881016731262207,-0.5591199994087219,-0.01992884464561939,-0.022296581,0.00580322,1
-0.2878230512142181,9.87580680847168,-0.5528735518455505,-0.018815672025084496,-0.007941248,0.0070249503,1
-0.28677234053611755,9.87118434906006,-0.5500379800796509,-0.017792344093322754,-0.006414085,0.011911872,1
-0.28543156385421753,9.867405891418457,-0.5433684587478638,-0.01563858427107334,-0.004581489,0.020463986,1
-0.28869739174842834,9.864386558532717,-0.5306739807128906,-0.014526663348078728,-0.012217305,0.013439035,1
-0.2936503291130066,9.866618156433104,-0.5138570666313171,-0.012450383976101877,-0.00580322,0.0070249503,1
-0.29379236698150635,9.86595058441162,-0.497075468301773,-0.01130918599665165,-0.008246681,0.004886922,1
-0.3016703426837921,9.857902526855467,-0.481322854757309,-0.011228880845010279,-0.008246681,0.007941248,1
-0.3107105791568756,9.86021614074707,-0.468694806098938,-0.009259866550564766,-0.004886922,0.0070249503,1
-0.31793057918548584,9.862403869628906,-0.464191734790802,-0.007973754778504372,-0.008246681,0.013439035,1
-0.3261409401893616,9.865933418273926,-0.4601328372955322,-0.007473142817616463,-0.015577064,0.0033597588,1
-0.324230819940567,9.864486694335938,-0.4528620541095734,-0.007822025567293167,0.002443461,0.016187929,1
-0.3198434114456177,9.86670970916748,-0.4456285238265991,-0.006309387274086475,0.0030543262,0.023518313,1
-0.3226251602172852,9.868906021118164,-0.4315935969352722,-0.005834111478179693,-0.005497787,0.017715093,1
-0.33504194021224976,9.86835765838623,-0.41484659910202026,-0.0040846457704901695,0.005497787,0.018936822,1
-0.3410711884498596,9.874201774597168,-0.4045853912830353,-0.003132889745756984,0.0009162979,0.0143553335,1
-0.33579328656196594,9.884593963623047,-0.40018850564956665,-0.0036201672628521924,0.004581489,0.009162978,1
-0.3240495026111603,9.89354133605957,-0.3943803608417511,-0.004815444815903902,0.018325957,0.0070249503,1
-0.3199115991592407,9.897171020507812,-0.3962615132331848,-0.006511924788355827,0.016187929,0.01282817,1
-0.32268330454826355,9.89373779296875,-0.3969916105270386,-0.007358812727034092,0.010079277,0.01282817,1
-0.32026928663253784,9.889323234558104,-0.3993344008922577,-0.007715622894465923,0.022602014,0.006414085,1
-0.3171217441558838,9.888131141662598,-0.39518868923187256,-0.007693889085203409,0.023823744,0.006414085,1
-0.31274354457855225,9.88621711730957,-0.3947160243988037,-0.009028943255543707,0.018020526,0.01160644,1
-0.3081123232841492,9.886567115783693,-0.3919765055179596,-0.00915476493537426,0.02687807,0.009468411,1
-0.3061451017856598,9.884472846984863,-0.3877396881580353,-0.007747841998934745,0.03359759,0.010079277,1
-0.3085922300815582,9.887395858764648,-0.3868669271469116,-0.0073113422840833655,0.02687807,0.010690141499999998,1
-0.3180704712867737,9.883837699890137,-0.3929702937602997,-0.006439467426389457,0.029932396,0.008552114,1
-0.3219127953052521,9.87950325012207,-0.4059169292449951,-0.006129141431301832,0.027794369,0.0143553335,1
-0.30937889218330383,9.872672080993652,-0.4081732630729675,-0.004746428690850736,0.02107485,0.025350908,1
-0.2925150394439697,9.863015174865724,-0.4032879173755646,-0.0023303376510739326,0.015271631,0.023518313,1
-0.2927102744579315,9.85741901397705,-0.40397757291793823,0.0008021534886211157,0.010079277,0.015577064,1
-0.3213993012905121,9.856547355651855,-0.4105225205421448,0.004303114488720894,-0.009468411,0.019547688,1
-0.3717871308326721,9.857590675354004,-0.4112371206283569,0.007901451550424099,-0.051618114000000014,0.030848695,1
-0.4358290433883667,9.859596252441406,-0.4068905115127564,0.011921464465558529,-0.10354166,0.022907447,1
-0.5091149806976318,9.865692138671877,-0.4108529388904572,0.01680642552673817,-0.16218472,0.022602014,1
-0.5819669961929321,9.87028980255127,-0.42242297530174255,0.020117823034524918,-0.19883664,0.015577064,1
-0.6292292475700378,9.870869636535645,-0.4287411868572235,0.02438879758119583,-0.24953845,0.01863139,1
-0.6333478093147278,9.87654972076416,-0.4375133216381073,0.0257443506270647,-0.2678644,0.01985312,1
-0.5728439092636108,9.881423950195312,-0.457560122013092,0.025999270379543304,-0.23335053,0.02076942,1
-0.4627014100551605,9.887045860290527,-0.4754679501056671,0.02491752803325653,-0.21135938,0.018325957,1
-0.3181740045547485,9.892394065856934,-0.4883605241775513,0.023148272186517715,-0.15210545,0.021380283,1
-0.16474974155426025,9.903796195983887,-0.504943311214447,0.01976921036839485,-0.053145275,0.019242255,1
-0.03526188060641289,9.913036346435547,-0.5166227817535399,0.01483906991779804,0.03268129,0.032375857,1
0.048852745443582535,9.919084548950195,-0.5224645137786865,0.006645428016781807,0.11362094,0.024129177,1
0.09522239118814467,9.91416835784912,-0.5261197686195374,-0.0011938706738874314,0.17165314,0.016493361,1
0.11344917863607408,9.909429550170898,-0.5309749245643616,-0.006458568852394818,0.20922135,0.013133603,1
0.10988416522741318,9.90225315093994,-0.5254176259040833,-0.008285488933324814,0.22174409,0.010995574,1
0.09153767675161363,9.88862133026123,-0.5022516250610352,-0.008985785767436028,0.22571471,0.0015271631,1
0.072184257209301,9.881078720092773,-0.4832925796508789,-0.009599180892109873,0.21563543,0.015271631,1
0.050806038081645966,9.876800537109377,-0.4677004814147949,-0.009564774110913277,0.22510384,0.01038471,1
0.003173556877300143,9.867709159851074,-0.4562110006809234,-0.009883019141852856,0.21624629,0.013439035,1
-0.0595429427921772,9.86435317993164,-0.4532924890518189,-0.01016581989824772,0.20525073,0.0076358155,1
-0.1191207468509674,9.865245819091797,-0.4457727372646332,-0.00928894616663456,0.19120082,0.009162978,1
-0.173210009932518,9.867668151855467,-0.4565090835094452,-0.009030944667756556,0.17806722,-0.00580322,1
-0.2142595201730728,9.876042366027832,-0.4769574999809265,-0.0060257487930357465,0.17134771,0.006414085,1
-0.2409642040729523,9.880537033081056,-0.4851794838905335,-0.0046053011901676655,0.15424347,0.008857545999999999,1
-0.2583808898925781,9.881455421447754,-0.4871091842651367,-0.005881551653146744,0.1518,0.0009162979,1
-0.282997190952301,9.886122703552246,-0.4920589029788971,-0.006395688280463219,0.13805555,0.004886922,1
-0.3048411905765533,9.884322166442873,-0.5015606880187988,-0.006103642284870148,0.12522738,0.0009162979,1
-0.31508275866508484,9.87639045715332,-0.5000471472740173,-0.005058343522250652,0.103847094,0.022602014,1
-0.32479628920555115,9.86480712890625,-0.4951355159282684,-0.002675078809261322,0.08460484,0.018020526,1
-0.34157976508140564,9.853877067565918,-0.4968043267726898,0.0007836560835130513,0.06414085,0.01985312,1
-0.3610466420650482,9.84588623046875,-0.4915618002414704,0.006793474312871695,0.031154128,0.030848695,1
-0.3874824345111847,9.84492301940918,-0.4817087054252625,0.01388668641448021,0.022907447,0.04153884,1
-0.4086636006832123,9.842097282409668,-0.4598240852355957,0.020866082981228832,-0.0009162979,0.029932396,1
-0.4195942580699921,9.8443603515625,-0.436717689037323,0.028860216960310936,-0.02321288,0.024129177,1
-0.42910659313201904,9.854375839233398,-0.4250964820384979,0.03629681840538978,-0.02321288,0.019242255,1
-0.4346244037151337,9.863829612731934,-0.42115652561187744,0.040621787309646606,-0.05681047,0.014049901000000002,1
-0.4298369586467743,9.878337860107422,-0.41568100452423096,0.042089570313692086,-0.08246681,0.014660766,1
-0.4213486015796661,9.892647743225098,-0.4104061126708984,0.03999495133757591,-0.09865474,0.009162978,1
-0.41857579350471497,9.905355453491213,-0.4064067304134369,0.03636638820171356,-0.12858713,0.008552114,1
-0.4112412929534912,9.91186809539795,-0.3978827893733978,0.03061031550168991,-0.16340645,-0.0018325958,1
-0.4099836051464081,9.917165756225586,-0.4010318219661713,0.02350937388837337,-0.18387043,-0.0125227375,1
-0.4023875296115875,9.913837432861328,-0.4120956659317017,0.016752297058701515,-0.19272798,-0.017104227,1
-0.3802904784679413,9.911591529846193,-0.4263004064559937,0.011155998334288595,-0.20158553,-0.01038471,1
-0.3528185188770294,9.904898643493652,-0.4428099393844605,0.004783293697983026,-0.21013765,-0.020158553,1
-0.32096055150032043,9.897856712341307,-0.4588694274425506,-0.00047743550385348493,-0.18448131,-0.005192355,1
-0.2875018119812012,9.891679763793944,-0.4807204306125641,-0.00520433159545064,-0.1685988,0.00030543262000000003,1
-0.2600419819355011,9.89079475402832,-0.4996198117733002,-0.009181668050587177,-0.15913039999999998,-0.007330383,1
-0.2463701516389847,9.89327907562256,-0.530436098575592,-0.011385604739189148,-0.14294247,-0.003970624,1
-0.2396045923233032,9.894229888916016,-0.5544401407241821,-0.01081123948097229,-0.12736541,-0.007941248,1
-0.2301085442304611,9.892398834228516,-0.5753331780433655,-0.008467212319374084,-0.1255328,-0.002443461,1
-0.2084948718547821,9.889081954956056,-0.5819325447082521,-0.0064230915158987045,-0.09437868,0.0009162979,1
-0.1878216862678528,9.886266708374023,-0.5896809101104736,-0.0046149827539920816,-0.0720821,0.010079277,1
-0.17060807347297668,9.882502555847168,-0.5983709096908569,-0.0013299270067363975,-0.05955936,0.013439035,1
-0.1662599742412567,9.88265895843506,-0.6017534136772156,0.0005591647350229323,-0.03970624,0.014660766,1
-0.16912996768951416,9.880291938781738,-0.5940335988998413,0.002497260458767414,-0.03481932,0.016798794,1
-0.16994190216064453,9.882329940795898,-0.5873720645904541,0.004471879918128252,-0.020158553,0.010995574,1
-0.1682005524635315,9.88546085357666,-0.5796710252761841,0.007549483794718982,-0.0290161,0.011911872,1
-0.17194299399852753,9.889259338378906,-0.5818232297897339,0.010385592468082905,-0.0143553335,0.015271631,1
-0.1790422946214676,9.89002513885498,-0.5884537696838379,0.011467115022242071,0.005497787,0.015577064,1
-0.18282409012317655,9.890193939208984,-0.5857828259468079,0.011408104561269285,0.02443461,0.017104227,1
-0.18384192883968356,9.889925003051758,-0.5625143051147461,0.010626791045069695,0.024740042,0.004886922,1
-0.1877301037311554,9.896150588989258,-0.5491149425506592,0.008913005702197552,0.028710667,0.0018325958,1
-0.1963385492563248,9.89670467376709,-0.5455086231231691,0.00693604489788413,0.042760565999999986,0.007330383,1
-0.19812192022800448,9.895289421081543,-0.5534518361091614,0.004720441997051239,0.048258353,0.007941248,1
-0.1973209530115128,9.897056579589844,-0.5608333349227905,0.0025699350517243147,0.048563786,0.011301007,1
-0.20188947021961207,9.901503562927246,-0.5694579482078552,0.001953616039827466,0.05497787,0.010995574,1
-0.20779623091220856,9.90275764465332,-0.5850617289543152,0.0011810216819867492,0.064751714,0.008552114,1
-0.20400439202785486,9.900087356567383,-0.5985918045043945,0.00034874514676630497,0.08277224,0.008246681,1
-0.1988067626953125,9.897256851196287,-0.6143136024475098,-7.370726234512404e-05,0.093767814,0.013133603,1
-0.2006717175245285,9.898946762084961,-0.620481014251709,-0.0006979926256462933,0.09865474,0.011911872,1
-0.21147873997688293,9.895974159240724,-0.6193879842758179,-0.0006450960063375533,0.10567969,0.016493361,1
-0.223829984664917,9.892009735107422,-0.6154887080192566,-0.0004665641172323376,0.106595986,0.019242255,1
-0.2371561676263809,9.89888858795166,-0.617576003074646,0.0009534058044664563,0.11453723,0.008552114,1
-0.25003397464752203,9.90018367767334,-0.6176429986953735,0.0005521884886547923,0.10170906,0.01160644,1
-0.26424890756607056,9.901259422302246,-0.608704149723053,-0.00044366071233525867,0.1001819,0.015577064,1
-0.28235924243927,9.897711753845217,-0.6040672659873962,-0.0009808109607547524,0.10293079,0.013744468,1
-0.2999802529811859,9.890680313110352,-0.5955403447151184,-0.0016911235870793464,0.0888809,0.011301007,1
-0.3149512708187103,9.888705253601074,-0.5794346332550049,-0.0016259723342955112,0.07819075,0.017715093,1
-0.3329750895500183,9.881699562072754,-0.571415901184082,-0.0012521727476269007,0.08155051,0.020463986,1
-0.3424443304538727,9.877724647521973,-0.5603535175323486,-4.6677596401423216e-05,0.06780604,0.024129177,1
-0.348794162273407,9.877801895141602,-0.5476389527320862,0.0015522444155067205,0.04153884,0.025045475,1
-0.3515644967556,9.87812328338623,-0.5421035885810852,0.003136728424578905,0.042760565999999986,0.015882496,1
-0.349254310131073,9.875076293945312,-0.5406677722930908,0.004279807209968567,0.043982297,0.021685716,1
-0.3487995266914368,9.872694969177246,-0.5423941612243652,0.005350646562874317,0.03390302,0.023823744,1
-0.340364009141922,9.87735366821289,-0.5372633934020996,0.005829570814967156,0.03145956,0.027183503,1
-0.339149534702301,9.87867546081543,-0.5237792134284973,0.004928159061819315,0.02687807,0.017715093,1
-0.34636178612709045,9.880922317504883,-0.5056031346321106,0.005605978891253471,0.005497787,0.014049901000000002,1
-0.3487080633640289,9.883706092834473,-0.4939097464084625,0.005302437115460634,0.006414085,0.018325957,1
-0.3463881611824036,9.880640983581543,-0.4863166809082031,0.004407971631735563,0.0018325958,0.016798794,1
-0.345200777053833,9.877424240112305,-0.46962586045265203,0.0027136190328747034,-0.004581489,0.013439035,1
-0.3386019170284271,9.871460914611816,-0.4657122492790222,0.0011694827117025852,-0.013439035,0.01160644,1
-0.3322782814502716,9.872615814208984,-0.4673630297183991,0.00037017377326264983,-0.019547688,-0.0027488936,1
-0.32311540842056274,9.875370979309082,-0.4680137038230896,3.7365251046139754e-05,-0.022296581,0.0009162979,1
-0.3142406940460205,9.882351875305176,-0.4706814289093018,-0.0017087652813643215,-0.027794369,-0.0015271631,1
-0.3059029877185821,9.88801383972168,-0.4711908400058746,-0.0024825707077980037,-0.014049901000000002,0.009162978,1
-0.29488521814346313,9.88934326171875,-0.4789670705795288,-0.003542129416018724,-0.01985312,0.009162978,1
-0.2814679443836212,9.891698837280273,-0.4875312447547913,-0.004467790946364403,-0.021685716,0.0027488936,1
-0.2671860456466675,9.893088340759276,-0.4901153445243835,-0.005749424453824759,-0.016493361,0.010995574,1
-0.25886091589927673,9.886821746826172,-0.4882485866546631,-0.004719784483313561,-0.02107485,0.004886922,1
-0.2533900737762451,9.888965606689453,-0.4918038249015808,-0.004342081490904093,-0.027794369,0.0030543262,1
-0.2475045621395111,9.88900089263916,-0.4891628324985504,-0.003173956181854009,-0.02443461,0.0036651916,1
-0.2487083673477173,9.888589859008787,-0.4956839382648468,-0.0023528893943876032,-0.02443461,0.015882496,1
-0.25409168004989624,9.885771751403807,-0.5081646442413329,-0.0010083435336127877,-0.014660766,0.013133603,1
-0.25609302520751953,9.882367134094238,-0.5201096534729004,0.0011559074046090243,-0.006414085,0.014660766,1
-0.2540268301963806,9.880433082580566,-0.5308902859687805,0.002975240582600236,-0.010079277,0.016798794,1
-0.25279024243354803,9.879977226257324,-0.5368531346321106,0.0035744488704949617,-0.006414085,0.023518313,1
-0.2565457224845886,9.884549140930176,-0.5452075600624084,0.003737320890650153,-0.015271631,0.0027488936,1
-0.2602114677429199,9.885611534118652,-0.5503551959991455,0.0023795058950781822,-0.027488936,0.009773844,1
-0.2599831223487854,9.886480331420898,-0.5518757104873657,0.0023267990909516807,-0.022602014,0.00061086525,1
-0.2491452693939209,9.887474060058594,-0.5413472056388855,0.00274371774867177,-0.015271631,0.014660766,1
-0.23877933621406555,9.88584804534912,-0.5347163081169128,0.0035846137907356024,-0.014966198,0.0143553335,1
-0.2406216263771057,9.885519027709961,-0.5427868366241455,0.00522759510204196,-0.014049901000000002,0.013744468,1
-0.24591198563575745,9.884543418884276,-0.5500921010971069,0.006010429933667183,-0.0027488936,0.021685716,1
-0.24835404753685,9.8850736618042,-0.5498876571655273,0.007399030029773712,-0.0067195175,0.015577064,1
-0.2382759153842926,9.889721870422363,-0.5460288524627686,0.008365040645003319,0.00030543262000000003,0.015271631,1
-0.23241737484931946,9.89182186126709,-0.5473107099533081,0.007950072176754475,0.002443461,0.014660766,1
-0.23904848098754886,9.896757125854492,-0.5478646755218506,0.0066770180128514775,0.0018325958,0.013744468,1
-0.25139564275741577,9.895366668701172,-0.5517333149909973,0.0063343923538923255,-0.0030543262,0.0061086523,1
-0.2563343644142151,9.88784885406494,-0.5486261248588562,0.006608500145375729,0.003970624,0.0070249503,1
-0.2637512683868408,9.882469177246094,-0.5513990521430969,0.006509270053356886,0.00580322,0.018936822,1
-0.2674671411514282,9.872651100158693,-0.5533405542373657,0.008221718482673168,0.004886922,0.013133603,1
-0.27233052253723145,9.868515968322754,-0.5508077144622803,0.010596233420073986,0.0012217305,0.017715093,1
-0.2736680805683136,9.86537265777588,-0.5397987961769104,0.011314354836940764,-0.0030543262,0.01863139,1
-0.2741813063621521,9.868257522583008,-0.5277421474456787,0.01191626861691475,-0.00580322,0.019242255,1
-0.27169468998909,9.87626838684082,-0.5333753228187561,0.0102475481107831,0.0009162979,0.014660766,1
-0.2625197470188141,9.889896392822266,-0.5372284054756165,0.008973110467195509,0.005192355,0.0061086523,1
-0.2600755989551544,9.894731521606444,-0.5487222075462341,0.0054566264152526855,-0.0015271631,-0.0012217305,1
-0.2536916732788086,9.894594192504883,-0.5625341534614563,0.001866454374976456,0.004581489,-0.0067195175,1
-0.2454296350479126,9.889630317687988,-0.5783108472824097,-0.00017219950677827,0.008552114,-0.010995574,1
-0.235012486577034,9.887459754943848,-0.5813051462173462,-0.00263901730068028,0.00061086525,-0.004581489,1
-0.22712776064872744,9.88637638092041,-0.5833398699760437,-0.004110927693545818,0.009468411,0.0027488936,1
-0.2268235683441162,9.888507843017578,-0.5888320207595825,-0.00459169177338481,0.019547688,-0.0070249503,1
-0.22505420446395874,9.886065483093262,-0.5973974466323853,-0.005089626647531986,0.022602014,-0.00061086525,1
-0.2217172384262085,9.884114265441896,-0.5924502611160278,-0.005470516625791788,0.020158553,0.004886922,1
-0.23009052872657776,9.882183074951172,-0.5947115421295166,-0.004347600508481264,0.018936822,0.0061086523,1
-0.2297258824110031,9.880145072937012,-0.5909087657928467,-0.0031735296361148357,0.020158553,0.004886922,1
-0.2290985882282257,9.882516860961914,-0.5925230383872986,-0.0017010732553899288,0.009468411,0.01282817,1
-0.23026466369628906,9.881244659423828,-0.5892905592918396,-0.0005739782354794443,0.019242255,0.016187929,1
-0.23288893699646,9.881404876708984,-0.5732142925262451,3.994721555500291e-05,0.011301007,0.015882496,1
-0.2376539260149002,9.882596969604492,-0.5680875778198242,0.0002648347872309387,-0.0027488936,0.003970624,1
-0.24352481961250305,9.881696701049805,-0.557117760181427,0.0007757038110867143,0.009773844,0.0076358155,1
-0.24613286554813385,9.882046699523926,-0.5420488119125366,-0.0005581021541729568,0.00580322,0.00061086525,1
-0.2555962800979614,9.88496208190918,-0.5324207544326782,-0.00195220101159066,-0.0018325958,0.012217305,1
-0.2637181282043457,9.889246940612793,-0.5248278975486755,-0.0015634177252650259,-0.004276057,0.013439035,1
-0.2702421844005585,9.893604278564453,-0.5193220376968384,-0.0025891752447932963,-0.0009162979,0.01038471,1
-0.2747902870178223,9.890583992004396,-0.5170935988426208,-0.0022564271930605173,-0.0030543262,0.007330383,1
-0.2803543508052826,9.892254829406738,-0.5167111158370972,-0.001413197023794055,-0.008552114,0.002443461,1
-0.2864443063735962,9.897581100463867,-0.5172159075737001,-0.0010191042674705386,-0.002443461,0.00580322,1
-0.28918084502220154,9.89925479888916,-0.5140347480773926,-0.0008630789816379548,-0.0076358155,0.013439035,1
-0.2959262728691101,9.899715423583984,-0.5170404911041261,-0.001615641638636589,-0.0076358155,-0.00030543262000000003,1
-0.29693061113357544,9.895123481750488,-0.5266140699386597,-0.0014194814721122384,-0.008552114,0.00061086525,1
-0.3023517429828644,9.892094612121582,-0.531204879283905,-0.0014540842967107892,-0.013439035,0.004581489,1
-0.3128570020198822,9.891193389892578,-0.5271684527397156,-0.0022760217543691397,-0.012217305,0.00061086525,1
-0.3210052847862244,9.891857147216797,-0.5314318537712097,-0.0035100835375487804,-0.011911872,0.0030543262,1
-0.3227331340312958,9.890518188476562,-0.5287349224090576,-0.005656450986862183,-0.004886922,-0.00030543262000000003,1
-0.31502270698547363,9.892671585083008,-0.5228203535079956,-0.006567285396158695,-0.0076358155,0.0021380284,1
-0.3092769980430603,9.897008895874023,-0.5245212912559509,-0.007580458652228117,-0.019547688,0.0009162979,1
-0.3087332844734192,9.901378631591797,-0.5311909317970276,-0.00952901504933834,-0.021380283,-0.0018325958,1
-0.3064245879650116,9.901098251342773,-0.532678484916687,-0.009695163927972315,-0.025961773,0.0009162979,1
-0.29841044545173645,9.896682739257812,-0.5300842523574829,-0.009977973066270351,-0.02565634,-0.0018325958,1
-0.28829124569892883,9.887918472290039,-0.5268680453300476,-0.010482801124453545,-0.027183503,-0.0009162979,1
-0.2763422429561615,9.88304328918457,-0.5279513597488403,-0.010193627327680588,-0.018936822,0.004581489,1
-0.25911945104599,9.882396697998047,-0.5253213047981262,-0.008088394068181516,-0.021685716,0.01160644,1
-0.24908973276615146,9.882051467895508,-0.5264923572540283,-0.008201234973967075,-0.031154128,0.012217305,1
-0.2428448051214218,9.87668228149414,-0.5257787704467773,-0.007921753451228142,-0.04153884,0.005497787,1
-0.23870892822742465,9.874987602233887,-0.5260174870491028,-0.0059229861944913855,-0.033292156,0.017104227,1
-0.2324366271495819,9.879273414611816,-0.5298449993133545,-0.005384791176766157,-0.050701816,0.017104227,1
-0.2191089540719986,9.881942749023438,-0.5306469202041626,-0.005438567604869604,-0.051618114000000014,0.017715093,1
-0.217134952545166,9.883952140808104,-0.5268290638923645,-0.00611755158752203,-0.051923547,0.0030543262,1
-0.21431145071983335,9.89013957977295,-0.5142629742622375,-0.006885096430778503,-0.043676864,-0.004886922,1
-0.21512258052825928,9.889399528503418,-0.5129463672637941,-0.007377524860203265,-0.026267206,-0.018325957,1
-0.22259648144245148,9.89132022857666,-0.5090047717094421,-0.008925392292439938,-0.016798794,-0.015577064,1
-0.2346085906028748,9.89447784423828,-0.5072338581085205,-0.010661551728844644,-0.01160644,-0.0027488936,1
-0.2483624815940857,9.8954496383667,-0.4968343079090118,-0.011777050793170929,-0.01282817,-0.0030543262,1
-0.2555879354476929,9.893285751342773,-0.4786251187324524,-0.012778603471815586,-0.00580322,0.002443461,1
-0.2673689126968384,9.891387939453123,-0.4630780518054962,-0.012758673168718815,-0.005192355,-0.00580322,1
-0.28407153487205505,9.891438484191896,-0.4477464854717255,-0.014035759493708609,-0.003970624,-0.00580322,1
-0.2968464493751526,9.88987636566162,-0.4414181709289551,-0.014158688485622406,-0.008552114,-0.005497787,1
-0.3092036843299866,9.893403053283693,-0.4376981556415558,-0.013660956174135208,0.016798794,-0.0009162979,1
-0.3231486976146698,9.89684009552002,-0.4441760778427124,-0.015170929953455925,0.020463986,-0.0018325958,1
-0.3382836580276489,9.897127151489258,-0.4515677988529205,-0.017456326633691788,0.02565634,0.0021380284,1
-0.3424014151096344,9.89647102355957,-0.451228678226471,-0.020015500485897064,0.035430185,0.00061086525,1
-0.3438548147678375,9.897223472595217,-0.4591111242771149,-0.022307369858026505,0.04795292,0.0061086523,1
-0.3463374972343445,9.892563819885254,-0.4640534520149231,-0.023283630609512333,0.043066,0.010079277,1
-0.3533886969089508,9.883414268493652,-0.4644250273704529,-0.022895582020282745,0.039095376,0.010079277,1
-0.3700593709945679,9.872743606567383,-0.4691715240478516,-0.020774932578206062,0.028405234,0.010690141499999998,1
-0.3788633942604065,9.873847007751463,-0.4822894930839538,-0.01859364099800587,0.021380283,0.007330383,1
-0.3826970756053925,9.876622200012207,-0.4868040680885315,-0.017250211909413338,0.021685716,0.01160644,1
-0.3780366182327271,9.87687873840332,-0.48359799385070795,-0.015488305129110813,0.010995574,0.025350908,1
-0.3703892230987549,9.872483253479004,-0.4833460450172424,-0.0135507108643651,0.021685716,0.018020526,1
-0.3710208535194397,9.869190216064453,-0.4748895168304443,-0.011718623340129852,0.02565634,0.015577064,1
-0.3722730278968811,9.871689796447754,-0.458136796951294,-0.011428829282522202,0.025350908,0.015271631,1
-0.3703790009021759,9.879354476928713,-0.4482271373271942,-0.011542457155883312,0.02687807,0.0070249503,1
-0.3689564764499664,9.88454532623291,-0.4405808448791504,-0.012053470127284529,0.030848695,0.010079277,1
-0.3655150234699249,9.888812065124512,-0.42433732748031616,-0.013329330831766129,0.024129177,0.011301007,1
-0.369066059589386,9.892049789428713,-0.4086582958698273,-0.01311071403324604,0.027488936,0.017104227,1
-0.3769270181655884,9.895182609558104,-0.4063074588775635,-0.014091254211962225,0.017715093,0.013439035,1
-0.3786817193031311,9.894187927246094,-0.4030843675136566,-0.014748056419193743,0.008552114,0.01160644,1
-0.3762485384941101,9.89412784576416,-0.3971610367298126,-0.015149277634918691,-0.003970624,0.0076358155,1
-0.3738229274749756,9.8865966796875,-0.3895187377929688,-0.014587533660233019,0.0018325958,0.017715093,1
-0.3674841523170471,9.882070541381836,-0.3767096698284149,-0.013678272254765034,-0.0015271631,0.016493361,1
-0.3611583113670349,9.880149841308594,-0.3689915239810944,-0.011504941619932652,-0.007330383,0.0143553335,1
-0.3570123612880707,9.882604598999023,-0.3642846643924713,-0.010253234766423702,-0.012217305,0.015271631,1
-0.35167640447616577,9.884934425354004,-0.36174705624580383,-0.008943118155002594,-0.016798794,0.0067195175,1
-0.3457428514957428,9.882150650024414,-0.3667923212051392,-0.009138522669672966,-0.00580322,0.016798794,1
-0.3412797451019287,9.881302833557127,-0.3660255968570709,-0.00910837110131979,-0.010079277,0.007941248,1
-0.3459761142730713,9.881680488586426,-0.3697203099727631,-0.010017155669629574,-0.012217305,0.010690141499999998,1
-0.3479727208614349,9.882099151611328,-0.3671689629554749,-0.010548155754804613,-0.020158553,0.017715093,1
-0.34206515550613403,9.878372192382812,-0.3588031828403473,-0.011277279816567898,-0.029321533,0.01160644,1
-0.3353371024131775,9.873799324035645,-0.3556364476680756,-0.012081122025847437,-0.03023783,0.016798794,1
-0.33362433314323425,9.867619514465332,-0.3526692092418671,-0.010649957694113256,-0.03604105,0.0021380284,1
-0.3329124450683594,9.862668991088867,-0.35354283452034,-0.009234455414116384,-0.046120327,0.005192355,1
-0.32210037112236023,9.85249137878418,-0.3675768971443176,-0.0058910525403916844,-0.027794369,0.026572637000000003,1
-0.3032319843769073,9.850021362304688,-0.3820474743843079,0.0005064947181381285,-0.012217305,0.024740042,1
-0.2804219126701355,9.851746559143066,-0.3868012726306915,0.006010029930621386,-0.02076942,0.034208454,1
-0.26954469084739685,9.857635498046877,-0.38358429074287415,0.00950163509696722,-0.014966198,0.02565634,1
-0.2632896602153778,9.863374710083008,-0.3815995454788208,0.012197263538837431,-0.004886922,0.02321288,1
-0.2576707899570465,9.871490478515623,-0.3765864968299866,0.013318197801709177,0.00580322,0.028099801,1
-0.2559133768081665,9.876175880432127,-0.3709702789783478,0.01223731879144907,0.0067195175,0.018936822,1
-0.25672397017478943,9.880278587341307,-0.3677942454814911,0.009376083500683308,0.014660766,0.017104227,1
-0.2650391757488251,9.885050773620604,-0.371533066034317,0.007174847647547722,0.004886922,0.0125227375,1
-0.2674548029899597,9.890138626098633,-0.36537528038024897,0.006214817520231009,0.0012217305,0.01282817,1
-0.2506343424320221,9.887290954589844,-0.3619935810565949,0.00489624822512269,0.009773844,0.018936822,1
-0.238080695271492,9.874313354492188,-0.3615731000900269,0.003313030116260052,0.0076358155,0.01740966,1
-0.2309004962444305,9.868881225585938,-0.3653442859649658,0.0024841325357556343,0.0061086523,0.01740966,1
-0.22885178029537198,9.864354133605957,-0.3675478100776672,0.0028857644647359852,0.01863139,0.018325957,1
-0.2325295060873032,9.865904808044434,-0.3583798408508301,0.0028356129769235854,0.0143553335,0.021685716,1
-0.2366558611392975,9.866012573242188,-0.3597574830055237,0.003122643800452352,0.010690141499999998,0.0076358155,1
-0.2359437346458435,9.863396644592283,-0.3660006821155548,0.0022370752412825823,0.019242255,0.013744468,1
-0.2333347201347351,9.864583015441896,-0.3660149574279785,0.0020177396945655346,0.019242255,0.01160644,1
-0.2312466502189636,9.865339279174805,-0.36605554819107056,0.001662627444602549,0.024740042,0.020158553,1
-0.2309945225715637,9.865069389343262,-0.3637215793132782,0.001582182594574988,0.032375857,0.016798794,1
-0.23214191198349,9.861176490783693,-0.3725678622722626,0.0020988248288631444,0.021991149,0.023518313,1
-0.2292705774307251,9.862427711486816,-0.37185177206993103,0.0026162308640778065,0.0061086523,0.0125227375,1
-0.24026288092136386,9.87161636352539,-0.3685846924781799,0.002881390741094947,0.014660766,0.021380283,1
-0.25194957852363586,9.878551483154297,-0.3718649744987488,0.003106479998677969,0.01282817,0.009468411,1
-0.2517096400260925,9.881128311157227,-0.3802975714206696,0.003820195328444242,0.019547688,0.009162978,1
-0.25302562117576605,9.879762649536133,-0.3786535859107971,0.003136513056233525,0.0033597588,0.009468411,1
-0.2583239674568176,9.879448890686037,-0.3739846348762512,0.0032789914403110747,-0.00030543262000000003,0.008552114,1
-0.2611103653907776,9.876460075378418,-0.3807417154312134,0.0031539434567093854,0.015271631,0.009162978,1
-0.2599154412746429,9.868729591369627,-0.3809054493904114,0.0043302117846906185,0.007330383,0.010995574,1
-0.2571181654930115,9.863112449645996,-0.3793981671333313,0.004002231638878585,-0.014966198,0.006414085,1
-0.26540076732635504,9.864450454711914,-0.3762267529964447,0.005198115482926369,-0.0015271631,0.01160644,1
-0.2688499689102173,9.868515968322754,-0.3807360827922821,0.007058993447571994,-0.016798794,0.0143553335,1
-0.2672388851642609,9.874982833862305,-0.3820144236087799,0.008178755640983582,-0.01863139,0.018936822,1
-0.2573193609714508,9.88281536102295,-0.3731256425380707,0.008046917617321014,-0.011911872,0.008857545999999999,1
-0.25501009821891785,9.884515762329102,-0.3637754917144776,0.007493603043258191,-0.01985312,0.003970624,1
-0.2570803761482239,9.886710166931152,-0.3620292246341705,0.005973507184535265,-0.016187929,0.002443461,1
-0.2546290457248688,9.892115592956543,-0.3616696894168854,0.0040731215849518785,-0.010079277,0.0033597588,1
-0.2525247633457184,9.895552635192873,-0.3674728572368622,0.0029176734387874608,-0.00580322,0.005497787,1
-0.2432161420583725,9.895608901977539,-0.3697022497653961,0.0022179035004228354,-0.007941248,-0.011301007,1
-0.2283802926540375,9.891923904418944,-0.3742442131042481,0.0010855458676815033,0.0015271631,-0.004276057,1
-0.21100297570228574,9.894523620605467,-0.3775967061519623,0.00038425964885391295,0.014966198,0.004581489,1
-0.19536691904067996,9.897575378417967,-0.38217824697494507,-0.002553965197876096,0.022602014,0.0067195175,1
-0.19161373376846316,9.892603874206543,-0.3871873617172241,-0.0045025632716715345,0.02565634,0.003970624,1
-0.2034990191459656,9.887838363647461,-0.3930438458919525,-0.004339984618127346,0.038789943,0.006414085,1
-0.21333178877830505,9.884033203125,-0.4034399688243866,-0.003731046337634325,0.032986723,0.009468411,1
-0.21911974251270291,9.881558418273926,-0.4113679826259613,-0.00331781804561615,0.03726278,0.015271631,1
-0.2313269525766373,9.883871078491213,-0.4177274703979492,-0.00040630879811942583,0.042760565999999986,0.0125227375,1
-0.2442164719104767,9.883758544921877,-0.4257470965385437,0.0014638459542766213,0.04337143,0.022296581,1
-0.25995153188705444,9.88256549835205,-0.42737165093421936,0.0046411664225161076,0.039095376,0.022296581,1
-0.27567100524902344,9.877449989318848,-0.4253588020801544,0.007722887676209211,0.040011674,0.016187929,1
-0.29130083322525024,9.878304481506348,-0.413086086511612,0.010325724259018898,0.03756821,0.02076942,1
-0.303320586681366,9.88396167755127,-0.4090238213539124,0.01164998207241297,0.036651913,0.020463986,1
-0.30661889910697937,9.889693260192873,-0.413153886795044,0.0118432454764843,0.046731193,0.01863139,1
-0.3040317893028259,9.893962860107422,-0.41228863596916204,0.011533005163073541,0.03756821,0.016798794,1
-0.3022942543029785,9.893899917602539,-0.4037753641605377,0.009498253464698792,0.028099801,0.013133603,1
-0.3068312704563141,9.89246940612793,-0.40249738097190857,0.007742092479020356,0.03023783,0.009162978,1
-0.3102361261844635,9.887171745300293,-0.402258962392807,0.0067084813490509996,0.034208454,0.008552114,1
-0.30730870366096497,9.886874198913574,-0.4011058807373047,0.006217308342456818,0.019547688,0.0061086523,1
-0.3038205206394196,9.886157035827637,-0.3932681381702423,0.005229904782027006,0.016798794,0.0125227375,1
-0.3067331612110138,9.884936332702637,-0.4044713079929352,0.0043428740464150906,0.025350908,0.008857545999999999,1
-0.3096638023853302,9.886868476867676,-0.4110707640647888,0.004933379124850036,0.01740966,0.012217305,1
-0.3154721260070801,9.88980484008789,-0.4121151566505432,0.005958924535661936,0.018020526,0.011301007,1
-0.31900009512901306,9.893441200256348,-0.41133952140808105,0.00691647082567215,0.013133603,0.010690141499999998,1
-0.3125557005405426,9.89936065673828,-0.4101710021495819,0.006385744083672762,0.016187929,0.018325957,1
-0.3125472962856293,9.897502899169922,-0.4017124474048615,0.005951709114015102,0.0033597588,0.0125227375,1
-0.321537584066391,9.893988609313963,-0.3936187922954559,0.007502265740185977,-0.010690141499999998,0.012217305,1
-0.3400975167751312,9.88642406463623,-0.39288714528083796,0.0098063126206398,-0.018936822,0.021380283,1
-0.3545929491519928,9.881921768188477,-0.3943352699279785,0.011532923206686974,-0.035430185,0.01740966,1
-0.36301320791244507,9.88268756866455,-0.3892509937286377,0.013347059488296507,-0.040927973,0.0036651916,1
-0.3607536852359772,9.884759902954102,-0.38680920004844666,0.014909878373146055,-0.040317107000000005,0.014966198,1
-0.35585683584213257,9.884979248046877,-0.38860461115837097,0.015249187126755713,-0.044593163,0.014049901000000002,1
-0.3473571836948395,9.8887300491333,-0.3875162303447723,0.013838879764080048,-0.044593163,0.01740966,1
-0.3293692171573639,9.892537117004396,-0.3875145614147186,0.011810111813247204,-0.03940081,0.004886922,1
-0.30949491262435913,9.896758079528807,-0.40015363693237305,0.008374880999326706,-0.042455133,-0.00030543262000000003,1
-0.28448283672332764,9.897555351257324,-0.4150960743427277,0.006707983557134868,-0.0421497,-0.009162978,1
-0.2576495110988617,9.900293350219727,-0.4344343543052673,0.0033478562254458666,-0.04062254,-0.00061086525,1
-0.241000771522522,9.895442008972168,-0.457293838262558,0.0009760709945112467,-0.027488936,0.0012217305,1
-0.2342362999916077,9.884671211242676,-0.4669177532196045,-0.0005672398256137968,-0.012217305,0.014049901000000002,1
-0.2476069778203964,9.87617301940918,-0.4708710610866546,0.0004788961086887866,-0.018325957,0.022907447,1
-0.2713600695133209,9.867887496948242,-0.4662691056728363,0.005059793591499329,-0.022296581,0.017715093,1
-0.2873541116714477,9.866433143615724,-0.4517860114574432,0.011884053237736223,-0.02443461,0.023823744,1
-0.2923185229301453,9.868023872375488,-0.4384311139583588,0.01724480465054512,-0.010690141499999998,0.021380283,1
-0.2918151021003723,9.87462329864502,-0.4289607107639313,0.02131318300962448,-0.014660766,0.027488936,1
-0.2927302420139313,9.877618789672852,-0.4200840592384337,0.023403601720929142,-0.008552114,0.02321288,1
-0.2988061606884003,9.881771087646484,-0.41635432839393616,0.023050166666507717,0.002443461,0.013744468,1
-0.302068829536438,9.889018058776855,-0.4171672761440277,0.02257455326616764,-0.0125227375,0.015271631,1
-0.3085598051548004,9.89341640472412,-0.4149981737136841,0.02147555723786354,-0.005497787,0.014966198,1
-0.31559717655181885,9.895626068115234,-0.4161714017391205,0.01922054961323738,-0.016493361,0.0067195175,1
-0.31361258029937744,9.895359992980957,-0.4215013384819031,0.01685311459004879,-0.014660766,0.008552114,1
-0.29460814595222473,9.901994705200195,-0.4203479290008545,0.015004193410277368,-0.014049901000000002,0.0030543262,1
-0.2821244895458221,9.905232429504396,-0.4246024191379547,0.011580902151763441,-0.0143553335,-0.004581489,1
-0.2806532084941864,9.901217460632324,-0.4384306073188782,0.008185476996004581,0.0012217305,-0.004276057,1
-0.27822667360305786,9.898310661315918,-0.4578828811645508,0.004693327005952597,0.0070249503,-0.0012217305,1
-0.2685163617134094,9.89911937713623,-0.4731788039207458,0.000338645069859922,0.01160644,-0.00061086525,1
-0.2566801607608795,9.896758079528807,-0.4812111556529999,-0.0040575461462140075,0.014049901000000002,0.0033597588,1
-0.24918706715106964,9.892891883850098,-0.4835907220840454,-0.0070096743293106565,0.017104227,0.00061086525,1
-0.2459581047296524,9.889104843139648,-0.4807954132556915,-0.009359177201986313,0.014660766,-0.00061086525,1
-0.2394531965255737,9.88341999053955,-0.4766192138195038,-0.00950529985129833,0.016798794,0.005192355,1
-0.2356790751218796,9.8712739944458,-0.4723323583602905,-0.00951029546558857,0.018936822,0.01038471,1
-0.2355013787746429,9.860440254211426,-0.468908965587616,-0.008846432901918888,0.02076942,0.008857545999999999,1
-0.2370472848415375,9.858137130737305,-0.4739099144935608,-0.006577281281352043,0.016798794,0.010995574,1
-0.2422407269477844,9.857250213623047,-0.4763745665550232,-0.0037880523595958952,0.023823744,0.013133603,1
-0.2399119734764099,9.858230590820312,-0.4743467569351196,-0.001137792831286788,0.03756821,0.022296581,1
-0.24258814752101895,9.860347747802734,-0.4742083847522736,0.0009734606137499213,0.03970624,0.019547688,1
-0.25095638632774353,9.862478256225586,-0.4808756709098816,0.002923494437709451,0.035430185,0.01863139,1
-0.25493940711021423,9.86867618560791,-0.4772261679172516,0.002654505427926779,0.02687807,0.013744468,1
-0.2643950581550598,9.874302864074707,-0.4619225263595581,0.0022160301450639963,0.023823744,0.012217305,1
-0.27192422747612,9.878179550170898,-0.4476125240325928,0.0013592245522886515,0.023518313,0.016187929,1
-0.2784368395805359,9.882328033447266,-0.43881431221961975,-3.199292768840678e-05,0.0290161,0.010690141499999998,1
-0.2819045782089233,9.881759643554688,-0.4353888928890228,-0.0023373959120363,0.025961773,0.0125227375,1
-0.2788466215133667,9.878646850585938,-0.43869099020957947,-0.002550603589043021,0.01985312,0.018020526,1
-0.2770693600177765,9.877471923828123,-0.4377683699131012,-0.0011436317581683395,0.015882496,0.015577064,1
-0.2852269113063812,9.87968635559082,-0.4343978762626648,0.00014465035928878933,0.015882496,0.016798794,1
-0.28824231028556824,9.88073444366455,-0.4274525940418243,0.0005055049550719558,0.013133603,0.01863139,1
-0.2808573842048645,9.88176727294922,-0.42336270213127136,0.0004341603198554367,-0.00030543262000000003,0.004276057,1
-0.27912887930870056,9.888333320617676,-0.41339457035064703,0.00012732826871797442,0.004276057,-0.00030543262000000003,1
-0.2746212184429169,9.893497467041016,-0.39971983432769775,-0.00036322863888926804,0.008857545999999999,0.011301007,1
-0.2776719629764557,9.889007568359377,-0.3951733708381653,-0.000872890988830477,0.0015271631,0.009773844,1
-0.2907531559467316,9.881180763244627,-0.39500725269317627,-0.0003210788418073207,-0.00030543262000000003,0.007941248,1
-0.3000135123729706,9.877543449401855,-0.3929635882377625,0.0010795348789542911,-0.00061086525,0.014966198,1
-0.3063689172267914,9.875414848327637,-0.3899771273136139,0.003337844973430037,0.002443461,0.015271631,1
-0.30952131748199463,9.875118255615234,-0.3878094553947449,0.0050324699841439715,-0.0021380284,0.012217305,1
-0.3120694756507873,9.876437187194824,-0.3926346898078919,0.005497204605489968,-0.008552114,0.015271631,1
-0.30869489908218384,9.87514877319336,-0.3951608836650848,0.005007266066968441,-0.006414085,0.01160644,1
-0.31068557500839233,9.873392105102539,-0.4033626616001129,0.004675029776990414,-0.008246681,0.0027488936,1
-0.3140720129013061,9.873674392700195,-0.4132296442985535,0.004278430715203285,-0.009773844,0.016798794,1
-0.3227797150611877,9.873684883117676,-0.4218092560768128,0.004028015770018101,-0.016798794,0.005192355,1
-0.3192535638809204,9.870806694030762,-0.4253782629966736,0.004582368303090335,-0.021685716,-0.0021380284,1
-0.3041380047798157,9.872376441955566,-0.4328882992267609,0.0032539614476263523,-0.011911872,-0.0061086523,1
-0.2830615341663361,9.878510475158693,-0.4417617917060852,0.002316563157364726,-0.004276057,0.008246681,1
-0.28050291538238525,9.885843276977539,-0.4419916570186615,0.0014340179041028025,-0.0070249503,0.007941248,1
-0.28405073285102844,9.888193130493164,-0.4519195854663849,0.0013435494620352983,-0.010995574,0.0033597588,1
-0.276770681142807,9.889819145202637,-0.4664925634860992,0.0005221186438575387,-0.0061086523,0.005497787,1
-0.2700679302215576,9.885221481323242,-0.4789318442344666,0.0006545212236233057,0.0021380284,0.00580322,1
-0.26578423380851746,9.878558158874512,-0.4799531698226929,-0.0003961464681196958,0.012217305,0.004276057,1
-0.2615599036216736,9.873148918151855,-0.4715251922607422,-0.00010084060340886936,0.013133603,0.010690141499999998,1
-0.2593063414096832,9.867228507995604,-0.4654281735420227,-0.0007205801666714251,0.01160644,0.0033597588,1
-0.2563028931617737,9.868216514587402,-0.4611879587173462,-0.0011931974440813065,0.0076358155,0.019242255,1
-0.2591422498226166,9.87037181854248,-0.4500706195831299,-0.0006412689690478146,0.0076358155,0.015882496,1
-0.26681509613990784,9.873969078063963,-0.44612571597099293,-0.0006324885180220008,0.018020526,0.014660766,1
-0.2813300788402557,9.875625610351562,-0.4419486522674561,-0.0006335479556582867,0.005192355,0.006414085,1
-0.28759199380874634,9.878792762756348,-0.4383152723312378,-0.00014544549048878253,0.008246681,0.013744468,1
-0.2920742034912109,9.884857177734377,-0.4316637814044952,0.0003066145291086287,0.009773844,0.01160644,1
-0.2957548201084137,9.882974624633787,-0.4272123575210571,-0.00045289154513739055,0.009162978,0.010995574,1
-0.2971445918083191,9.879731178283693,-0.4264479577541351,-0.00044653654913418,0.00580322,0.011911872,1
-0.3171972334384918,9.878894805908203,-0.4209662973880768,0.0001752069074427709,0.013439035,0.010690141499999998,1
-0.3207365572452545,9.883602142333984,-0.4111607074737549,0.00126927241217345,0.010079277,0.01740966,1
-0.3249605298042297,9.892522811889648,-0.4112732112407684,0.000385113205993548,0.007330383,0.014660766,1
-0.3247333765029907,9.894986152648926,-0.4095335304737091,-0.00030005656299181277,0.01282817,0.017715093,1
-0.3212343454360962,9.894969940185547,-0.4094788134098053,-0.0009981327457353473,0.01282817,0.013133603,1
-0.3194334506988525,9.898090362548828,-0.41089701652526855,-0.0006562586640939116,0.0067195175,0.01160644,1
-0.3278544843196869,9.89991283416748,-0.416727215051651,-0.0016040591290220618,0.0061086523,0.007330383,1
-0.33578476309776306,9.89693832397461,-0.4193614423274994,-0.002306333743035793,0.009468411,0.014049901000000002,1
-0.3352417349815369,9.895318031311037,-0.4213768839836121,-0.0025618865620344877,0.0076358155,0.010995574,1
-0.3226895928382873,9.895271301269533,-0.4321174323558808,-0.0033228541724383827,0.014966198,0.0143553335,1
-0.3139544129371643,9.88868522644043,-0.4357678592205048,-0.0038514728657901287,0.007941248,0.013439035,1
-0.3123973309993744,9.884597778320312,-0.43496018648147583,-0.0032319920137524605,0.009162978,0.012217305,1
-0.3108205199241638,9.88254165649414,-0.4417297840118408,-0.0018392696511000395,0.009468411,0.013439035,1
-0.308658242225647,9.88437557220459,-0.4442210495471953,-0.0007003748905844986,0.007330383,0.017715093,1
-0.3104316592216492,9.884416580200195,-0.4374585449695587,0.0004774371336679905,0.0009162979,0.010690141499999998,1
-0.307533860206604,9.88418960571289,-0.4286432862281799,0.0014377471525222065,0.011911872,0.0125227375,1
-0.29974162578582764,9.883057594299316,-0.4211091697216034,0.001094828243367374,0.01985312,0.022602014,1
-0.2916342616081238,9.883554458618164,-0.4141528904438019,0.0003300874668639153,0.004581489,0.015882496,1
-0.2916739284992218,9.88722038269043,-0.41255947947502136,-6.743470294168219e-05,0.0021380284,0.004276057,1
-0.2878572642803192,9.889959335327148,-0.418348491191864,-0.001530392561107874,0.0033597588,0.010079277,1
-0.2833769917488098,9.887235641479492,-0.4175659120082855,-0.0020032431930303574,-0.0012217305,0.010995574,1
-0.2819468080997467,9.88715362548828,-0.41388773918151855,-0.002600919455289841,0.0018325958,0.010690141499999998,1
-0.2791907489299774,9.885799407958984,-0.4141627252101898,-0.003116539213806391,0.004581489,0.0070249503,1
-0.2751469612121582,9.888887405395508,-0.4152569174766541,-0.003677739761769772,-0.006414085,0.01282817,1
-0.2779480516910553,9.88757610321045,-0.41986727714538574,-0.004965341184288263,0.00061086525,0.004276057,1
-0.28762564063072205,9.883251190185547,-0.4228708148002625,-0.0050570578314363965,0.0021380284,0.0036651916,1
-0.290361762046814,9.880374908447266,-0.4242821931838989,-0.004880907479673624,-0.004276057,0.013133603,1
-0.2828782796859741,9.883920669555664,-0.4355844259262085,-0.0029525838326662783,-0.008552114,0.015577064,1
-0.2732616364955902,9.88248062133789,-0.43803152441978455,-0.0009045809274539351,-0.011301007,0.014660766,1
-0.26156967878341675,9.878739356994627,-0.4417686462402344,-0.00037517512100748723,-0.0021380284,0.02076942,1
-0.2604711949825287,9.874823570251463,-0.4416716694831848,0.0016597992507740855,0.0036651916,0.020158553,1
-0.26172706484794617,9.87543773651123,-0.4408440589904785,0.003403915325179696,0.01282817,0.019547688,1
-0.2643448710441589,9.879100799560547,-0.4357195198535919,0.004118276294320822,0.00580322,0.014660766,1
-0.2655773460865021,9.883243560791016,-0.4277200698852539,0.0032184291630983357,0.009468411,0.009773844,1
-0.26279497146606445,9.883703231811523,-0.43026649951934814,0.0022206814028322697,0.008246681,0.007941248,1
-0.2625816464424133,9.877963066101074,-0.4313962757587433,0.0016460439655929804,0.017104227,0.01985312,1
-0.265744149684906,9.865116119384766,-0.4199896156787872,0.001190459122881293,0.009773844,0.01863139,1
-0.27055716514587397,9.855402946472168,-0.4046386778354645,0.002709343098104,0.007941248,0.018325957,1
-0.27373719215393066,9.85110569000244,-0.4006936252117157,0.004535612650215626,0.002443461,0.0143553335,1
-0.2727102041244507,9.853940963745117,-0.3951697945594788,0.006240642163902521,0.013744468,0.023518313,1
-0.26744744181633,9.85860824584961,-0.39763662219047546,0.007600734476000071,0.005192355,0.014966198,1
-0.26159197092056274,9.862150192260742,-0.3925064206123352,0.00860015582293272,0.01038471,0.017715093,1
-0.2641851902008057,9.873175621032717,-0.38128042221069336,0.007891363464295864,0.016187929,0.021380283,1
-0.2754805684089661,9.879920959472656,-0.3747731149196625,0.007146979682147503,0.0067195175,0.025350908,1
-0.2942366003990173,9.882463455200195,-0.3840545117855072,0.00620524724945426,0.007330383,0.008246681,1
-0.29915210604667664,9.884421348571776,-0.3931713104248047,0.00506597850471735,0.01740966,0.011911872,1
-0.2809086143970489,9.884967803955078,-0.4022485911846161,0.005420657806098461,0.018325957,0.012217305,1
-0.2582315504550934,9.890521049499512,-0.4070089757442473,0.00429886020720005,0.033292156,0.019242255,1
-0.23143985867500305,9.89470386505127,-0.4259064197540283,0.002156669506803155,0.060170225999999986,0.034208454,1
-0.1849272847175598,9.91221809387207,-0.4503525793552399,-0.0009628220577724277,0.0720821,0.049785517,1
-0.13962306082248688,9.925580978393556,-0.4998992383480072,-0.005966851953417064,0.14110987,0.024740042,1
-0.06799639016389848,9.953907012939453,-0.5472999811172485,-0.009507520124316216,0.18600847,0.033292156,1
-0.049946874380111694,9.92820644378662,-0.5688495039939879,-0.01085425354540348,0.20433442,0.024129177,1
-0.035765334963798516,9.88103199005127,-0.596577525138855,-0.011608670465648174,0.25595254,0.0018325958,1
0.003009745618328452,9.896989822387695,-0.6085221767425537,-0.00792648084461689,0.26145032,0.01863139,1
0.048614174127578735,9.906095504760742,-0.6124945282936096,-0.005981564987450838,0.2947425,0.034208454,1
0.06901353597640991,9.93671703338623,-0.6066088676452637,-0.006212167907506228,0.26297748,0.03481932,1
0.028073620051145557,9.908831596374512,-0.5698453783988953,-0.004262147471308708,0.23854288,0.027794369,1
-0.04045203328132629,9.887829780578613,-0.533733069896698,0.00017064489657059312,0.2312125,0.015577064,1
-0.09899197518825532,9.875678062438963,-0.5012826323509216,0.006856873631477356,0.16982053,0.02321288,1
-0.16116544604301453,9.85924243927002,-0.4688292145729065,0.01492305938154459,0.13469578,0.023518313,1
-0.2051924169063568,9.843167304992676,-0.4309337437152863,0.02337460033595562,0.09193522,0.032986723,1
-0.2415008395910263,9.83323574066162,-0.4015388488769531,0.03237469494342804,0.06261369,0.04153884,1
-0.2762645184993744,9.831708908081056,-0.3841125965118408,0.041472647339105606,0.045814894,0.034513887,1
-0.32104742527008057,9.834659576416016,-0.3838161528110504,0.05235031992197037,0.03359759,0.030848695,1
-0.35335204005241394,9.843240737915039,-0.3674547374248505,0.06126676872372627,0.0076358155,0.03634648,1
-0.3826263248920441,9.859386444091797,-0.3431967496871948,0.0661139115691185,0.0033597588,0.04520403,1
-0.4339999854564667,9.874768257141113,-0.32804980874061584,0.0671711340546608,-0.021685716,0.023823744,1
-0.4893592298030853,9.885397911071776,-0.3263420164585113,0.06741653382778168,-0.03604105,0.013133603,1
-0.5160768032073975,9.902019500732422,-0.32213181257247925,0.06367472559213637,-0.06383542,0.01160644,1
-0.5185291171073914,9.9131441116333,-0.3067692518234253,0.05646620318293572,-0.089491755,0.022602014,1
-0.5308418869972229,9.91651725769043,-0.3018159568309784,0.046999987214803696,-0.11148291,0.015577064,1
-0.5605877041816711,9.908785820007324,-0.31091102957725525,0.03880050033330917,-0.12583824,-0.0076358155,1
-0.5815643668174744,9.900819778442383,-0.3229566216468811,0.032247819006443024,-0.183565,-0.0061086523,1
-0.5883926749229431,9.90308952331543,-0.33307307958602905,0.0265938937664032,-0.22510384,0.00061086525,1
-0.6134839057922363,9.899640083312988,-0.35254597663879395,0.022923491895198825,-0.26328292,0.0012217305,1
