acc_x,acc_y,acc_z,gyro_x,gyro_y,gyro_z,label
0.0,0.0,0.0,0.0,-0.06841691,-0.06078109,1
0.02485208958387375,-0.2595075666904449,0.03326740115880966,-0.03395744040608406,0.35033122,0.074830994,1
0.077365443110466,-0.8718351125717163,0.08791878074407578,-0.09728389978408812,0.64843345,0.18020524,1
0.16440778970718384,-1.7510414123535156,0.1936398595571518,-0.16698376834392548,0.54825157,0.18142697,1
0.3400588929653168,-2.8716030120849614,0.41258153319358826,-0.2584735155105591,0.27763826,0.08460484,1
0.568828821182251,-4.2208523750305185,0.638275682926178,-0.3785765767097473,0.07452556,-0.14446963,1
0.7248256802558899,-5.580756664276123,0.8083884119987488,-0.5015491247177124,-0.064751714,-0.33200526,1
0.7909443378448486,-6.600414276123048,0.7847878336906433,-0.5766623616218567,0.17195857,-0.22632557,1
0.8507203459739685,-7.207931995391847,0.6210211515426636,-0.5740541219711304,0.56169057,-0.03726278,1
0.9599742293357848,-7.543766498565674,0.6292091012001038,-0.5225126147270203,0.28619036,-0.12583824,1
1.1416404247283936,-7.784661293029785,0.8120901584625244,-0.4444790184497833,-0.46181414,-0.33078352,1
1.243587851524353,-8.015636444091799,0.8277840614318848,-0.3482092618942261,-0.73639804,-0.46822822,1
1.1303774118423462,-8.304147720336914,0.6976454257965088,-0.30757877230644226,-0.5684100999999999,-0.45112398,1
0.8973027467727661,-8.568097114562987,0.5153568387031555,-0.33491435647010803,-0.23426682,-0.15607607,1
0.6869692802429199,-8.774433135986326,0.3436141908168793,-0.3806317746639252,-0.0027488936,0.1328632,1
0.6080564856529236,-8.944367408752441,0.20686861872673035,-0.4028535783290863,0.056199603,0.25289822,1
0.7155095934867859,-9.10489559173584,0.1368671953678131,-0.3803527057170868,-0.124311075,0.09682214,1
0.9454869627952576,-9.36502742767334,0.17848818004131314,-0.3210183978080749,-0.5714644,-0.06566802,1
1.1248329877853394,-9.569336891174316,0.06834467500448227,-0.19599226117134091,-0.3680463,-0.12858713,1
1.124954342842102,-9.61205005645752,-0.2271050065755844,-0.06371297687292099,0.08216137400000001,0.062002823,1
1.1150362491607666,-9.568469047546387,-0.4774728715419769,0.009742803871631622,0.3484986,0.22968534,1
1.1501637697219849,-9.513062477111816,-0.5522145628929138,0.032798141241073615,0.49205196,0.28405234,1
1.218803882598877,-9.478397369384766,-0.4293665885925293,0.045014947652816766,0.34513888,0.21777347,1
1.3049161434173584,-9.418505668640137,-0.21809330582618716,0.06170691177248955,0.048563786,0.1001819,4
1.3456571102142334,-9.37937831878662,-0.10926034301519394,0.07852723449468613,-0.05772676700000001,-0.0021380284,4
1.3074982166290283,-9.427078247070312,-0.11508242040872575,0.0959918275475502,0.05009095,-0.08674286,4
1.233374834060669,-9.493162155151367,-0.14090752601623535,0.0925884023308754,0.16676621,-0.11026118,4
1.1523972749710083,-9.535844802856444,-0.13221420347690582,0.08318354934453964,0.18661933,-0.13316862,4
1.0304741859436035,-9.570294380187988,-0.10659514367580414,0.08656815439462663,0.2941316,-0.124311075,4
0.8527932167053223,-9.621552467346193,-0.0600021556019783,0.09436674416065216,0.3109304,-0.025045475,4
0.61599200963974,-9.698087692260742,-0.0021148952655494213,0.0975441038608551,0.36774087,0.07941248,4
0.35529762506484985,-9.73284149169922,0.055507101118564606,0.11407117545604704,0.59620446,0.24831672,4
0.1264457255601883,-9.66501235961914,0.18739746510982516,0.15203389525413513,0.5870415,0.53786683,4
0.0055346954613924035,-9.4452543258667,0.3837902843952179,0.2514145076274872,0.25442538,0.8145888000000001,4
-0.00991089642047882,-9.11737060546875,0.5050433874130249,0.4304632842540741,0.14630222,1.0204504,4
-0.0005595120601356031,-8.667861938476562,0.4064032137393952,0.6499537229537964,0.7165449,1.0207558,4
-0.0257872287184,-8.106037139892576,0.8202577829360962,0.8111237883567809,0.1881465,0.87109387,4
-0.03879516944289208,-7.6342997550964355,1.1375125646591189,0.9316908121109008,-0.4279111,0.70402217,4
-0.1798347681760788,-7.269298553466798,1.078158617019653,1.0369510650634766,-0.36041048,0.52839845,4
-0.5693587064743042,-7.217478275299072,1.2258269786834717,1.0220273733139038,-0.4560109000000001,0.6065891999999999,4
-1.0648654699325562,-7.794915199279785,1.3012542724609375,0.9684542417526244,0.15515977,0.63285637,4
-1.1392662525177002,-8.543872833251951,1.2992501258850098,0.93815279006958,0.1518,0.8026769,4
-0.8756343722343445,-9.02376937866211,1.4906868934631348,0.917380690574646,-0.10598512,0.7480045,4
-0.727726936340332,-9.37378215789795,1.831186294555664,0.9009948968887328,-0.39003745,0.40194935,4
-0.7026863098144531,-9.892616271972656,2.106353998184204,0.8273057341575623,-0.904386,-0.17409660000000002,4
-0.6632122993469238,-10.861660957336426,2.331453800201416,0.7039859294891357,-1.0451905,-0.70371675,4
-0.4990552663803101,-12.26580047607422,2.635958433151245,0.5045511126518251,-0.93584555,-0.8399397,4
-0.12292887270450592,-13.62192440032959,2.931410551071167,0.2595617175102234,-1.1392636,-0.9618073,4
0.22864681482315066,-14.765676498413086,3.04198956489563,-0.005306531675159931,-1.0067059,-1.0958921999999998,4
0.5742958188056946,-15.698588371276855,3.007503032684326,-0.3414419591426849,-1.0482447,-1.0146471,4
0.875921905040741,-16.411752700805664,2.808701276779175,-0.7345009446144104,-0.7703011,-0.7101309,4
1.0367211103439329,-16.838430404663086,2.4559783935546875,-1.0671181678771973,0.38698313,-0.70249504,4
0.9899474382400512,-16.39204978942871,2.2434744834899902,-1.2012624740600586,1.0516045,-0.35399640000000004,4
0.8549588918685913,-15.039234161376953,2.111255168914795,-1.0849052667617798,1.1499538,-0.13041973,4
0.9312249422073364,-13.149503707885742,1.9525513648986816,-0.843802809715271,0.03573562,-0.21319197,4
1.1599810123443604,-10.812742233276367,1.836127758026123,-0.6535117030143738,-1.196685,-0.66798115,4
0.9055633544921876,-8.094255447387695,1.8040167093276975,-0.5037320852279663,-1.2910636999999998,-1.2009611,4
0.2379094660282135,-5.7995123863220215,1.7751336097717283,-0.2901509404182434,-0.82863873,-1.138042,4
-0.4568244814872742,-4.195920944213866,1.3709009885787964,-0.12058873474597932,0.059864793,-0.23701571,4
-0.7412661910057068,-3.2034118175506587,0.8809659481048584,-0.07005472481250763,0.61727935,0.46395215,4
-0.65572589635849,-2.6602582931518555,0.5900666117668152,-0.035479579120874405,0.5476406999999999,0.6982189999999999,4
-0.4819494485855103,-2.4071617126464844,0.31614866852760315,-0.02534317411482334,0.36774087,0.786489,4
-0.4389271140098572,-2.282600879669189,0.08768564462661743,-0.05666696652770041,0.42149702,0.63041294,4
-0.5287693142890929,-2.1070892810821533,-0.037963710725307465,-0.1109047457575798,0.7556403,0.5021312,4
-0.5939126014709473,-1.8761215209960935,-0.08616738021373749,-0.17854712903499606,1.1288790000000002,0.44806966,4
-0.4618723690509796,-1.619699001312256,-0.05433088168501854,-0.2222074270248413,1.1710287,0.3817908,4
-0.09927785396575928,-1.4064571857452393,0.17506541311740875,-0.233553409576416,0.5158757,0.3817908,4
0.3536587357521057,-1.5898900032043457,0.7647262215614319,-0.2308909893035889,-0.91751957,0.3707952000000001,4
0.8280779123306274,-2.9396443367004395,2.214379072189331,-0.16431641578674314,-2.716823,-0.11148291,4
0.9733728170394896,-5.549416542053223,2.6859841346740723,0.1487346738576889,-3.8099666,0.06994407,4
1.1797683238983154,-8.159990310668945,1.4725425243377686,0.1886546760797501,-0.9789116,0.2565634,4
1.3682470321655271,-10.364419937133787,-0.42743751406669617,0.2349950075149536,2.515543,-0.07544186,4
0.4560313224792481,-12.152461051940918,0.12167786061763765,0.019412128254771236,0.20341812,-0.48197266,4
-0.80667644739151,-13.30345630645752,0.3919442594051361,-0.2327575832605362,0.3475823,-0.18845193,4
-1.505713701248169,-14.00468635559082,0.4441696107387543,-0.2739655375480652,1.3735305,0.80573124,4
-0.7947736382484436,-14.336971282958984,0.9896933436393738,-0.35777509212493896,1.2360858,1.5916093999999998,4
1.123774170875549,-14.24987506866455,1.6388789415359497,-0.4539347589015961,-0.37140608,1.4407257,4
2.6048309803009038,-13.595366477966307,1.6992439031600952,-0.22030028700828552,-0.77824235,-0.36254853,4
3.058417320251465,-12.459691047668455,1.4064768552780151,0.3427618741989136,-1.8616118,-1.4367551,4
2.7521228790283203,-11.19614315032959,0.8200955390930176,0.7423116564750671,-1.1184943,-0.9456194,4
1.821502923965454,-9.848252296447754,0.051156368106603615,0.8791103363037109,0.9062186,-0.13133603,4
0.8462040424346924,-8.534448623657228,-0.5418953895568848,0.9066887497901917,2.5714374,0.32192600000000005,4
0.2964918613433838,-7.197215557098389,-0.6171302199363708,0.8546587824821472,2.3243423,0.82833326,4
-0.009525857865810394,-5.8559632301330575,-0.2635231614112854,0.6901126503944397,1.1527027,1.3426818,4
-0.2528097629547119,-4.722596168518066,0.7410483956336975,0.5072287321090698,0.21074851,1.5128077,4
-0.6294487714767456,-4.370654106140137,1.943855881690979,0.4318191409111023,-1.8041905,0.9981538,4
-1.091314435005188,-4.833747386932373,2.064420223236084,0.4757816195487976,-0.8072583999999999,0.30665436,4
-0.7666133046150208,-6.438642978668213,2.1332921981811523,0.4962729513645172,-0.453262,-0.5045747,4
0.4768302142620087,-8.692862510681152,2.4080376625061035,0.3137938976287842,-1.6569718999999998,-1.7052304,4
0.9983662366867064,-10.73829746246338,2.745106935501098,0.19379526376724246,-1.8048013,-1.4236214,4
0.8034452795982361,-12.458230972290039,2.8124840259552,-0.017714248970150948,-1.5143349,-0.40958515,4
0.2806541919708252,-13.834162712097168,2.70670223236084,-0.33788472414016724,-0.09896017,-0.59315014,4
0.034642275422811515,-14.71427059173584,2.648157358169556,-0.6220181584358215,0.22571471,-0.04795292,4
0.08018461614847182,-14.754486083984375,2.4953877925872803,-0.8211352229118347,0.83260936,0.2565634,4
0.4491773843765259,-13.81490707397461,2.5039680004119877,-0.8708593845367432,0.4456262,0.25717425,4
1.0052145719528198,-11.976072311401367,2.338589191436768,-0.7524830102920532,-0.42149702,-0.51068336,4
1.132624626159668,-9.570161819458008,2.0876932144165044,-0.6711339354515076,-0.28985557,-0.8885035,4
0.8873092532157898,-7.160930156707764,1.8336319923400881,-0.6209748387336731,0.35521814,-0.7315111,4
0.41248881816864014,-5.224799633026123,1.7570039033889768,-0.5089144706726074,0.3885103,-0.75655663,4
-0.17996205389499664,-3.916834592819214,1.5831031799316406,-0.3979833722114563,0.88789266,-0.3454443,4
-0.5323326587677002,-3.146189451217652,1.304232120513916,-0.3299061954021454,1.1725558,0.2941316,4
-0.5176876783370972,-2.7068490982055664,1.128555417060852,-0.20810790359973907,0.59773165,0.64568454,4
-0.3123477399349213,-2.479499101638794,0.9268641471862792,-0.06549173593521118,0.029321533,0.5858198,4
-0.2089854031801224,-2.3033509254455566,0.6348303556442261,0.05711798369884491,0.0571159,0.52595496,4
-0.262615978717804,-2.019884824752808,0.34618908166885376,0.14651232957839966,0.5348125,0.58001655,4
-0.3473663926124573,-1.7132934331893919,0.22212328016757965,0.2164752781391144,1.0256428,0.6411031,4
-0.3929845988750458,-1.5234941244125366,0.3032337427139282,0.2780427932739258,1.2168436000000002,0.605062,4
-0.3698308765888214,-1.3926831483840942,0.3615301549434662,0.3727758228778839,1.1578951000000002,0.5174029,4
-0.225349634885788,-1.3157435655593872,0.3911673426628113,0.5061430335044861,1.0836749,0.51893,4
0.08705773949623108,-1.4270665645599363,0.5419132709503174,0.6604013442993164,-0.1441642,0.6411031,4
0.2278239578008652,-2.169698476791382,1.5785356760025024,0.6753455996513367,-2.068695,0.6826419,4
-0.006749305408447981,-4.301195144653319,1.995378851890564,0.6422284245491028,-1.2315043,0.96761054,4
0.19438205659389496,-6.952564716339111,1.416629433631897,0.5443103909492493,-0.552833,0.23090707,4
0.8333361744880676,-9.323044776916504,1.284978985786438,0.3316963016986847,-1.6807956999999998,-0.9877690999999998,4
0.979655146598816,-11.291162490844727,1.848738431930542,0.03869801014661789,-0.7654141999999999,-0.883922,4
0.33830681443214417,-12.902682304382324,2.2525596618652344,-0.1778395175933838,0.3304781,-0.36835176,4
-0.4715343713760376,-14.20439338684082,2.315270185470581,-0.4970685541629791,1.568702,-0.18967366,4
-0.6975197196006775,-15.232742309570312,2.8775527477264404,-0.8800516128540039,2.1688771,0.40958515,4
0.643973171710968,-15.579419136047365,3.9668705463409424,-1.00244140625,0.2284636,0.86742866,4
2.187356948852539,-15.105576515197756,3.9101850986480713,-0.6231448650360107,-0.8909469999999999,-0.4868596,4
2.9758603572845463,-13.769628524780273,3.243710994720459,-0.156734898686409,-1.1866057,-1.5204436,4
2.7045648097991943,-12.075200080871582,2.572673320770264,0.14639489352703094,-1.5741998,-1.8029687,4
1.3212649822235107,-9.855151176452637,1.4965604543685913,0.14247365295886993,0.08063421400000001,-0.90377516,4
-0.00666758930310607,-7.573322772979736,0.4653293788433075,0.08042582869529724,2.8130345,-0.269697,4
-0.90410578250885,-5.700141429901122,0.013148236088454723,0.05367304757237434,4.263228400000001,0.06291912,4
-1.2013195753097534,-4.3679518699646005,0.4755342900753021,-0.15414053201675415,2.7568347,0.7855727,4
-1.078620672225952,-3.6664762496948238,1.337480545043945,-0.3780634701251984,0.19272798,1.1765264,4
-0.8219583630561829,-3.064052104949951,1.7203779220581057,-0.3243548274040222,-0.61850107,0.9804387,4
-0.5239698886871338,-2.4156997203826904,1.5080761909484863,-0.12960942089557648,-0.28985557,1.035722,4
-0.21470504999160767,-1.9493347406387331,0.9663532972335817,0.04132753983139992,0.22204952,0.9987647,4
0.047442622482776635,-1.6785229444503784,0.6360974907875061,0.16104792058467865,0.23579398,0.79381937,4
0.3946030139923096,-1.7657034397125244,1.1121882200241089,0.2480585128068924,-1.3164146,0.5992588000000001,4
0.6089735627174377,-2.7619760036468506,1.9387227296829224,0.3628142476081848,-3.4318410000000004,-0.20158553,4
0.372789591550827,-5.056456089019775,2.2080225944519043,0.4547293186187744,-2.0616703000000003,-0.25503623,4
0.05977483838796616,-7.644270420074463,2.0308871269226074,0.21011625230312347,0.95142263,-0.65118235,4
-0.04046488553285599,-9.928705215454102,2.410335063934326,0.16129711270332334,-1.6007724,-0.85918194,4
-0.32530125975608826,-11.80996799468994,2.7023756504058842,-0.14236485958099365,-1.5766432,-0.38881573,4
-0.8094916939735413,-13.326926231384276,2.5580518245697017,-0.5390535593032837,0.1685988,-0.39736784,4
-0.7842423915863037,-14.52592658996582,2.385349750518799,-0.7249431610107422,1.1927143,0.2284636,4
0.2321828305721283,-13.89102268218994,2.5853488445281982,-0.6291170120239258,-0.15485434,-0.13958271,4
1.1092166900634766,-12.148009300231935,2.4089577198028564,-0.27706223726272583,-0.4202753,-1.3671165,4
1.3260412216186523,-9.66332721710205,2.0124294757843018,-0.008266054093837738,-0.6386596,-1.4071281,4
0.8262689709663391,-7.090954303741455,1.4504806995391846,0.11781632900238034,0.23457226,-0.99265605,4
0.06509099155664444,-4.857487678527832,0.9567520022392272,0.0973939299583435,1.1114693000000002,-0.36193767,4
-0.7363250851631165,-3.1797990798950195,0.6262509822845459,0.05017758533358574,1.8952094,0.16982053,4
-1.2402008771896362,-2.6118955612182617,0.5452339649200441,0.022771436721086502,1.9089539,0.80970186,4
-1.275226354598999,-2.422332286834717,0.7461885809898376,0.007855093106627464,1.1151345,1.2373075,4
-0.9059754610061646,-2.2747395038604736,0.9255238175392152,0.03911992907524109,0.17867808,1.185384,4
-0.3935817182064056,-2.022195816040039,0.974376142024994,0.10257130116224288,-0.441961,0.93279123,4
-0.04388333112001419,-1.704002857208252,0.8173322677612305,0.2043188065290451,-0.5225952,0.5696318,4
0.033445063978433616,-1.4092718362808228,0.479316383600235,0.3048034608364105,-0.089186326,0.35643986,4
-0.03871194273233414,-1.2301000356674194,0.0015814760699868202,0.36604490876197815,0.44990227,0.1554652,4
-0.189846470952034,-1.1050900220870972,-0.3365601003170013,0.3904522359371185,0.6982189999999999,0.16249016,4
-0.410786896944046,-1.0396229028701782,-0.4227690398693085,0.36761313676834106,0.9104946,0.52748215,4
-0.5375514030456543,-1.207286357879639,-0.20410092175006864,0.3087657690048218,0.5314528000000001,1.0060950000000002,4
-0.6994609236717224,-2.0356132984161377,0.6395655274391174,0.2035346627235413,-0.33994650000000004,1.153619,4
-0.96854829788208,-4.0472917556762695,1.9212024211883545,0.1136183887720108,-1.0204504,1.4162911,4
-0.4673782587051392,-6.709673404693604,1.769863843917847,0.19566106796264648,-1.9388863,0.46914452,4
0.41404545307159424,-9.132997512817383,1.260563611984253,0.1057046577334404,-0.7672467,-1.4743233,4
0.6290565133094788,-11.153434753417967,2.444828987121582,-0.1494675725698471,-2.431549,-1.1096367,4
0.12752415239810946,-12.7957124710083,2.802393913269043,-0.1534261405467987,-0.60048056,-0.89736104,4
-0.8936622738838196,-14.109289169311525,2.6338465213775635,-0.41524380445480347,1.7354681,-0.28496864,4
-1.0431641340255735,-15.060525894165039,2.730352640151977,-0.6079293489456177,1.557401,0.59498274,4
-0.3031170070171356,-15.648179054260256,3.1581082344055176,-0.602616548538208,0.29626966,0.28527406,4
0.6337537169456482,-15.259079933166506,3.308224439620972,-0.419156551361084,-0.6105598000000001,-0.21624629,4
1.1960875988006592,-13.93745231628418,3.0114848613739014,-0.18246203660964969,-1.5418239,-1.151481,4
1.2396241426467896,-11.81999397277832,2.489471673965454,-0.01688152737915516,-1.7916678,-1.6792686,4
0.7464916706085205,-9.326327323913574,1.8732728958129885,0.05024207755923271,-1.135904,-1.4559973,4
-0.15790610015392306,-6.893061637878418,1.1373969316482544,0.0042908210307359695,0.37048978,-1.0103711,4
-1.128551959991455,-4.814160346984863,0.7060245871543884,-0.04263439774513245,0.7629706999999999,-0.53023106,4
-1.6614158153533936,-3.2462129592895512,0.5457382202148438,-0.08003630489110948,1.5357152,-0.04734206,4
-1.7728441953659058,-2.467617511749268,0.5886226296424866,-0.17788942158222198,1.8298469,0.40958515,4
-1.5929142236709597,-2.2361032962799072,0.9137035012245178,-0.21909575164318085,1.106277,0.9630291,4
-1.273686408996582,-2.0416905879974365,1.1621389389038086,-0.12678498029708862,0.6261369000000001,1.0225884,4
-0.8738356232643127,-1.7761049270629885,1.0567001104354858,0.040673788636922836,0.21074851,0.93462384,4
-0.4978866279125214,-1.484447956085205,0.7286138534545898,0.1983467787504196,0.17348573,0.77121735,4
-0.26031243801116943,-1.2208491563796997,0.4198251068592072,0.3083636462688446,0.19914207,0.6426301999999999,4
-0.15326490998268127,-1.0431883335113523,0.1415596902370453,0.3858896791934967,0.312763,0.45998153,4
-0.11099236458539964,-0.9494028091430664,-0.1299467831850052,0.438034325838089,0.3191771,0.3885103,4
-0.14061123132705688,-0.9179191589355468,-0.2659389078617096,0.4557619392871857,0.52106804,0.48441613,4
-0.19038598239421844,-0.9057077169418336,-0.08040092885494232,0.4142821431159973,-0.052534413,0.5103779,4
-0.3366132974624634,-1.2157963514328003,1.4033907651901243,0.30553245544433594,-1.054048,0.39522982,4
-0.3176629841327667,-3.093491554260254,2.936591386795044,0.2921697199344635,-2.1496348,0.8713993,4
-0.2637861371040344,-5.86294412612915,2.9612729549407963,0.29804727435112,-2.6203065,1.0054842,4
-0.055317558348178864,-8.430254936218263,2.220730781555176,0.3207442760467529,1.3057245000000002,-0.8762861999999999,4
-0.3686048984527588,-10.582001686096193,3.549080848693848,0.23784035444259646,-1.7773124,-0.5561928,4
-1.3666669130325315,-12.334793090820312,4.1957831382751465,0.13888134062290192,-0.906524,-0.1563815,4
-1.8575818538665767,-13.747998237609865,3.8009567260742183,-0.17226457595825195,1.4355333,-0.044593163,4
-1.5418598651885986,-14.868986129760742,3.786400556564331,-0.4681807458400726,1.2962561,-0.014049901000000002,4
-0.6961506605148315,-15.529956817626953,3.9510459899902335,-0.592498242855072,0.56046885,-0.48930305,4
-0.11340127885341646,-14.90471649169922,3.88969349861145,-0.6098482012748718,-0.2846632,-1.0793989,4
-0.05356306582689285,-13.295438766479492,3.691651344299317,-0.5922190546989441,-1.3588698,-1.5503759,4
-0.16562919318675995,-11.033907890319824,3.1823573112487797,-0.533279299736023,-1.3191634,-1.4132367,4
-0.33768579363822937,-8.440024375915527,2.4309802055358887,-0.5021633505821228,-0.20189096,-1.0595458,4
-0.4172276258468628,-6.0497474670410165,1.8472975492477417,-0.4802391529083252,0.7623598,-0.7156286000000001,4
-0.5067676901817322,-4.243196964263916,1.67003071308136,-0.4286085367202759,0.64934975,-0.48624873,4
-0.7637199163436891,-3.0954840183258057,1.6161500215530396,-0.3567540943622589,0.37782016,-0.15241088,4
-1.1493693590164185,-2.62216591835022,1.4875253438949585,-0.27872079610824585,0.6407976,0.2751948,4
-1.3974287509918213,-2.351184129714966,1.2985063791275024,-0.17684927582740784,0.66156703,0.7415904000000001,4
-1.3793582916259766,-2.0786056518554688,0.9169819951057434,-0.06737769395112991,0.7324274000000001,0.8533788,4
-1.117322564125061,-1.7559020519256592,0.4882201254367829,0.04007156193256378,0.7858781,0.7797695,4
-0.5672746300697327,-1.4961769580841064,0.25661325454711914,0.12275709956884386,0.22937989,0.6356053,4
-0.04253875091671944,-1.3069056272506714,0.1925702691078186,0.16632090508937836,-0.4092797,0.39400807,4
0.3253493010997772,-1.163002371788025,0.15416385233402252,0.19015192985534668,-0.5726861999999999,0.1600467,4
0.4260493814945221,-1.105732560157776,0.08115451037883759,0.21001851558685306,0.048258353,0.113926366,4
0.23162853717803955,-1.1702020168304443,0.13127414882183075,0.23554839193820956,0.7498371,0.15302174,4
-0.12951093912124634,-1.3317487239837646,0.2964215874671936,0.30513232946395874,1.0115929,0.40500367,4
-0.3526267409324646,-1.805143475532532,0.8771312236785889,0.4280673861503601,-0.70554936,0.90377516,4
-0.3676258623600006,-3.3743407726287837,2.608499050140381,0.4256028532981873,-3.0763173,1.4880677,4
-0.2583599388599396,-6.028286457061768,2.2895750999450684,0.35490792989730835,0.83291477,0.59406644,4
-0.07131319493055344,-8.54688835144043,1.6708095073699951,0.2920422852039337,0.20066923,-0.27947086,4
-0.0892074927687645,-10.674275398254396,3.0896422863006587,0.27887725830078125,-1.9269744,-0.5821546,4
-0.21668271720409396,-12.408398628234865,3.339385986328125,0.1508915275335312,-1.4416419,-0.48258355,4
-0.4027042984962464,-13.805642127990724,3.062455177307129,-0.0851992517709732,0.4089743,-0.50488013,4
-0.05915551632642746,-14.81336784362793,3.0240602493286133,-0.3226583003997803,1.0467176,-0.18845193,4
0.6772832274436951,-15.327895164489744,3.319972038269043,-0.4788929522037506,0.7693848000000001,-0.16554448,4
1.138742208480835,-14.936012268066404,3.57574725151062,-0.485682338476181,-0.7247916,-0.6075055,4
1.1181668043136597,-13.643851280212402,3.2659852504730225,-0.4079181551933289,-0.9071349,-1.1160508,4
0.7904210686683655,-11.706517219543455,2.6259360313415527,-0.34371668100357056,-0.68294734,-1.1349876,4
0.2869589924812317,-9.257506370544434,2.081054449081421,-0.32722207903862,-0.61666846,-1.0076222,4
-0.25059720873832697,-6.63179349899292,1.6377620697021484,-0.3282223343849182,0.08246681,-0.8561276,4
-0.7135179042816162,-4.320935726165772,1.4618283510208132,-0.3634682893753052,0.34208453,-0.46211955,4
-1.0783569812774658,-2.8986012935638428,1.5418235063552856,-0.4032889902591705,0.037873644,-0.08063421400000001,4
-1.2760951519012451,-2.4399030208587646,1.605110764503479,-0.3840794861316681,0.3857614,0.40591997,4
-1.3415684700012207,-2.370527029037476,1.5573800802230835,-0.27671167254447937,0.7675522,0.7449501999999999,4
-1.254413366317749,-2.254154920578003,1.3180829286575315,-0.1334267258644104,0.71685034,0.86926126,4
-0.8584343194961548,-1.9328683614730835,0.9065136909484864,0.032032448798418045,0.61453044,0.86009824,4
-0.4376571476459503,-1.6858063936233518,0.5279698371887207,0.1724955141544342,0.4373795,0.7849618,4
-0.08924037218093872,-1.4227666854858398,0.3256368339061737,0.23967298865318296,0.10140363,0.6536258,4
0.17549681663513186,-1.175652265548706,0.2612978518009186,0.2428553253412247,-0.09621128,0.33261612,4
0.2104521542787552,-1.0628930330276491,0.2615756690502167,0.21960076689720154,-0.05375614,0.083383106,4
-0.06068655475974082,-1.117864966392517,0.2828026413917541,0.25076380372047424,0.6704246,0.06566802,4
-0.4074957966804504,-1.2131057977676392,0.2731726765632629,0.3589094877243042,1.3869696000000002,0.4550946,4
-0.4257305860519409,-1.4440540075302124,0.1464228332042694,0.4478941857814789,0.33017266,1.0170907,4
-0.2955849766731262,-2.231398582458496,0.7280939221382141,0.4511345326900482,-1.0115929,1.2791518,4
-0.384775459766388,-4.711546897888184,1.4954979419708252,0.2877587974071503,-1.9343048,1.5457945,4
-0.0015661183279007671,-7.454160213470459,0.7669097185134888,0.30550605058670044,1.7198911,-0.20677789,4
0.4423551261425018,-9.786142349243164,2.1849405765533447,0.17932473123073578,-2.8722885,-0.66614854,4
0.31811249256134033,-11.694624900817873,2.65733003616333,0.028633419424295425,-1.865277,-0.9837985,4
-0.5544256567955017,-13.23386001586914,2.3490684032440186,-0.2855130434036255,0.20097467,-1.065349,4
-1.0391521453857422,-14.43896484375,2.1987078189849854,-0.5660266876220703,1.0873401000000005,-0.40958515,4
-0.8281945586204529,-15.35742473602295,2.3230140209198,-0.7301687598228455,0.79504114,0.25778514,4
0.0373421236872673,-15.704293251037598,2.5043728351593018,-0.8056429624557495,0.9370673,0.12705997,4
1.052462458610535,-15.03691291809082,2.743016481399536,-0.7305508255958557,-0.40653083,-0.4813618,4
1.7217334508895874,-13.480073928833008,2.48850154876709,-0.4833744466304779,-1.0433578,-1.4080443,4
1.816327214241028,-11.15443229675293,1.9005279541015625,-0.3003802299499512,-1.6948457,-1.7617353,4
1.1670838594436646,-8.487777709960938,1.3016859292984009,-0.2585374116897583,-0.8857546000000001,-1.321607,4
0.2485950738191605,-5.883026599884032,0.9314676523208618,-0.26979273557662964,0.47036624,-0.6969972,4
-0.4763562977313995,-3.79174280166626,1.0409219264984129,-0.2982445955276489,0.49938235,-0.24465153,4
-0.9278371930122375,-2.559049129486084,1.2273763418197632,-0.2850022614002228,0.6429357,0.29565877,4
-1.187736988067627,-2.30339789390564,1.2560629844665527,-0.21339091658592224,0.94989544,0.71685034,4
-1.1328154802322388,-2.4520423412323,1.0590349435806274,-0.04442345350980759,1.1172725,1.0060950000000002,4
-0.8310670256614685,-2.4379351139068604,0.8061355352401733,0.1483752578496933,0.8750645,0.9236283000000002,4
-0.3828374743461609,-2.1245899200439453,0.5410195589065552,0.2913069725036621,0.36865717,0.68111473,4
0.05183371901512146,-1.6787594556808472,0.2935619056224823,0.3705355823040009,0.05131268,0.46853364,4
0.3897650539875031,-1.293594241142273,0.11956056207418443,0.3975501954555512,-0.14355333,0.18448131,4
0.5667908191680908,-1.0546432733535769,0.030212836340069767,0.4057707190513611,-0.22968534,-0.0888809,4
0.4716506600379944,-1.0065926313400269,-0.06759500503540039,0.4266582429409027,-0.033292156,0.013133603,4
0.0788484439253807,-1.1055570840835571,-0.2626302540302277,0.4401450455188751,0.5513059,0.5030475000000001,4
-0.487131267786026,-1.3359922170639038,-0.5181768536567688,0.4084564745426178,1.4630222,1.183246,4
-0.8387362360954285,-2.2691059112548833,0.3588935434818268,0.4395034313201904,0.31703907,1.6722436,4
-0.7809924483299255,-4.61401891708374,2.344451427459717,0.4633051455020905,-2.8026497000000004,1.7479908,4
-0.2773056626319885,-7.2742390632629395,1.4339036941528318,0.5621779561042786,1.7284433,-0.045814894,4
0.3168518543243408,-9.463027000427246,1.9063239097595213,0.3974767625331879,-0.6789767,-0.6417139000000001,4
0.5689554810523987,-11.271232604980467,2.9095156192779537,0.3338834643363953,-2.2226331000000004,-1.0241156,4
0.2450540512800217,-12.852089881896973,3.1648192405700684,-0.02303566411137581,-1.0436633,-0.63041294,4
-0.7301434278488159,-14.154349327087402,2.7360785007476807,-0.3999657332897186,1.3292428,-0.72234815,4
-1.247909665107727,-15.208700180053713,2.697744131088257,-0.6520777940750122,1.3096951,-0.36743546,4
-0.908280909061432,-15.956491470336914,3.2152299880981445,-0.7896907925605774,0.27977628,-0.040927973,4
-0.052126184105873115,-15.62906551361084,3.5001111030578613,-0.7912053465843201,0.05222898,-0.22540927,4
0.6870989799499512,-14.217541694641113,3.380866289138794,-0.6207375526428223,-1.2846496,-0.91446525,4
1.1362161636352541,-12.145312309265135,2.7530841827392583,-0.3346892297267914,-1.5082263,-1.4278975,4
1.0282316207885742,-9.59210968017578,1.9721540212631223,-0.21529164910316467,-1.3295482,-1.4355333,4
0.3112982213497162,-6.939703941345215,1.369452953338623,-0.20889122784137729,-0.9615019,-1.2220358999999998,4
-0.555988073348999,-4.550262928009033,1.1120901107788086,-0.2545384466648102,-0.27977628,-0.58093286,4
-1.2316381931304932,-2.848975658416748,1.0308154821395874,-0.30036163330078125,0.35827246,-0.09254608,4
-1.5844091176986694,-2.2414426803588867,1.0440469980239868,-0.3498327434062958,0.9419542,0.5549710999999999,4
-1.5732071399688718,-2.3709044456481934,1.2089040279388428,-0.27088120579719543,0.7528914000000001,0.9801333,4
-1.2719601392745972,-2.5630593299865723,1.3080180883407593,-0.05077522248029709,0.6087272,1.061073,4
-0.8194230198860168,-2.3673365116119385,1.0679057836532593,0.17045506834983826,0.57696223,0.8200866,4
-0.315019965171814,-1.9048627614974976,0.688872754573822,0.3409509658813477,0.4868596,0.6084218000000001,4
0.042203232645988464,-1.4039781093597412,0.33168554306030273,0.4186954200267792,0.44837508,0.45570546,4
0.2292481064796448,-1.0421063899993896,0.01496691629290581,0.413279801607132,0.56779927,0.22632557,4
0.19259026646614075,-0.8880990743637085,-0.19796060025691986,0.388403594493866,0.63224554,-0.022296581,4
-0.026138432323932648,-0.8945786356925964,-0.3148427903652191,0.3877744972705841,0.72601336,0.10170906,4
-0.3678005635738373,-0.9560425281524658,-0.39821508526802063,0.3369282484054565,0.9828822,0.7067711,4
-0.6623659729957581,-1.1904456615447998,-0.4753791689872742,0.2709614038467407,1.3414601000000002,1.2336423,4
-0.9157702326774596,-2.176433086395264,0.6466235518455505,0.25986534357070923,-0.06627888,1.5900823,4
-1.0968102216720579,-4.646994113922119,2.5871825218200684,0.26581671833992004,-2.9492574,1.6966782,4
-0.4753484725952149,-7.344943523406982,2.0517985820770264,0.4693064391613007,-0.5326744999999999,0.2171626,4
0.8368765711784363,-9.40414047241211,1.731197953224182,0.35434967279434204,-0.571159,-0.5885687,4
1.3666082620620728,-11.170462608337402,2.8642995357513428,0.17647434771060946,-2.1682662999999995,-1.2018774,4
0.7205559611320496,-12.757888793945312,2.9140131473541264,-0.0476350300014019,0.0070249503,-1.035722,4
-0.8983960747718811,-14.076363563537598,2.536879301071167,-0.3919273316860199,2.1755965,-0.76083267,4
-2.1214609146118164,-15.145618438720705,2.6492621898651123,-0.685381293296814,2.0754147,-0.109650314,4
-1.842608332633972,-15.817060470581055,3.417598247528076,-0.7652543187141418,-0.083383106,0.20433442,4
-0.565733790397644,-15.51366138458252,3.58927845954895,-0.6731316447257996,-0.27885997,-0.10629055,4
0.4300573170185089,-14.298645973205565,3.336999893188477,-0.5079805850982666,-0.9691377,-0.5907066999999999,4
0.9768570065498352,-12.369791984558105,2.6970977783203125,-0.28209903836250305,-1.5830573,-1.3267993,4
1.0724235773086548,-9.895533561706543,1.9233747720718384,-0.168098121881485,-1.6853772,-1.3597860000000002,4
0.6477037668228149,-7.318007469177246,1.2892942428588867,-0.18026626110076904,-0.95356065,-1.0983357,4
-0.08262644708156586,-4.962548732757568,0.9497570395469666,-0.22454622387886047,-0.09468412,-0.7987063,4
-0.8173192739486694,-3.1274213790893555,0.8111410737037659,-0.2308940291404724,0.2134974,-0.31031954,4
-1.340505599975586,-2.079902648925781,0.6635830998420715,-0.2420179396867752,0.906524,0.17409660000000002,4
-1.5271481275558472,-1.8020102977752688,0.666270911693573,-0.2759631872177124,1.2217305,0.78038037,4
-1.4064589738845823,-1.8677834272384644,0.7965810298919678,-0.2262861877679825,0.7867944,1.0613784,4
-1.0829466581344604,-1.908394455909729,0.779440701007843,-0.11697398871183395,0.5900958000000001,0.9950995,4
-0.7059264779090881,-1.7620525360107422,0.5936704277992249,0.001285755424760282,0.46639562,0.79901177,4
-0.35509783029556274,-1.502341866493225,0.4231850504875183,0.09156639128923416,0.08521569999999999,0.5467244000000001,4
-0.0712459459900856,-1.252063512802124,0.3093133866786957,0.11747641861438753,-0.20708331,0.2519819,4
0.07970789819955826,-1.2054327726364136,0.23957228660583496,0.11428287625312805,-0.364992,0.007330383,4
0.04293016344308853,-1.3459423780441284,0.20222754776477814,0.14930987358093262,0.09437868,0.033292156,4
-0.2526567876338959,-1.5902572870254517,0.08917111903429031,0.218849316239357,1.2076806,0.408058,4
-0.5085306167602539,-2.011649370193481,-0.0487256683409214,0.3384997248649597,1.0042624,0.88147855,4
-0.6365183591842651,-3.1058852672576904,0.7139495611190796,0.3664076030254364,0.46273044,1.4031575,4
-0.5041525363922119,-5.525004386901856,2.383830308914185,0.3113037347793579,-3.5500433,1.5308284,4
0.0788983628153801,-8.059368133544924,1.3763854503631592,0.5883026123046875,1.3353515,-0.675617,4
0.7481711506843567,-9.973465919494627,0.828937828540802,0.5433210730552673,0.1994475,-0.6429357,4
0.4929443895816803,-11.434595108032227,1.9551222324371336,0.3098538815975189,-1.5048665,-0.31490102,4
-0.6326625943183899,-12.953855514526367,1.9284521341323853,0.015738582238554955,-0.04642576,-0.47342056,4
-1.4733129739761353,-14.23461627960205,1.89029598236084,-0.3522717356681824,0.9492846,-0.45081854,4
-1.5265504121780396,-15.272862434387207,2.3005287647247314,-0.6631194949150085,0.17165314,0.24037547,4
-0.7721033692359924,-16.005155563354492,2.7020363807678223,-0.7982068657875061,0.61178154,0.042760565999999986,4
0.23674142360687256,-15.84646701812744,3.2310271263122563,-0.7207434177398682,-0.68325275,-0.3286455,4
0.9939940571784972,-14.652714729309082,3.1380643844604488,-0.4208037853240967,-1.557401,-1.0952813999999995,4
1.4615345001220703,-12.586400032043455,2.3486649990081787,-0.201256662607193,-1.8438967,-1.5903877,4
1.35637104511261,-9.963682174682617,1.4224441051483154,-0.20181921124458316,-0.99021256,-1.3457361,4
0.7746308445930481,-7.21284294128418,0.8446900844573975,-0.2571949362754822,0.058643065,-1.0015136,4
-0.0932554379105568,-4.882608890533447,0.7678173184394836,-0.3001162707805633,0.6438520000000001,-0.80664754,4
-0.9838000535964966,-3.4736673831939697,0.7350395321846008,-0.2937580347061157,0.84971356,-0.2574797,4
-1.6141780614852903,-3.009788274765014,0.6058732271194458,-0.2946386933326721,1.3906348,0.6151413,4
-1.7887388467788696,-2.956986904144287,0.5845139622688293,-0.21066273748874664,1.1924089,1.138042,4
-1.5138156414031982,-2.8571579456329346,0.5885881781578064,-0.07699339836835861,0.8390234000000001,1.2767084,4
-0.938426911830902,-2.587479829788208,0.5410724878311157,0.03792834281921387,0.48655418,1.0812315,4
-0.2908964157104492,-2.1587188243865967,0.5136857032775879,0.11366763710975647,-0.039095376,0.80756384,4
0.17460817098617554,-1.697426676750183,0.4715530276298523,0.16517509520053866,-0.39675698,0.44135013,4
0.3721366822719574,-1.4143584966659546,0.3666051328182221,0.2433956265449524,-0.16310102,0.008552114,4
0.3455237150192261,-1.3916996717453003,0.21269631385803225,0.3758428990840912,-0.03970624,-0.15485434,4
0.1573241502046585,-1.4505856037139893,0.07608877867460251,0.4945212006568909,-0.0571159,0.04550946,4
-0.17158253490924835,-1.529030203819275,-0.0804399773478508,0.5228182673454285,0.32925636,0.6389651,4
-0.4215551912784576,-1.8574923276901243,-0.08924787491559982,0.5325639247894287,0.41141775,0.88361657,4
-0.4357996582984924,-3.0990903377532963,0.8534715175628662,0.4434297978878021,0.016187929,1.1001683,4
0.02634755335748196,-5.638264656066895,2.4042539596557617,0.2859812378883362,-3.2650747000000004,0.96577793,4
1.0301830768585205,-8.201704025268555,1.0050488710403442,0.6376222372055054,0.37843102,-1.647809,4
2.003616571426392,-10.279969215393066,1.324289083480835,0.3806370198726654,-1.7983873,-0.9502009,4
1.515994429588318,-12.03989315032959,1.823462009429932,-0.10003754496574402,-0.88178396,-0.79412484,4
-0.2242664396762848,-13.502750396728516,1.5763193368911743,-0.4637183248996735,1.1957687,-0.97035944,4
-1.3966327905654907,-14.68624210357666,1.7106817960739136,-0.8200827240943909,2.1847596,-0.118507855,4
-1.0225430727005005,-15.626795768737793,2.5471608638763428,-1.0134952068328855,0.94042706,0.81581056,4
0.3169506788253784,-15.988829612731935,3.3297312259674072,-0.8889296650886536,-0.36713,0.33444872,4
1.3253155946731567,-15.075867652893065,3.127821207046509,-0.5104277133941649,-0.7101309,-0.22815818,4
1.6428000926971436,-13.215045928955078,2.0985767841339107,-0.11559198796749115,-0.8347474,-1.0421360999999998,4
1.5100120306015017,-10.51888942718506,1.196686625480652,0.027985697612166405,-1.3967434,-0.9957104,4
0.8880236148834229,-7.530017375946045,0.6327049732208252,0.016711458563804626,-1.1670581,-0.766025,4
0.004242456518113613,-5.102668762207031,0.3575766384601593,0.011213936842978,0.013133603,-0.7370089,4
-0.7902378439903259,-3.3838789463043213,0.4636516571044922,-0.03141346201300621,0.24953845,-0.410196,4
-1.3059245347976685,-2.494274377822876,0.6065458655357361,-0.14867855608463287,0.73792523,0.22907446,4
-1.4254603385925293,-2.3984413146972656,0.5789760947227478,-0.2371330708265305,0.8866709,0.6068946,4
-1.1896318197250366,-2.3995635509490967,0.4979627728462219,-0.2191794067621231,0.5571090999999999,0.93523467,4
-0.7650786638259888,-2.238757610321045,0.3363336026668549,-0.15067313611507416,0.5720753000000001,0.95356065,4
-0.283380925655365,-1.9400023221969604,0.2382828295230865,-0.07470813393592833,0.38759398,0.7287621999999999,4
0.09775130450725557,-1.6228630542755127,0.3966856598854065,-0.053435694426298135,-0.30573806,0.48533243,4
0.2568788230419159,-1.4764509201049805,0.7732861042022705,-0.08070932328701019,-1.0522153,0.172264,4
0.10802144557237624,-1.571062684059143,1.049530863761902,-0.061451885849237435,-0.6600399,-0.09987647,4
-0.4701493084430695,-1.713142991065979,0.8198589086532593,0.18678028881549835,1.1108584,-0.008246681,4
-0.9490587711334229,-1.751182198524475,0.2896069288253784,0.4911500811576843,1.7351627,0.6872234,4
-0.9306247234344482,-1.763636350631714,-0.26812294125556946,0.6084486246109009,1.2877040000000002,1.1691961000000002,4
-0.681964635848999,-2.0611417293548584,-0.025766488164663315,0.6822977662086487,0.43218717,0.97433007,4
-0.32405251264572144,-3.860687971115112,1.7846393585205078,0.43675726652145386,-3.0668490000000004,1.366811,4
0.1657640039920807,-6.511284351348878,1.1866017580032349,0.4906932413578034,-2.1013765,0.5864305999999999,4
0.6438731551170349,-8.894124031066895,0.8055852651596069,0.5750210285186768,0.08002335,-1.1081096,4
0.6592372059822083,-10.851140022277832,1.9859384298324585,0.3437231481075287,-2.6713138,-0.20861048,4
0.3701334297657013,-12.524807929992676,2.1243321895599365,0.26246178150176996,-1.2305881,-0.18600847,4
0.08900425583124161,-13.894474983215332,1.666893482208252,-0.09574535489082336,1.294118,-0.4718934,4
0.06841327250003815,-15.000872611999512,1.5244283676147459,-0.4719264209270477,1.704925,-0.45448375,4
0.26718616485595703,-15.781964302062988,1.773081660270691,-0.7192072868347168,0.6966918000000001,-0.5476406999999999,4
0.5577131509780884,-16.11886215209961,2.157858371734619,-0.7936408519744873,-0.10476339,-0.79137594,4
0.7258341908454895,-15.444700241088867,2.21445369720459,-0.7071525454521179,0.09468412,-1.0913107,4
0.7513214945793152,-13.64815616607666,1.8449541330337524,-0.5236596465110779,-0.3915646,-1.1905763,4
0.5774027705192566,-10.863805770874023,1.2736868858337402,-0.4625147879123688,-0.91965765,-0.9477574,4
0.42810973525047297,-7.7751502990722665,0.9636686444282532,-0.3951638042926788,0.6047566,-0.7535023000000001,4
0.30038169026374817,-5.151427268981934,1.306507587432861,-0.300691157579422,0.18478674,-0.46792278,4
-0.08453197777271271,-3.5647287368774414,1.717704176902771,-0.22610321640968326,-0.007941248,-0.31703907,4
-0.7545819282531738,-3.0686299800872803,1.6594185829162598,-0.13561049103736875,1.409877,0.33169982,4
-1.2571816444396973,-2.864072322845459,1.3737126588821411,0.033108115196228034,1.7803668,0.9126327,4
-1.389726996421814,-2.577201128005981,1.0713016986846924,0.1845242977142334,1.0797043,1.0177015,4
-1.207420825958252,-2.200183629989624,0.7390586733818054,0.25781211256980896,0.4120286,1.0128145,4
-0.8640526533126831,-1.8509765863418581,0.3786621689796448,0.26952263712883,-0.16126843,0.8374963,4
-0.5163217186927795,-1.6094223260879517,0.05387425795197487,0.2072596251964569,-0.29016098,0.5006041,4
-0.3245612382888794,-1.4374477863311768,-0.21613268554210666,0.07816750556230545,0.1563815,0.08643743400000001,4
-0.4312005937099457,-1.3421423435211182,-0.4669360518455506,-0.05254780128598213,0.60048056,-0.0033597588,4
-0.7274102568626404,-1.3050024509429932,-0.9150586128234864,-0.16597536206245422,1.6563611,0.65484756,4
-1.0685864686965942,-1.3038651943206787,-1.1433367729187012,-0.25755470991134644,2.212554,1.3808608999999998,4
-0.9996742606163024,-1.5691384077072144,-0.44539490342140203,-0.1980457752943039,0.019547688,1.2473868,4
-0.43542441725730896,-2.233262300491333,1.1715314388275146,0.26014190912246704,-3.227812,0.98715824,4
-0.4613396227359772,-3.745564222335816,3.1694660186767583,0.6873926520347595,-4.903415,0.36743546,4
-0.00044175723451189697,-6.537785530090332,1.3381879329681396,0.6276095509529114,0.13164146,0.19975294,4
0.1478932797908783,-9.0256986618042,1.1085672378540041,0.5547119975090027,2.5176811000000003,-0.21655174,4
-0.7517735958099365,-11.074912071228027,2.8936889171600337,0.2461157441139221,-1.1282681,-0.16829337,4
-1.283732771873474,-12.734160423278807,2.8405542373657227,0.07260102033615112,-1.2922854,-0.63438356,4
-1.8229175806045528,-14.043864250183105,2.6034369468688965,-0.108274906873703,0.28771752,-0.70829827,4
-1.4030430316925049,-14.969514846801758,2.740671157836914,-0.1972886472940445,0.3213151,-0.5195409000000001,4
-0.2643408477306366,-15.453561782836914,3.1856369972229004,-0.21028241515159607,0.12339478,-0.37568212,4
0.5882652401924133,-14.99122428894043,3.4993908405303955,-0.15555427968502045,-1.5250251,-0.76144356,4
0.8892284035682678,-13.622417449951172,2.9112029075622563,-0.057531148195266724,-0.4297437,-1.0778716999999998,4
0.8804053068161011,-11.554832458496096,1.942715167999268,0.08624812960624695,0.011301007,-1.0824533,4
0.6895362138748169,-9.093957901000977,1.0838524103164673,0.1600715070962906,0.09773844,-0.8854492,4
0.1372941881418228,-6.529953002929688,0.5848990678787231,0.11797060072422028,0.106901415,-0.6982189999999999,4
-0.7719509601593018,-4.1789331436157235,0.40907663106918335,-0.0412064865231514,0.38881573,-0.37598756,4
-1.4448900222778318,-2.4549665451049805,0.36701899766922,-0.1838959902524948,0.38759398,-0.07147124,4
-1.6975473165512085,-1.8476926088333132,0.6060277223587036,-0.2897645533084869,-0.2003638,0.1957823,4
-1.7431050539016724,-1.896333932876587,0.6023638248443604,-0.35590291023254395,0.009468411,0.5006041,4
-1.51541006565094,-2.0201985836029053,0.4447408318519592,-0.35226505994796753,0.46273044,0.70157874,4
-1.047852873802185,-1.964970827102661,0.32176685333251953,-0.339131236076355,0.8335256,0.8756753,4
-0.5208315849304199,-1.8877778053283687,0.3644479811191559,-0.29219555854797363,0.5522222,0.7834346999999999,4
-0.027574237436056137,-1.7828707695007324,0.48752999305725103,-0.2013079673051834,0.23976462,0.56230146,4
0.2935763895511627,-1.6394022703170776,0.7153741121292114,-0.07361104339361191,-0.21197024,0.34697145,4
0.17160072922706604,-1.5788514614105225,0.8792399168014526,0.0925995409488678,0.258396,0.39920044,4
-0.3051455616950989,-1.5411524772644043,0.7710011005401611,0.3311876356601715,1.5519031,0.48258355,4
-0.5787606835365295,-1.3474702835083008,0.5978706479072571,0.5377436876296997,0.75747293,1.0393872,4
-0.3828513622283936,-1.3283487558364868,0.3054988980293274,0.6458767652511597,-0.48930305,1.2125676,4
-0.3278646171092987,-1.727627515792847,0.6163372993469238,0.6864975094795227,-1.4727961,0.98929626,4
-0.5748724937438965,-3.6877715587615967,2.519551038742065,0.3548417389392853,-4.5469756,1.2437216,4
-0.2126545011997223,-6.402993679046631,1.4426617622375488,0.450744092464447,0.46181414,-0.91599244,4
0.8724924325942993,-8.881756782531738,1.6010990142822266,0.218877375125885,0.07696902,-0.43493605,4
0.6750423312187195,-10.950793266296387,2.541336297988892,0.06546484678983687,0.013133603,-0.45937067,4
-0.7317734360694885,-12.63214874267578,2.3482143878936768,-0.02903370186686516,2.5650232,-0.08277224,4
-1.8264006376266482,-13.980096817016602,2.926595449447632,-0.24647876620292666,0.28069258,0.3387248,4
-1.6207919120788574,-14.87234115600586,3.179527997970581,-0.33836233615875244,-0.10476339,-0.09132435,4
-0.5608555674552917,-15.027097702026367,3.025395154953003,-0.5770476460456848,-1.1297953,-0.6780604,4
0.4728689789772034,-13.504775047302244,2.69250226020813,-0.8336630463600159,-2.5714374,-1.5732834,4
0.8842471241950989,-11.275697708129885,1.8495193719863887,-0.8279027342796326,-1.2702943000000002,-2.3322835,4
0.5744571089744568,-8.805381774902344,1.4079556465148926,-0.6832837462425232,-1.3439035,-2.005776,4
-0.08031301945447923,-6.442039489746094,0.9400871992111206,-0.5808436870574951,0.19914207,-1.2238685,4
-0.598230242729187,-4.393649101257323,0.7152377367019653,-0.5051994323730469,1.0451905,-0.70616025,4
-0.8694686889648438,-2.967398405075073,1.1169092655181885,-0.4473152756690979,0.91782504,-0.37110063,4
-0.9758912324905396,-2.6371307373046875,1.5975366830825806,-0.4148322641849518,0.32711834,0.1554652,4
-1.0747934579849243,-2.704544305801392,1.7633913755416868,-0.2938595116138458,0.5751295999999999,0.8222246,4
-1.2201409339904783,-2.5286688804626465,1.6953035593032837,-0.039687886834144585,1.0781771999999998,0.960891,4
-1.1838054656982422,-2.0195837020874023,1.4088802337646484,0.27026575803756714,1.0821478,0.9462303,4
-0.94039386510849,-1.4374792575836182,0.9403961300849916,0.4302367568016052,0.6966918000000001,0.9138544,4
-0.7129340171813965,-0.9668874740600586,0.5096771121025085,0.44862738251686096,0.2452624,0.6533204,4
-0.5710934400558472,-0.7201102972030641,0.27594783902168274,0.4022282958030701,-0.31978795,0.32895094,4
-0.6039338111877441,-0.7447875142097473,0.18790026009082794,0.3453741669654846,-0.4783075,0.095294975,4
-0.8432868123054504,-0.9611401557922364,-0.024713220074772838,0.29136979579925537,0.15118915,0.013439035,4
-1.1495853662490845,-1.1839783191680908,-0.3888186812400818,0.21207453310489652,0.6762278,0.16310102,4
-1.1896610260009766,-1.4533567428588867,-0.684008777141571,0.09598995000123978,1.1441506,0.36896262,4
-0.9919122457504272,-2.162386178970337,0.05398343876004219,0.035165756940841675,1.2794572,1.0506883,4
-0.248663142323494,-4.312928199768066,2.2889981269836426,0.1685822308063507,-4.6383,1.4349225,4
0.6928067803382874,-6.9787139892578125,1.4667348861694336,0.22502589225769046,-2.9129110000000003,1.6985108,4
1.5832568407058716,-9.364463806152344,0.5023684501647949,0.4154680669307709,1.7993035,-2.0583105,4
1.49414324760437,-11.34417724609375,2.1703896522521973,0.06559223681688309,-0.35460728,-0.43035457,4
0.8440406918525696,-12.949271202087402,2.6861813068389893,0.13347744941711426,-1.3558153999999998,-0.40561453,4
-0.3001802265644073,-14.236898422241213,2.382242441177368,-0.04528030753135681,0.82344633,-1.0186177,4
-0.7947707176208496,-15.195266723632812,2.202988147735596,-0.3157722949981689,1.0680978,-0.109650314,4
-0.5199809670448303,-15.818315505981445,2.223233938217163,-0.4817410707473755,1.6673566999999998,0.07391469,4
0.19500000774860385,-15.412850379943848,2.5102369785308842,-0.483609288930893,0.4156938,-0.19761491,4
0.8045430183410645,-14.09997272491455,2.461968183517456,-0.4033098518848419,-0.9233228,-1.2788464,4
1.0213764905929563,-12.057178497314453,1.8569673299789429,-0.3030552268028259,-1.5577063999999998,-1.7507398,4
0.5953807830810547,-9.331985473632812,1.1504989862442017,-0.3163250684738159,-1.8228219,-1.5925257,4
0.0303986556828022,-6.661176681518555,0.6915402412414551,-0.34631192684173584,-0.63804877,-1.0732902,4
-0.4465506374835968,-4.440254211425781,0.7846344709396362,-0.3205220401287079,-0.07666359,-0.5216789000000001,4
-0.7533081769943237,-3.1470282077789307,1.2555073499679563,-0.2902379631996155,-0.29901853,-0.079107046,4
-0.9974189400672911,-2.910832643508911,1.5579025745391846,-0.246395081281662,0.37384954,0.29229903,4
-1.09416663646698,-2.855934858322144,1.4729341268539429,-0.12573662400245667,0.9868528,0.7156286000000001,4
-1.0063880681991575,-2.533467054367065,1.1298836469650269,0.022026456892490387,1.3732251,1.1117748,4
-0.7276309728622437,-2.0342280864715576,0.7348893880844116,0.14663712680339813,1.3075571,1.0140363,4
-0.3188248872756958,-1.4805119037628174,0.4377581775188446,0.2169295996427536,0.82558435,0.7483099,4
0.0045996634289622315,-1.0014244318008425,0.3071782886981964,0.24033643305301666,0.10293079,0.51343226,4
0.14934328198432922,-0.7882058024406433,0.2491554021835327,0.2434033155441284,-0.34819320000000004,0.26542094,4
0.06236134469509125,-0.8560166954994202,0.210507333278656,0.2488951981067657,0.09101892,0.12492194,4
-0.2669827342033386,-1.1116421222686768,0.2216673642396927,0.29104140400886536,1.1212431,0.23487769,4
-0.7341138124465942,-1.346874117851257,0.2110396772623062,0.3565437793731689,1.8237382,0.51343226,4
-0.8222553133964539,-1.4377676248550415,-0.16777168214321134,0.4629666805267334,1.9013181,1.0396926,4
-0.2889210879802704,-1.949678897857666,0.417391836643219,0.59499591588974,0.64751714,1.2208142,4
-0.16391247510910034,-4.042207717895509,2.867661476135254,0.4766888320446014,-2.7299569,0.8717046999999999,4
0.6732667088508606,-6.7089152336120605,2.067191362380981,0.43576964735984797,1.0125091,0.64812803,4
1.6738415956497192,-9.13493824005127,2.1055524349212646,0.4037778377532959,0.59956425,-1.4321736,4
1.2209032773971558,-11.15679931640625,3.522157430648804,-0.12241107225418092,-2.3044891,-0.7076874,4
-0.7724955081939697,-12.797999382019045,3.4388198852539062,-0.09029672294855118,-1.4022411,-0.7348709,4
-2.6141045093536377,-14.115528106689453,2.857266664505005,-0.2584022879600525,0.8206975000000001,-0.50610185,4
-2.7525076866149902,-15.069527626037598,2.871931791305542,-0.466406911611557,1.2018774,1.0940597,4
-1.2853753566741943,-15.491371154785154,3.186090469360352,-0.554794192314148,0.6704246,1.1829406,4
0.7672562599182129,-14.960922241210938,3.5192904472351074,-0.5482033491134644,-1.0253373,0.129198,4
2.187782287597656,-13.150007247924805,3.254012107849121,-0.4276062846183777,-1.9645426,-1.5460999,4
2.220818519592285,-10.410049438476562,2.4262986183166504,-0.25324854254722595,-1.707063,-2.3038783,4
1.167732834815979,-7.875791072845459,1.5246822834014893,-0.17474596202373505,-1.7085901,-1.8350391,4
0.038836024701595306,-5.808350563049316,1.1622744798660278,-0.2101435363292694,0.6563747,0.13316862,4
-0.5747454762458801,-4.787702083587647,1.5642759799957275,-0.17885777354240415,1.2782356,0.6713409,4
-0.7455071806907654,-4.231480598449707,1.6558948755264282,-0.02296919748187065,1.1756102,0.8521569999999999,4
-0.6564158201217651,-3.7106950283050537,1.327960729598999,0.15451312065124512,1.0332786,1.1096367,4
-0.4234522879123688,-3.0875730514526367,0.7905929684638977,0.2614467740058899,1.0195341,1.0451905,4
-0.08106932044029236,-2.494448184967041,0.3347235321998596,0.31210654973983765,0.75716746,0.8396343000000001,4
0.2644287645816803,-1.9825910329818728,0.14129513502120972,0.2822461724281311,0.14508049,0.59223384,4
0.5643767714500427,-1.5471909046173096,0.15781372785568235,0.18869145214557648,-0.56016344,0.3032946,4
0.6146106123924255,-1.416281819343567,0.24670645594596866,0.10881674289703368,-0.5222898,0.013439035,4
0.2742558419704437,-1.5566521883010864,0.35899269580841064,0.15003854036331174,0.5635232,-0.005497787,4
-0.07397260516881943,-1.772834062576294,0.3624502718448639,0.2925322651863098,1.2165382,0.19242255,4
0.010914959944784641,-2.058046102523804,-0.04695502296090126,0.4168872833251953,0.3136793,0.94225967,4
-0.14205947518348694,-3.3903775215148926,0.8552831411361694,0.4757051765918732,-0.8723155999999999,1.2528846000000002,4
-0.35205715894699097,-5.951447010040282,2.514383554458618,0.4079484641551971,-2.0638082,1.035722,4
0.8599557280540466,-8.460262298583983,1.3491181135177612,0.6047993898391724,2.3674083,-0.6597345,4
1.7542773485183716,-10.59663200378418,2.632822275161743,0.4593469500541687,-3.3707545,-1.0968086,4
1.657157063484192,-12.344356536865234,3.227820873260498,0.11048026382923126,-2.345417,-0.67103547,4
0.44437175989151,-13.75579071044922,2.443846702575684,-0.09511888772249223,1.5900823,-0.99021256,4
-0.483119398355484,-14.812234878540039,2.182791948318481,-0.4136890769004822,2.5809057,-0.63224554,4
-0.6174439191818237,-15.52554702758789,2.64681339263916,-0.7035292983055115,1.3148874,0.15210545,4
0.10936614871025084,-15.494731903076172,3.251605033874512,-0.8197198510169983,0.20005837,0.105374254,4
1.1944453716278076,-14.392863273620605,3.495837688446045,-0.7368173599243164,-1.1979067,-0.8454375,4
1.8405492305755613,-12.273737907409668,3.131404161453247,-0.4895384609699249,-1.8322903,-1.7519615000000002,4
1.6944910287857056,-9.696292877197266,2.3882205486297607,-0.3259115219116211,-1.668273,-1.7657060000000002,4
0.7685913443565369,-7.10947322845459,1.7449359893798828,-0.27220895886421204,-0.5928446999999999,-1.3213016000000002,4
-0.5958315134048462,-4.829995155334473,1.999314546585083,-0.2630302309989929,-0.2843578,-0.5558874,4
-1.6569108963012695,-3.6103916168212886,2.088085889816284,-0.17732708156108856,1.0164797,0.31887165,4
-2.0021626949310303,-3.1301996707916264,1.748939871788025,-0.06816624104976654,2.212554,0.9443977,4
-1.692434787750244,-2.71523118019104,1.3011491298675537,0.028848022222518917,1.8442022,1.3347405,4
-1.0361926555633545,-2.2880239486694336,0.8801296353340149,0.06071274727582932,1.1447614,1.2027937,4
-0.3553663790225983,-1.908122420310974,0.5205620527267456,0.11467110365629195,0.6203337,0.8784242,4
0.07759041339159012,-1.5582215785980225,0.2778857946395874,0.12540270388126373,0.06597344599999999,0.68203104,4
0.289023220539093,-1.2983028888702393,0.1813902109861374,0.0742153450846672,-0.23548855,0.30757064,4
0.3604919910430908,-1.2291518449783323,0.15113277733325958,-0.020708780735731125,-0.27488935,-0.12889257,4
0.4120831787586212,-1.313735842704773,0.025911403819918636,-0.0633707046508789,0.6835581999999999,-0.06750060599999999,4
0.4427565932273865,-1.374708652496338,-0.08163335919380188,0.030096624046564106,1.8359555,0.032070424,4
0.4862718284130096,-1.2544851303100586,0.2676379382610321,0.17822010815143585,0.54641896,0.310625,4
0.5229102969169617,-1.0451351404190063,0.4731450378894806,0.1604108363389969,0.37843102,0.9233228,4
0.308762401342392,-1.164117455482483,0.5952044129371643,0.2133086621761322,-1.1426234,1.3826935,4
-0.6612166166305542,-2.6922829151153564,1.4475455284118652,0.2860656082630157,-0.9077458,1.8860464,4
-1.3505923748016355,-5.423091411590576,2.2470462322235107,0.34669262170791626,-0.655153,1.4101825,4
0.17754338681697845,-8.11137580871582,3.269643068313598,0.2172822207212448,0.019547688,-0.6395759,4
1.263552188873291,-10.339054107666016,4.057586193084717,0.2724924385547638,-1.9443841,-1.3515393999999998,4
1.2013603448867798,-12.142498970031738,4.082120418548584,0.2483627498149872,-2.6557367000000003,-1.2803736,4
0.055237650871276855,-13.577037811279295,3.584444522857666,0.04926474392414093,-0.63499445,-1.1649200000000002,4
-0.5818760395050049,-14.654642105102539,3.0039632320404053,-0.14677196741104126,1.0809261,-0.40042216,4
-0.40689563751220703,-15.009913444519045,2.64469838142395,-0.36247068643569946,1.9886718,0.31581733,4
0.4131664037704468,-14.374053001403807,2.775226354598999,-0.6087659001350403,0.64965516,-0.105068825,4
1.1983323097229004,-12.88586711883545,2.8159680366516118,-0.6810539960861206,-0.97097033,-1.3069462,4
1.2806413173675537,-10.771404266357422,2.4065747261047363,-0.5178167819976807,-0.8588764999999999,-1.6639968999999997,4
0.8029404878616333,-8.435238838195799,1.8482515811920168,-0.4321413934230805,-0.655153,-1.2822062,4
0.07407046109437943,-6.105210304260254,1.4068580865859983,-0.4033019244670868,0.20158553,-0.8356636999999999,4
-0.5763123631477356,-4.063351631164552,1.527188777923584,-0.4061581492424011,0.19486602,-0.35521814,4
-1.1555414199829102,-2.9250922203063965,1.8162087202072144,-0.33060574531555176,0.56077427,0.10323623,4
-1.5853925943374634,-2.7532527446746826,1.8812795877456665,-0.18465502560138705,1.2632693000000002,0.7333437,4
-1.7369990348815918,-2.6672189235687256,1.64436137676239,0.019000332802534103,1.5677856,1.3096951,4
-1.5692367553710938,-2.3659181594848637,1.2791266441345217,0.17281904816627502,1.1771374,1.4251486,4
-1.0858689546585083,-1.7830222845077517,0.8257378935813904,0.27531784772872925,0.870483,1.2739595,4
-0.5691918730735779,-1.2758315801620483,0.4580552279949188,0.30898264050483704,0.5271766999999999,1.0235047,4
-0.2285385578870773,-1.0254863500595093,0.2344333976507187,0.30514490604400635,0.042455133,0.7134906,4
-0.08439171314239502,-0.9982437491416932,0.039697330445051186,0.27406856417655945,0.45173484,0.5027421,4
-0.11848833411931993,-1.1558499336242676,-0.07567348331212997,0.2017504870891571,1.3900238,0.32375857,4
-0.12876100838184354,-1.4235141277313232,-0.03941086307168007,0.12270886451005936,1.7443258,0.12767084,4
0.17715971171855927,-1.7378907203674316,1.1764607429504397,0.09828727692365646,-0.25595254,0.39095375,4
0.5643445253372192,-2.7607367038726807,2.354876756668091,0.10338748246431352,-3.5973854,0.09865474,4
0.5644323825836182,-5.038452625274658,2.5224735736846924,0.13415074348449707,-4.299575,0.4166101,4
0.26300376653671265,-7.6331443786621085,0.6885480880737305,0.0843982994556427,1.9495764,-1.6050483999999998,4
-0.22250857949256894,-9.908025741577148,1.7012875080108645,-0.5904402136802673,0.86529064,-0.39522982,4
-0.62153160572052,-11.78518295288086,2.992605447769165,-0.6644881367683411,-0.38912117,0.03848451,4
-0.9938473105430604,-13.304449081420898,3.133244037628174,-0.546140193939209,0.21685717,-0.4615087000000001,4
-1.157067060470581,-14.493029594421387,3.208308458328247,-0.5994474291801453,-0.1133155,0.1554652,4
-0.4326639473438263,-15.15294361114502,3.0795199871063232,-0.5831476449966431,1.0134255,0.6087272,4
0.7533870935440063,-14.733600616455078,2.7543201446533203,-0.4124704003334045,0.39187005,0.13622294,4
1.6704236268997192,-13.279793739318848,2.308544158935547,-0.19754193723201752,-1.103528,-0.9245446,4
1.9760192632675169,-10.988670349121094,1.5908464193344116,0.016581788659095764,-1.6679676,-1.6899587,4
1.4251863956451416,-8.291845321655272,0.7943986654281616,0.1494462937116623,-1.8017471,-1.4721853,4
0.3997337818145752,-5.788763999938965,0.25486940145492554,0.15015725791454315,-0.26878070000000004,-0.754724,4
-0.4605588614940643,-3.7826333045959473,0.3207131028175354,0.11773579567670822,0.129198,-0.14141529999999994,4
-0.9839041829109192,-2.583298444747925,0.6362489461898804,0.08735891431570053,0.53969944,0.32620203,4
-1.3125282526016235,-2.414496421813965,0.9875839948654176,0.04010854288935661,0.6722571999999999,0.766025,4
-1.4278410673141482,-2.535863876342773,1.082589864730835,0.05315205827355385,0.8191703,0.98837996,4
-1.3629903793334959,-2.465454339981079,1.0040156841278076,0.13046537339687347,0.72234815,1.294118,4
-1.121687412261963,-2.205566167831421,0.8482566475868225,0.26343587040901184,0.79076505,1.1065824,4
-0.7138960361480713,-1.812549471855164,0.6487323045730591,0.37549889087677,0.6273586,0.9630291,4
-0.3499021530151367,-1.4549589157104492,0.4322012662887573,0.4580695331096649,0.3390302,0.659429,4
-0.13325804471969604,-1.1928420066833496,0.2003476321697235,0.4988827407360077,-0.21899518,0.40378192,4
-0.05106386542320252,-1.1310114860534668,-0.03214932605624199,0.497660905122757,-0.38423425,0.2910773,4
-0.005247081629931928,-1.307281732559204,-0.1819399446249008,0.4616471529006958,-0.6007859999999999,0.3368922,4
0.03145796060562134,-1.628024339675903,-0.16941165924072266,0.4205513000488281,-0.9315695,0.46822822,4
-0.07014382630586624,-2.4077937602996826,0.5869739055633545,0.2831819951534271,-1.2571607,0.6453791,4
0.011157087050378323,-4.638481616973877,2.232314348220825,0.052046701312065125,-4.0555344,0.91782504,4
0.5632296204566956,-7.277098655700684,1.058743596076965,0.20389604568481445,2.0454822,-1.1939361000000002,4
1.899831771850586,-9.612245559692383,0.6513784527778625,0.06436461955308914,-0.30726522,-1.1487321,4
1.7478123903274536,-11.545354843139648,1.8195064067840576,-0.11872339248657228,-0.69027776,-0.9138544,4
0.02498304657638073,-13.11223602294922,1.6612268686294556,-0.19995713233947754,1.9416351000000005,-0.08857546,4
-0.7808617949485779,-14.362202644348145,2.0584485530853267,-0.4249024093151093,1.7116444,0.48166725,4
-0.2778700590133667,-15.143321990966795,2.6510233879089355,-0.5424894690513611,0.119729586,0.5497787,4
0.7209254503250122,-14.941278457641602,2.673403739929199,-0.5145002007484436,0.17928895,0.20647246,4
1.4898070096969604,-13.86595058441162,2.7464632987976074,-0.4607599973678589,-2.0522017,-0.7651087,4
1.9366215467453003,-12.178943634033205,2.352396249771118,-0.3941705524921417,-1.8826867,-1.7983873,4
1.74605131149292,-9.919655799865724,1.8630166053771973,-0.3017444908618927,-1.4834863,-1.7715092,4
0.9970690608024596,-7.5461487770080575,1.3717981576919556,-0.2882270812988281,-0.46211955,-1.1053606000000002,4
0.3191342353820801,-5.407950401306152,0.8540151715278625,-0.3025578260421753,0.9309586,-0.65668017,4
-0.1293584257364273,-3.6840837001800537,0.7555330991744995,-0.26844948530197144,1.3503176,-0.31642818,4
-0.5083583593368529,-2.791667938232422,1.1137638092041016,-0.21524259448051453,1.0387764000000002,-0.07360926,4
-0.9368860721588136,-2.7074248790740967,1.6052651405334473,-0.15877538919448853,0.90041536,0.26236662,4
-1.319693922996521,-2.673412799835205,1.5211423635482788,0.004309758078306913,1.2660183,0.70616025,4
-1.4562889337539673,-2.233711242675781,0.9885228276252748,0.13595519959926605,0.9272934000000002,0.9807441,4
-1.2279102802276611,-1.6398916244506836,0.404121071100235,0.2435193061828613,0.91874135,0.8744536,4
-0.7243728637695312,-1.1349257230758667,0.07852917909622192,0.3181959092617035,0.7602218000000001,0.8436049000000001,4
-0.2314207553863525,-0.893860936164856,0.1164897233247757,0.3233052492141724,-0.15210545,0.49541172,4
0.03004008159041405,-0.8199943304061891,0.3562012314796448,0.24714192748069766,-0.83260936,0.2012801,4
-0.15959976613521576,-0.8914525508880615,0.41351377964019775,0.16979452967643738,0.032070424,0.2510656,4
-0.6005079746246338,-1.1475775241851809,0.32509469985961914,0.1567785143852234,2.014939,0.3930918,4
-0.5464702248573303,-1.5700947046279907,0.8014544248580933,0.17992845177650452,0.8042041,0.6969972,4
0.07601722329854965,-3.0332720279693604,2.3885118961334233,0.13100972771644592,-2.9953778,0.92057395,4
0.6307004690170288,-5.693529605865479,2.066561222076416,0.13375738263130188,-2.1248949,-0.3744604,4
1.2836332321166992,-8.262466430664062,1.0927457809448242,0.052072666585445404,1.2983941,-2.0097466,4
1.268250584602356,-10.44111442565918,2.2892982959747314,-0.4637457430362701,-1.7626517,-0.820392,4
0.053529731929302216,-12.21962070465088,2.612269163131714,-0.5427185297012329,-1.0323622,-0.98440933,4
-1.3469150066375732,-13.645548820495605,2.3352437019348145,-0.5472029447555542,0.6985244,-0.2125811,4
-1.5063161849975586,-14.590681076049805,2.269486427307129,-0.7016587257385254,2.0286834,1.3399329,4
-0.13227878510951996,-14.85414981842041,2.6595797538757324,-0.7617439031600952,1.5021176,1.4071281,4
1.4983760118484497,-14.340712547302244,2.9634578227996826,-0.4402903318405152,-0.31703907,-0.26145032,4
1.9363418817520144,-12.380783081054688,2.1801927089691158,0.02215227112174034,-1.2819008,-1.568702,4
1.305273413658142,-9.907246589660645,1.2582987546920776,0.26274850964546204,-2.6080892,-1.5855007,4
0.2387993782758713,-7.292614936828612,0.25279828906059265,0.2352479994297028,-1.1410962,-1.0760391000000002,4
-0.6709975004196167,-4.834342002868652,-0.17390501499176025,0.13581250607967374,0.74372846,-0.410196,4
-1.319302320480347,-3.03726863861084,0.040603291243314736,0.08188531547784805,1.1591167,0.23548855,4
-1.5670478343963623,-2.297868013381958,0.31423845887184143,-0.008312094025313854,1.8875736,0.71837753,4
-1.5161904096603394,-2.064504146575928,0.5214532017707825,-0.061592001467943185,1.6172657,0.9975429,4
-1.2933764457702637,-1.9306294918060305,0.5193445086479187,-0.09904807060956956,1.1838568,1.0839803,4
-1.0172332525253296,-1.8128949403762815,0.5171787142753601,-0.14734826982021332,0.40194935,0.8927795000000001,4
-0.5712059140205383,-1.569161295890808,0.5364748239517212,-0.1516532599925995,0.12675454,0.6780604,4
0.03152086213231087,-1.3542332649230957,0.6660578846931458,-0.15599513053894046,-0.26358834,0.51159966,4
0.4721272587776184,-1.3521475791931152,0.9948476552963256,-0.0891900360584259,-0.9950995,0.10720685,4
0.503621518611908,-1.4721444845199585,1.089444279670715,0.13144204020500186,-0.63224554,-0.13500121,4
0.1394364982843399,-1.555803894996643,0.7191337347030641,0.39534857869148254,-0.009162978,-0.22418754,4
-0.3469932079315185,-1.4671449661254885,0.1865866333246231,0.5708237886428833,0.5983425,0.33169982,4
-0.5542836785316467,-1.3877731561660769,-0.07521683722734451,0.6965424418449402,0.37568212,1.0910053,4
-0.4486460089683533,-1.9477958679199217,0.4617835581302643,0.7312632203102112,-1.8075503,1.400714,4
-0.5199550390243529,-4.407106876373291,1.1040942668914795,0.5488396883010864,-2.7143798,1.6856827,4
-0.1511533111333847,-7.188912391662598,-0.5027037262916565,0.4880261421203613,3.0921998,0.21991149,4
0.3511827886104584,-9.568653106689453,0.9228832721710204,0.07034435868263245,0.17501289,0.17623462,4
0.43633022904396057,-11.516717910766602,1.8587232828140257,-0.16359245777130127,-1.0580186000000005,-0.54428095,4
0.2369004935026169,-13.09059238433838,1.9579702615737915,-0.13285818696022034,-0.3368922,-0.7993172,4
0.2381267547607422,-14.264342308044435,2.0768485069274902,-0.3153398334980011,0.47067168,-0.47739118,4
0.7237891554832458,-14.94108772277832,2.5170083045959477,-0.479669451713562,0.06597344599999999,-0.38423425,4
1.2600343227386477,-14.5628023147583,2.9853200912475586,-0.558881938457489,-1.0128145,-0.9718866,4
1.3613204956054688,-13.206549644470215,2.9894695281982417,-0.5258203148841858,-1.2333368999999998,-1.7406605,4
0.9623742699623108,-11.169605255126953,2.396311521530152,-0.4171348512172699,-0.99173975,-1.8017471,4
0.18590502440929413,-8.831734657287598,1.7476191520690918,-0.3697514235973358,-0.77518797,-1.2791518,4
-0.8440642356872559,-6.517813682556152,1.308019757270813,-0.3389222621917725,0.39400807,-0.9166033,4
-1.7317476272583008,-4.362147808074951,1.228137731552124,-0.2644929587841034,1.2275337,-0.24587326,4
-2.37033748626709,-2.881108522415161,1.4417675733566284,-0.1346721351146698,1.46852,0.3549127,4
-2.4569125175476074,-2.4906489849090576,1.726307034492493,-0.0033818536903709173,0.89827734,0.9605856,4
-2.084930896759033,-2.439859628677368,1.6611971855163574,0.17908470332622528,0.7593055000000001,1.3918563999999998,4
-1.4216936826705933,-2.137176275253296,1.1082096099853516,0.3679902255535126,0.4129449000000001,1.3283265,4
-0.4831869006156922,-1.6129236221313477,0.5413777232170105,0.4733350872993469,0.19822577,1.0955868,4
0.3002048432826996,-1.1259278059005735,0.2407704293727875,0.4698691964149475,-0.41783184,0.68661255,4
0.7327395677566528,-0.8545383810997009,0.06865479052066803,0.3763386011123657,-0.89888823,0.19547687,4
0.7138420939445496,-0.8260775804519653,-0.08546130359172821,0.27800214290618896,-0.37751472,-0.42455134,4
0.3285193741321564,-1.0589060783386228,-0.11156132817268373,0.2491621971130371,0.6221663000000001,-0.45265114,4
-0.07075072079896927,-1.4147722721099854,0.08979379385709763,0.2613709568977356,0.7724390999999999,-0.0571159,4
-0.1638336032629013,-2.00979232788086,0.9132214784622192,0.2467223405838013,-0.31337386,0.4914411,4
0.06599422544240953,-4.1211814880371085,2.969159841537476,0.24480287730693814,-4.5136833,-0.18081611,4
0.15566474199295044,-6.810157299041747,3.564280271530152,0.2844739556312561,-2.977968,-0.13225232,4
0.6327052116394043,-9.226203918457033,1.9206801652908323,0.3487506508827209,-0.19639318,-1.237613,4
0.8184195756912231,-11.231803894042967,2.175140857696533,0.006026737857609986,-0.32345316,-0.21227567,4
0.033319827169179916,-12.859476089477539,2.562753200531006,-0.3789554536342621,-0.37995818,-0.12064589,4
-0.7299218773841858,-14.131267547607422,2.301652193069458,-0.5216560363769531,1.2333368999999998,-0.18692477,4
-0.7714583873748779,-14.880351066589355,2.3160183429718018,-0.7261909246444702,1.5506815,0.6579019,4
0.1304289549589157,-14.72930145263672,2.5304207801818848,-0.9522529244422911,1.9666806,1.5329663999999998,4
1.449166774749756,-13.380324363708494,2.574032783508301,-0.8984047770500183,0.41447207,-0.30482176,4
1.99947452545166,-11.026655197143556,2.116832971572876,-0.6092947125434875,-1.2559389,-1.6487253000000002,4
1.6251758337020874,-8.559935569763184,1.5431804656982422,-0.3809792995452881,-2.043955,-1.7376062,4
0.8124642372131348,-6.596905708312987,1.1512610912322998,-0.22854365408420566,-1.0897835,-1.0619892,4
-0.1000516712665558,-4.998621463775635,1.0845109224319458,-0.1661778688430786,0.12583824,-0.3753767,4
-0.8151519894599915,-3.840741395950317,1.2191365957260132,-0.11306094378232955,1.3927728,0.27947086,4
-1.1659692525863647,-3.0157413482666016,1.2589409351348877,-0.024289639666676518,1.7424932,0.81489426,4
-1.041193962097168,-2.411444187164306,1.217121720314026,0.12335339933633804,0.93615097,0.8387180000000001,4
-0.742477536201477,-1.9606481790542605,1.0599684715270996,0.23627474904060364,-0.040317107000000005,0.92485,4
-0.4715145826339722,-1.6060030460357666,0.7620054483413696,0.2974032461643219,-0.37384954,0.7993172,4
-0.2623570263385773,-1.3638797998428345,0.4252094626426697,0.3213649392127991,-0.16982053,0.636827,4
-0.08258657902479173,-1.218704342842102,0.14931240677833554,0.3224942982196808,0.17470746,0.51923543,4
0.03048588708043098,-1.2425305843353271,0.036365214735269547,0.3083681166172028,0.3472769,0.4352415,4
-0.051717184484004974,-1.3935725688934326,0.08451397716999054,0.3235442638397217,0.8081746999999999,0.2733622000000001,4
-0.2521374225616455,-1.4746007919311523,-0.024618076160550117,0.4249421656131744,1.5314392,0.33292156,4
-0.15619182586669922,-1.3977173566818235,-0.23302485048770905,0.5227123498916626,1.0134255,0.8060366999999999,4
0.039425238966941833,-1.3461768627166748,0.5918484926223755,0.5353586673736572,-0.69974613,1.1823297,4
-0.26151371002197266,-2.799466609954834,1.9982261657714844,0.5301762223243713,-1.5769486,0.9993755,4
-0.42622557282447815,-5.490218162536621,2.242340564727783,0.4912150502204895,-2.1294763,1.3090841999999998,4
0.62162846326828,-8.100088119506836,1.4656844139099119,0.40303683280944813,2.201253,-0.83260936,4
1.5505132675170898,-10.311644554138184,2.92964243888855,-0.0145161971449852,-2.2806654,-0.700357,4
1.0973895788192751,-12.116454124450685,3.2671794891357417,0.000718231312930584,-0.14202617,-1.0488556999999998,4
-1.0573569536209106,-13.572646141052244,3.176497220993042,-0.2393566370010376,1.2999213,-1.2849549999999998,4
-2.511107921600342,-14.670156478881836,3.3164849281311035,-0.4909537136554718,1.9184223,0.44409904,4
-2.255275249481201,-15.205409049987793,3.7560575008392334,-0.5811460018157959,1.2235631,1.1273518,4
-0.8158330917358398,-14.828471183776855,3.9118421077728267,-0.5760917067527771,-0.046120327,0.05772676700000001,4
0.608568549156189,-13.384535789489744,3.905895709991455,-0.518643319606781,-2.230269,-1.4068227,4
1.2111573219299316,-11.04096508026123,3.2981178760528564,-0.37323805689811707,-2.3539693,-2.1691825,4
0.9130144119262696,-8.419957160949707,2.445462465286255,-0.25611281394958496,-1.5796975,-1.6713273999999998,4
0.016796806827187538,-6.051657676696777,1.6628377437591553,-0.21785150468349454,-0.22174409,-1.0574077,4
-0.7889050245285034,-4.092531681060791,1.4721925258636477,-0.1850946992635727,-0.19211712,-0.4111123,4
-1.228587985038757,-3.024427652359009,1.5754437446594238,-0.1486300230026245,0.15271631,0.30940324,4
-1.33055317401886,-2.742586612701416,1.7353863716125488,-0.12427616864442825,0.68233645,0.71593404,4
-1.1237245798110962,-2.6491730213165283,1.6577908992767334,-0.015282108448445797,0.9999864,0.8765915999999999,4
-0.8089227080345154,-2.4479336738586426,1.2956595420837402,0.12449368089437485,0.95814216,0.95478237,4
-0.4006219506263733,-2.013730525970459,0.8310128450393677,0.22513671219348907,0.84604836,0.7476991,4
-0.018444476649165157,-1.535931944847107,0.495460569858551,0.28586581349372864,0.55741453,0.5983425,4
0.20818091928958893,-1.1733893156051636,0.2873399555683136,0.28313779830932617,-0.059864793,0.35735616,4
0.2112293392419815,-0.977005124092102,0.10646695643663406,0.24372635781764984,-0.09162979,0.1908954,4
-0.015470415353775024,-0.9913818836212158,0.05710810795426369,0.2430352717638016,0.0983493,0.129198,4
-0.31291523575782776,-1.137474536895752,-0.015608151443302631,0.25331002473831177,0.5699373000000001,0.23976462,4
-0.3841494619846344,-1.2510538101196291,-0.15376073122024536,0.2652992904186249,0.21685717,0.41263947,4
-0.18957552313804624,-1.6625183820724487,0.8139878511428833,0.20675694942474365,-1.1389582,0.86315256,4
0.2395908087491989,-4.033903121948241,2.310915946960449,0.1137344241142273,-3.4382550000000003,1.067487,4
0.8935454487800598,-6.794072151184082,1.7394213676452637,0.1631074845790863,2.1099286,-1.7327193,4
1.589550256729126,-9.226113319396973,2.9658970832824707,0.040718723088502884,-2.4000895,-1.1838568,4
1.4162548780441284,-11.234718322753906,3.5879852771759038,0.1397024244070053,-1.6942346999999998,-0.5983425,4
0.17302726209163666,-12.862239837646484,3.222010850906372,0.03813870251178742,-0.103847094,-0.82344633,4
-0.6132284998893738,-14.117169380187988,2.7812695503234863,-0.10040219873189926,1.856114,0.111177474,4
-0.20756946504116056,-14.617033004760742,2.6221132278442383,-0.23808607459068296,2.4437664,0.8747590000000001,4
0.6974442601203918,-14.069584846496582,2.7667160034179688,-0.3628725111484528,1.031446,0.50823987,4
1.4148095846176147,-12.541814804077148,2.692866563796997,-0.4036190211772919,-0.66737026,-0.66859204,4
1.4947422742843628,-10.360283851623537,2.291724443435669,-0.35280993580818176,-1.772731,-1.6212363,4
0.8970288634300232,-7.953293800354004,1.5362956523895264,-0.2993331551551819,-1.2006557,-1.5027285,4
0.08300445973873137,-5.6992430686950675,1.0571305751800537,-0.2752416729927063,-0.48991394,-0.90010995,4
-0.5207764506340027,-3.817298173904419,1.138071894645691,-0.2819906175136566,-0.30482176,-0.37720928,4
-0.8017029166221619,-2.643758535385132,1.4449828863143919,-0.3064438104629517,-0.17715092,-0.01863139,4
-0.9591138958930968,-2.307032346725464,1.5904048681259155,-0.3168330788612366,0.6432411,0.42394048,4
-1.038359522819519,-2.211791515350342,1.4477366209030151,-0.1973579078912735,1.5622878,0.7113526,4
-0.9572293758392334,-2.0685148239135738,1.1165801286697388,-0.016104206442832947,1.6942346999999998,1.0384709,4
-0.6806612014770508,-1.807088851928711,0.7430917620658875,0.10695498436689377,1.1294898000000002,0.870483,4
-0.24423669278621676,-1.4980753660202026,0.5071594715118408,0.17487598955631256,0.15943582,0.54367006,4
0.09549412876367568,-1.2819827795028689,0.4281127452850342,0.15925320982933044,-1.0152581,0.1863139,4
0.17163671553134918,-1.2109699249267578,0.4017932713031769,0.12491042166948317,-1.1398746000000002,-0.013439035,4
-0.17406612634658813,-1.305158615112305,0.3614368736743927,0.13471759855747226,0.016187929,-0.03848451,4
-0.9313119053840636,-1.402368187904358,0.20772793889045715,0.20577564835548398,1.5900823,0.36468655,4
-1.3152776956558228,-1.6758699417114258,0.2944336831569672,0.28155434131622314,2.2675319,0.9978484,4
-0.6307464838027954,-3.2398600578308105,2.2571561336517334,0.3885996639728546,-1.9727893,1.5968018,4
0.12375957518815996,-5.881429195404053,2.214876413345337,0.2854719161987305,-3.2323935,1.3090841999999998,4
0.7517763376235962,-8.422125816345215,1.2864691019058228,0.3276251554489136,2.5054638,-1.9049833,4
1.0702223777770996,-10.570473670959473,2.434727907180786,-0.03947638347744942,-1.2266175,-0.58001655,4
0.7259145379066467,-12.32395839691162,2.640307903289795,-0.04710807278752327,-1.3420709,-0.6206391,4
-0.15325751900672913,-13.738968849182127,2.332040309906006,-0.15822981297969818,-0.3827071,-0.82436264,4
-0.4832284152507782,-14.761664390563965,2.0309593677520748,-0.33129608631134033,1.2901474,0.10995574,4
0.27276182174682617,-14.950565338134766,2.109094381332397,-0.4898056387901306,1.6148223,0.6600399,4
1.4059016704559326,-14.120513916015625,2.530909776687622,-0.4954472780227661,-1.0833695,-0.32406402,4
1.9412223100662231,-12.300429344177244,2.3945834636688232,-0.36150023341178894,-2.3747387000000004,-1.6945401000000002,4
1.6173132658004759,-9.985551834106444,1.6927475929260254,-0.2110140025615692,-1.4850134,-1.7116444,4
0.6212466359138489,-7.579230785369872,0.8913255333900452,-0.15627889335155487,-0.33169982,-0.9297369,4
-0.4450365006923676,-5.326946258544922,0.6143142580986023,-0.1580284833908081,0.5372560000000001,-0.084910266,4
-1.1133241653442385,-3.4504005908966064,1.1190800666809082,-0.13791058957576752,0.52442783,0.344528,4
-1.4554253816604614,-2.6261794567108154,1.7479199171066284,-0.05499238893389702,1.2394456,0.66645396,4
-1.5942593812942505,-2.4732041358947754,1.9240189790725708,0.08198948204517365,1.4220943,0.9300423,4
-1.4650671482086182,-2.2983529567718506,1.623410701751709,0.24011175334453586,1.2547172,1.1148291,4
-1.0534403324127195,-2.0069615840911865,1.2256841659545898,0.3324351906776428,0.5540548000000001,1.0009027,4
-0.5578262805938721,-1.69208824634552,0.8797400593757629,0.3770001530647278,-0.044593163,0.7443393,4
-0.19663426280021667,-1.3552466630935671,0.5815405249595642,0.3695411682128906,-0.5852089,0.49968776,4
-0.06282149255275726,-1.0929752588272097,0.20449742674827576,0.3420553505420685,-0.47891834,0.30848694,4
-0.1253160685300827,-1.0166603326797483,-0.09276222437620164,0.3254449069499969,0.00580322,0.12644911,4
-0.29405245184898376,-1.0178956985473633,-0.08174831420183183,0.2777770161628723,0.5137377000000001,0.31123585,4
-0.2777015566825867,-1.1928467750549316,0.34666335582733154,0.195850282907486,-0.08582657,0.79626286,4
0.10630643367767334,-2.343487024307251,1.627442717552185,0.1685866266489029,-1.4553864,0.8750645,4
0.20218925178050995,-4.928393363952637,2.36550521850586,0.39493182301521296,-2.3744333,0.66889745,4
0.4496926963329315,-7.589650630950928,1.553493857383728,0.38011395931243896,1.2388347,0.19730948,4
1.776593565940857,-9.88597297668457,1.3455445766448977,0.11427539587020875,-0.5030475000000001,-1.2357804,4
2.380411386489868,-11.77022933959961,2.698204755783081,-0.15961489081382751,-2.3038783,-1.7082846,4
1.3757508993148804,-13.2943754196167,2.5901191234588623,-0.1997673213481903,0.310625,-1.3927728,4
-0.1516611874103546,-14.449341773986815,2.2950963973999023,-0.3404488265514374,2.0653355,-0.5665775,4
-1.1823766231536863,-15.09891128540039,2.2220704555511475,-0.5818203687667847,2.46759,1.061073,4
-0.8385340571403503,-14.709096908569336,2.6085190773010254,-0.7467353343963623,1.6319264999999998,1.1667526,4
0.5736220479011536,-13.161441802978516,3.03324031829834,-0.7120331525802612,-0.32589662,-0.26542094,4
1.1747432947158811,-10.700343132019043,2.8896493911743164,-0.5139970779418945,-2.6529877,-2.0723603,4
0.6077324151992798,-8.207734107971191,2.2499349117279053,-0.2623052000999451,-1.8408424,-2.2180517,4
-0.6384826302528381,-6.086032390594482,1.7796463966369631,-0.14084754884243011,-0.6954701,-1.0928379,4
-1.6673133373260498,-4.428804874420166,1.5999239683151243,-0.08300559222698213,0.6462954000000001,-0.116980694,4
-2.074392795562744,-3.264808177947998,1.634880542755127,-0.01951827108860016,1.627345,0.5561928,4
-1.8876794576644895,-2.524158477783203,1.7470711469650269,0.02814280427992344,1.2950343,0.70524395,4
-1.3470525741577148,-2.113708734512329,1.6726227998733518,0.11556987464427948,0.52412236,0.66859204,4
-0.8353888988494873,-1.9168517589569087,1.3817059993743896,0.20074410736560824,-0.01985312,0.44990227,4
-0.4281440079212189,-1.767250418663025,0.9872251152992249,0.27215537428855896,-0.03756821,0.35460728,4
-0.22419555485248568,-1.5768593549728394,0.6020573973655701,0.3106604814529419,0.109650314,0.29718593,4
-0.13871116936206818,-1.3949992656707764,0.2817157506942749,0.3443906605243683,0.08674286,0.25045475,4
-0.08311216533184053,-1.2371845245361328,0.05320780351758003,0.4183385968208313,-0.13072516,0.14691310000000002,4
-0.03944673016667366,-1.091934323310852,-0.001959649147465825,0.5450946092605591,-0.3023783,0.06414085,4
0.00801513995975256,-0.9772500991821288,0.31796595454216003,0.6476336717605591,-0.24495697,0.3051272,4
0.016809087246656418,-0.9872457385063172,0.9495359659194946,0.6431800723075867,0.84604836,0.45356745,4
0.014941582456231116,-1.4543763399124146,1.2057383060455322,0.6229614019393921,0.48716503,0.8405505999999999,4
-0.028474684804677963,-2.636468410491944,1.686434030532837,0.5452936887741089,0.021380283,1.5534303,4
-0.4535880386829376,-5.282559871673584,1.5370787382125854,0.1738532930612564,3.8664715,0.4343252,4
-0.5958833694458008,-7.937232971191406,2.128183126449585,-0.2944584488868713,1.2315043,0.3885103,4
-0.8657759428024292,-10.18142795562744,3.485764741897583,-0.4841150045394898,-1.0250319,-0.5506949999999999,4
-1.1017520427703855,-12.011483192443848,4.413040637969972,-0.7596069574356079,-2.6401596,-0.45662177,4
-1.4153894186019895,-13.488138198852539,4.865511417388916,-1.0407449007034302,-1.4181237,-0.8597928,4
-0.717060387134552,-14.61750316619873,4.923872947692871,-1.059561252593994,0.008857545999999999,-0.32711834,4
0.6008197069168091,-15.062846183776855,4.7941060066223145,-0.9796221256256104,0.10781772,-0.33200526,4
1.6107230186462402,-14.307238578796387,4.596303462982178,-0.7721097469329834,-1.3927728,-1.4379768,4
2.007997751235962,-12.368160247802734,3.5673863887786865,-0.4388026297092438,-0.06658431,-1.5735888,4
1.4280582666397097,-9.51188850402832,2.39439058303833,-0.13406556844711304,-0.5684100999999999,-1.1841623,4
0.3736710846424103,-6.831281661987305,1.7119516134262085,0.07015961408615112,-0.7797695,-0.58093286,4
-0.7598105669021606,-4.57698917388916,1.353602647781372,0.116405688226223,0.7348709,-0.18203785,4
-1.9020352363586424,-2.970330715179444,1.3515666723251345,0.113933227956295,1.6429220000000002,0.44623706,4
-2.5750553607940674,-2.598162174224853,1.4769062995910645,0.14554917812347412,1.8497,0.72143185,4
-2.46912145614624,-2.67025089263916,1.6354979276657104,0.1927913874387741,1.0906999,1.1517864,4
-1.9637213945388796,-2.643691301345825,1.5902382135391235,0.2265029400587082,0.73975784,1.0867293,4
-1.2016761302947998,-2.2452328205108643,1.4756877422332764,0.2711223065853119,0.50854534,0.95111716,4
-0.44696876406669617,-1.6373114585876465,1.3550530672073364,0.33121466636657715,-0.39370266,0.7110472,4
0.04208403453230858,-1.2225192785263062,1.1011124849319458,0.4126474857330322,-1.069625,0.26633725,4
0.23431451618671414,-1.0225347280502322,0.7409785389900208,0.4710376858711242,-1.2605205,0.040011674,4
0.215981587767601,-1.00627601146698,0.4973152577877045,0.4955862760543823,-0.6230826,0.099265605,4
-0.06328904628753662,-1.1662864685058594,0.3977178335189819,0.5163395404815674,0.77121735,0.3549127,4
-0.3977462649345398,-1.1843972206115725,0.2832661867141724,0.5378164649009705,1.4825699,0.61422503,4
-0.3105446398258209,-1.1238443851470947,-0.0301795843988657,0.4081200957298279,-0.7901541999999999,1.0751228000000002,4
-0.010634711012244223,-1.25053870677948,-0.4573346972465515,0.2476959526538849,-1.4789047,1.207986,4
0.15841306746006012,-2.0056805610656743,-0.2372543215751648,0.1616508811712265,-1.2547172,1.1817188,4
0.2431105226278305,-4.364319324493408,1.4015485048294067,-0.1688779443502426,1.1847731,1.2348641000000002,4
1.2101420164108276,-7.057872295379639,1.780677080154419,-0.07961255311965942,0.17684549,-1.5720617,4
2.4012367725372314,-9.438202857971193,3.339183807373047,0.0812942311167717,-2.0286834,-0.81122905,4
1.5320358276367188,-11.404908180236815,3.753994703292847,0.09584203362464903,-0.55863625,-1.4865406,4
-0.7867000699043274,-12.99818515777588,3.394792318344116,-0.08965600281953813,1.7476854,-0.6969972,4
-2.2697162628173833,-14.27340316772461,3.3101632595062256,-0.3163239359855652,2.144137,0.26022860000000003,4
-2.31006932258606,-14.95247745513916,3.555119514465332,-0.4400097727775574,1.2559389,0.73273283,4
-1.3966517448425293,-14.353843688964846,3.2845723628997803,-0.4748304486274719,1.1481212,0.18753563,4
-0.3661738336086273,-12.679540634155273,2.787562370300293,-0.4950363337993622,0.14477506,-0.8668178,4
0.3668156266212464,-10.134432792663574,2.4639050960540767,-0.4994607865810394,-0.91599244,-1.2583824,4
0.4890836179256439,-7.4685425758361825,2.0277230739593506,-0.4524530172348023,-0.7996226,-1.461495,4
0.1450001895427704,-5.386005401611328,1.7329254150390625,-0.3162552118301392,-0.04184427,-1.1835514,4
-0.3346569836139679,-3.926018476486206,1.7453271150588991,-0.2088807821273804,0.05681047,-0.57543504,4
-0.7920398116111755,-2.9305732250213623,1.5404403209686282,-0.09859148412942886,1.3561208,0.16462818,4
-1.1254020929336548,-2.399155139923096,1.3428895473480225,0.027775844559073448,1.7812830000000002,0.73761976,4
-1.1904641389846802,-2.056893348693848,1.2208499908447266,0.12325344234704973,1.751656,0.9636399,4
-0.9821680784225464,-1.8057245016098025,1.0626565217971802,0.21202106773853305,1.74738,1.1236867,4
-0.6923496723175049,-1.5847935676574707,0.8175582289695741,0.2917080223560333,1.1545353,0.7122689,4
-0.3505733609199524,-1.3256721496582031,0.4687402248382568,0.31177234649658203,0.3622431,0.35033122,4
-0.13109491765499115,-1.1139241456985474,0.1485358625650406,0.29338452219963074,-0.18448131,0.13775012,4
-0.09935954213142396,-1.0654405355453491,-0.18125465512275696,0.2544778287410736,-0.24281894,-0.043676864,4
-0.1844489872455597,-1.1753766536712646,-0.4568033814430237,0.20064763724803925,-0.13133603,-0.2565634,4
-0.3392106890678406,-1.263314723968506,-0.6133020520210266,0.09622597694396973,0.30390546,-0.24251351,4
-0.4346774220466614,-1.170386552810669,-0.6069647669792175,-0.06493259221315384,0.8072583999999999,0.15699236,4
-0.4619026184082031,-1.923246383666992,0.5181980729103088,-0.23245345056056976,-0.5900958000000001,0.63224554,4
-0.5758962631225586,-4.260895729064941,1.4291075468063354,-0.3509623408317566,-2.4361305,1.2030991000000002,4
-0.8486772179603577,-6.971956729888916,0.2450385540723801,-0.4376809000968933,3.3472362,-1.5118915000000002,4
-0.8274943828582764,-9.364377975463867,1.3691529035568235,-0.7201895117759705,0.27000242,-0.915687,4
-1.328051209449768,-11.34304904937744,3.211796283721924,-0.6701886057853699,-3.8600576,-1.1487321,4
-2.137235164642334,-12.947771072387695,3.1711914539337163,-0.6248915791511536,-1.81091,-1.4071281,4
-2.540680408477783,-14.07196044921875,2.511608123779297,-0.648160457611084,1.0995574,0.22785273,4
-1.7924867868423462,-14.258474349975586,2.286278486251831,-0.6404698491096497,1.2822062,0.7257079000000001,4
-0.7571019530296326,-11.846826553344727,2.0249829292297363,-0.427240788936615,-2.5390613,-1.50731,4
-0.6477318406105042,-9.192461013793944,1.5868133306503296,-0.19895341992378235,-2.193617,-1.3579534,4
-1.1108523607254028,-6.749733924865723,0.8948577046394348,-0.0331013984978199,-0.3933972,-0.4605924,4
-1.4926856756210327,-4.598137855529785,0.4547402560710907,0.09653361141681673,1.087951,0.16310102,4
-1.727731466293335,-3.2104294300079346,0.4575405418872833,0.1486620008945465,1.7757853,0.30451632,4
-1.7692906856536863,-2.731257438659668,0.6577292680740356,0.12192626297473907,1.7623463,0.49388456,4
-1.6263992786407468,-2.500248908996582,0.7181904315948486,0.11737561225891112,1.3848315,0.57818395,4
-1.4551650285720823,-2.167551279067993,0.6654832363128662,0.1542470157146454,0.55833083,0.6988298000000001,4
-1.271558165550232,-1.7454421520233154,0.5512592792510986,0.16348931193351746,-0.27580565,0.63529986,4
-1.0139650106430054,-1.3711775541305542,0.4184262454509735,0.15583647787570953,-0.66737026,0.5354234,4
-0.6934856176376343,-1.1377115249633791,0.3697701990604401,0.14692510664463046,-0.93218035,0.39858958,4
-0.35142287611961365,-1.0919477939605713,0.42507171630859375,0.1465955376625061,-0.99265605,0.20463985,4
-0.1576358526945114,-1.2126508951187134,0.6290600299835205,0.1712368130683899,-1.0051788,0.1441642,4
-0.3594486713409424,-1.3835198879241943,0.6799516081809998,0.3277934789657593,0.63499445,0.30879238,4
-0.6194969415664673,-1.4158581495285034,0.5870950818061829,0.5658935308456421,0.6768387,0.8081746999999999,4
-0.4927543699741364,-1.3844799995422363,0.9283944368362428,0.6928170323371887,-0.5555819000000001,1.3106114,4
-0.2017897367477417,-2.6411242485046387,1.881840229034424,0.7225942611694336,-3.036611,1.0659598,4
-0.19574742019176486,-5.229214668273926,1.9536012411117556,0.6618964076042175,-4.195117,0.8753699,4
0.3810879588127136,-7.839219570159912,1.773733377456665,0.33607566356658936,1.9566014,-1.2092078000000002,4
0.7679821848869324,-10.094988822937012,3.227553129196167,-0.1794557422399521,-1.6123788,-0.6600399,4
-0.06690710037946701,-11.940595626831055,3.671444416046143,-0.11259372532367705,-0.62949663,-0.42210788,4
-1.546860933303833,-13.430787086486815,3.5744838714599614,-0.3359653949737549,1.7067575,-0.13408493,4
-1.8758645057678225,-14.58169174194336,3.7272017002105713,-0.4409861564636231,1.0155635,1.0262536,4
-0.7125502228736877,-15.115923881530762,3.5910000801086426,-0.4476936757564545,1.5653422,1.1560625,4
0.9806016087532043,-14.509810447692873,3.3345754146575928,-0.4297808706760407,-0.34300083,-0.15668693,4
2.1307625770568848,-12.566537857055664,2.816478729248047,-0.3452295660972595,-1.7159204,-1.666135,4
2.055185556411743,-10.04231071472168,2.0873062610626216,-0.2194022834300995,-1.7418822,-2.0280726,4
0.9262188673019408,-7.812106609344482,1.49615216255188,-0.18670766055583954,-1.0341948,-1.5894713,4
-0.2515474557876587,-5.836249828338622,1.0309937000274658,-0.23157945275306704,0.38026363,-0.6536258,4
-0.9567684531211852,-4.210155963897705,1.000643968582153,-0.2334185689687729,0.93584555,-0.02687807,4
-1.110872507095337,-3.1309430599212646,1.4649666547775269,-0.1838553696870804,0.8866709,0.4999932,4
-1.0448766946792605,-2.627272605895996,1.7810208797454834,-0.10806625336408617,1.0665708,0.8054258000000001,4
-0.8889427185058594,-2.337136030197144,1.6798337697982788,0.035658478736877434,0.9957104,0.84329945,4
-0.6967881321907043,-1.9951547384262085,1.2143323421478271,0.1992260366678238,0.70921457,0.87598073,4
-0.3692160844802856,-1.645942211151123,0.7157688736915588,0.31324028968811035,0.30634892,0.591623,4
0.06270141899585724,-1.359623670578003,0.3485654294490814,0.3569885194301605,-0.29657507,0.3921755,4
0.4093338549137116,-1.1386281251907349,0.1338023692369461,0.3548575043678284,-0.8958339,0.24984388,4
0.4738702178001404,-1.0450983047485352,0.09757307171821594,0.3411819934844971,-1.0900891,0.06352998,4
0.1937303841114044,-1.1362134218215942,0.15249305963516235,0.3230965137481689,-0.6206391,0.08063421400000001,4
-0.3624935150146485,-1.3036648035049438,0.22397643327713013,0.3141311109066009,0.80848014,0.32375857,4
-0.9467474222183228,-1.482985258102417,0.17773601412773132,0.3139458894729614,1.9694295,0.9810496,4
-1.5547206401824951,-2.1670787334442143,0.2841586172580719,0.2840774953365326,1.3313808,1.8668042,4
-2.2465178966522217,-4.287444114685059,1.5047320127487185,0.21675282716751101,-1.2278391000000002,1.2739595,4
-2.2482595443725586,-6.950550556182861,2.5559215545654297,0.14107990264892578,-3.642284,0.6432411,4
-1.3004395961761477,-9.255828857421877,2.366419792175293,0.2326503694057465,-0.8885035,-0.52595496,4
0.1304597109556198,-11.079878807067873,2.8613064289093018,0.30865803360939026,-2.3408356,-0.5290093000000001,4
0.5857967734336853,-12.70612621307373,2.987309455871582,0.1581188589334488,-1.5577063999999998,-0.8491027,4
-0.08791960030794144,-14.040145874023438,2.925789356231689,-0.08635939657688141,1.0983357,-0.9282097,4
-0.5663729310035706,-15.096789360046387,2.968280792236328,-0.2622726261615753,1.990199,-0.14294247,4
-0.4607955813407898,-15.43690299987793,3.294766664505005,-0.4199981093406677,1.6184875,-0.13408493,4
0.0495343953371048,-14.701632499694824,3.5853121280670166,-0.4931774735450745,0.23487769,-0.45570546,4
0.5451191067695618,-13.11279296875,3.2386777400970463,-0.453285276889801,-0.39278635,-1.3457361,4
0.8022763133049011,-10.81557846069336,2.640617847442627,-0.40295565128326416,-0.8042041,-1.5198327,4
0.6421860456466675,-8.274392127990723,1.862119436264038,-0.3811914026737213,0.12675454,-1.3539828,4
0.03975841775536537,-5.881072998046875,1.3492194414138794,-0.3135318458080292,0.96486163,-1.0219775,4
-0.7083134651184082,-3.865746736526489,1.4781591892242432,-0.2674127519130707,0.37934732,-0.56382865,4
-1.4184895753860474,-2.6345372200012207,1.6121681928634644,-0.2252082973718643,0.6817255999999999,-0.04642576,4
-1.7749183177947998,-2.1248846054077153,1.7114521265029907,-0.17709989845752716,0.25809056,0.37995818,4
-1.695971965789795,-1.926187515258789,1.5720027685165403,-0.09632058441638948,0.06291912,0.59559363,4
-1.3519607782363892,-1.8452352285385127,1.1044437885284424,0.003277967916801572,0.3368922,0.61819565,4
-0.7921838760375977,-1.6812801361083984,0.6191588640213013,0.09750490635633467,0.3268129,0.4783075,4
-0.14908093214035034,-1.4357011318206787,0.3994910717010498,0.155052050948143,0.043676864,0.3643811,4
0.3110498785972595,-1.2458562850952148,0.3952824771404265,0.1956145465373993,0.046731193,0.11209377,4
0.3621665835380554,-1.2304795980453491,0.469257801771164,0.29445600509643555,0.61117065,0.06841691,4
-0.19909250736236567,-1.324124097824097,0.3937418162822723,0.4104552865028381,1.5839735,0.23640485,4
-0.802480936050415,-1.2324533462524414,0.15086409449577332,0.4507865905761719,2.1426098,0.4981606,4
-0.9139060378074646,-0.9979296922683716,-0.10360733419656754,0.4153713881969452,1.563815,0.5928446999999999,4
-0.6302660703659058,-1.167934775352478,0.8303136229515076,0.39668646454811096,-2.1920900000000003,0.7079928000000001,4
-0.6302146315574646,-2.6701817512512207,1.4813618659973145,0.1743636280298233,-1.5836681,0.6737844,4
-0.6077917218208313,-5.373851299285889,0.7324693202972412,-0.2003548294305801,0.8356636999999999,-0.59742624,4
-0.16600021719932556,-8.005794525146483,1.9381561279296875,-0.7668020129203796,-0.23762658,-1.0210613000000002,4
-0.30419668555259705,-10.2349853515625,3.5109753608703613,-0.9227982759475708,-1.632232,-0.956615,4
-1.3437252044677734,-12.054574966430664,3.912510871887207,-0.8827312588691711,-1.1670581,-0.8390234000000001,4
-2.096548795700073,-13.52283763885498,3.865465641021729,-0.9234704375267028,0.31795537,0.40194935,4
-1.1223608255386353,-14.44290542602539,3.612832307815552,-0.9060120582580566,2.0436497,1.5726726,4
0.951499044895172,-14.35619831085205,3.231513023376465,-0.773510217666626,1.5781704,0.33933565,4
2.6009695529937744,-12.783483505249025,2.9465222358703613,-0.5454105138778687,-1.7061466,-1.5635096000000002,4
2.9739248752593994,-10.098889350891113,2.1643385887146,-0.2634439766407013,-1.4450017,-2.0292943,4
2.08086371421814,-7.669315814971924,1.3104383945465088,-0.006657542195171118,-1.2092078000000002,-1.6206254999999998,4
0.6691547632217407,-5.790599822998048,0.7665532827377319,0.0636383593082428,0.0571159,-0.8347474,4
-0.5508881211280823,-4.020918369293213,0.9560052752494812,0.042756009846925735,1.3237450000000002,0.22693644,4
-1.2010325193405151,-3.0719258785247803,1.398039698600769,0.09761954843997957,2.007914,0.9401216,4
-1.3485866785049438,-2.6019823551177983,1.7053885459899902,0.21567869186401367,1.047023,1.135293,4
-1.1238322257995603,-2.2324376106262207,1.5558210611343384,0.3077266216278076,0.410196,1.0708468,4
-0.8502205610275269,-1.7765359878540041,1.130304217338562,0.32674944400787354,0.04062254,1.0250319,4
-0.5444290041923523,-1.3774657249450684,0.6708006262779236,0.3039732277393341,-0.03726278,0.8038987,4
-0.29588866233825684,-1.1610732078552246,0.3177831768989563,0.279699981212616,-0.17256944,0.5729916,4
-0.10914377868175508,-1.1130198240280151,0.11921698600053787,0.265617311000824,-0.46395215,0.38881573,4
-0.010567440651357174,-1.1441729068756104,0.046892818063497536,0.2715553045272827,-0.68569624,0.25870144,4
-0.03557194024324417,-1.256213903427124,-0.0012107784859836102,0.28193679451942444,-0.5626069,0.21380283,4
-0.11688551306724547,-1.3286253213882446,-0.031184818595647805,0.3190257549285889,0.19058995,0.29779682,4
-0.08979129046201706,-1.2729634046554563,0.02076435275375843,0.3831912875175476,1.1954633,0.65576386,4
0.1884099394083023,-1.3036662340164185,0.3404785394668579,0.49307581782341,0.54367006,1.0366384,4
0.6261268258094788,-1.8202959299087524,1.0285711288452148,0.6908827424049377,-1.2690725,1.1636983,4
0.5390254259109497,-3.4849352836608887,2.2208151817321777,0.892103374004364,-3.0586023,0.9370673,4
0.575195848941803,-6.098048686981201,2.260816097259521,0.9846551418304444,-2.3857343,0.26145032,4
1.1222683191299438,-8.619357109069824,2.533045530319214,0.6629235744476318,-1.1753048,-1.3949108,4
1.4618177413940432,-10.740257263183594,3.67830753326416,0.5274905562400818,-1.3805555,-0.54244834,4
0.3188348412513733,-12.464760780334473,3.913567066192627,0.32913655042648315,0.6627888000000001,0.03145956,4
-0.8053230047225952,-13.851916313171387,4.158185958862306,-0.06341346353292465,2.7577512000000004,-0.4633413,4
-1.1899276971817017,-14.95824146270752,4.53918981552124,-0.3325318992137909,1.3710871,-0.022907447,4
-0.8467414379119873,-15.69240665435791,4.789309024810791,-0.4155357480049133,0.3484986,0.25900686,4
0.08539903908967973,-15.466588020324707,4.522764205932617,-0.4699209034442902,0.37415496,0.21013765,4
0.9536465406417848,-14.265921592712402,3.9672679901123047,-0.551807701587677,-0.45356745,-0.4822781,4
1.4632036685943604,-12.308184623718262,3.265486478805542,-0.5780676007270813,-0.86742866,-1.3723087,4
1.4080287218093872,-9.716416358947754,2.568631649017334,-0.5335761308670044,-1.1670581,-1.6084082,4
0.7635884284973145,-7.1449928283691415,1.7528215646743774,-0.5356562137603761,-0.03756821,-1.258077,4
-0.00471028219908476,-4.978530406951903,1.2229135036468506,-0.524333119392395,0.66645396,-0.57787853,4
-0.5631090998649597,-3.3132419586181636,1.119473576545715,-0.5039361119270325,0.45631635,-0.20616703,4
-0.8637007474899292,-2.435586214065552,1.2437598705291748,-0.45313960313797,0.70341134,0.26939157,4
-0.8956294655799866,-2.3068878650665283,1.4532927274703982,-0.41813111305236816,0.34819320000000004,0.5580254,4
-0.6585724949836731,-2.3533248901367188,1.4516018629074097,-0.3254266381263733,0.44318274,0.7483099,4
-0.3682233393192291,-2.2476553916931152,1.304425597190857,-0.1738695204257965,0.6151413,0.7147123000000001,4
-0.08184321969747542,-2.007108449935913,1.0175153017044067,-0.019730577245354645,0.5830709,0.46395215,4
0.1691666543483734,-1.6490787267684937,0.7400733828544617,0.09137118607759476,0.21563543,0.30176744,4
0.25964486598968506,-1.4016653299331665,0.5853861570358276,0.15520784258842468,-0.14996742,-0.006414085,4
0.09398596733808516,-1.3231666088104248,0.5344791412353516,0.2521553933620453,-0.32070425,-0.15210545,4
-0.3741813600063324,-1.3593618869781494,0.3459358215332031,0.35935381054878235,0.22479841,0.13652839,4
-1.0063889026641846,-1.3602805137634275,-0.07151059806346892,0.3869230747222901,0.7492262,0.5109888,4
-1.335926175117493,-1.2576537132263184,-0.5026934146881104,0.3934617042541504,1.2244794,0.8436049000000001,4
-1.3164910078048706,-1.5978766679763794,0.3524588942527771,0.3886971175670624,-0.06841691,1.0815369,4
-1.2154018878936768,-3.651058197021485,2.4694578647613525,0.2488151490688324,-2.1908681,1.4285084,4
-0.3390077650547028,-6.3974385261535645,2.000049591064453,0.2169608771800995,2.6459627,-0.5882632,4
0.9509104490280152,-8.884254455566406,3.051832675933838,-0.02848622761666775,0.37598756,-0.26572640000000003,4
1.2302762269973757,-10.954249382019043,4.035642147064209,-0.062486723065376275,-1.6749926,-0.9615019,4
0.19177830219268802,-12.635391235351562,4.2233190536499015,-0.2657090127468109,-1.1111639,-1.0928379,4
-1.208250880241394,-13.98698616027832,3.858932256698608,-0.43466717004776,0.06719518,-0.7098253999999999,4
-1.4946908950805664,-14.99275016784668,3.3637142181396484,-0.5450016260147095,1.0146471,0.14691310000000002,4
-0.6893594861030579,-15.170400619506836,3.0770771503448486,-0.6551303267478943,1.1716396,0.46670106,4
0.6411167979240417,-14.255932807922365,3.3060579299926762,-0.7346528768539429,-1.9156734,-0.36835176,4
1.621380090713501,-12.37114715576172,3.0409362316131587,-0.629413902759552,-1.9990565,-1.7614299,4
1.754941701889038,-9.869099617004396,2.2530138492584233,-0.4721111357212066,-1.2993103,-1.6465873,4
1.1414397954940796,-7.349005699157715,1.3814735412597656,-0.4142079949378967,0.50732356,-1.0204504,4
0.1379830241203308,-5.21779727935791,1.446312665939331,-0.39125528931617737,1.5164729,-0.42149702,4
-0.7384164333343506,-4.115680694580078,2.176446914672852,-0.3340287208557129,1.4162911,0.23243423,4
-1.3606103658676147,-3.860061645507813,2.415142297744751,-0.1140398308634758,2.4135287,0.6750060999999999,4
-1.505204439163208,-3.5343449115753174,2.1554083824157715,0.13851872086524966,1.9785925,1.0800097,4
-1.175797939300537,-2.8881940841674805,1.490041971206665,0.3069582283496857,1.2831224,1.1215485,4
-0.6166748404502869,-2.0555567741394043,0.8015580177307129,0.3800115883350372,0.5543602,0.95142263,4
-0.10842323303222656,-1.384227275848389,0.33096030354499817,0.3859475255012512,0.006414085,0.5317582,4
0.1628074049949646,-0.96804678440094,0.13407230377197266,0.3531987965106964,-0.514654,0.20616703,4
0.15005061030387878,-0.9369763731956482,0.017897499725222588,0.2786534428596497,-0.2941316,-0.05925392700000001,4
-0.04492223262786865,-1.255878210067749,-0.031741391867399216,0.18570749461650848,0.2883284,-0.045814894,4
-0.2875778079032898,-1.5935020446777344,0.0981731116771698,0.13370820879936218,1.0644327,0.17531833,4
-0.3358512222766876,-1.6595704555511477,0.4548187851905823,0.15764974057674408,1.9376645,0.3866777,4
0.028939764946699142,-1.8360462188720703,1.1169805526733398,0.19852785766124725,1.0965031,0.88270026,4
0.7892166972160339,-2.9928653240203857,2.009958267211914,0.23083047568798065,-1.5384641,1.2629639,4
1.4626643657684326,-5.419750213623047,2.5768966674804688,0.22194722294807434,-2.8225029,0.9059132,4
1.9388413429260252,-7.981513977050781,0.928977072238922,0.18717241287231445,4.227493,-2.221717,4
1.4085800647735596,-10.196118354797363,2.1917197704315186,-0.1326335370540619,-1.4624114,-1.8057177,4
-0.4945949018001557,-12.018113136291506,3.2439877986907963,-0.16728253662586212,-2.1444426,-0.41874814,4
-2.824355125427246,-13.491772651672365,3.2255804538726807,-0.33367007970809937,-0.3726278,-0.6789767,4
-3.744062900543213,-14.653604507446287,3.02178955078125,-0.5273333787918091,0.6774496,0.47433686,4
-2.950519800186157,-15.348590850830078,3.09647536277771,-0.6696329116821289,0.9419542,1.3384056999999998,4
-0.9997282624244691,-15.038827896118164,2.955297470092773,-0.7093014717102051,0.9297369,0.84299403,4
0.7966597676277161,-13.474026679992676,2.9858989715576167,-0.626162052154541,-2.281887,-1.0711522,4
1.280536413192749,-10.657855987548828,2.492422342300415,-0.4201482832431793,-2.7488935000000003,-2.0906863,4
0.5077891945838928,-7.974818706512451,1.9229676723480225,-0.13232746720314026,-2.042428,-2.1184807,4
-0.8900166749954224,-5.7880682945251465,1.3980647325515747,-0.01421462558209896,-1.5409076000000002,-0.9294315,4
-1.9123184680938718,-4.0433735847473145,1.0332982540130615,-0.028618205338716507,0.33261612,0.11575896,4
-2.323794364929199,-3.088761568069458,1.0738524198532104,-0.013482379727065563,1.4269812,0.7125743,4
-2.317468881607056,-2.78209924697876,1.241557240486145,0.05417196080088616,1.2791518,1.0180069,4
-1.9672781229019165,-2.5255115032196045,1.2370874881744385,0.15611235797405246,0.8381071,0.9682214,4
-1.4373624324798584,-2.143439769744873,0.9742681980133056,0.2391268461942673,0.4633413,0.93187493,4
-1.004623293876648,-1.7909964323043823,0.6981157064437866,0.2664035558700561,-0.030543262,0.7263188,4
-0.6807789206504822,-1.4867933988571167,0.4883575141429901,0.2517416179180145,-0.36468655,0.56321776,4
-0.4566372632980346,-1.2724193334579468,0.2762517333030701,0.20320965349674225,-0.081855945,0.4184427,4
-0.35150301456451416,-1.2666747570037842,0.17385774850845334,0.157253235578537,0.034513887,0.119729586,4
-0.2665354907512665,-1.3904867172241209,0.1315959244966507,0.193360835313797,0.10781772,0.03390302,4
-0.1525212824344635,-1.4691318273544312,0.059895005077123635,0.29528021812438965,0.0125227375,0.3036,4
0.050552994012832635,-1.5914489030838013,0.0007349085062742232,0.4024171531200409,-0.7498371,0.74189585,4
0.2354684174060821,-1.8961396217346191,0.19487416744232175,0.4805888831615448,-1.1010846,0.9837985,4
0.13644547760486606,-3.2388601303100586,1.161457061767578,0.4661731719970703,-2.0720549,1.151481,4
0.5616782307624817,-6.005246162414551,0.6446171402931213,0.4036829471588135,-1.3399329,1.1588113000000002,4
1.765319585800171,-8.564848899841309,1.2268470525741575,0.2295253574848175,1.0671816,-1.1191051,4
1.8824813365936282,-10.69652271270752,2.5086467266082764,0.09773865342140198,-1.7482964,-0.98563105,4
0.4248557090759277,-12.428064346313475,2.7984681129455566,0.0287578497081995,-0.32711834,-0.9245446,4
-1.5327224731445312,-13.819272994995115,2.817417860031128,-0.20514972507953644,1.2962561,-0.5354234,4
-2.0330076217651367,-14.822649002075195,2.9870858192443848,-0.3183046877384186,1.7803668,0.68844515,4
-1.163792371749878,-14.950532913208008,3.0517253875732417,-0.34713807702064514,1.8805487,0.9990701,4
0.21151018142700195,-13.900101661682127,3.12237548828125,-0.4550605118274689,0.06047566,-0.16249016,4
1.2222161293029783,-11.780780792236328,2.794335126876831,-0.5497414469718933,-1.0473285,-1.3475688,4
1.298019528388977,-9.09782600402832,2.22290563583374,-0.4971346855163574,-1.4676038,-1.8933768,4
0.5927066802978516,-6.555863857269287,1.580525040626526,-0.38635191321372986,-0.7724390999999999,-1.484708,4
-0.22223547101020813,-4.522192478179932,1.2162433862686155,-0.3376407027244568,-0.27397305,-0.60994893,4
-0.67621910572052,-3.119584798812866,1.3201444149017334,-0.3259212672710419,-0.47739118,-0.23854288,4
-0.7976057529449463,-2.590072631835937,1.739154815673828,-0.28820449113845825,-0.7510588,0.012217305,4
-0.9134007096290588,-2.5238773822784424,1.8039129972457888,-0.22672998905181885,0.19150625,0.22632557,4
-0.9848036766052246,-2.477064847946167,1.4126957654953003,-0.08287584781646729,0.8179486,0.4437936,4
-0.9026849865913392,-2.202103614807129,0.9591104984283448,0.0918075665831566,0.7809911999999999,0.59986967,4
-0.6391183733940125,-1.6732784509658811,0.5706638097763062,0.20597201585769653,0.4364632000000001,0.54336464,4
-0.21359418332576752,-1.2085561752319336,0.35422053933143616,0.2693403959274292,0.10415252,0.46670106,4
0.10306289047002792,-0.938665509223938,0.2810718417167664,0.2786933481693268,-0.53023106,0.37568212,4
0.1684211492538452,-0.8700844049453735,0.3645493090152741,0.22151558101177216,-0.9230174,0.23426682,4
-0.11476510763168335,-1.0037024021148682,0.5267351269721985,0.1367509812116623,-0.018020526,0.15913039999999998,4
-0.7137688398361206,-1.3697022199630735,0.3484623432159424,0.1902184635400772,2.579684,0.26847526,4
-0.9846232533454896,-2.024054288864136,0.18225790560245514,0.4173987805843353,2.3020456,0.7134906,4
-0.3770386874675751,-3.4875199794769287,1.2877591848373413,0.5753948092460632,-1.9712621,1.0708468,4
0.6455379724502563,-5.922621726989746,1.6150610446929932,0.3294188678264618,-3.6285396,0.31978795,4
1.369259238243103,-8.519691467285156,1.5193847417831419,0.4083618223667145,0.51923543,-1.7024814,4
0.7739745974540709,-10.666167259216307,2.560704469680786,-0.10027807205915452,-1.7263051,-0.61361414,4
-0.4810492992401123,-12.404574394226074,2.213218688964844,-0.09901674836874008,1.185384,-0.29932398,4
-1.2928259372711182,-13.7836275100708,1.8441617488861084,-0.1932149976491928,2.559831,-0.39645153,4
-1.1247936487197876,-14.586256980895994,2.1381239891052246,-0.42740464210510254,1.7269161,0.53023106,4
-0.19758884608745572,-14.530847549438475,2.6920981407165527,-0.58128821849823,0.37843102,0.55955255,4
0.7285414338111877,-13.489073753356935,2.991365909576416,-0.6635165214538574,-1.2617421,-0.5235115,4
0.8194419741630554,-11.316263198852539,2.598869800567627,-0.6354916095733643,-2.1731532,-1.4883732,4
0.2529360055923462,-8.812914848327637,1.9287614822387693,-0.5092632770538329,-2.4657576,-1.6701056,4
-0.5183327198028564,-6.634036064147949,1.0937647819519043,-0.3923052847385407,-1.8182404,-0.8940013000000001,4
-1.0605348348617554,-4.74949312210083,0.8087131977081299,-0.3282126188278198,-0.05925392700000001,-0.28252518,4
-1.289543390274048,-3.5594806671142583,1.3812013864517212,-0.3447688519954681,0.5699373000000001,0.32498032,4
-1.3413423299789429,-3.3677494525909424,2.068636417388916,-0.28447529673576355,1.0870347,0.63529986,4
-1.256896734237671,-3.2732300758361816,2.163976192474365,-0.01916220784187317,1.462106,0.9309586,4
-1.118491768836975,-2.8072197437286377,1.6992695331573486,0.2762256860733032,1.6331482,1.1936307,4
-0.8998551368713379,-2.0825557708740234,1.018732666969299,0.4189105927944183,1.5311338,1.1615603,4
-0.6442910432815552,-1.3861098289489746,0.4340121150016785,0.4733544588088989,1.1649200000000002,0.83260936,4
-0.4122447669506073,-0.8979225158691406,0.11426667124032976,0.4309722483158112,0.22693644,0.45998153,4
-0.2617127895355225,-0.6987675428390503,-0.12034647911787033,0.3354203701019287,-0.043676864,0.15088372,4
-0.23388233780860898,-0.8258336782455444,-0.30814129114151,0.25445204973220825,0.2180789,-0.20922135,4
-0.20608656108379364,-0.9768784642219543,-0.4174208343029022,0.17948761582374573,0.08002335,-0.17165314,4
-0.05583462491631508,-1.1184954643249512,-0.1991128772497177,0.09585124254226683,-0.56688297,0.01160644,4
0.40867018699646,-1.644478678703308,1.3610924482345579,-0.08417782187461853,-4.142583,0.10995574,4
0.8713683485984802,-3.645838737487793,1.66651451587677,0.054886814206838615,-3.6343427,0.06047566,4
1.0957015752792358,-6.38867712020874,0.8367143869400024,0.13248920440673828,2.9712486,-1.1661416999999998,4
1.464625120162964,-8.920014381408691,2.2132859230041504,-0.6320170164108276,0.25503623,-1.3524556,4
0.5791608095169067,-10.995319366455078,3.2517688274383545,-0.9502839446067809,-1.9706513,-0.9447031,4
-0.7900295853614807,-12.671168327331545,3.1911842823028564,-0.7750378847122192,-0.91538155,-1.3643675,4
-1.5326098203659058,-13.710405349731445,2.6515028476715092,-0.908797562122345,1.0995574,0.1020145,4
-0.6178387403488159,-13.548894882202148,2.612855672836304,-1.0626764297485352,2.5763242,2.1713204,4
1.116309404373169,-12.921079635620115,2.7062551975250244,-1.0163800716400146,1.5628988,0.5656611999999999,4
2.2329332828521733,-11.15265655517578,2.4560041427612305,-0.6888786554336548,-0.5186246,-0.9798279,4
2.298159122467041,-8.570921897888184,2.0552070140838623,-0.2300422936677933,-2.1035144,-1.5815301000000002,4
1.5714054107666016,-6.202483177185059,1.5322381258010864,0.14444507658481598,-1.7440202,-1.3414601000000002,4
0.3571619689464569,-4.478330135345459,1.12379252910614,0.2945570647716522,0.49541172,-0.93951076,4
-0.7042500376701355,-3.6702704429626474,1.2471206188201904,0.295975923538208,2.0610592,0.29749137,4
-1.1596479415893557,-3.3325481414794917,1.4190521240234375,0.4393356740474701,2.283109,0.9645562,4
-1.0596826076507568,-2.800220727920532,1.1890180110931396,0.6046779751777649,1.3399329,0.79779,4
-0.6180726289749146,-1.950810670852661,0.6954675316810608,0.6034647226333618,0.23915374,0.6356053,4
-0.24239927530288696,-1.2038158178329468,0.2587738037109375,0.5241454243659973,-0.35033122,0.37384954,4
0.0008146932232193649,-0.7574300169944763,0.010308245196938516,0.41591677069664,-0.77518797,0.14752395,4
0.0955081358551979,-0.6716674566268921,-0.1069737821817398,0.2959975600242615,-0.79412484,-0.11881329,4
0.04951734468340874,-0.8769698143005371,-0.07110782712697983,0.21570751070976255,-0.729984,-0.26236662,4
-0.16807080805301666,-1.1981148719787598,0.12520001828670502,0.2111726552248001,-0.29046643,-0.036651913,4
-0.6403643488883972,-1.431834101676941,0.5181488394737244,0.2846916913986206,0.4428773,0.45875978,4
-1.0542229413986206,-1.4615565538406372,0.487067312002182,0.4951202571392059,1.5079208999999998,1.1175779,4
-1.1775060892105105,-1.3874317407608032,0.2627837955951691,0.7095479965209961,1.4532484,1.4905111999999998,4
-0.9272987842559814,-1.628552794456482,0.3584667444229126,0.8196132779121399,-0.56505036,1.5903877,4
-0.7995265126228333,-3.596287250518799,2.0539100170135502,0.7745072841644287,-4.5185704000000015,0.7877107,4
1.0318408012390137,-6.338336944580077,1.7179971933364868,0.6562157869338989,1.5268577,-1.1972959,4
2.5758285522460938,-8.837502479553223,3.1646859645843506,0.2933367192745209,-1.8044959,-1.185384,4
2.7742905616760254,-10.917115211486816,3.887749671936035,0.275880366563797,-3.1493158,-0.53023106,4
1.4025957584381104,-12.605402946472168,3.4407904148101807,0.036738429218530655,0.6102544,-0.6441574000000001,4
0.13999977707862854,-13.96285629272461,3.158767938613892,-0.2538878619670868,1.5268577,0.03573562,4
0.0014465410495176911,-14.925259590148926,3.009648323059082,-0.523447573184967,2.5836546,0.8720101,4
0.8198940753936768,-14.805355072021484,3.307959794998169,-0.699455201625824,1.4080443,0.9007208,4
1.92401921749115,-13.627480506896973,3.36255431175232,-0.7454023957252502,-0.15851954,-0.40378192,4
2.5303423404693604,-11.49886417388916,2.8726792335510254,-0.632178544998169,-0.8784242,-1.4242324,4
2.4917571544647217,-8.845779418945312,2.170522689819336,-0.4232300519943237,-0.49480084,-1.5604553,4
1.984820246696472,-6.274185180664063,1.6980944871902466,-0.2715315818786621,-0.109650314,-1.391551,4
1.0833249092102049,-4.208879470825194,1.5387797355651855,-0.21756821870803836,0.408058,-0.9068295,4
-0.097818985581398,-3.29467511177063,1.529335856437683,-0.17514781653881073,1.0708468,0.061086524,4
-0.761031985282898,-2.9605696201324463,1.4672826528549194,-0.06400365382432938,1.1924089,0.68386364,4
-0.7901643514633179,-2.4633584022521973,1.3006831407546997,0.07710812240839005,0.57818395,0.9440921999999998,4
-0.5607300400733948,-1.9094946384429927,0.9693140983581544,0.17038777470588684,0.12705997,0.8585710999999999,4
-0.2183640748262405,-1.333775281906128,0.5717112421989441,0.21546119451522827,0.011301007,0.6737844,4
0.02931188978254795,-0.95271235704422,0.31650227308273315,0.20571687817573547,-0.20616703,0.44104472,4
0.0971854329109192,-0.8123350143432617,0.26113513112068176,0.13162101805210116,-0.2171626,0.16218472,4
0.014005197212100029,-0.898758053779602,0.4595645368099213,0.01961910165846348,-0.35796702,0.020463986,4
-0.3391841948032379,-1.168701410293579,0.7772805690765381,-0.027877291664481163,0.39492437,0.06261369,4
-0.942903697490692,-1.4187620878219604,0.9046528935432434,0.11448045074939728,1.2357804,0.070249505,4
-1.4901539087295532,-1.4098796844482422,0.7354694604873657,0.2595985233783722,1.0983357,0.766025,4
-1.5939561128616333,-1.309959888458252,0.3428554832935333,0.3428337574005127,1.138042,1.4208726,4
-1.2308775186538696,-1.8322991132736208,0.9304183721542358,0.4274384081363678,-1.3973542,1.4627168,4
-0.8163763880729675,-4.053359508514403,2.6728360652923584,0.3727709352970123,-4.291023,1.5952746000000002,4
-0.011562671512365341,-6.76833963394165,2.23315978050232,0.3515255153179169,0.37751472,-0.73364913,4
1.2668133974075315,-9.196173667907717,2.54443883895874,0.10063374787569046,-0.3652974,-0.47952923,4
1.9114761352539065,-11.208627700805664,3.44324803352356,0.059225570410490036,-2.6083946,-0.2773328,4
1.29133939743042,-12.840710639953613,3.529296875,-0.18442723155021667,-0.7360926,-1.1908818,4
0.27893465757369995,-14.123693466186525,3.0123484134674072,-0.4301541745662689,0.90224797,-0.33292156,4
0.21696476638317108,-14.888991355895994,2.63073468208313,-0.639687716960907,1.9969184,0.7611380999999999,4
1.1554713249206543,-14.547558784484865,2.817715167999268,-0.8347368836402893,2.0607538,0.8304713,4
2.3190741539001465,-13.212936401367188,3.077700138092041,-0.8337166309356691,-1.717753,-0.65301496,4
2.879078149795532,-11.000924110412598,2.322537899017334,-0.5316442251205444,-1.6178766000000002,-2.081218,4
2.5947089195251465,-8.584524154663086,1.6016987562179563,-0.3186179101467133,-1.4459181,-1.5494597,4
1.7836066484451294,-6.40477466583252,1.165666580200195,-0.2659677267074585,0.03940081,-1.1829406,4
0.7671827077865601,-4.5109291076660165,1.3248233795166016,-0.2491833865642548,0.58123827,-0.87598073,4
-0.3487685322761536,-3.259456157684326,1.5047893524169922,-0.17466270923614502,1.4566082,-0.019547688,4
-1.1394777297973633,-2.7437469959259038,1.6151579618453982,-0.041837409138679504,2.1493294,0.6478225999999999,4
-1.327879548072815,-2.4441239833831787,1.737097978591919,0.12286769598722458,1.2849549999999998,1.0409144,4
-1.086218237876892,-2.1275975704193115,1.670799732208252,0.2966431677341461,0.3830125,0.9007208,4
-0.6275071501731873,-1.684194564819336,1.3050713539123535,0.41607573628425604,-0.30176744,0.7079928000000001,4
-0.2624244689941406,-1.244718313217163,0.8270297050476074,0.4676630795001984,-0.41783184,0.49021935,4
-0.12619294226169586,-0.9504600167274476,0.4474809467792511,0.4534468352794647,-0.029321533,0.28496864,4
-0.14405030012130735,-0.8361566662788391,0.2449290752410889,0.4298897087574005,0.43554693,0.22113322,4
-0.3128272593021393,-1.0010137557983398,0.34771010279655457,0.4247192740440369,0.5152648,0.18661933,4
-0.6943509578704834,-1.3005847930908203,0.5694751739501953,0.4660237431526184,0.6227771,0.23243423,4
-1.0241708755493164,-1.2860002517700195,0.3350912928581238,0.5336928367614746,1.4785993,0.8127562,4
-0.8532030582427979,-1.2892621755599976,-0.1359964907169342,0.5499120354652405,1.1050552,0.990518,4
-0.4138939380645752,-1.582805037498474,0.775640070438385,0.5727837681770325,-2.1087067000000004,0.9034697,4
-0.01787654310464859,-3.3003411293029785,2.1099629402160645,0.34491193294525146,-3.6997054,1.0641272,4
0.6676639318466187,-6.046333312988281,0.2788211405277252,0.22350969910621646,2.1044307,-1.1218541000000002,4
1.263255953788757,-8.582796096801758,1.8760796785354612,-0.5147558450698853,0.8772025,-0.37690386,4
0.4815765619277954,-10.70671272277832,3.470670223236084,-0.3981441557407379,-0.40561453,-0.50854534,4
-0.6705930233001709,-12.43526840209961,3.9050581455230713,-0.26373133063316345,-0.754724,-0.43982297,4
-1.2164343595504759,-13.788323402404785,4.154580593109132,-0.4139094650745392,-0.15821409,0.50885075,4
-0.3484064042568207,-14.297749519348145,3.931788921356201,-0.3324428498744965,0.50701815,0.86437434,4
1.2062811851501465,-13.560072898864744,3.2310147285461426,-0.31582993268966675,-1.0760391000000002,-0.06841691,4
2.425793170928955,-11.55937385559082,2.402539014816284,-0.358785480260849,-1.6536123,-1.6523905,4
2.4298713207244877,-9.13667106628418,1.6754727363586426,-0.316998302936554,-1.609019,-2.1276436000000003,4
1.2073835134506226,-7.13994026184082,1.342144250869751,-0.2881680428981781,-1.2321151,-1.9364429,4
-0.4397679567337036,-5.307372093200684,0.6572381258010864,-0.3338408172130585,1.3976597,-0.8521569999999999,4
