acc_x,acc_y,acc_z,gyro_x,gyro_y,gyro_z,label
0.0,0.0,0.0,0.0,-0.13652839,-0.0076358155,1
-0.005546330474317074,0.2901621460914612,0.00033158206497319037,-0.0009289399022236466,-0.12156218,-0.0061086523,1
-0.0172647163271904,0.9812833070755004,0.0012481097364798188,-0.004492365289479494,-0.063224554,-0.0036651916,1
-0.031083181500434875,1.936514139175415,0.002716894960030913,-0.009291852824389936,0.0143553335,-0.002443461,1
-0.04349519312381744,3.0047082901000977,0.004617664963006972,-0.010195896960794927,0.06963864,-0.01038471,1
-0.0523405596613884,4.064537048339844,0.006798268761485815,-0.0048582758754491815,0.054061573,-0.021991149,1
-0.056658200919628136,5.039919853210449,0.009129872545599936,0.004214694257825613,0.056199603,-0.030848695,1
-0.05638642236590385,5.894791603088379,0.011517941020429134,0.008074945770204067,0.08155051,-0.020158553,1
-0.051937099546194083,6.620346546173097,0.01390312984585762,0.0009303368278779088,0.15302174,0.019242255,1
-0.04393071681261063,7.223167896270753,0.016250940039753914,-0.011039246805012226,0.17043139999999998,0.051618114000000014,1
-0.03374672308564186,7.716504096984862,0.017877642065286636,-0.02225478179752827,0.10415252,0.043676864,1
-0.036640405654907234,8.118219375610353,-0.002287824172526598,-0.031380925327539444,0.04337143,0.03390302,1
-0.03531574085354805,8.458734512329103,-0.061483293771743774,-0.03906616941094399,0.04153884,0.03390302,1
-0.02789436280727386,8.739020347595215,-0.1160721555352211,-0.045203175395727165,0.08307768,0.022602014,1
-0.0245598778128624,8.969237327575684,-0.1427268534898758,-0.04919332265853882,0.14385876,0.025350908,1
-0.030102858319878575,9.152467727661133,-0.1297139972448349,-0.04902758449316025,0.16646078,0.0290161,1
-0.0337667278945446,9.293633460998537,-0.09297767281532288,-0.04568151384592056,0.1518,0.0290161,1
-0.0410308949649334,9.398324966430664,-0.04156550019979477,-0.04055812954902649,0.12217305,0.032070424,1
-0.04685714095830917,9.480295181274414,-0.0019147288985550406,-0.035833261907100684,0.109650314,0.032986723,1
-0.044430170208215714,9.55102252960205,0.02740902453660965,-0.03379758447408676,0.10170906,0.02076942,1
-0.020144231617450714,9.614806175231934,0.04320843890309334,-0.035274099558591836,0.12095132,0.020158553,1
0.023984244093298912,9.67768383026123,0.040647055953741074,-0.03821799904108048,0.11636983,0.022602014,1
0.07684914022684097,9.73501968383789,0.01886947639286518,-0.03928995132446289,0.106901415,0.029932396,1
0.11519009619951248,9.776904106140137,-0.01702249422669411,-0.037743043154478066,0.06597344599999999,0.029321533,1
0.13805660605430606,9.804471969604492,-0.0440247505903244,-0.03386808186769485,0.02076942,0.02565634,1
0.14700336754322052,9.822856903076172,-0.06381416320800781,-0.02988091297447681,-0.009162978,0.025350908,1
0.1423407644033432,9.831768035888672,-0.08138757199048996,-0.02698290534317493,-0.014049901000000002,0.0290161,1
0.1190679594874382,9.847051620483398,-0.08953035622835159,-0.0253031961619854,-0.01740966,0.022296581,1
0.0648142471909523,9.853766441345217,-0.0944862961769104,-0.02270928211510181,0.01985312,0.026572637000000003,1
-0.009543103165924549,9.85161304473877,-0.08379151672124863,-0.017990432679653168,0.06627888,0.025961773,1
-0.06908424198627472,9.849435806274414,-0.06820525228977202,-0.01172728557139635,0.11942416,0.032375857,1
-0.09830791503190994,9.843780517578123,-0.048997770994901664,-0.006470357533544302,0.1282817,0.024129177,1
-0.10482946038246156,9.831673622131348,-0.05222873017191887,-0.00534385908395052,0.18387043,0.01740966,1
-0.09858345240354538,9.819765090942383,-0.06502571702003479,-0.006282644812017679,0.1777618,0.008552114,1
-0.08171476423740387,9.81539249420166,-0.08301740884780884,-0.006651846691966057,0.15913039999999998,0.009773844,1
-0.04015490412712097,9.82796573638916,-0.10850247740745544,-0.004711361136287451,0.1160644,0.022296581,1
0.009480769746005535,9.845795631408693,-0.14229974150657654,-0.0008374209282919765,0.08216137400000001,0.022907447,1
0.031115163117647168,9.860013961791992,-0.16873407363891602,0.0056171827018260964,0.06352998,0.018020526,1
0.036101166158914566,9.85806941986084,-0.1844735145568848,0.010265578515827656,0.06169739,0.02076942,1
0.048680782318115234,9.85444450378418,-0.18877291679382324,0.0068119317293167106,0.059864793,0.014660766,1
0.05560997128486633,9.850839614868164,-0.17784753441810608,-0.003190777264535427,0.0143553335,0.01160644,1
0.06507453322410582,9.858256340026855,-0.1448061615228653,-0.012935670092701912,-0.047647487,-0.0030543262,1
0.09864325821399687,9.875746726989746,-0.13470403850078586,-0.01992117054760456,-0.103847094,-0.0143553335,1
0.16047920286655426,9.89793586730957,-0.15492208302021027,-0.02567192167043686,-0.13011430000000002,-0.018325957,1
0.22624529898166654,9.924819946289062,-0.20193494856357572,-0.02575063891708851,-0.18997909,0.008246681,1
0.25609859824180603,9.944050788879396,-0.2503257095813751,-0.00818966142833233,-0.3191771,0.004581489,1
0.2419269382953644,9.971531867980957,-0.3499186336994171,0.017725059762597084,-0.24129178,-0.004886922,4
0.18499420583248136,10.014065742492676,-0.4317063391208649,0.049856312572956085,-0.15821409,-0.027183503,4
0.07823716104030609,10.03736972808838,-0.4901549518108368,0.10067039728164673,-0.16249016,-0.087659165,4
-0.06463697552680969,10.02136516571045,-0.5646715760231018,0.168513685464859,-0.25503623,-0.19761491,4
-0.2353068143129349,9.94440460205078,-0.6405172348022461,0.2627715170383453,-0.37110063,-0.39553526,4
-0.4808520674705506,9.775373458862305,-0.7224912047386169,0.38807472586631775,-0.56688297,-0.79412484,4
-0.8247285485267639,9.468151092529297,-0.9181634187698364,0.5573040843009949,-0.7690793,-1.3439035,4
-1.1735488176345823,9.111044883728027,-1.162490963935852,0.7666317224502563,-0.88239485,-1.6447546000000002,4
-1.413782835006714,8.701294898986816,-1.1540709733963013,1.0351798534393308,-1.2592987,-1.8078557,4
-1.4327743053436282,8.280148506164549,-1.116012692451477,1.2462040185928345,-0.999681,-1.7464638,4
-1.143878698348999,8.020052909851074,-1.6310608386993408,1.3482296466827393,0.32009340000000003,-1.3051136,4
-0.7067233324050903,7.990743637084961,-2.332834005355835,1.3423140048980713,0.6621779000000001,-0.52290064,4
-0.8021867871284485,8.137617111206055,-2.52150821685791,1.3640143871307373,0.46609017,0.106901415,4
-1.3869140148162842,8.495123863220215,-1.872881531715393,1.2544410228729248,-0.1777618,-0.17562376,4
-1.7696049213409424,9.577754974365234,-2.1023297309875493,1.006221055984497,0.52656585,-0.2593123,4
-1.9203943014144895,11.05030345916748,-2.644084453582764,0.7645837068557739,0.8961393,0.35643986,4
-2.1917479038238525,12.568441390991213,-2.8894498348236084,0.4834995269775391,-0.071776666,1.0900891,4
-2.201788663864136,13.902419090270994,-3.192251920700073,0.166008859872818,0.64568454,1.6511686999999995,4
-2.167083263397217,15.001808166503904,-3.521202564239502,-0.09933537244796753,1.0946705,1.488984,4
-2.15039610862732,15.874282836914062,-3.7011716365814213,-0.29429927468299866,0.84421575,0.95325524,4
-1.8918628692626955,15.97703742980957,-3.734865665435791,-0.4113603234291077,0.65240407,0.6951646,4
-1.5653541088104248,15.050654411315918,-3.481431722640991,-0.4391458630561829,0.711658,0.58368176,4
-1.3954695463180542,13.337626457214355,-2.885072946548462,-0.4205708801746368,0.57635134,0.43127087,4
-1.21431303024292,11.14435863494873,-2.2163631916046143,-0.3809862434864044,0.27702740000000003,0.38087448,4
-1.0049073696136477,8.813532829284668,-1.7823606729507446,-0.3321318328380585,0.21624629,0.35918877,4
-0.8375068306922913,6.8039207458496085,-1.5826326608657837,-0.2857348918914795,0.13194689,0.14110987,4
-0.7767370939254761,5.284828186035156,-1.7011450529098509,-0.24721747636795044,0.040317107000000005,-0.14752395,4
-0.8773133158683777,4.137559413909912,-1.99125075340271,-0.1915515810251236,-0.112399206,-0.37720928,4
-0.9879645109176636,3.1626839637756348,-1.8938441276550293,-0.123381569981575,-0.34025195,-0.37384954,4
-0.9992517828941344,2.3511807918548584,-1.4795011281967163,-0.09472391754388808,-0.21960606,-0.28771752,4
-0.9781539440155028,1.7791227102279663,-1.2014894485473633,-0.13125477731227875,0.29718593,-0.28008172,4
-1.0512142181396484,1.4956170320510864,-1.041824221611023,-0.19573795795440674,0.6563747,-0.3924809,4
-1.1641499996185305,1.466693878173828,-0.8300310373306274,-0.2731519639492035,0.7367035,-0.5354234,4
-1.1896100044250488,1.6566585302352903,-0.7572371363639832,-0.3582460880279541,0.22174409,-0.689056,4
-1.1850570440292358,2.2226948738098145,-1.126990795135498,-0.39631772041320795,0.12156218,-0.90316427,4
-1.193594455718994,3.39535927772522,-1.7471635341644287,-0.2290773391723633,0.3567453,-1.074512,4
-0.499605119228363,5.207303524017334,-1.832573652267456,0.023893719539046288,0.65301496,-0.5522222,4
0.8730223178863525,7.244320869445801,-2.268309593200684,0.27323633432388306,2.3020456,0.32528573,4
0.9522331953048706,9.40606689453125,-2.710891962051392,0.5845449566841125,-1.2745703000000002,-1.4785993,4
-0.5779404044151306,11.277562141418455,-2.5988266468048096,0.977578341960907,-2.6575692,-2.903137,4
0.3987536430358887,12.496299743652346,-3.1614201068878174,1.0142443180084229,1.5467108,-0.589485,4
0.3851245939731598,13.282021522521973,-2.257466554641724,0.8446673154830933,0.38637227,1.1404854,4
-0.4602072238922119,14.269404411315918,-2.528240442276001,0.4360485374927521,-0.47219884,1.7675385,4
-0.9801803827285768,15.237361907958984,-2.786338329315185,0.12704092264175415,0.41141775,1.1136073,4
-1.6904302835464478,15.901812553405762,-2.729610681533813,-0.18594788014888766,-0.34330627,0.73761976,4
-2.142369747161865,16.330337524414062,-3.0486059188842773,-0.46858096122741705,-0.057421334,0.6792821,4
-2.192636013031006,15.927043914794922,-3.348179817199707,-0.6432527899742126,0.14355333,0.5360342,4
-1.816449284553528,14.443507194519045,-3.3840155601501465,-0.7141935229301453,0.49113566,0.5195409000000001,4
-1.3651001453399658,12.445371627807615,-3.0856168270111084,-0.7089887261390686,0.59803706,0.68325275,4
-1.0413661003112793,10.16608715057373,-2.6034903526306152,-0.6530253291130066,0.5687156,0.96944314,4
-0.9162744879722596,7.836077690124513,-2.096529483795166,-0.5953046679496765,0.310625,1.0769554,4
-0.9298483729362488,5.766932964324951,-1.7913124561309814,-0.5473772287368774,0.13652839,0.77366084,4
-1.049602508544922,4.258972644805908,-1.8019378185272217,-0.5048988461494446,0.035124752999999995,0.2919936,4
-1.2681182622909546,3.35639762878418,-2.0421993732452397,-0.4833969175815582,-0.4071417,-0.058643065,4
-1.628859281539917,2.845686197280884,-2.3292582035064697,-0.4611360132694245,-0.59956425,-0.5222898,4
-2.0068917274475098,2.4680712223052983,-2.2282073497772217,-0.4218836128711701,-0.29840767,-0.97219205,4
-1.9122133255004885,1.9856948852539065,-1.422035574913025,-0.3872956335544586,-0.1966986,-0.9841039,4
-1.3985471725463867,1.5988826751708984,-0.833965539932251,-0.38126954436302185,0.004581489,-0.59406644,4
-0.7824652194976807,1.6065294742584229,-0.6790273785591125,-0.3646832704544067,0.1777618,-0.37568212,4
-0.2727471590042114,2.1661550998687744,-1.0531384944915771,-0.3008619248867035,0.3933972,-0.5030475000000001,4
-0.061626996845006936,3.711560487747192,-2.1225454807281494,-0.09991592168807983,0.29718593,-0.66614854,4
0.10993388295173644,6.1874752044677725,-2.6385867595672607,0.24717356264591214,0.34972036,-0.6747006999999999,4
0.26428624987602234,8.647655487060549,-2.485039234161377,0.614211916923523,0.26175576,-0.5824600000000001,4
0.2546253800392151,10.27906322479248,-1.810146808624268,0.9638922810554504,-0.5540548000000001,-0.7626653,4
-0.10723546892404556,11.554193496704102,-1.5908471345901491,1.0111523866653442,-1.3014483,-0.5674938,4
-0.762257993221283,12.95893669128418,-1.805981993675232,0.8594642281532288,-0.8857546000000001,-0.0027488936,4
-1.3995404243469238,14.218207359313965,-2.1451382637023926,0.5713858008384705,-0.17012598,0.5708536,4
-1.9993342161178589,15.259509086608887,-2.348926067352295,0.2487653940916061,-0.16920967,0.84482664,4
-2.557767629623413,16.097505569458008,-2.643204927444458,-0.05476134270429611,0.18081611,0.9074403,4
-2.850393533706665,16.60078239440918,-2.9387779235839844,-0.28177061676979065,0.4792238,0.72784597,4
-2.66729998588562,16.39521598815918,-3.09383487701416,-0.40770378708839417,0.43982297,0.6078109,4
-2.1501131057739262,15.407634735107422,-3.102898597717285,-0.43906518816947937,0.42241332,0.61544675,4
-1.595775485038757,13.863151550292967,-2.943192481994629,-0.40604713559150696,0.39095375,0.61758476,4
-1.204473853111267,11.823208808898926,-2.5082073211669917,-0.3339252769947052,0.21166481,0.6805039,4
-1.0682514905929563,9.403008460998537,-1.9404947757720947,-0.27113035321235657,0.087659165,0.68386364,4
-1.0636739730834959,7.2130985260009775,-1.620293378829956,-0.2400904893875122,0.39767328,0.52564955,4
-1.0751208066940308,5.427404880523682,-1.4913071393966677,-0.2288467586040497,0.57543504,0.2565634,4
-1.0716149806976318,4.145975112915038,-1.534512639045715,-0.21680596470832825,0.4269948,0.018325957,4
-1.0530599355697632,3.2892446517944336,-1.6374605894088743,-0.1877903789281845,-0.06841691,-0.08674286,4
-1.140670657157898,2.713583707809448,-1.549386739730835,-0.14003314077854154,-0.35216382,-0.22540927,4
-1.2360951900482178,2.2240235805511475,-1.3853027820587158,-0.10226354748010637,-0.4025602,-0.38637227,4
-1.3326753377914429,1.7592893838882446,-1.229359745979309,-0.08064310252666472,-0.6374379,-0.6020076999999999,4
-1.4318203926086426,1.4029816389083862,-1.1454620361328125,-0.061384517699480064,-0.86376345,-0.79351395,4
-1.4585726261138916,1.3703913688659668,-1.0968759059906006,-0.04504697769880295,-0.7672467,-0.8738427,4
-1.3767720460891724,1.8668285608291624,-1.2108885049819946,-0.043130606412887566,-0.5742133,-0.8179486,4
-1.1236306428909302,3.144587516784668,-1.8507887125015257,0.09936276078224182,0.24404067,-0.7357872,4
-0.6399474143981934,5.404246330261231,-2.8142178058624268,0.3208094537258148,1.3622295,-0.6924158,4
-0.6841496825218201,7.936124324798584,-3.5189640522003174,0.6557487845420837,0.43676865,-0.9691377,4
-1.0018360614776611,10.157022476196287,-2.7568836212158203,0.9269381761550904,-0.4877759,-0.7535023000000001,4
-1.4211684465408323,11.974953651428224,-2.371872901916504,0.9700397849082948,-1.0519098999999998,-0.46028697,4
-1.665651798248291,13.456482887268065,-2.446998119354248,0.7404938340187073,-0.6640105,0.33078352,4
-1.6360832452774048,14.651150703430176,-2.4632012844085693,0.38276174664497375,-0.2932153,1.1145236,4
-1.659488081932068,15.5382080078125,-2.354722023010254,-0.002354293828830123,-0.14935656,1.4575243999999998,4
-1.877504825592041,15.84933376312256,-2.202251434326172,-0.33357110619544983,-0.058643065,1.1905763,4
-1.953696370124817,15.394197463989258,-2.3422138690948486,-0.569257378578186,0.19425514,0.74006325,4
-1.7613738775253296,14.35374927520752,-2.5077078342437744,-0.6651425361633301,0.21135938,0.59528816,4
-1.4763245582580566,12.733997344970705,-2.368781089782715,-0.6539798974990845,-0.045814894,0.59650993,4
-1.1674457788467407,10.6589994430542,-2.052163600921631,-0.6292445063591003,-0.19150625,0.729984,4
-0.8654497861862183,8.447918891906737,-2.0119998455047607,-0.6260679960250854,0.23976462,0.67164636,4
-0.6102450489997864,6.428359508514403,-2.21565055847168,-0.6106785535812378,0.5128214,0.6160576,4
-0.7947938442230225,4.809075832366943,-2.569931983947754,-0.5232665538787842,0.2669481,0.124311075,4
-1.5333523750305176,3.737483024597168,-2.810906887054444,-0.3326346278190613,-0.0027488936,-0.32467487,4
-2.0766043663024902,2.914627313613892,-2.333019733428955,-0.1469137966632843,-0.3924809,-0.58123827,4
-2.1187310218811035,2.274064540863037,-1.626878023147583,-0.06533654779195787,-0.31398472,-0.6411031,4
-1.7887564897537231,1.794231414794922,-1.1205984354019165,-0.024178069084882736,0.30176744,-0.6731735,4
-1.2885611057281494,1.4233883619308472,-0.8013091087341309,0.0047060451470315465,0.61911196,-0.70096785,4
-0.7770015001296997,1.2259440422058103,-0.5999085307121277,-0.011727792210876942,-0.0067195175,-0.7293731,4
-0.3874224424362183,1.5037081241607666,-0.4083227515220642,0.0019262057030573487,-0.86345804,-0.816116,4
-0.3519376516342163,2.921098232269287,-0.6555008292198181,0.0641607791185379,-1.6355917,-1.3170254,4
-0.3911465406417847,5.442520618438722,-1.5870223045349119,0.12854872643947599,-1.9984456,-1.5674802,4
-0.3832558989524841,8.024282455444336,-2.2161173820495605,0.28635698556900024,-0.267559,-0.8167268,4
-0.7859144806861877,10.238819122314453,-2.222249746322632,0.4220788180828095,-0.2012801,-0.010995574,4
-1.711971640586853,12.055208206176758,-2.3479866981506348,0.4737726151943207,0.8781188,0.1423316,4
-2.59907341003418,13.524672508239744,-1.7329500913619995,0.4066714644432068,-0.34055737,0.27152961,4
-2.990124225616455,14.67909049987793,-1.4288574457168581,0.20204369723796844,-0.30848694,0.50823987,4
-3.125058889389038,15.545268058776855,-1.5570129156112669,0.017801716923713684,0.046120327,0.75441855,4
-3.054243326187134,16.159753799438473,-2.0108566284179688,-0.10056006908416748,0.3817908,0.8668178,4
-2.818403959274292,15.96331024169922,-2.243776798248291,-0.17606040835380554,0.3915646,0.689056,4
-2.5575978755950928,14.862344741821287,-2.1237895488739014,-0.20391376316547394,0.09682214,0.42149702,4
-2.318585157394409,13.197084426879885,-1.8394508361816408,-0.1649218201637268,-0.28710666,0.3042109000000001,4
-2.1011345386505127,11.191864967346193,-1.610795259475708,-0.09172581881284714,-0.2855795,0.19211712,4
-2.0081796646118164,9.031627655029297,-1.5987341403961182,-0.03528066724538803,0.28619036,0.11484267,4
-2.077117919921875,6.983095645904541,-1.4783035516738892,-0.032717615365982056,0.37201694,0.058643065,4
-2.1240091323852544,5.299919605255127,-1.1555896997451782,-0.08697108924388885,0.08216137400000001,0.048258353,4
-1.6394981145858765,4.2898311614990225,-0.9782706499099731,-0.14806269109249115,0.42394048,0.22174409,4
-1.1374586820602417,3.607404947280884,-0.8121699094772339,-0.2266928106546402,0.4266894,0.23701571,4
-0.848132848739624,3.097562074661255,-0.7662743926048279,-0.3385652005672455,0.21380283,0.017104227,4
-0.8672058582305908,2.7209391593933105,-0.7806079387664795,-0.4426064491271973,-0.54367006,-0.41996986,4
-1.1074340343475342,2.358752012252808,-0.9566580653190612,-0.4429793655872345,-1.1972959,-0.91721416,4
-1.3702230453491209,1.9655234813690183,-1.3215632438659668,-0.2728037536144257,-1.1157454,-1.1829406,4
-1.5677584409713743,1.7080316543579102,-1.5375587940216064,0.004199176095426083,-1.5265521999999998,-1.3063353000000002,4
-1.6533702611923218,2.1829402446746826,-1.8080302476882932,0.2718084454536438,-1.6221527,-1.3121386,4
-1.1695959568023682,3.901447296142578,-2.4706268310546875,0.3801754713058472,0.31245756,-0.9370673,4
-0.8221597075462341,6.48176908493042,-3.563327550888061,0.542030394077301,2.0888536,-0.49296826,4
-2.0531597137451167,8.963088989257812,-2.6728525161743164,0.7515379190444946,-1.067487,-1.1939361000000002,4
-3.025144100189209,11.026434898376463,-3.2826452255249023,0.8186083436012268,1.244638,-0.86162543,4
-2.747931957244873,12.695630073547365,-2.509627103805542,0.8621767163276672,0.4654793,0.24953845,4
-2.2306480407714844,14.036436080932615,-1.9144241809844968,0.6853736042976379,0.5204572000000001,1.2880094,4
-2.018463373184204,15.111346244812012,-1.310558199882507,0.37324994802474976,0.46853364,1.5839735,4
-1.8722617626190183,15.87950038909912,-0.8083424568176271,-0.017526142299175262,0.10567969,1.5021176,4
-1.6945297718048096,16.230670928955078,-0.5892493724822998,-0.3875013291835785,0.24007004,1.3924674,4
-1.49532151222229,15.942597389221193,-0.8023279905319214,-0.632790744304657,0.47708577,1.2073752,4
-1.3538411855697632,15.231279373168945,-1.3060898780822754,-0.7094206213951111,0.7470882,1.0842858999999998,4
-1.3695727586746216,13.99022102355957,-1.502256155014038,-0.6619436740875244,0.18112154,0.94225967,4
-1.5250641107559204,12.131604194641113,-1.5274014472961426,-0.6018650531768799,0.02443461,0.8530733,4
-1.6690043210983276,9.926865577697754,-1.7554978132247925,-0.601648211479187,0.15790866,0.68691796,4
-1.7672090530395508,7.696505069732666,-2.4359354972839355,-0.6231063604354858,0.15821409,0.41508293,4
-2.0979950428009038,6.070176601409912,-3.182234764099121,-0.5496765971183777,-0.1994475,-0.04734206,4
-2.643963098526001,5.016912937164307,-3.277005672454834,-0.3206248879432678,-0.76144356,-0.70616025,4
-2.832837581634521,3.9021625518798833,-2.4263384342193604,-0.1613556146621704,-1.10139,-0.6658430999999999,4
-2.4938795566558842,2.678161382675171,-1.0964283943176272,-0.17132197320461273,-0.8717046999999999,-0.44806966,4
-1.9722634553909304,1.83497953414917,-0.2099248319864273,-0.2579677999019623,0.35888332,-0.32345316,4
-1.589011549949646,1.4359694719314575,0.2817075848579407,-0.3153007924556732,0.66675943,-0.45081854,4
-1.21855890750885,1.395598530769348,0.4713894426822662,-0.3706373870372772,0.21746802,-0.5882632,4
-0.6303836107254028,1.7889275550842283,0.11713211238384247,-0.3807298541069031,-0.015882496,-0.61422503,4
0.07998856902122498,3.300104856491089,-0.9012914299964904,-0.2741147875785828,-0.20158553,-0.453262,4
0.6361750960350037,5.626787662506104,-1.5616010427474976,-0.09521406143903732,-0.9615019,-1.0815369,4
0.5450481772422789,8.152839660644531,-1.4359047412872314,0.050315510481595986,-2.4019222,-0.7993172,4
-0.04532994329929352,10.359447479248047,-1.6471436023712158,0.2019088864326477,-1.0137309,-0.2669481,4
-1.4575624465942385,12.15642261505127,-1.1653896570205688,0.3390129804611206,0.77121735,0.14996742,4
-2.978163480758667,13.605730056762695,-1.023850679397583,0.2742941677570343,-0.8863655,0.37201694,4
-3.554020881652832,14.728981971740724,-1.2036702632904053,0.1901284456253052,1.3084733,0.92485,4
-3.4220697879791264,15.573631286621096,-1.2168089151382446,0.09098340570926666,0.81306165,0.9944886,4
-2.8377482891082764,16.094749450683597,-1.1565439701080322,-0.006176588591188192,0.3643811,0.81581056,4
-2.276465654373169,15.991202354431152,-1.141680359840393,-0.052655018866062164,-0.008552114,0.7049385,4
-1.8179428577423096,15.254464149475098,-1.1839220523834229,-0.0524730496108532,-0.04153884,0.66339964,4
-1.558563470840454,13.724696159362793,-1.22455894947052,-0.010012686252593994,-0.09865474,0.55863625,4
-1.4598671197891235,11.693161010742188,-1.0507235527038574,0.06853730231523514,-0.1328632,0.4279111,4
-1.3867756128311155,9.356955528259276,-0.5906445980072021,0.1230645403265953,-0.2443461,0.25228736,4
-1.353701114654541,7.087110996246338,-0.2464008927345276,0.0784645527601242,-0.22327125,0.10476339,4
-1.3548564910888672,5.277435779571533,-0.2786262929439545,0.0028279561083763838,0.08124508,0.10170906,4
-1.3693217039108276,4.079802989959717,-0.4527806639671326,-0.07482733577489853,0.3436117,0.093462385,4
-1.3716228008270264,3.3567218780517583,-0.5742870569229126,-0.1510847806930542,0.32162055,-0.008246681,4
-1.3844366073608398,2.9189815521240234,-0.7094687819480896,-0.20293009281158447,0.2134974,-0.28588495,4
-1.4617631435394287,2.568923234939575,-0.7552845478057861,-0.19821451604366305,-0.35216382,-0.6728681,4
-1.6297911405563354,2.1858787536621094,-0.6641163825988771,-0.1481984406709671,-1.0057896000000002,-1.0732902,4
-1.791146159172058,2.0633974075317383,-0.6304671764373779,-0.06302840262651442,-1.2406673,-1.4666874,4
-1.6839563846588137,2.776444673538208,-0.9724721908569336,0.037212897092103965,-0.2782491,-1.4840971,4
-1.1454379558563232,4.4737653732299805,-1.627953290939331,0.21758323907852173,0.7089091,-1.0390818000000002,4
-0.6845188736915588,6.879719734191895,-2.650530815124512,0.4318479597568512,1.1417072,-1.0797043,4
-1.3030788898468018,9.2311372756958,-2.652925729751587,0.7183124423027039,0.6450737,-1.1236867,4
-1.5798196792602541,11.214658737182617,-1.6903245449066162,0.9555226564407348,0.25411993,-0.12217305,4
-1.2742375135421753,12.81123161315918,-1.1631684303283691,0.9154783487319946,0.3371976,0.44348818,4
-1.236761450767517,14.12295913696289,-0.8177306056022644,0.68058842420578,-0.6041456999999999,0.65057147,4
-1.1942377090454102,15.185246467590332,-0.8390591740608215,0.3648267388343811,-0.41141775,0.9419542,4
-1.4306776523590088,16.023187637329098,-1.0702748298645022,0.07218772917985916,-0.29901853,1.1456778,4
-1.676134467124939,16.380998611450195,-1.3848608732223509,-0.1564803570508957,-0.014049901000000002,1.1585059,4
-1.7925080060958862,16.111833572387695,-1.7686772346496582,-0.30370721220970154,0.34819320000000004,0.95111716,4
-1.7183233499526978,15.272299766540527,-2.0348317623138428,-0.351971447467804,0.49266282,0.84116143,4
-1.6015176773071291,14.039563179016113,-2.0848157405853267,-0.3229973912239075,0.48533243,0.8524625,4
-1.516303539276123,12.145554542541506,-1.792580008506775,-0.2825184166431427,0.124311075,0.8555168,4
-1.420905590057373,9.927103042602539,-1.4520304203033447,-0.2833924889564514,0.038789943,0.8921687,4
-1.440699338912964,7.639397144317628,-1.537920355796814,-0.3246970474720001,0.52778757,0.45753807,4
-1.6076594591140747,5.81648063659668,-2.0194566249847408,-0.3448032736778259,0.7095199999999999,0.09285152,4
-2.0783016681671143,4.6205363273620605,-2.2769110202789307,-0.293755441904068,0.25534168,-0.37690386,4
-2.521413803100586,3.8287112712860103,-2.0737049579620357,-0.22194255888462067,0.014660766,-0.8527679,4
-2.5361969470977783,3.167170763015747,-1.611358880996704,-0.17834453284740448,0.051618114000000014,-0.94714653,4
-2.1459801197051998,2.586169958114624,-1.013421654701233,-0.15767936408519745,0.25350907,-0.8784242,4
-1.485169768333435,2.1229503154754643,-0.5288604497909546,-0.11990497261285782,0.14691310000000002,-0.657291,4
-0.7807232141494751,1.9498368501663208,-0.4328940212726593,-0.058852382004261024,-0.106901415,-0.49480084,4
-0.12463811039924623,2.2767996788024902,-0.6874473094940186,-0.022998595610260963,-0.35246924,-0.42394048,4
0.21364259719848636,3.15126895904541,-1.276349425315857,0.07386408001184464,-0.4166101,-0.5879578000000001,4
0.03712635114789009,4.714892864227295,-1.8320883512496948,0.1581977605819702,-0.28313604,-1.0613784,4
-0.5639402866363525,7.040566444396973,-2.3284070491790767,0.19382184743881226,0.5119051,-1.1551461,4
-1.3995739221572876,9.38826847076416,-1.976458549499512,0.3786028623580933,0.6979135000000001,-0.32192600000000005,4
-2.0684051513671875,11.364428520202635,-1.4869680404663086,0.5083885788917542,-0.21227567,-0.60994893,4
-2.039890050888061,12.96713638305664,-1.1909079551696775,0.5033084154129028,-0.49877146,0.106595986,4
-1.5166178941726685,14.25723648071289,-1.1563563346862793,0.3123474419116974,-0.32406402,0.97494096,4
-1.1585612297058103,15.246627807617188,-1.136776566505432,0.02412261813879013,-0.19517145,1.486846,4
-1.1019941568374634,15.859662055969238,-1.217710256576538,-0.2501814663410187,0.08093964,1.3658947,4
-1.288876175880432,15.760103225708008,-1.363672375679016,-0.4442700743675232,-0.0033597588,0.99021256,4
-1.610038161277771,15.01594066619873,-1.5621427297592163,-0.5400623679161072,0.13103059,0.6282749,4
-1.7648245096206665,13.81008243560791,-1.7117997407913208,-0.5336573123931885,-0.030848695,0.5119051,4
-1.5995384454727173,12.051721572875975,-1.6108838319778442,-0.4514287114143372,-0.07269296,0.4364632000000001,4
-1.2789413928985596,9.953121185302734,-1.335248947143555,-0.35529184341430664,-0.44257188,0.30207285,4
-0.9581912755966188,7.859004497528076,-1.2145307064056396,-0.3018926680088043,-0.398895,0.25900686,4
-0.8465343713760376,5.97189998626709,-1.334158420562744,-0.2692714035511017,-0.28313604,0.12858713,4
-1.0624346733093262,4.568540096282959,-1.6286952495574951,-0.20002134144306186,-0.050396383,-0.23548855,4
-1.3348677158355713,3.5988166332244877,-1.7548128366470337,-0.09328314661979677,0.15088372,-0.36071593,4
-1.4549258947372437,2.86061954498291,-1.5204133987426758,-0.018901513889431957,0.21197024,-0.5180137,4
-1.4194862842559814,2.336745500564575,-1.0971302986145022,-0.0009236726909875869,-0.0888809,-0.6450737,4
-1.2569543123245241,1.9729976654052732,-0.8163937926292419,0.005711889825761318,-0.24984388,-0.7357872,4
-0.9989281296730042,1.7953563928604126,-0.6581437587738037,0.05662127956748009,-0.75136423,-0.8564331000000001,4
-0.7402228116989136,1.9502192735672,-0.7581118941307068,0.13537925481796265,-1.5228871000000002,-1.0677924,4
-0.5770878195762634,3.022002696990967,-0.7913570404052734,0.2973500192165375,-1.423316,-1.105666,4
-0.500925600528717,5.221090316772461,-1.0698635578155518,0.33775487542152405,-0.8933904,-1.1655309,4
-0.9018043875694276,7.607907295227051,-1.71371328830719,0.4695218801498413,-0.20952678,-1.3863586,4
-1.114829421043396,9.293423652648926,-1.6722922325134275,0.6933313012123108,0.7666359,-0.4007276,4
-1.5121549367904663,10.97807502746582,-1.6753692626953125,0.7596533298492432,1.2782356,0.1151481,4
-2.806119441986084,12.575907707214355,-0.9879389405250548,0.6681126952171326,-0.8686504,-1.022283,4
-3.345375299453736,13.924583435058596,-1.1169425249099731,0.4814195334911346,-0.40286562,-0.32406402,4
-2.9249558448791504,15.024065017700195,-1.747611403465271,0.3107067346572876,0.5708536,0.7244862,4
-2.373650312423706,15.903883934020994,-1.7933430671691897,0.12893269956111908,0.6545420999999999,1.4431691,4
-2.0981996059417725,16.516410827636722,-1.6620737314224243,-0.05825357511639595,0.27214047,1.63437,4
-1.948217868804932,16.463651657104492,-1.769690752029419,-0.2049805074930191,0.63255095,1.3811663,4
-1.795382380485535,15.709043502807615,-1.900568127632141,-0.29660215973854065,0.70646566,1.171945,4
-1.7027859687805176,14.395914077758787,-1.9366041421890257,-0.34461042284965515,0.5491679,0.9957104,4
-1.6673893928527832,12.584200859069824,-1.745404839515686,-0.3682031631469727,0.13958271,0.8020661,4
-1.5523843765258791,10.471171379089355,-1.4420229196548462,-0.4042684733867645,-0.16707164,0.7107416999999999,4
-1.3784987926483154,8.363975524902344,-1.3371505737304688,-0.4601255059242249,-0.1337795,0.63071835,4
-1.3177285194396973,6.392704963684082,-1.4637595415115356,-0.4824419021606445,-0.20586158,0.48258355,4
-1.5550482273101809,4.800763130187988,-1.8102147579193115,-0.4238886833190918,-0.1255328,0.026572637000000003,4
-2.037477731704712,3.7055861949920654,-2.233813762664795,-0.28319093585014343,0.03634648,-0.3368922,4
-2.580408334732056,2.902768611907959,-2.369281053543091,-0.11524222791194914,-0.16584991,-0.74006325,4
-2.8898229598999023,2.2734270095825195,-2.0647935867309566,0.01917718164622784,-0.44776422,-1.0290025,4
-2.691347599029541,1.8290872573852541,-1.3787355422973633,0.10629704594612123,-0.820392,-0.9779953,4
-1.7247867584228516,1.620090126991272,-1.1701496839523315,0.16407014429569244,-0.086132,-0.44226643,4
-0.3454791009426117,1.90704357624054,-1.6533656120300293,0.1117267906665802,0.6621779000000001,0.07086037,4
0.5937543511390686,3.0833950042724614,-1.873318076133728,0.11413749307394028,0.42455134,0.5384777,4
0.5970251560211182,5.428874492645264,-1.7327940464019775,0.16140811145305636,1.0149527,-0.14782938,4
-0.10160679370164873,7.977127552032472,-1.3429542779922483,0.2138264924287796,-1.0830641,-0.729984,4
-1.3811255693435671,10.160113334655762,-1.9068615436553955,0.34022456407547,-2.9739974,-1.0051788,4
-2.353549003601074,11.929948806762695,-2.5437746047973637,0.4181015193462372,-0.98624194,-0.82802784,4
-2.333392143249512,13.406057357788086,-2.104879856109619,0.4845955967903137,0.6805039,0.11789699,4
-2.0146315097808842,14.598867416381836,-1.8934725522994995,0.3233697414398193,0.36071593,0.7031059000000001,4
-1.2442270517349243,15.346893310546875,-1.2527306079864502,0.1344047635793686,0.528093,1.0134255,4
-0.4796487390995026,15.309025764465332,-0.5752896070480347,-0.11056937277317047,-0.5036584,1.3897184,4
-0.605250358581543,14.595447540283205,-0.8287419080734253,-0.25689008831977844,0.42149702,1.1297953,4
-1.4889838695526123,13.44357681274414,-1.265592336654663,-0.3604912161827088,1.0027353,0.9062186,4
-2.169822454452514,11.941044807434082,-1.3076066970825195,-0.416022390127182,0.23060162,0.37415496,4
-2.2269213199615483,10.456067085266113,-1.0718656778335571,-0.4189742803573608,-0.47952923,0.14935656,4
-1.9113725423812864,9.027379035949707,-1.0543880462646484,-0.4571583569049835,-0.0036651916,0.10629055,4
-1.5639798641204834,7.559937000274657,-1.3618364334106443,-0.5236234068870544,0.45478916,0.036957346,4
-1.4313626289367676,5.999636650085449,-1.8797413110733032,-0.5259003043174744,0.8399397,-0.22785273,4
-1.9816906452178955,4.566547870635986,-2.3609890937805176,-0.40628549456596375,0.03573562,-1.0906999,4
-2.7113850116729736,3.6036086082458496,-2.295090913772583,-0.2207716703414917,-1.6530013,-1.2473868,4
-2.5369231700897217,2.967869997024536,-1.7274032831192017,-0.09989465028047563,-1.3255776,-1.1294898000000002,4
-1.781435489654541,2.4738709926605225,-1.399584174156189,-0.05875993147492409,-0.28283059999999993,-0.55955255,4
-0.7066449522972107,2.2767488956451416,-1.6120994091033936,-0.03573649749159813,1.1753048,-0.13561209,4
0.05398082733154297,2.792050838470459,-1.94635546207428,-0.0035516882780939345,1.1664472,0.03848451,4
-0.2296306788921356,4.179760932922363,-2.0522477626800537,0.11840292066335678,1.0125091,-0.6365215999999999,4
-1.4225426912307741,6.442200660705566,-1.4403399229049685,0.34012967348098755,0.3472769,-1.241889,4
-1.8035566806793213,8.787534713745117,-1.3876978158950806,0.4983936846256256,-0.28160888,-0.20280726,4
-1.3417545557022097,10.857519149780273,-2.6467514038085938,0.5551298260688782,0.7733554,0.3115413,4
-1.7239936590194702,12.551532745361328,-2.250218629837036,0.6385802626609802,-0.15913039999999998,-0.7089091,4
-2.3732447624206543,13.922922134399414,-1.1613140106201172,0.5419492721557617,-2.3328943,-0.42302418,4
-2.2715063095092773,15.02386474609375,-1.524903655052185,0.361120879650116,-0.3368922,0.5934556,4
-2.293140411376953,15.896947860717773,-1.6398937702178955,0.1774994283914566,-0.016187929,1.067487,4
-2.5999903678894043,16.297311782836914,-1.7577911615371704,-0.04779157415032387,0.33475417,1.208597,4
-2.9578280448913574,16.030723571777347,-1.7912386655807495,-0.24101385474205014,0.93767816,0.9779953,4
-3.1355345249176025,15.27336883544922,-1.5535454750061035,-0.4025076329708099,0.5131268,0.6032294,4
-3.0440354347229004,14.062528610229492,-1.334287405014038,-0.5223355889320374,0.17867808,0.33169982,4
-2.652087688446045,12.523053169250488,-1.276652693748474,-0.609208881855011,0.31703907,0.17012598,4
-1.9881601333618164,10.819398880004883,-1.3830225467681885,-0.7007074356079102,0.7266241999999999,0.2180789,4
-1.4753664731979368,9.092862129211426,-1.68223774433136,-0.7421427369117737,0.91965765,0.50762904,4
-1.5479929447174072,7.3739585876464835,-1.9434648752212524,-0.642903208732605,0.41447207,0.32589662,4
-1.7123311758041382,5.803032875061035,-1.8527003526687624,-0.4925989210605621,0.21105394,0.20341812,4
-1.5309863090515137,4.494518756866455,-1.5688930749893188,-0.4074437320232392,0.3594942,0.12950343,4
-1.4130820035934448,3.463011741638184,-1.2238917350769043,-0.39826658368110657,0.50243664,-0.08032878,4
-1.5555691719055176,2.977258682250977,-1.104844570159912,-0.3967604637145996,0.66737026,-0.4615087000000001,4
-1.6012523174285889,2.7762668132781982,-1.1470038890838623,-0.3231393098831177,0.48930305,-0.7440339,4
-1.3109526634216309,2.67946720123291,-1.137041091918945,-0.15897676348686218,0.38453966,-0.8491027,4
-0.6581438183784485,2.6410374641418457,-1.0540949106216428,0.04679319635033608,0.4251622000000001,-0.7984009,4
0.09031156450510024,3.023989200592041,-1.7038747072219849,0.2808491289615631,0.30940324,-0.6582073,4
0.5119658708572388,4.648441791534424,-2.3058249950408936,0.5553978681564331,-0.34483343,-0.9966267,4
-0.09100636094808577,7.0650877952575675,-1.5277215242385864,0.7368854284286499,-0.58276546,-0.5222898,4
-1.5725160837173462,9.40709114074707,-0.13384538888931274,0.8521493077278137,-2.6175575,-1.1050552,4
-2.0194437503814697,11.37606143951416,-0.983842670917511,0.7443230152130127,0.47219884,-0.66828656,4
-1.5295088291168213,12.976309776306152,-1.092915415763855,0.5924152135848999,0.086132,0.65118235,4
-0.6913762092590332,14.26366901397705,-0.6175317764282227,0.3228139579296112,-0.26236662,1.7208074,4
0.032783493399620056,15.239432334899902,-0.17464621365070346,0.031560882925987244,-0.51007247,2.115121,4
-0.0660945326089859,15.618667602539062,-0.5227500200271606,-0.1834602802991867,0.14874569,1.7763962,4
-0.8223835825920105,15.184625625610352,-0.952412486076355,-0.3350975215435028,0.183565,1.1377366000000002,4
-1.6313723325729368,14.071406364440918,-1.2680553197860718,-0.44203054904937744,-0.029626964,0.8597928,4
-2.007749319076538,12.45694351196289,-1.37697172164917,-0.4484790861606598,-0.46822822,0.61361414,4
-1.9849284887313845,10.510445594787598,-1.3518738746643066,-0.4556427896022797,-0.51343226,0.5357288,4
-1.8084089756011963,8.418725967407228,-1.5623470544815063,-0.5153858065605164,-0.03481932,0.38637227,4
-1.8358560800552368,6.417771816253662,-2.0458617210388184,-0.5242063999176025,0.1142318,0.08552113,4
-2.455238580703736,5.0208702087402335,-2.3401100635528564,-0.3604863584041596,-0.36713,-0.77121735,4
-2.88081955909729,4.166116714477538,-2.4051268100738525,-0.14224961400032046,-0.40683624,-1.0149527,4
-2.7886791229248047,3.28940224647522,-1.9644358158111568,0.03357527032494545,-0.26389378,-0.8750645,4
-2.3267974853515625,2.4994781017303467,-1.1216073036193848,0.06809895485639572,-0.15332718,-0.6038403,4
-1.628597855567932,2.0156702995300293,-0.6722403168678284,-0.002095381496474147,0.079107046,-0.2049453,4
-0.9778290390968324,1.9405142068862915,-0.6889896988868713,-0.06345051527023315,0.8246681,-0.22540927,4
-0.594444990158081,2.3881778717041016,-0.5270978212356567,-0.1095168963074684,0.6438520000000001,-0.65393126,4
-0.4953772723674774,3.646316766738892,-0.2866979241371155,-0.050131864845752716,-0.24801129,-0.9443977,4
-0.4709137976169586,5.540745258331299,-0.30648067593574524,0.04475735500454903,-0.5158757,-0.9074403,4
-0.5187000036239624,7.840662479400635,-0.7522755265235901,0.09460224211215973,-0.55863625,-0.66920286,4
-1.1682591438293457,10.027177810668944,-0.796876072883606,0.029067540541291237,0.61758476,-0.4538729,4
-2.517070770263672,11.866410255432127,-0.1381983458995819,0.016866158694028854,-1.4205671999999998,-1.2644911,4
-3.0422451496124268,13.366830825805664,-1.0782527923583984,0.03412207216024399,-0.8222246,-0.67103547,4
-2.158294677734375,14.577738761901855,-1.9507734775543213,0.09206213802099228,0.86345804,1.0082331,4
-1.6077824831008911,15.496216773986815,-1.6548322439193726,0.06339159607887268,1.5134187,1.8887954,4
-1.9751524925231931,16.06597900390625,-1.2251715660095217,-0.09278775006532668,0.89369583,1.5216653,4
-2.5588955879211426,16.052238464355472,-1.1233675479888916,-0.2477868944406509,0.9914343,0.8295549999999999,4
-2.712592601776123,15.486698150634766,-0.9765046238899232,-0.3856287598609924,0.69913524,0.37415496,4
-2.3626489639282227,14.507791519165039,-0.9040508866310121,-0.4593447744846344,0.48899764,0.17470746,4
-1.641919732093811,13.133711814880373,-0.9077378511428832,-0.4421941339969635,-0.038179077,0.11759156,4
-0.6521766781806946,11.336851119995115,-0.9926860332489014,-0.4134858548641205,-0.106901415,0.19058995,4
0.11056064069271088,9.211597442626953,-0.9710888862609864,-0.35659077763557434,0.05681047,0.43799037,4
0.14975443482398987,6.958176612854004,-0.793580174446106,-0.2846084237098694,-0.59956425,0.17073683,4
-0.22887828946113584,5.116804122924805,-0.6808148026466371,-0.19658802449703214,-0.8213083000000001,-0.03359759,4
-0.5238708257675171,3.788387060165405,-0.6274892091751099,-0.13943298161029816,-0.43188173,-0.07544186,4
-0.7730982303619385,2.8994898796081543,-0.7143234014511108,-0.12923763692378998,-0.04153884,-0.2098322,4
-1.0705982446670532,2.473717212677002,-0.8725968003273009,-0.11007190495729446,0.12034045,-0.46700647,4
-1.3009188175201416,2.3616256713867188,-0.9834051132202148,-0.04596322029829025,-0.064446285,-0.6982189999999999,4
-1.2547768354415894,2.217383623123169,-0.9311572313308716,0.08538654446601868,-0.35888332,-0.73853606,4
-0.9860359430313109,2.1375114917755127,-1.034697651863098,0.22511865198612213,-0.25900686,-0.6102544,4
-0.7727707624435425,2.7446460723876958,-1.4700027704238892,0.3903741538524628,-0.04520403,-0.6933321,4
-0.6057944893836975,4.53105354309082,-1.6612643003463743,0.50385582447052,0.11728613,-0.57910025,4
-0.4719754159450531,6.9925575256347665,-1.7396323680877686,0.5789792537689209,-0.28527406,-0.39950588,4
-0.8544799685478209,9.3506441116333,-1.1268891096115112,0.6035782098770142,-0.99387777,-1.2986995,4
-1.5286104679107666,11.345468521118164,-1.4015897512435913,0.5213516354560852,-0.11789699,-0.17837265,4
-1.5547454357147217,12.923672676086426,-1.8572877645492556,0.4452577829360962,0.5717699,1.4944818000000002,4
-1.2644795179367063,13.947250366210938,-1.1014317274093628,0.3661569952964783,1.2458596000000002,2.2849414,4
-1.4500035047531128,14.652029037475586,-0.017876170575618744,0.1406656950712204,-0.39278635,1.8182404,4
-1.93125581741333,15.078075408935547,0.5505393147468567,-0.1954662650823593,-0.61850107,0.99296147,4
-2.2926268577575684,14.955167770385742,0.5545339584350586,-0.5304070711135864,-0.7440339,0.7266241999999999,4
-2.5444893836975098,14.445291519165039,-0.06944363564252852,-0.7163639664649963,-0.23884831,0.46914452,4
-2.626959085464477,13.62942600250244,-0.5337793827056885,-0.7436227798461914,-0.38820487,0.1826487,4
-2.162391901016236,12.369306564331055,-0.6103312373161316,-0.660551905632019,-0.5714644,0.10476339,4
-1.4723050594329834,10.79131031036377,-0.7427849769592285,-0.5420910120010376,-0.043066,0.27091873,4
-1.0302218198776243,9.06120777130127,-1.10869300365448,-0.4482719302177429,0.42943826,0.36468655,4
-1.339900255203247,7.291727066040039,-1.585446834564209,-0.3147440850734711,0.23273966,0.089186326,4
-2.4563045501708984,5.6276445388793945,-1.498254895210266,-0.12945832312107086,-0.54825157,-0.7993172,4
-3.282752275466919,4.571739196777344,-1.1566156148910522,0.013977444730699062,-0.3210097,-1.1157454,4
-3.111681699752808,3.9997904300689697,-0.9898486137390136,0.02761155180633068,0.9596693,-0.88453287,4
-2.1316418647766118,3.421038627624512,-0.8690614104270935,0.012522994540631771,1.5800028999999998,-0.31795537,4
-1.0410202741622925,2.717682123184204,-0.7335606217384338,0.08115528523921968,0.8897252,0.036651913,4
-0.2177584022283554,2.10950255393982,-0.7331368923187256,0.2151651829481125,0.4538729,-0.033292156,4
0.21701580286026,1.8983626365661619,-0.9114052653312684,0.41944560408592224,0.56138515,-0.2144137,4
0.04117535799741745,2.851841926574707,-1.211227536201477,0.7177690863609314,0.25809056,-0.9285152,4
-0.2599107027053833,5.3633713722229,-0.9688304662704468,0.8436063528060913,-0.58032197,-1.035722,4
-0.16033120453357694,7.9411659240722665,-0.8031682372093201,0.8607821464538574,0.29077184,-0.7690793,4
-0.4513940811157226,9.86505889892578,-0.22038257122039795,0.9490858912467957,-1.5421293,-1.0684034,4
-0.9713672995567322,11.558147430419922,-0.20342788100242612,0.8518059849739075,-1.2846496,-0.4364632000000001,4
-1.5844666957855225,13.07650375366211,-0.7671263217926025,0.6241536736488342,-0.42546764,0.6621779000000001,4
-1.9430269002914429,14.32904815673828,-1.5405831336975098,0.4074065983295441,0.67347896,1.5696182,4
-2.32516884803772,15.152209281921387,-1.6423497200012207,0.22823846340179446,0.818254,1.5451837,4
-3.0523955821990967,15.50930881500244,-1.7339777946472168,0.09011994302272797,0.66645396,0.93431836,4
-3.5082478523254395,15.414528846740724,-2.1907641887664795,0.006917801685631275,0.81489426,0.50885075,4
-3.4045042991638184,14.737932205200195,-2.480071544647217,-0.014897555112838743,0.4596761,0.17715092,4
-3.0083820819854736,13.48582935333252,-2.354504346847534,-0.0007341172313317658,0.024129177,0.089186326,4
-2.435115337371826,11.824155807495115,-2.0620827674865723,0.0027561727911233898,-0.15760323,0.09162979,4
-1.8460490703582764,9.99683952331543,-1.7829741239547732,0.009672037325799463,0.29810223,0.09285152,4
-1.5290181636810305,8.13425350189209,-1.4710637331008911,0.0075836232863366595,0.46089783,0.01740966,4
-1.447081446647644,6.3723387718200675,-1.1428539752960205,-0.004596312996000052,-0.116675265,-0.14263703,4
-1.3736180067062378,4.8132405281066895,-0.8457411527633667,-0.07012592256069182,-0.3744604,-0.20189096,4
-1.1911383867263794,3.634235382080078,-0.677599310874939,-0.1904055178165436,-0.21960606,-0.13591751,4
-0.9441263675689696,2.863209009170532,-0.6648650765419006,-0.31852203607559204,0.23976462,-0.0580322,4
-0.7110610604286194,2.3900270462036133,-0.6268793344497681,-0.3905433714389801,0.2648101,-0.14141529999999994,4
-0.6366705298423767,2.0943081378936768,-0.5853701829910278,-0.37965860962867737,0.06383542,-0.2959642,4
-0.748238205909729,1.9336801767349243,-0.6061456203460693,-0.28932324051856995,-0.18784106,-0.5045747,4
-0.8444502353668213,1.9156205654144287,-0.7550780773162842,-0.1397584229707718,-0.045814894,-0.6713409,4
-0.9294183254241944,2.180737257003784,-1.144340991973877,-0.00708684977144003,-0.15882497,-0.98990715,4
-0.9919935464859008,3.1887333393096924,-1.7474048137664795,0.235397607088089,0.027488936,-1.0998629,4
-0.7086334824562073,5.197781562805176,-1.916836261749268,0.4252622127532959,0.30024028,-0.65057147,4
-0.19703246653079987,7.797395706176758,-1.7972657680511477,0.5348345041275024,-0.6197228,-0.03940081,4
-0.6964136958122253,9.945717811584473,-1.3692512512207031,0.6408178806304932,-0.39675698,-0.6035349,4
-2.5435657501220703,11.76752471923828,-1.5881299972534182,0.5531781315803528,-2.4767532,-2.0253236,4
-3.048439741134644,13.280399322509766,-2.7440669536590576,0.4656946063041687,-0.7635816,-0.43035457,4
-2.381398677825928,14.476200103759766,-3.4405608177185063,0.296100914478302,1.1258247,1.9117028000000005,4
-1.8193180561065676,15.386940002441404,-3.363325357437134,0.04482480883598328,0.16126843,1.9312505,4
-1.407564401626587,15.893649101257324,-2.9911506175994877,-0.1387525051832199,0.3436117,1.7556267,4
-1.4617652893066406,15.7288179397583,-2.5871410369873047,-0.29012003540992737,0.28588495,1.1542298999999998,4
-1.8448133468627932,15.056151390075685,-2.432176113128662,-0.4179329574108124,0.00580322,0.8206975000000001,4
-2.131886959075928,13.730541229248047,-2.32503342628479,-0.4519856870174408,-0.37018433,0.63163465,4
-2.2284047603607178,11.804946899414062,-2.071716785430908,-0.4518096446990967,-0.48288897,0.5467244000000001,4
-2.1808938980102544,9.718046188354492,-1.9057056903839111,-0.4979320466518402,-0.42424592,0.4025602,4
-2.0255489349365234,7.6817569732666025,-2.0927517414093018,-0.5505799055099487,0.053450707,0.2733622000000001,4
-2.1155214309692383,5.938915252685548,-2.427231788635254,-0.5231478214263916,0.07941248,-0.050396383,4
-2.414036989212036,4.7292561531066895,-2.517242670059204,-0.3990308344364166,-0.113926366,-0.38973203,4
-2.478679180145264,3.7676219940185542,-2.0606377124786377,-0.2678952515125275,-0.06536258,-0.26145032,4
-2.262631416320801,3.0444059371948238,-1.327336668968201,-0.2382243871688843,0.21563543,-0.13469578,4
-1.9194120168685915,2.5558032989501958,-0.9113439917564392,-0.310702919960022,0.5439755000000001,-0.038789943,4
-1.56526517868042,2.211409568786621,-0.8133054971694946,-0.3904602229595184,0.5503895999999999,-0.06841691,4
-1.267281174659729,2.063891649246216,-0.6843842267990112,-0.4361794292926788,0.7486154,-0.22571471,4
-0.9643911123275756,2.428048610687256,-0.5285427570343018,-0.4626492261886597,0.9584476,-0.36896262,4
-0.7549009919166565,3.707748889923096,-0.7075381875038147,-0.4144825041294098,0.7629706999999999,-0.6640105,4
-0.5548840761184692,6.053867816925049,-1.030071496963501,-0.272262841463089,0.24923302,-0.59223384,4
-0.2822403013706207,8.568222999572754,-1.2978332042694092,-0.04194048047065735,-0.54244834,-0.6017023,4
-0.4599386751651764,10.66750717163086,-1.3160383701324463,0.26722005009651184,-1.4016303,-1.026559,4
-1.5909056663513184,12.394078254699707,-1.1729918718338013,0.4224260747432709,-1.9208658,-1.4749341,4
-2.176900148391724,13.794350624084473,-0.8849910497665405,0.5354900956153871,0.2782491,-0.32498032,4
-1.7982025146484375,14.91588306427002,-0.5353856682777405,0.4153580665588379,0.8005389,0.7663304,4
-1.046087622642517,15.794419288635256,0.04084214940667152,0.15244512259960175,0.30909783,1.2825116,4
-0.24696515500545504,16.343584060668945,0.4039058089256287,-0.0851551815867424,-0.18020524,1.3545936,4
-0.2328026443719864,16.353837966918945,0.10926058143377304,-0.25115635991096497,0.31948254,0.9944886,4
-0.8235475420951843,15.843942642211914,-0.334069699048996,-0.3774357438087464,-0.32375857,0.72112644,4
-1.2337137460708618,14.749631881713867,-0.7342061400413513,-0.3884586691856384,-0.71929383,0.49480084,4
-1.2798911333084106,13.128993034362793,-0.9094242453575134,-0.33374249935150146,-0.84635377,0.3933972,4
-1.0859602689743042,11.172273635864258,-0.9576125144958496,-0.3048654198646545,-0.44715336,0.38912117,4
-1.0066535472869873,9.082983016967773,-0.9191572070121764,-0.3079647123813629,-0.49266282,0.3295618,4
-1.3389369249343872,7.000716686248778,-1.0092674493789673,-0.2755910158157349,-0.65209866,-0.17501289,4
-1.9003726243972776,5.404348373413086,-1.236597776412964,-0.18788522481918332,-0.4990769000000001,-0.63346726,4
-2.2392809391021733,4.379556655883788,-1.4436321258544922,-0.07235492765903473,-0.40683624,-0.6462954000000001,4
-2.29357647895813,3.5750441551208496,-1.4304884672164917,0.05614200234413147,-0.15790866,-0.7272350999999999,4
-2.102651834487915,2.884610891342163,-1.1283173561096191,0.14648176729679108,-0.0021380284,-0.80573124,4
-1.7399499416351318,2.357593536376953,-0.8412120938301086,0.19129380583763125,0.19883664,-0.8005389,4
-1.2944527864456177,2.075486421585083,-0.7506366968154907,0.224751815199852,0.59650993,-0.66950834,4
-0.8992170095443726,2.141653537750244,-0.8215287327766418,0.2851472795009613,0.6444628000000001,-0.5702427,4
-0.7217833399772644,2.7522096633911133,-1.0331603288650513,0.40590277314186096,0.2574797,-0.6649268,4
-0.6343724131584167,4.838343620300293,-1.2491663694381714,0.4838002622127533,0.19639318,-0.6478225999999999,4
-0.9036255478858948,7.39391279220581,-1.6916851997375488,0.5608015060424805,-0.1337795,-0.8897252,4
-1.2088154554367063,9.486876487731934,-1.3320226669311523,0.680178165435791,-0.59315014,-1.0189233,4
-1.494059443473816,11.274505615234375,-0.7507104873657227,0.731357216835022,-0.22693644,-0.9300423,4
-2.1789202690124507,12.848811149597168,-0.7175113558769226,0.607559084892273,-1.6960673,-0.5729916,4
-2.0311942100524902,14.151427268981935,-1.5932438373565674,0.5008167624473572,0.13683382,0.7651087,4
-1.7018821239471436,15.145358085632324,-1.490358591079712,0.3608396649360657,0.25625798,1.4618006,4
-1.8473650217056277,15.858263969421387,-1.287938356399536,0.15681540966033936,-0.28771752,1.4856243,4
-2.2042033672332764,16.065282821655273,-1.351197361946106,-0.035772036761045456,-0.26725355,1.2226468,4
-2.5106446743011475,15.632560729980467,-1.68224835395813,-0.1842339038848877,-0.035430185,0.8713993,4
-2.608315706253052,14.741640090942385,-2.0108842849731445,-0.2773030698299408,0.21135938,0.68569624,4
-2.5629725456237797,13.416719436645508,-2.029022216796875,-0.3037793636322021,0.24220806,0.6423248,4
-2.459929943084717,11.673913955688475,-1.7325202226638794,-0.3019535839557648,0.21746802,0.5681046999999999,4
-2.24380874633789,9.640336990356444,-1.312701940536499,-0.3239935040473938,0.18142697,0.63041294,4
-2.049212694168091,7.536026477813722,-1.1034103631973269,-0.3586314022541046,0.38240165,0.54641896,4
-1.944989919662476,5.669656753540039,-1.1444437503814695,-0.37563908100128174,0.40378192,0.37598756,4
-1.9743887186050413,4.257615566253662,-1.3021807670593262,-0.37876638770103455,0.21655174,-0.06688975,4
-2.2257609367370605,3.3622612953186035,-1.4644958972930908,-0.3257523477077484,-0.54367006,-0.6658430999999999,4
-2.422055959701538,2.780245065689087,-1.242915153503418,-0.2766731679439545,-0.8374963,-0.9236283000000002,4
-2.125738859176636,2.3118610382080083,-0.9013442993164062,-0.27818480134010315,-0.41630468,-0.86284715,4
-1.4340940713882446,1.9888869524002075,-0.7239904403686523,-0.27647665143013,0.21991149,-0.48166725,4
-0.5536810159683228,1.8594803810119631,-0.7868687510490417,-0.1878847032785416,0.59406644,-0.19456059,4
0.27568820118904114,2.0275118350982666,-1.1681280136108398,-0.07010593265295029,0.7706065,-0.12614368,4
0.6639882922172546,2.7600700855255127,-1.8306331634521484,0.06856974959373474,0.2171626,-0.2959642,4
0.066070556640625,4.328504085540772,-2.310152769088745,0.3171113431453705,0.0421497,-0.8387180000000001,4
-1.4238389730453491,6.7826905250549325,-1.628517746925354,0.4503770768642426,-1.4175128,-1.6536123,4
-2.437299489974976,9.14815902709961,-1.2775038480758667,0.42437025904655457,0.37873647,-1.5879441,4
-3.5254993438720703,11.15554428100586,-1.2936500310897827,0.3511636257171631,-0.63071835,-1.0803152,4
-3.217499256134033,12.798453330993652,-2.037813901901245,0.31041160225868225,1.7052304,0.5681046999999999,4
-2.404736995697021,14.110692024230955,-2.3965988159179688,0.2823576033115387,2.032654,1.7681494999999998,4
-1.8923286199569704,15.077715873718262,-2.416722297668457,0.19101682305336,1.3628403999999998,2.179567,4
-1.706154227256775,15.754474639892578,-2.1887965202331543,0.029653469100594517,0.883922,1.6484199000000002,4
-1.8137593269348145,15.818921089172365,-1.8664432764053345,-0.1478683203458786,0.6976081000000001,1.1664472,4
-1.9988179206848145,15.043680191040039,-1.6928638219833374,-0.3396791219711304,0.08002335,0.6957755,4
-2.0049889087676998,13.704071998596193,-1.7154762744903564,-0.4767509400844574,-0.22327125,0.45020768,4
-1.8334498405456543,12.00831413269043,-1.5764999389648438,-0.549364447593689,-0.7104363,0.38789943,4
-1.5691977739334106,10.01278305053711,-1.3594622611999512,-0.6200653314590454,-0.65576386,0.43493605,4
-1.3403425216674805,8.065586090087889,-1.40101957321167,-0.6519047021865845,-0.27275133,0.44409904,4
-1.1975237131118774,6.337709903717041,-1.678571343421936,-0.6192211508750916,0.22174409,0.4147775,4
-1.2708344459533691,4.958020687103272,-2.015410184860229,-0.5300409793853761,0.54702985,0.10170906,4
-1.6518160104751587,3.902701139450073,-2.341635465621948,-0.3832839727401733,0.054367006,-0.5002986,4
-2.008377313613892,3.1988492012023926,-2.5331592559814453,-0.20256471633911133,-0.6478225999999999,-0.72326446,4
-1.7962242364883425,2.6136467456817627,-2.4715914726257324,0.07477480173110962,0.038179077,-0.41355577,4
-1.107722520828247,2.1059727668762207,-1.1948847770690918,0.15416981279850006,1.0589349,-0.172264,4
-0.9699576497077942,1.7360715866088867,-0.34159135818481445,0.05864908918738365,1.2559389,-0.24923302,4
-1.3704328536987305,1.5785702466964722,-0.14009276032447815,-0.04803154990077019,-0.63041294,-0.62949663,4
-1.7035275697708132,1.7420765161514282,-0.5021216869354248,-0.0773879736661911,-1.1710287,-1.0946705,4
-1.6415039300918581,2.7710797786712646,-1.318518042564392,0.03558717668056488,-1.3130548,-1.1575897,4
-1.0745395421981812,5.139724254608153,-1.7899632453918457,0.21845977008342746,0.25717425,-0.90377516,4
-0.5827237963676453,7.731381893157959,-1.5655134916305542,0.2968924343585968,-0.37110063,-0.9275989,4
-1.1710070371627808,9.885218620300293,-2.0061168670654297,0.5693246126174927,-0.6545420999999999,-1.7779233,4
-1.83704137802124,11.688467025756836,-2.287540435791016,0.7919942140579224,0.28405234,-1.0531317,4
-2.1509349346160893,13.212271690368652,-2.224883317947388,0.8208770751953125,0.43035457,0.35796702,4
-2.1119239330291752,14.451757431030273,-2.042907953262329,0.6407285928726196,1.50731,1.4703526000000002,4
-1.8482872247695925,15.448702812194824,-1.5237951278686523,0.3274523615837097,0.8918633,1.8637499,4
-1.678647756576538,16.206586837768555,-1.3772300481796265,0.03915167972445488,0.9987647,1.6536123,4
-1.6910725831985474,16.579462051391598,-1.45765221118927,-0.15241175889968872,0.39858958,1.1499538,4
-1.8300838470458984,16.176721572875973,-1.506173849105835,-0.2575492560863495,-0.37018433,0.86376345,4
-1.89721941947937,15.041561126708984,-1.4952136278152466,-0.29191750288009644,-0.77182823,0.5858198,4
-1.8419761657714844,13.290666580200195,-1.2547577619552612,-0.27950575947761536,-0.9621128,0.30726522,4
-1.6955949068069458,11.240466117858887,-0.9909126758575441,-0.25500524044036865,-0.77763146,0.14202617,4
-1.586687445640564,9.1463041305542,-0.7595741748809814,-0.25856080651283264,-0.62888575,-0.084910266,4
-1.6003690958023071,7.21026611328125,-0.5919267535209656,-0.2712101936340332,-0.45112398,-0.29840767,4
-1.6039578914642334,5.64472246170044,-0.6881498694419861,-0.2701126039028168,-0.28283059999999993,-0.5870415,4
-1.4187854528427124,4.536802768707275,-1.115267992019653,-0.2293830066919327,0.094989546,-0.752586,4
-1.2422633171081543,3.777364015579224,-1.4132732152938845,-0.1196569800376892,-0.312763,-0.8005389,4
-1.2127541303634644,3.1741940975189213,-1.4562803506851196,0.03516540303826332,-0.6603453,-0.5934556,4
-1.2218849658966064,2.605189561843872,-1.381650686264038,0.20117750763893127,-0.6078109,-0.38515055,4
-1.126994013786316,2.148834705352783,-1.4044557809829712,0.2992417812347412,0.0030543262,-0.21380283,4
-0.8370775580406189,2.0155537128448486,-1.65776789188385,0.3129836618900299,1.1905763,-0.040011674,4
-0.8952836394309998,2.210296154022217,-1.5794909000396729,0.3656930923461914,1.1139128,0.03970624,4
-1.6064976453781128,3.0585341453552246,-1.5347038507461548,0.5314072370529175,-0.110872045,-0.5137377000000001,4
-2.1872720718383794,5.083303451538086,-2.465975284576416,0.6517128348350525,-0.46731192,-1.099252,4
-2.292304039001465,7.597441673278809,-2.8689520359039307,0.8282185196876526,0.22602014,-0.945314,4
-2.0163910388946533,9.510305404663086,-2.232100009918213,0.8665475845336914,0.64599,-0.37384954,4
-1.9894975423812864,11.109275817871094,-1.6908658742904663,0.7140157222747803,0.2012801,-0.38820487,4
-2.573473691940308,12.6527099609375,-1.6571465730667114,0.3870889842510224,-0.71837753,-0.5137377000000001,4
-3.006711721420288,13.978883743286133,-1.6428102254867554,0.041859563440084464,-0.7290677,0.02076942,4
-3.213466167449951,15.06623077392578,-1.7817642688751218,-0.2449821829795837,-0.7641924,0.28863382,4
-3.258157968521118,15.922465324401855,-2.280726909637451,-0.43379953503608704,0.08674286,0.49877146,4
-3.061702013015747,16.39053726196289,-2.5982775688171387,-0.5614595413208008,0.07422013,0.61483586,4
-2.6472148895263667,15.799501419067385,-2.7591123580932617,-0.629485011100769,0.021685716,0.623388,4
-2.1925203800201416,14.593852996826172,-2.780165433883667,-0.6615862846374512,-0.03359759,0.65118235,4
-1.8328728675842283,13.049177169799805,-2.5734214782714844,-0.6574198007583618,0.10720685,0.6560693,4
-1.5826053619384766,11.382532119750975,-2.0412850379943848,-0.6233586072921753,0.21930063,0.5699373000000001,4
-1.4143444299697876,9.657666206359863,-1.4529939889907837,-0.5881035327911377,0.5335908,0.473726,4
-1.2487810850143433,7.9676194190979,-1.165162205696106,-0.5867568254470825,0.65484756,0.36102137,4
-1.0463920831680298,6.474433422088622,-1.2061291933059692,-0.5622150897979736,0.6579019,0.16218472,4
-0.8119957447052002,5.241646766662598,-1.293357253074646,-0.5406010150909424,0.23732115,-0.033292156,4
-0.6523628234863281,4.196428298950194,-1.4096275568008425,-0.554433286190033,0.10781772,-0.172264,4
-0.5427601337432861,3.44740629196167,-1.5682364702224731,-0.5565453171730042,-0.027183503,-0.2519819,4
-0.540651798248291,2.8627099990844727,-1.6944682598114014,-0.4957720041275024,0.19333886,-0.42332962,4
-0.7101632356643677,2.2989978790283203,-1.6554844379425049,-0.3785187005996704,0.2125811,-0.59895337,4
-1.013523817062378,1.7945852279663086,-1.5595695972442627,-0.2442706823348999,0.21594086,-0.9025534,4
-1.4035724401474,1.7358657121658323,-1.401846408843994,-0.04483023285865784,0.63163465,-1.2571607,4
-1.877251148223877,2.68768572807312,-0.8019791245460509,0.14687635004520416,-0.07147124,-1.7531831999999998,4
-1.985389232635498,4.967523097991943,-0.3743905425071716,0.29316499829292303,0.06811147,-1.5601498,4
-1.939312219619751,7.5457096099853525,-1.865152359008789,0.5724051594734192,0.20311269,-2.0525072,4
-1.72918963432312,9.699365615844727,-2.5122969150543213,0.928048849105835,0.79504114,-0.9569204,4
-1.679375410079956,11.249489784240724,-2.0499222278594966,1.1678860187530518,-0.27947086,0.22296582,4
-1.3092501163482666,12.75446891784668,-1.5059269666671753,1.139934539794922,-1.0616838,0.9315695,4
-1.0956581830978394,14.055888175964355,-1.1605840921401978,0.9372381567955016,-0.24281894,1.6404786,4
-1.4371529817581177,15.11349391937256,-0.8231465816497803,0.671433687210083,-1.03786,1.7446311999999995,4
-2.0457050800323486,15.712836265563965,-0.8487663865089417,0.3970048427581787,-1.1108584,1.385137,4
-2.738576650619507,15.578895568847654,-0.9618899822235109,0.1237986460328102,-0.8387180000000001,0.9746355,4
-3.3134026527404785,14.846810340881348,-1.2011735439300537,-0.1077222302556038,-0.39706242,0.8561276,4
-3.624373435974121,13.659090995788574,-1.5392417907714844,-0.25928083062171936,0.14080444,0.86376345,4
-3.790898561477661,12.068280220031738,-1.735209345817566,-0.358199805021286,0.45081854,0.70096785,4
-3.816582202911377,10.20583438873291,-1.5677578449249268,-0.4383953213691712,0.37995818,0.5555819000000001,4
-3.565079927444458,8.22761344909668,-1.3180875778198242,-0.562705934047699,0.63285637,0.63438356,4
-3.2637953758239746,6.5262556076049805,-1.3496419191360474,-0.6493456363677979,0.904386,0.42394048,4
-2.997119903564453,5.2589263916015625,-1.5365188121795654,-0.6534448266029358,0.87109387,0.08216137400000001,4
-2.793173551559448,4.414581775665283,-1.7927342653274536,-0.5927417278289795,0.6658430999999999,-0.52564955,4
-2.6430630683898926,3.82380485534668,-1.9442782402038572,-0.4691685140132904,-0.0571159,-0.9850202,4
-2.483147144317627,3.2671937942504883,-1.8788737058639529,-0.33948922157287603,-0.5174029,-1.2699889,4
-2.2095627784729004,2.77221155166626,-1.5513372421264648,-0.2414863705635071,-0.34177909999999995,-1.1407908000000002,4
-1.6514290571212769,2.6274256706237797,-1.2096809148788452,-0.15460963547229767,-0.2669481,-0.7318166,4
-1.0620272159576416,3.1612117290496826,-1.254585862159729,-0.05771230161190032,0.88270026,-0.63285637,4
-0.8843671679496765,4.704642295837402,-1.7505463361740112,0.056793853640556335,1.0861185,-0.63071835,4
-1.6604392528533936,7.109046459197997,-2.560581684112549,0.3187691271305084,2.10046,-0.5198463,4
-2.909776210784912,9.432731628417967,-2.390115976333618,0.551460862159729,1.6282613,-1.4199562,4
-2.86248517036438,11.401862144470215,-2.133264780044556,0.5962872505187988,-0.8906415000000001,-1.500285,4
-1.4651614427566528,12.997740745544435,-2.284665584564209,0.5296655297279358,-1.5445728,-0.2302962,4
-0.25017479062080383,14.269051551818848,-2.342556953430176,0.3386969268321991,-0.46853364,1.2040153999999998,4
-0.18520167469978333,15.281455039978027,-1.896522879600525,0.1102474108338356,-1.0522153,1.733941,4
-0.773260772228241,16.112199783325195,-1.8074693679809568,-0.04942526295781136,-0.9990701,1.8564194,4
-1.3967044353485107,16.597021102905273,-2.0908856391906743,-0.13469035923480988,-0.25686884,1.4669929,4
-1.8228965997695925,16.170082092285153,-2.264702796936035,-0.16518908739089966,0.16676621,1.1111639,4
-1.878458261489868,15.104802131652832,-2.2664625644683842,-0.13009117543697354,0.11026118,1.035722,4
-1.8108479976654053,13.4497709274292,-1.9674270153045652,-0.045338485389947884,-0.19700404,0.7974846,4
-1.6628530025482178,11.435193061828613,-1.4374617338180542,0.03675390034914017,-0.5326744999999999,0.44165558,4
-1.410778284072876,9.144866943359377,-0.7747123241424559,0.06239451840519905,-0.89552844,0.23640485,4
-1.336202621459961,6.779796123504639,-0.3986232876777649,0.002405476756393909,-1.1252137,-0.13072516,4
-1.6921743154525757,4.81710958480835,-0.324413925409317,-0.09458325803279877,-1.3228287,-0.63194007,4
-2.3015592098236084,3.6143615245819087,-0.3362084031105041,-0.2010812610387802,-1.0125091,-0.9095783000000002,4
-2.849238157272339,3.090772867202759,-0.6102416515350342,-0.3136947751045227,0.4260785,-0.8414669,4
-3.0904130935668945,2.903947353363037,-0.9029716253280641,-0.3786512315273285,0.8613200000000001,-0.65576386,4
-2.776000738143921,2.6936516761779785,-1.0090734958648682,-0.42156121134758,0.26847526,-0.30695978,4
-1.9728543758392332,2.3595707416534424,-1.2094931602478027,-0.41740623116493225,0.6740898,0.040011674,4
-0.8786945343017578,2.180737972259521,-1.7102494239807131,-0.3279826641082764,1.4978416,0.4578435,4
0.06867202371358871,2.962261199951172,-2.0725564956665044,-0.11116574704647064,0.008552114,0.5348125,4
-0.17326641082763672,5.168459415435791,-1.767426371574402,0.06815364211797714,-1.3628403999999998,-0.27305678,4
-1.53878653049469,7.724852561950684,-0.8866083025932312,0.2549745738506317,0.004581489,-1.428203,4
-2.31623649597168,9.89278793334961,-0.906585454940796,0.3262272775173187,-1.9706513,-1.5525141000000002,4
-2.3642022609710693,11.71097469329834,-0.9800700545310974,0.4076722264289856,-0.09621128,-0.83077675,4
-2.148550033569336,13.230900764465332,-0.8757838606834412,0.3572666943073273,0.29535335,0.68752885,4
-1.9282398223876955,14.45704460144043,-0.9633148908615112,0.25673460960388184,0.95203346,1.4950926000000002,4
-1.581615924835205,15.319283485412598,-0.8605309724807739,0.17118647694587708,1.0711522,1.998751,4
-1.5322377681732178,15.730690002441404,-0.5229074358940125,0.10730382800102234,-0.37965274,1.5989398,4
-2.02139663696289,15.91602611541748,-0.5573772788047789,0.0435885526239872,-0.29840767,0.9987647,4
-2.8330438137054443,15.451602935791016,-1.0065910816192627,0.02802739106118679,-0.17134771,0.61208695,4
-3.395281314849853,14.16175937652588,-1.6343061923980713,0.04679761826992035,-0.4654793,-0.043982297,4
-3.288356065750122,12.55039882659912,-2.0299923419952397,0.10428118705749513,-0.16615535,-0.38087448,4
-2.9903576374053955,10.733285903930664,-1.7099149227142334,0.15304116904735565,0.062308256,-0.6377433000000001,4
-2.851481437683105,8.779180526733397,-1.1954952478408811,0.12033531069755556,0.4615087000000001,-0.9627236,4
-2.910319566726685,6.820812702178955,-0.7958664298057556,0.04194660857319832,0.61911196,-1.1872166000000002,4
-3.0821933746337886,5.033268928527832,-0.19356633722782132,-0.04846729338169098,-0.07147124,-1.427592,4
-3.050803899765014,3.8688230514526367,0.3990263044834137,-0.16152851283550262,-0.9502009,-1.0815369,4
-2.49379563331604,3.556645631790161,0.008167173713445662,-0.19122403860092166,0.2782491,-0.14538592,4
-1.4576191902160645,3.375211000442505,-0.6438518762588501,-0.12120340019464493,0.80909103,0.3857614,4
-0.27454569935798645,2.9072277545928955,-1.0503523349761963,-0.1814894676208496,0.4361577999999999,0.40622538,4
0.6201683282852173,2.424185037612915,-1.2818377017974854,-0.25794538855552673,1.1252137,0.364992,4
0.712855875492096,2.190459728240967,-1.2015540599822998,-0.17694345116615295,1.1230757,0.2968805,4
0.16214735805988312,2.7327351570129395,-1.663899302482605,0.09592439979314804,-0.79443026,-0.1554652,4
-0.12756122648715973,4.577073574066162,-2.3246703147888184,0.4024600088596344,-0.35155296,-0.36835176,4
-0.4628212451934815,7.098574161529541,-2.583056926727295,0.5722323656082153,0.7150178,-0.2706133,4
-1.815017342567444,9.140350341796877,-1.7982608079910278,0.6944736242294312,-0.9645562,-1.3982705,4
-3.0560057163238525,10.092066764831543,-1.4103800058364868,0.6691629886627197,-0.30298916,-2.0494528,4
-3.652687788009644,10.964802742004396,-1.1726268529891968,0.5534312129020691,-0.4746423,-1.3991868,4
-3.4192957878112797,12.275594711303713,-1.6656723022460938,0.39201486110687256,0.63591075,-0.23884831,4
-2.8841328620910645,13.591873168945312,-1.7783356904983518,0.2564654052257538,0.7104363,0.6973026999999999,4
-2.5762975215911865,14.703329086303713,-1.9944289922714236,0.11794208735227585,-0.07238753,0.999681,4
-2.283732414245605,15.63931369781494,-2.153852224349976,0.0044795642606914035,-0.22632557,1.3497068,4
-1.9895157814025881,16.382585525512695,-2.1014204025268555,-0.09815646708011627,-0.6246096999999999,1.6471981,4
-1.9970648288726809,16.77353858947754,-2.1443037986755367,-0.19947116076946256,-0.26939157,1.7492126,4
-2.28533673286438,16.618276596069336,-2.1195645332336426,-0.2919178605079651,-0.12461651,1.5137241,4
-2.541836977005005,15.672944068908693,-2.0068647861480717,-0.3590095043182373,-0.3042109000000001,1.2666291,4
-2.7327992916107178,14.055421829223633,-1.7966225147247314,-0.40062057971954346,-0.17898351,1.0115929,4
-2.9269609451293945,12.043001174926758,-1.4186710119247437,-0.4468400180339813,-0.0125227375,0.7993172,4
-3.094006061553955,9.832377433776855,-0.9586936235427856,-0.5395961999893188,0.24740042,0.63194007,4
-3.089649438858032,7.771523475646973,-0.6585697531700134,-0.6672353744506836,0.355829,0.56413406,4
-2.9994275569915767,6.108816146850586,-0.706584632396698,-0.7695516347885132,0.43310347,0.26725355,4
-2.9065425395965576,4.944506645202637,-0.969710886478424,-0.8018307685852051,0.68386364,-0.076358154,4
-2.872222900390625,4.3299760818481445,-1.52915620803833,-0.7668270468711853,0.8054258000000001,-0.44226643,4
-3.028465986251831,3.754361391067505,-2.0571963787078857,-0.6911413669586182,0.5687156,-0.732122,4
-3.0422484874725337,3.0880768299102783,-1.89844012260437,-0.5662715435028076,-0.13897185,-1.0094548,4
-2.571541309356689,2.36541748046875,-1.3334484100341797,-0.4008239805698395,-0.6954701,-1.0030408000000002,4
-1.6174143552780151,1.6976300477981567,-0.829754114151001,-0.2409277260303497,-1.063211,-0.8170323,4
-0.2076415866613388,1.4072635173797607,-1.1824965476989746,-0.06627696752548218,-0.06994407,-0.16401732,4
1.0657114982604978,1.7360419034957886,-1.910566091537476,0.1012941151857376,1.4196508,0.08155051,4
1.0906391143798828,2.9311656951904297,-1.6081093549728394,0.20548570156097407,1.1279627,-0.5332854,4
-0.7774617075920105,5.273765563964844,-0.6151089668273926,0.26576074957847595,0.37934732,-2.393981,4
-3.003048658370972,7.84333610534668,-0.1844608336687088,0.32071927189826965,-3.4336736000000005,-1.8576412,4
-3.47478985786438,10.089847564697266,-1.5638222694396973,0.3587721884250641,1.2971723,-1.6108516000000002,4
-2.9925613403320312,11.936684608459473,-1.1657685041427612,0.351809024810791,-0.021685716,-0.31703907,4
-2.824631929397583,13.429117202758787,-1.188118577003479,0.2079339027404785,-0.08460484,1.0042624,4
-3.046692371368408,14.62674045562744,-1.3472520112991333,0.03984392806887626,0.22021692,1.4272866000000002,4
-3.6184446811676025,15.576786994934082,-1.5534029006958008,-0.12242978811264038,0.2773328,1.3961325,4
-4.419968128204347,16.225275039672848,-1.8406283855438232,-0.2569564878940582,0.7153232,0.9950995,4
-4.898253917694092,16.36534309387207,-2.0306048393249507,-0.3679855763912201,0.5161811,0.64996064,4
-4.711133003234863,15.87768268585205,-2.301900863647461,-0.4185110926628113,0.47403142,0.4841107,4
-3.9746716022491455,14.756656646728516,-2.4299683570861816,-0.3938072621822357,0.122783914,0.2003638,4
-2.9047555923461914,13.251968383789062,-2.1354126930236816,-0.2725408375263214,-0.42546764,0.18203785,4
-1.81868577003479,11.514116287231445,-1.6443793773651123,-0.16756059229373932,-0.15943582,0.29962940000000005,4
-1.0407363176345823,9.581151008605957,-1.0823812484741209,-0.10168903321027756,-0.018325957,0.37110063,4
-0.8782798647880554,7.505094051361084,-0.6972779035568237,-0.054369356483221054,0.2779437,0.10140363,4
-1.131439208984375,5.804873943328857,-0.4878684878349304,-0.06154432147741318,-0.5009095,-0.18203785,4
-0.9825555682182312,4.663182735443115,-0.6428534388542175,-0.11840164661407472,-0.23762658,-0.038179077,4
-0.5782456994056702,3.8029451370239262,-0.7676154971122742,-0.17783626914024353,0.013744468,0.10262536,4
-0.21092639863491056,3.1373090744018555,-0.7380970120429993,-0.2190571278333664,0.050396383,0.07849618,4
-0.06812449544668198,2.6086559295654297,-0.6164941191673279,-0.22253535687923431,-0.034513887,-0.02687807,4
-0.2373287528753281,2.1145565509796143,-0.5094501972198486,-0.17404577136039734,-0.3680463,-0.28252518,4
-0.6613641977310181,1.6734018325805664,-0.5883626341819763,-0.06515085697174072,-0.63194007,-0.74128497,4
-1.2353883981704712,1.5408439636230469,-0.7613145112991333,0.06198139488697053,-0.75319684,-1.3747523,4
-2.0266153812408447,2.0260298252105717,-0.6974191665649414,0.09200690686702727,-0.589485,-2.2608123,4
-2.5812253952026367,3.9444882869720463,-0.4505129754543304,-0.016865262761712074,0.5222898,-1.9172006,4
-2.480876922607422,6.659847736358643,-0.7879734635353088,-0.05475064739584923,-0.44043383,-0.88208944,4
-2.2517755031585693,9.121251106262207,-0.6270173192024231,0.08558504283428192,1.5570955,-0.36254853,4
-2.336523056030273,11.15065097808838,-0.6758326888084412,0.06807732582092285,-0.035124752999999995,0.6218608,4
-2.4985344409942627,12.795392036437988,-0.922652304172516,0.1323026567697525,0.35643986,1.4624114,4
-2.715731143951416,14.117743492126465,-0.739013671875,0.14006739854812622,0.22693644,1.8912388,4
-3.1524813175201416,15.162014961242676,-0.5930947661399841,0.04452596604824066,0.59131753,1.7663169,4
-3.76413631439209,15.899148941040039,-0.5461275577545166,-0.127248153090477,0.35613444,1.215011,4
-4.158562183380127,15.764591217041016,-0.7888563275337219,-0.2449929863214493,0.32925636,0.8155051,4
-4.022510051727295,14.79454517364502,-0.9433456659317015,-0.2791745364665985,0.09132435,0.6444628000000001,4
-3.4156861305236816,13.23078155517578,-0.8428660035133362,-0.2403376847505569,0.14905111,0.6224717,4
-2.6483640670776367,11.165736198425293,-0.7234312295913696,-0.16839613020420074,0.70707655,0.6918049,4
-2.0860340595245357,9.117115020751953,-0.6269949078559875,-0.07649973779916762,0.68416905,0.5516113,4
-1.7317161560058594,7.3462419509887695,-0.8335809707641602,0.0311630479991436,0.82986045,0.32009340000000003,4
-1.5962580442428589,5.850172519683838,-1.1330298185348509,0.17151668667793274,0.43860126,0.043982297,4
-1.652363896369934,4.54879093170166,-1.1796313524246216,0.3047795593738556,-0.3381139,-0.28985557,4
-1.6449897289276123,3.4101450443267822,-0.9404996633529664,0.35985833406448364,-0.7458665,-0.49021935,4
-1.4573711156845093,2.456411361694336,-0.5940502285957336,0.3468130826950073,-0.7470882,-0.64843345,4
-1.2309224605560305,1.7342106103897097,-0.22100389003753665,0.3167770504951477,-0.7968736999999999,-0.82253003,4
-1.0809576511383057,1.2600743770599363,0.08142953366041182,0.2745508849620819,-0.85918194,-0.9074403,4
-0.9518792033195496,1.0435431003570557,0.1379859894514084,0.21833567321300507,-0.40378192,-0.84391034,4
-0.7791449427604675,1.1369894742965698,-0.09857682138681413,0.1614280343055725,0.13469578,-0.78801614,4
-0.7616438269615173,1.5875700712203982,-0.6225062608718872,0.1914919912815094,0.2593123,-1.0012082,4
-1.1374589204788208,2.836063861846924,-1.3419641256332395,0.3467879891395569,-0.09285152,-1.2699889,4
-1.6083129644393919,5.591892719268799,-1.8921302556991575,0.407957136631012,-0.79809546,-0.8597928,4
-1.6202319860458374,8.157118797302246,-2.0354175567626958,0.5826498866081238,0.61178154,-0.8762861999999999,4
-1.4801977872848509,10.248103141784668,-1.3971185684204102,0.6999212503433228,-0.11148291,-0.50762904,4
-1.7186660766601562,12.035667419433596,-0.9402478337287904,0.6314775943756104,-1.0195341,0.2406809,4
-1.9480944871902464,13.502152442932127,-0.9938905835151672,0.4633367955684662,-0.5366451,0.6908886,4
-2.1310975551605225,14.687108039855955,-0.923859715461731,0.2896218001842499,-0.8604037,1.0910053,4
-2.443143606185913,15.60548496246338,-1.0399820804595947,0.10773593187332152,-0.40530908,1.106277,4
-2.9698128700256348,16.08382797241211,-1.3356282711029053,-0.0576508678495884,-0.08827003,0.81000733,4
-3.391356468200684,15.795573234558105,-1.7171865701675415,-0.1863800287246704,0.1133155,0.5235115,4
-3.4454164505004883,14.785679817199707,-1.9872888326644895,-0.24730856716632846,0.16920967,0.5039638,4
-3.0896530151367188,13.210124015808105,-2.0211048126220703,-0.2473304718732834,0.35796702,0.70554936,4
-2.4676218032836914,11.128607749938963,-1.895617127418518,-0.21337978541851044,0.57543504,0.7281514,4
-1.8937830924987795,8.753992080688478,-2.0174760818481445,-0.1462819278240204,0.5540548000000001,0.6939429,4
-1.947791576385498,6.331812381744385,-2.3825507164001465,-0.0583818219602108,-0.34116822,0.16371189,4
-2.255713939666748,4.4602012634277335,-2.1408069133758545,-0.0057246191427111634,-1.2009611,-0.09987647,4
-2.338751792907715,3.1657261848449707,-1.6219602823257446,-0.07949846237897873,-0.9621128,-0.047647487,4
-2.1909193992614746,2.40678071975708,-1.2205809354782104,-0.22280524671077728,-0.20799962,0.015271631,4
-1.9013199806213381,2.04533052444458,-0.9693047404289246,-0.3303389549255371,0.43157628,0.02321288,4
-1.547359824180603,1.9450395107269287,-0.7647706270217896,-0.384346604347229,0.8689558000000001,-0.0012217305,4
-1.2430400848388672,1.943867802619934,-0.5551868081092834,-0.4108363687992096,0.9465357,-0.058337633,4
-0.9431893229484558,1.9882559776306152,-0.35836830735206604,-0.3812061250209808,0.7058548000000001,-0.13927728,4
-0.5874289870262146,2.1736905574798584,-0.5316646695137024,-0.318340003490448,-0.28191432,-0.33169982,4
-0.42896637320518494,3.111639499664306,-2.0882940292358403,-0.02117768302559853,-1.6389513999999998,-1.1038336000000002,4
-0.3764784038066864,5.376759052276611,-2.730487823486328,0.3656094372272492,-1.7498235,-1.1667526,4
-0.6154289245605469,7.925458908081055,-2.245792388916016,0.588641881942749,-0.03604105,-1.3909402,4
-2.0459117889404297,10.149088859558104,-0.2175092101097107,0.6772297620773315,-1.4596626,-1.4550809999999998,4
-4.464266300201416,11.98025131225586,0.2336089462041855,0.4381406009197235,-0.79412484,-1.561677,4
-4.9472618103027335,13.462920188903807,-1.9235289096832275,0.34730008244514465,3.0039299,0.6273586,4
-3.936334609985352,14.64805793762207,-1.99823534488678,0.25497910380363464,2.2369885,1.473407,4
-3.063748836517334,15.525652885437012,-1.8464400768280032,0.036925643682479865,0.044593163,1.7724255000000002,4
-2.526946544647217,16.145256042480472,-1.9520891904830933,-0.19379085302352905,0.30268374,1.5231925,4
-2.280118227005005,16.24610710144043,-2.13480806350708,-0.3689854741096497,0.24373524,1.2217305,4
-2.214741468429565,15.408822059631348,-2.1616992950439453,-0.4812035858631134,-0.1563815,1.0235047,4
-2.193186044692993,13.76244831085205,-1.9634153842926023,-0.5547793507575989,-0.43371433,0.90377516,4
-2.0616021156311035,11.67723560333252,-1.6375539302825928,-0.6211361885070801,-0.3390302,1.0619892,4
-1.902830958366394,9.421759605407717,-1.5250787734985352,-0.6968867182731628,0.15057829,1.0677924,4
-1.8324997425079343,7.257503986358643,-1.7508606910705566,-0.7338922619819641,0.6020076999999999,0.95111716,4
-1.9746569395065308,5.537966251373291,-2.142858028411865,-0.6886959075927734,0.49938235,0.5839871999999999,4
-2.61812162399292,4.374081611633302,-2.8095366954803467,-0.4572999477386474,-0.23518312,-0.3191771,4
-3.3672332763671875,3.564422607421875,-2.926208972930908,-0.13755081593990326,-1.3158038,-0.80664754,4
-3.4519214630126958,2.863089799880981,-2.42197322845459,0.030073754489421844,-0.979217,-0.9434814,4
-2.875734567642212,2.1588599681854252,-1.8261431455612185,0.034680530428886414,-0.26847526,-0.66645396,4
-1.9509069919586184,1.6405879259109497,-1.528535008430481,0.02793755568563938,0.24220806,-0.2855795,4
-1.3633633852005005,1.3861228227615356,-1.3309482336044312,0.08458025753498077,0.12858713,-0.1994475,4
-1.0461559295654297,1.5254360437393188,-0.8815675377845764,0.11630341410636902,0.053450707,-0.17806722,4
-1.047474980354309,2.2214033603668213,-0.8327054977416992,0.034159518778324134,1.2843441999999998,-0.48991394,4
-1.5669411420822144,3.650015592575073,-0.9495833516120912,0.017678499221801758,0.63804877,-1.0677924,4
-2.0852994918823238,5.990807056427003,-1.052687406539917,0.06695421040058136,-0.27366763,-0.95539325,4
-1.9716111421585083,8.442976951599121,-0.9630713462829591,0.10731377452611923,-0.03176499,-0.70188415,4
-1.5969998836517334,10.570935249328613,-0.8415631651878357,0.1513662040233612,-0.44501534,-0.20616703,4
-2.0539870262146,12.32125759124756,-0.8958738446235657,0.15586714446544647,0.06963864,-0.23426682,4
-2.8187005519866943,13.738640785217285,-0.6894179582595825,0.09764790534973143,-0.93737274,0.10842858,4
-3.139054775238037,14.840044021606445,-0.7908449769020081,0.011572480201721191,0.22296582,0.6227771,4
-3.2748003005981445,15.647194862365724,-0.9498950242996216,-0.060896798968315125,0.16829337,0.81397796,4
-3.295732021331787,16.16037368774414,-1.141925573348999,-0.11974447965621947,0.60048056,0.82833326,4
-3.3895599842071533,15.713090896606445,-1.3124397993087769,-0.16667737066745758,0.5320636,0.5002986,4
-3.19038987159729,14.553521156311035,-1.3759599924087524,-0.1811879426240921,0.32742378,0.18295415,4
-2.6622347831726074,12.99602508544922,-1.264564037322998,-0.1520041972398758,0.06719518,0.17867808,4
-2.045139074325561,11.045228004455566,-1.1911109685897827,-0.0983046218752861,-0.03023783,0.10629055,4
-1.681143283843994,8.923645973205566,-1.3281766176223757,-0.035464312881231315,0.4560109000000001,-0.016187929,4
-1.698322892189026,6.939842700958253,-1.294505000114441,0.02607230469584465,0.10598512,-0.27122417,4
-1.7175713777542114,5.417671203613281,-1.1967910528182983,0.0599878616631031,-0.29535335,-0.2959642,4
-1.3754235506057741,4.308287620544434,-1.2429763078689575,0.04430842772126198,0.20280726,0.025045475,4
-0.9480643272399902,3.4965524673461914,-1.1776800155639648,-0.0012795879738405347,0.42913285,0.2415972,4
-0.6973427534103394,2.8574392795562744,-0.9710205793380736,-0.06082946062088013,0.44440445,0.23701571,4
-0.6765356659889221,2.307581186294556,-0.699478030204773,-0.0892522931098938,0.23090707,0.0070249503,4
-0.7502184510231018,1.8882699012756348,-0.4885292053222656,-0.05462854728102684,-0.02321288,-0.2565634,4
-0.789591372013092,1.677202224731445,-0.4957789182662964,0.04313763976097107,-0.10293079,-0.54061574,4
-0.902964174747467,1.7086513042449951,-0.6553903222084045,0.16068369150161746,-0.57787853,-1.0158689,4
-1.23219096660614,2.4232823848724365,-1.0577713251113892,0.3458746075630188,-1.0806206,-1.666135,4
-1.1887167692184448,4.478677272796631,-1.2544047832489014,0.4536976516246796,-0.37782016,-1.3399329,4
-0.8214432597160339,7.054514408111572,-1.6698825359344482,0.4211246967315674,2.0631974,-0.6933321,4
-0.8905170559883118,9.360527992248537,-0.8898695111274719,0.6035791635513306,0.9550878,-0.45478916,4
-2.424732446670532,11.320953369140625,-0.8601252436637878,0.4726969599723816,-2.459038,-1.4379768,4
-3.3966915607452397,12.92742919921875,-1.3956096172332764,0.4609398543834686,-0.8747590000000001,-1.0592403,4
-3.096107482910156,14.225348472595215,-2.196038007736206,0.35169804096221924,-0.04428773,0.7266241999999999,4
-2.832572221755981,15.234575271606445,-2.55935287475586,0.20626145601272586,1.0690142,1.7287487,4
-3.1351931095123287,15.942598342895508,-2.579303026199341,-0.032351553440093994,1.1148291,1.3515393999999998,4
-3.4538691043853764,16.086257934570312,-2.547081470489502,-0.2452213019132614,0.82436264,1.1447614,4
-3.1311304569244385,15.585165977478027,-2.5996909141540527,-0.3751802742481232,0.9419542,1.0656544,4
-2.5722885131835938,14.671590805053713,-2.326507329940796,-0.4124694466590881,0.5858198,1.0005972,4
-2.0519864559173584,13.29643726348877,-1.8844766616821291,-0.39632296562194813,0.26878070000000004,0.91690874,4
-1.514187216758728,11.480554580688475,-1.531766653060913,-0.33629634976387024,0.3472769,0.8219192,4
-1.003074049949646,9.475259780883787,-1.368554949760437,-0.27593305706977844,0.42760566,0.6395759,4
-0.6116831302642822,7.522641658782959,-1.35434091091156,-0.2682224214076996,-0.08827003,0.46211955,4
-0.6147913336753845,5.804000854492188,-1.5883240699768066,-0.2910912930965424,-0.84299403,0.018020526,4
-1.0657823085784912,4.392748832702637,-1.859692096710205,-0.238278329372406,-1.3435981,-0.50854534,4
-1.6088067293167114,3.227378845214844,-1.747872829437256,-0.17426209151744845,-1.5305228000000002,-0.6783658,4
-1.832558035850525,2.347572565078736,-1.5238280296325684,-0.1411537528038025,-0.94225967,-0.6545420999999999,4
-1.6939289569854736,1.848459362983704,-1.3911861181259155,-0.09920891374349594,0.10629055,-0.47647488,4
-1.362197756767273,1.6672135591506958,-1.2556983232498171,-0.056629985570907586,0.5311473000000001,-0.3717115,4
-0.9967010617256165,1.6444202661514282,-1.173213005065918,-0.046122629195451736,0.52106804,-0.28802297,4
-0.7389166951179504,1.7594374418258667,-1.2905339002609253,-0.034178245812654495,0.17959438,-0.3381139,4
-0.9696252942085266,2.1980535984039307,-1.863850474357605,0.026534296572208405,-0.70249504,-0.7892378999999999,4
-1.6441290378570557,3.628271341323853,-2.102571964263916,0.3259957432746887,-0.41141775,-1.3622295,4
-2.082836389541626,5.948328971862793,-1.9321031570434568,0.4332278370857239,-1.7858646,-1.1591167,4
-2.4609375,8.376172065734862,-2.3826284408569336,0.5422329306602478,-0.1572978,-1.4388931,4
-2.9344615936279297,10.422186851501463,-2.108959436416626,0.590196967124939,0.5039638,-1.4175128,4
-2.9579343795776367,12.081220626831055,-2.0035569667816158,0.543996274471283,0.21838433,0.04184427,4
-2.435444593429565,13.514023780822756,-1.53730046749115,0.35454824566841125,0.07727446,1.171945,4
-2.1717779636383057,14.691045761108398,-1.3344618082046509,0.05369297787547112,-0.61117065,1.6783522000000002,4
-2.660426616668701,15.642593383789062,-1.5576114654541016,-0.2231959104537964,-0.07544186,1.3637567,4
-3.4624907970428467,16.321306228637695,-2.00317931175232,-0.4537668228149414,0.18020524,0.84971356,4
-3.871215343475342,16.441221237182614,-2.600896120071411,-0.5511953234672546,0.7684685,0.6151413,4
-3.5882575511932373,15.831737518310547,-2.8916351795196533,-0.5136330723762512,0.6206391,0.43493605,4
-2.810793876647949,14.541686058044435,-2.7814860343933105,-0.4025331437587738,-0.3036,0.3912592,4
-1.9231916666030884,12.6984224319458,-2.5150814056396484,-0.22927266359329224,-0.39767328,0.45906523,4
-1.2544755935668943,10.491639137268066,-2.018237590789795,-0.05101276934146881,-0.053450707,0.6243043,4
-1.1450388431549072,8.077193260192871,-1.4656410217285156,0.02474913373589516,0.32589662,0.54825157,4
-1.6074312925338743,5.852480411529541,-1.1904720067977903,0.059033043682575226,0.29718593,0.19547687,4
-2.1576056480407715,4.267670631408691,-1.2313824892044067,0.1028473898768425,0.4361577999999999,-0.046731193,4
-2.3543894290924072,3.444126605987549,-1.3362535238265991,0.12445367872714995,0.6026186,-0.032986723,4
-2.359063148498535,2.8328363895416264,-1.2626636028289795,0.12442702800035475,0.3903429,-0.11026118,4
-2.162117481231689,2.372903347015381,-1.016316294670105,0.08223408460617065,0.10323623,-0.19058995,4
-1.823264956474304,1.9458559751510618,-0.7114506959915161,-0.00028756546089425683,-0.113926366,-0.33353242,4
-1.538573980331421,1.5050076246261597,-0.3563238978385925,-0.0979061722755432,-0.7348709,-0.56779927,4
-1.4682188034057615,1.1637966632843018,0.13421586155891418,-0.17206697165966034,-1.1844677,-0.93554014,4
-1.5522067546844482,1.0263278484344482,0.4908942878246307,-0.2278255373239517,-1.0421360999999998,-1.2452488000000002,4
-1.3865694999694824,1.6433751583099363,-0.9257795214653016,-0.2392779588699341,0.75533485,-1.2391402,4
-1.226462721824646,3.507617950439453,-1.7079944610595703,0.1434767246246338,0.3368922,-0.68325275,4
-1.8499832153320312,6.112441062927246,-2.5456619262695312,0.2314782440662384,1.6496416,-0.19394971,4
-3.2347559928894043,8.603487014770508,-2.230940580368042,0.5663911700248718,0.5140431,-1.0412198,4
-3.3745822906494136,10.549473762512207,-1.9578560590744016,0.7370574474334717,-0.95264435,-1.4364496,4
-3.0777900218963623,12.220643997192385,-1.9793440103530884,0.7489598393440247,-1.5048665,-0.7165449,4
-2.810281276702881,13.635848999023438,-2.234485387802124,0.5814226865768433,-0.13683382,0.9279043,4
-3.0833618640899663,14.785478591918945,-2.0069074630737305,0.2765592932701111,0.6105598000000001,1.7302758000000005,4
-3.668643712997437,15.611478805541992,-2.0286788940429688,-0.05754289776086807,0.8304713,1.6670512,4
-4.1346869468688965,16.198562622070312,-2.240775346755981,-0.33270356059074396,1.1389582,1.1820242,4
-4.1070332527160645,16.10422134399414,-2.313038110733032,-0.5430118441581726,0.82802784,0.8588764999999999,4
-3.662914037704468,15.124115943908693,-2.315715789794922,-0.6796540021896362,0.41599923,0.6728681,4
-3.0248351097106934,13.55046844482422,-2.080474376678467,-0.7142214775085449,-0.39645153,0.5497787,4
-2.15483832359314,11.551913261413574,-1.7895328998565674,-0.6479158401489258,-0.32742378,0.5742133,4
-1.3217175006866455,9.426063537597656,-1.605867862701416,-0.5782251358032227,0.47311515,0.66339964,4
-0.9019703269004822,7.235978126525879,-1.7309253215789795,-0.5676088333129883,0.4569272,0.71685034,4
-1.047364354133606,5.371836185455322,-1.8180952072143557,-0.4694169461727142,-0.41630468,0.27977628,4
-1.1003365516662598,3.982213973999024,-1.5413607358932495,-0.3659767210483551,-0.20372356,0.35216382,4
-0.9530562758445741,2.9849638938903813,-1.0808731317520142,-0.3614528477191925,-0.0009162979,0.36560285,4
-0.9640472531318665,2.3578128814697266,-0.6764248013496399,-0.4446871280670166,-0.010995574,0.04550946,4
-1.249135136604309,2.0927720069885254,-0.6244117021560669,-0.4902709722518921,0.1386664,-0.34666604,4
-1.510236382484436,2.020832061767578,-0.6656699776649475,-0.4801610112190247,0.20158553,-0.55680364,4
-1.3806085586547852,2.0234503746032715,-0.7883338928222656,-0.41740235686302185,0.19547687,-0.4428773,4
-0.9227076172828674,2.36657452583313,-1.4460824728012085,-0.3010607063770294,0.14966199,-0.34941490000000003,4
-0.7111404538154602,3.303370952606201,-2.0843853950500493,-0.055939987301826484,-0.17134771,-0.5653558000000001,4
-0.891796350479126,5.143052101135254,-2.0952069759368896,0.2453185617923737,-1.3384056999999998,-1.0140363,4
-1.0293604135513306,7.4414520263671875,-1.885408878326416,0.5274589061737059,0.12308934,-1.4422529,4
-1.4282783269882202,9.6021089553833,-0.4723679721355438,0.6923151016235352,-1.0680978,-1.6102408,4
-2.7147717475891118,11.500601768493652,0.018624773249030117,0.6352100968360901,-1.5500705,-1.2803736,4
-3.825707912445069,13.067383766174315,-0.6598373055458069,0.490484744310379,0.30298916,-0.10476339,4
-4.166306972503662,14.33645248413086,-1.1528735160827637,0.37510284781456,2.2672265,1.0690142,4
-3.905855655670166,15.338708877563475,-0.573343813419342,0.1782400906085968,0.7791585999999999,1.3368785,4
-3.4447474479675293,16.040521621704098,-0.3239920139312744,-0.10655556619167328,-0.310625,1.2287555,4
-2.8566207885742188,16.493911743164062,-0.44805464148521423,-0.3499056696891785,-0.4908302,1.1093313,4
-2.4188344478607178,16.318914413452152,-0.7722436785697937,-0.5063405036926271,-0.8940013000000001,0.95356065,4
-2.1869418621063232,15.294516563415527,-1.0513374805450442,-0.5768662095069885,-1.0952813999999995,0.71837753,4
-1.9955797195434568,13.608683586120605,-1.1253541707992554,-0.5534973740577698,-1.0036516,0.6612616,4
-1.8450621366500852,11.274392127990724,-1.1372212171554563,-0.5217930078506471,-0.7684685,0.6053675000000001,4
-1.833708643913269,8.939489364624023,-1.312192440032959,-0.4923771917819977,-0.45356745,0.47403142,4
-1.9619393348693848,6.9443016052246085,-1.5708966255187988,-0.41549599170684814,0.049785517,0.17440203,4
-2.2744405269622803,5.414759635925293,-1.934638857841492,-0.2622213363647461,0.08704830000000001,-0.38973203,4
-2.667964458465576,4.313403129577637,-2.1245017051696777,-0.0642155185341835,-0.30543262,-0.8735373,4
-2.8327045440673833,3.5200233459472656,-1.9293848276138303,0.07972341030836105,-0.3222314000000001,-0.91996306,4
-2.545031785964966,2.8958454132080083,-1.4963665008544922,0.13405735790729525,0.07971791,-0.70921457,4
-1.879355788230896,2.4015533924102783,-1.117104172706604,0.12572911381721494,0.46914452,-0.37507126,4
-1.1772806644439695,1.9768313169479368,-0.8846803307533264,0.1229170486330986,0.78801614,-0.27916542,4
-0.6978906393051147,1.6222940683364868,-0.5414278507232666,0.1124989166855812,0.7623598,-0.3036,4
-0.4863000214099884,1.3332798480987549,-0.09358569234609604,0.07130951434373856,0.7095199999999999,-0.28069258,4
-0.4151389896869659,1.2852542400360107,0.00830959714949131,0.04480861127376557,0.3567453,-0.37507126,4
-0.7089170813560486,1.9111807346343996,-1.201364517211914,0.16704075038433075,-0.27214047,-1.0699303999999998,4
-1.073123574256897,3.985368490219116,-2.164989948272705,0.2967545688152313,1.2565498,-0.84207773,4
-1.5298347473144531,6.685505390167236,-2.23058557510376,0.38367918133735657,0.535118,-0.15332718,4
-2.2968590259552,8.969508171081543,-1.5291599035263062,0.5067411065101624,0.37659842,-0.8772025,4
-3.3108580112457275,10.904202461242676,-1.204162836074829,0.4636664688587189,-1.1313223999999995,-0.79901177,4
-3.388010263442993,12.565998077392578,-1.29680335521698,0.2517173886299133,-1.2116512,0.5748241999999999,4
-3.0046546459198,13.92783260345459,-1.5928283929824831,-0.010746588930487631,-0.5198463,1.7504343999999998,4
-2.8413400650024414,15.029012680053713,-1.743397235870361,-0.2480252534151077,-0.058643065,2.1636846000000003,4
-2.8067898750305176,15.71904468536377,-1.918489694595337,-0.3911080062389374,0.49235737,1.7858646,4
-2.7206647396087646,15.560729026794435,-1.8726614713668823,-0.4581022560596466,0.20708331,1.0488556999999998,4
-2.6361231803894043,14.840373992919922,-1.8510804176330569,-0.4396419525146485,-0.30085114,0.6936375,4
-2.2875893115997314,13.43015193939209,-1.5930030345916748,-0.32959654927253723,-1.0497719,0.46975538,4
-1.608168363571167,11.246123313903807,-1.2271884679794312,-0.17175690829753876,-0.9975429,0.33078352,4
-1.0231167078018188,8.978076934814453,-0.9784606695175172,-0.03919437155127525,-0.7861836,0.22571471,4
-0.8756119012832642,6.900407314300537,-1.1136094331741333,-0.0028099671471863985,-0.42058071,0.14996742,4
-1.4408373832702637,5.273873805999756,-1.4987622499465942,0.032402656972408295,0.16798794,-0.27305678,4
-2.0939877033233643,4.123262405395509,-1.6978511810302734,0.11096619069576263,0.56046885,-0.23915374,4
-2.3035085201263428,3.1296586990356445,-1.501915693283081,0.18393118679523468,1.003957,0.03481932,4
-2.1267139911651607,2.2705612182617188,-0.9230055212974548,0.19502341747283936,0.88270026,0.2134974,4
-1.8475745916366575,1.7283092737197876,-0.4594978094100952,0.12437674403190613,0.79901177,0.15851954,4
-1.616371989250183,1.4845609664916992,-0.26885685324668884,0.06115032359957695,0.5494733,-0.13408493,4
-1.442984700202942,1.3815395832061768,-0.1878635287284851,0.040387451648712165,0.11911872,-0.50885075,4
-1.2960461378097534,1.2958669662475586,-0.16249527037143707,0.03698048740625382,-0.32528573,-0.8170323,4
-1.1535383462905884,1.28420889377594,-0.3047211170196533,0.07169398665428163,-0.79137594,-1.176221,4
-1.1432532072067259,1.5241881608963013,-0.7852239608764648,0.12886670231819153,-1.1725558,-1.9520199,4
-1.3427870273590088,3.1938061714172363,-1.5303760766983032,0.33691850304603577,0.1151481,-1.9773707,4
-1.7979260683059692,6.043434143066406,-2.57063102722168,0.4421597123146057,-0.9935723,-1.2522738000000002,4
-3.2883298397064213,8.595938682556152,-2.5812270641326904,0.8678735494613647,2.0873265,-2.4975226000000004,4
-3.94642972946167,10.560417175292967,-1.8618018627166748,1.0006365776062012,-1.0259482,-1.997224,4
-3.2867767810821533,12.264078140258787,-2.040600061416626,0.9244909286499025,0.7663304,0.81214535,4
-2.9968652725219727,13.53647232055664,-1.4249266386032104,0.6043514609336853,0.48166725,1.9990565,4
-2.9850642681121826,14.598254203796387,-1.0652799606323242,0.1783810406923294,0.026267206,2.2418754,4
-3.501497507095337,15.540075302124025,-1.1020087003707886,-0.21082758903503415,0.23487769,1.2162327,4
-4.002523899078368,16.20035171508789,-1.2427268028259275,-0.5497744679450989,0.04642576,0.38423425,4
-3.706009149551392,16.246038436889652,-1.7693841457366943,-0.7119459509849548,0.204029,0.30909783,4
-2.833007335662842,15.308701515197756,-2.176420927047729,-0.6552761793136597,-0.22449298,0.27275133,4
-1.6501492261886597,13.747344970703125,-2.390692710876465,-0.4795748591423034,-0.34238997,0.33383787,4
-0.5184566378593445,11.843844413757324,-2.380922794342041,-0.2449064999818802,-0.15454891,0.64934975,4
-0.028713554143905636,9.620841026306152,-2.1820852756500244,-0.04197937622666359,0.11148291,0.7104363,4
-0.0877024456858635,7.244884490966798,-1.837552785873413,0.10711288452148438,-0.66645396,0.44684792,4
-0.4742397367954254,5.1593894958496085,-1.558928370475769,0.21649228036403656,-0.88208944,0.034513887,4
-1.088639497756958,3.769683837890625,-1.3780471086502075,0.2607254683971405,-0.7360926,-0.18051068,4
-1.7015523910522459,2.9969935417175293,-1.327412486076355,0.2581616938114166,-0.40775254,-0.21502456,4
-1.825615406036377,2.523991346359253,-0.9498414993286132,0.23348556458950046,-0.14782938,0.018020526,4
-1.193429470062256,2.1078896522521973,-0.5519664883613586,0.20029769837856293,0.3378085,0.39492437,4
-0.8290892839431763,1.676874756813049,-0.4133141338825226,0.16923777759075165,0.86590147,0.40469822,4
-0.9354148507118224,1.3260029554367063,-0.2518133223056793,0.16678516566753387,0.5522222,0.013133603,4
-1.258177399635315,1.3909783363342283,-0.2273807823657989,0.18811196088790894,0.30176744,-0.5439755000000001,4
-1.7934798002243042,2.2863695621490483,-0.4830805361270905,0.21764956414699554,-0.20677789,-1.3038919,4
-2.583899736404419,4.551382541656494,-1.1527305841445925,0.2980892360210419,0.49418998,-1.6988163,4
-3.3893966674804688,7.222370624542236,-1.5320727825164795,0.17867276072502136,0.96577793,-1.3738358999999998,4
-4.448275566101074,9.574228286743164,-2.2430567741394043,0.16018806397914884,0.26236662,-2.2537873,4
-4.980615139007568,11.516862869262695,-2.376142978668213,0.07019336521625519,0.99021256,-1.7626517,4
-3.601558208465576,13.090394020080565,-3.248520374298096,-0.009155902080237864,1.0989466,0.9282097,4
-1.8079493045806885,14.34791374206543,-2.1488113403320312,-0.10766369104385376,0.2751948,2.6080892,4
-0.808989405632019,15.285026550292967,-1.3905184268951416,-0.4525857269763946,0.4822781,2.5363126,4
-0.5664896965026855,15.954222679138185,-1.1970704793930054,-0.6554628610610962,0.5662721,1.3139712,4
-0.7161264419555664,16.165781021118164,-1.2660449743270874,-0.7646350860595703,0.2574797,0.98532563,4
-0.7334079742431641,15.27188205718994,-1.441415309906006,-0.8397104740142822,0.2171626,0.65148777,4
-0.6735213398933411,13.679484367370605,-1.611032009124756,-0.7810781598091125,-0.38728857,0.41722095,4
-0.7003118991851807,11.547234535217285,-1.7901970148086548,-0.6147730946540833,-0.43463063,0.15118915,4
-0.8604523539543152,9.052591323852539,-1.8770009279251096,-0.38385260105133057,-0.6365215999999999,0.016187929,4
-1.1623133420944214,6.593163013458253,-1.8172308206558228,-0.14423634111881256,-0.9615019,-0.1001819,4
-1.3884471654891968,4.5668044090271,-1.6386971473693848,0.013256729580461979,-1.0647382,-0.056505036,4
-1.578377366065979,3.163569211959839,-1.4754655361175537,0.050575386732816696,-0.8054258000000001,-0.16126843,4
-1.7990487813949585,2.342314481735229,-1.3695716857910156,0.0506114661693573,-0.50243664,-0.38362336,4
-2.0302393436431885,1.9246470928192136,-1.2934751510620115,0.0617639534175396,-0.093767814,-0.6114761,4
-2.0649042129516597,1.8225605487823489,-1.0388771295547483,0.06021369621157646,-0.06780604,-0.6948592,4
-1.7633346319198608,1.8541725873947144,-0.6731887459754944,0.02366847544908524,-0.14202617,-0.61636305,4
-1.173998475074768,1.8172549009323118,-0.4027934074401856,-0.046915877610445016,0.10720685,-0.39522982,4
-0.5566911697387695,1.7701812982559204,-0.4934898018836975,-0.07319892942905426,-0.7144069000000001,-0.38362336,4
-0.3677257299423218,2.385467767715454,-1.309950590133667,0.1598186492919922,-1.2024882,-0.98746365,4
-0.7486916780471802,4.6647162437438965,-1.3674396276474,0.3406506180763245,-1.4086553,-1.2699889,4
-1.9128061532974243,7.304743766784668,-1.4202419519424438,0.4042031764984131,-0.5152648,-1.3942999,4
-3.1775026321411133,9.638537406921387,-1.6436233520507812,0.4391235411167145,0.23304509,-1.349096,4
-3.822686910629273,11.56586456298828,-2.03100323677063,0.37101626396179205,1.2406673,-0.6728681,4
-3.6959903240203857,13.12859344482422,-2.0236554145812993,0.2243003845214844,-0.20830505,0.25809056,4
-2.9529595375061035,14.381431579589846,-2.154940128326416,0.08705586940050125,0.22693644,1.2116512,4
-2.7047040462493896,15.273712158203125,-2.207602262496948,-0.040609709918498986,-0.22815818,1.6502525,4
-3.0706191062927246,15.840897560119627,-2.3538475036621094,-0.15581901371479034,0.39522982,1.4538593,4
-3.660978794097901,15.907072067260742,-2.5287325382232666,-0.2417779564857483,0.18692477,1.0054842,4
-3.7391467094421382,15.139291763305664,-2.5562801361083984,-0.2944371998310089,-0.02687807,0.6973026999999999,4
-3.2743337154388428,13.7070951461792,-2.236068725585937,-0.33120232820510864,-0.6401868000000001,0.3643811,4
-2.440136194229126,11.855133056640625,-1.8520656824111936,-0.4111656546592712,-0.71776664,0.38453966,4
-1.5802162885665894,9.724709510803224,-1.803413271903992,-0.4984848499298096,0.17134771,0.5720753000000001,4
-1.5839184522628784,7.3334693908691415,-1.7360751628875732,-0.4800946414470673,0.6976081000000001,0.61911196,4
-2.229791641235352,5.238211631774902,-1.5116766691207886,-0.4062286019325256,0.15515977,0.17989981,4
-2.46025824546814,3.835825204849243,-1.3905102014541626,-0.32043665647506714,-0.030543262,-0.03176499,4
-2.1213769912719727,2.938840389251709,-1.3761539459228516,-0.3050385117530823,0.41508293,-0.14049901,4
-1.443439483642578,2.399097681045532,-1.1205154657363892,-0.3052240312099457,0.49754974,-0.10995574,4
-0.9623189568519592,2.0836668014526367,-0.7482003569602966,-0.3176201283931732,0.46975538,-0.24678956,4
-0.9149222373962402,1.905241847038269,-0.5079553723335266,-0.3130563795566559,-0.13194689,-0.46975538,4
-1.0678386688232422,1.7714442014694214,-0.4339570999145508,-0.2506422996520996,-0.75900006,-0.77457714,4
-1.046168088912964,1.8343991041183472,-0.7428875565528871,-0.18106569349765775,-1.1743883999999998,-1.0387764000000002,4
-0.8147318959236145,2.3271491527557373,-1.6244587898254397,-0.061643306165933616,-0.66553766,-1.1560625,4
-0.5108758211135864,3.6011340618133545,-2.384380340576172,0.2465895414352417,-0.23060162,-0.99173975,4
-0.3499256670475006,5.9872779846191415,-2.378939151763916,0.5559683442115784,0.4111123,-0.61666846,4
-2.070154428482056,8.52079963684082,-1.2588385343551636,0.8468648195266724,-0.8891144,-1.3182472,4
-4.5200843811035165,10.656469345092773,-1.7428269386291504,0.9052187204360962,-0.050396383,-2.620001,4
-4.50507402420044,12.396366119384766,-2.2174608707427983,0.8435986638069153,1.4046847,-0.41996986,4
-3.24903416633606,13.799450874328613,-1.5652546882629397,0.5826870799064636,1.3924674,1.459968,4
-2.431996583938598,14.914387702941895,-0.968174695968628,0.20552797615528107,-0.6215554,2.0259347,4
-2.160789966583252,15.791339874267578,-0.8248890042304993,-0.10425296425819396,-1.0354166,2.0479257,4
-2.3864541053771973,16.446346282958984,-1.0328595638275146,-0.3802007138729096,-0.38728857,1.462106,4
-2.8957908153533936,16.603322982788086,-1.5114473104476929,-0.5784716606140137,-0.3145956,1.3139712,4
-3.1640937328338623,15.809967041015625,-1.9652531147003172,-0.6585095524787903,-0.23151793,1.1395692,4
-3.142065525054932,14.06637477874756,-1.9128237962722776,-0.6917495131492615,-0.3408628,1.0403035,4
-2.6322503089904785,11.543173789978027,-1.4652495384216309,-0.7273032665252686,-0.11942416,1.1539245,4
-2.090183019638061,9.007814407348633,-1.1817078590393066,-0.7503841519355774,-0.01160644,1.0057896000000002,4
-1.7876503467559814,6.694236755371094,-1.425823450088501,-0.6840150356292725,0.39522982,0.6621779000000001,4
-1.9490200281143188,5.2277936935424805,-1.9890154600143437,-0.507120668888092,0.37598756,0.06811147,4
-2.559810876846313,4.3312153816223145,-2.339788913726806,-0.2614172995090485,-0.65118235,-0.75991637,4
-3.1226520538330083,3.651565790176392,-2.0404293537139893,-0.1015702188014984,-1.7785342,-1.4712689,4
-2.9770023822784424,3.0140590667724614,-1.5448567867279053,-0.10664395987987517,-1.6181821,-1.7085901,4
-2.0935444831848145,2.4539570808410645,-1.1746116876602173,-0.09688309580087663,-0.5665775,-1.0180069,4
-1.1304254531860352,2.0612800121307373,-1.058529257774353,-0.016611415892839432,0.38912117,-0.4288274,4
-0.5098929405212402,1.84567666053772,-1.0197629928588867,0.10327424854040146,0.8472700999999999,-0.13622294,4
-0.15109063684940338,1.9372566938400269,-1.022653341293335,0.1969919055700302,0.98746365,-0.09132435,4
-0.15727269649505615,2.691155195236206,-1.8457803726196291,0.3091350197792053,-0.90102625,-0.8594874,4
-1.0582431554794312,4.5937933921813965,-2.6986560821533203,0.6129488348960876,-0.2284636,-1.7397442,4
-2.335500955581665,7.1628241539001465,-1.917981505393982,0.7515530586242676,-1.5234979,-1.981036,4
-2.8096730709075928,9.514107704162598,-1.1144882440567017,0.8632357716560364,1.0323622,-1.8154916,4
-3.227001667022705,11.47553539276123,-1.4492818117141724,0.735446572303772,-1.1129965,-0.7687739,4
-2.898174285888672,13.059810638427734,-1.886807084083557,0.5966432094573975,0.87781334,0.93492925,4
-2.606352567672729,14.323933601379395,-1.830594062805176,0.4585978090763092,-0.07788532,1.5005904,4
-2.717156410217285,15.322574615478516,-1.8992677927017207,0.30655914545059204,-0.8698720999999999,1.7131716,4
-3.1515080928802486,16.107954025268555,-2.0683023929595947,0.14268042147159574,-0.21471913,1.5928311000000002,4
-3.71733021736145,16.328041076660153,-2.322122097015381,0.016843661665916443,0.25717425,1.1432343,4
-3.9048283100128174,15.54115390777588,-2.4754159450531006,-0.06773566454648973,0.2501493,0.7620544,4
-3.6202120780944815,14.02041244506836,-2.4190099239349365,-0.10311765968799592,0.19975294,0.6759224,4
-3.1476099491119385,12.054375648498535,-2.128711700439453,-0.12040024995803833,0.17684549,0.67164636,4
-2.804931640625,9.824178695678713,-1.81787633895874,-0.15059785544872284,0.42485678,0.7113526,4
-2.7575972080230717,7.568156242370605,-1.7024614810943604,-0.1853588968515396,0.86834496,0.6753115,4
-2.9764304161071777,5.549452781677246,-1.703889012336731,-0.19535493850708008,1.1887437,0.3051272,4
-3.2991602420806885,4.081336975097656,-1.78655207157135,-0.1808040887117386,1.3924674,-0.10140363,4
-3.46253514289856,3.2787592411041264,-1.8562165498733518,-0.1572893261909485,1.325883,-0.4111123,4
-3.3541660308837886,2.7610979080200195,-1.838735580444336,-0.13282576203346252,1.0983357,-0.72784597,4
-2.973594665527344,2.317856311798096,-1.680148720741272,-0.0988386869430542,1.0042624,-0.8304713,4
-2.272078514099121,1.9131132364273071,-1.392120361328125,-0.061560779809951775,1.1307116,-0.57360244,4
-1.3503438234329224,1.6501586437225342,-1.0820684432983398,0.022409511730074886,0.88300574,-0.11484267,4
-0.4742822647094727,1.6564172506332395,-0.8911218643188477,0.13222682476043698,0.9615019,0.058337633,4
0.04401735961437225,1.9633117914199831,-0.7489385604858398,0.16710418462753296,0.5720753000000001,-0.21838433,4
-0.5463856458663939,3.1874475479125977,-0.5335363745689392,0.14997367560863495,0.11453723,-1.0552697,4
-1.667992115020752,5.511025428771973,0.06468011438846588,0.15240685641765594,0.8509353000000001,-1.3704761,4
-2.6358156204223637,8.034180641174316,-0.005590474233031273,0.007448207121342421,-0.5174029,-1.2275337,4
-2.808910131454468,10.236979484558104,-1.2642521858215332,-0.061129130423069,0.44135013,-1.0036516,4
-2.4738695621490483,12.051876068115234,-1.7915139198303225,-0.013203009963035585,-0.43676865,-0.6585127,4
-2.1417586803436284,13.520990371704102,-2.3667049407958984,0.061915155500173576,-0.9596693,0.31795537,4
-1.7818905115127563,14.684773445129395,-2.467346429824829,0.11307848989963533,-0.29626966,1.4590516000000002,4
-1.7329272031784058,15.553555488586426,-2.015997171401977,0.08932211995124817,-0.09865474,1.6847663,4
-2.308948278427124,15.992704391479492,-1.662389636039734,0.035723913460969925,-0.72601336,0.97585726,4
-3.1692848205566406,15.889467239379885,-1.94214391708374,-0.006135547533631325,-0.22876903,0.52015173,4
-3.6984281539916988,15.06586742401123,-2.2446277141571045,-0.054199714213609695,-0.12705997,-0.018936822,4
-3.520037651062012,13.769572257995605,-2.0783374309539795,-0.09017960727214812,-0.8854492,-0.3903429,4
-3.1360657215118413,11.871702194213867,-1.74193274974823,-0.06607907265424727,-0.9440921999999998,-0.6768387,4
-2.7151174545288086,9.699596405029297,-1.3738000392913818,0.016012730076909062,-0.97158116,-0.77640975,4
-2.155897855758667,7.598843097686768,-1.4331320524215698,0.0631997212767601,0.010079277,-0.4251622000000001,4
-1.7299448251724243,5.954049587249756,-1.947762489318848,0.11710456758737565,0.5476406999999999,-0.18417588,4
-1.4142427444458008,4.799243450164795,-2.1578223705291752,0.16247643530368805,1.1927143,0.04642576,4
-1.126094102859497,3.918203115463257,-1.7743399143218994,0.13099007308483124,1.2831224,0.08674286,4
-0.8688390851020813,3.192974090576172,-1.155909776687622,0.021247511729598045,1.0268645,-0.071776666,4
-0.6744081377983093,2.581003189086914,-0.7114061117172241,-0.05421926453709602,0.35918877,-0.3109304,4
-0.4826018512248993,2.0680363178253174,-0.445391982793808,-0.06473097950220108,-0.44837508,-0.4868596,4
-0.3274726569652557,1.6561633348464966,-0.2814920544624329,-0.01849374920129776,-1.0531317,-0.6768387,4
-0.3584497272968292,1.42120361328125,-0.4173815846443176,0.05344448611140251,-1.1023063999999998,-0.9138544,4
-0.9697067737579346,1.76749587059021,-1.5997402667999268,0.23332761228084564,-0.7675522,-1.7003433999999995,4
-1.3026624917984009,3.3659656047821045,-1.9866873025894165,0.4415400922298432,-1.1829406,-1.457219,4
-1.3902019262313845,5.85561990737915,-3.209039688110352,0.435702383518219,1.1074986,-0.9166033,4
-2.4778006076812744,8.339571952819824,-3.2658252716064453,0.6726910471916199,1.3170254,-1.2809844,4
-3.939130544662476,10.316360473632812,-2.390217065811157,0.7402615547180176,-0.83077675,-1.7638733,4
-4.269610404968262,11.922738075256348,-3.267035484313965,0.8185561299324036,0.93645644,-0.7910705,4
-3.926945686340332,13.368714332580565,-2.8544461727142334,0.7203496098518372,-0.03023783,0.5335908,4
-3.4281482696533203,14.57334804534912,-2.5589404106140137,0.4408133625984192,-0.13897185,1.7434093999999998,4
-3.3051025867462163,15.547928810119627,-2.2120130062103267,0.0965944528579712,-0.5873469,1.8182404,4
-3.713213443756104,16.321590423583984,-2.0446009635925293,-0.22159750759601596,-0.68600166,1.3469579,4
-4.3263278007507315,16.804412841796875,-2.192880392074585,-0.5074174404144287,-0.9605856,0.82741696,4
-4.419959545135498,16.549348831176758,-2.8964061737060547,-0.6359076499938965,-0.017104227,0.93462384,4
-4.039561748504639,15.445236206054688,-3.346913576126098,-0.5770727396011353,0.43127087,1.1527027,4
-3.5170896053314213,13.59678840637207,-3.253215074539185,-0.4093315899372101,0.55680364,1.3090841999999998,4
-3.069791555404663,11.112679481506348,-2.758633852005005,-0.2598766982555389,0.41905355,1.2754866000000002,4
-2.694045305252075,8.270358085632324,-2.1748433113098145,-0.24744708836078644,-0.3454443,0.80756384,4
-2.467712640762329,5.7590699195861825,-1.990206480026245,-0.32337525486946106,-0.5109888,0.29535335,4
-2.7475171089172363,4.164163589477538,-2.1734955310821533,-0.32675856351852417,-0.43982297,-0.14874569,4
-3.138360977172852,3.3744695186614986,-2.5057148933410645,-0.24279870092868805,0.15027285,-0.6075055,4
-3.453212022781372,2.712902784347534,-2.5364933013916016,-0.1005520224571228,0.39064834,-0.9611965,4
-3.3931827545166016,2.0858995914459233,-1.986135959625244,0.019442873075604442,0.24862215,-1.1166617,4
-2.6890461444854736,1.5994975566864014,-1.1091296672821045,0.05521476268768311,0.4746423,-0.79137594,4
-1.5238593816757202,1.3247480392456057,-0.6173300743103027,0.03379538282752037,1.2764030000000002,-0.20799962,4
-0.4353145658969879,1.298949956893921,-0.8368647694587708,-0.09716002643108368,0.5522222,0.183565,4
0.19250985980033875,1.697974443435669,-1.1914318799972534,-0.20860375463962555,0.4654793,0.4868596,4
0.1731824427843094,2.7275779247283936,-1.091889500617981,-0.19808010756969446,2.0690005,0.19517145,4
-0.9265029430389404,5.003903388977051,-0.9334926605224608,-0.2024061679840088,0.57543504,-0.88239485,4
-2.32319974899292,7.60533332824707,-1.6114636659622192,-0.1336982697248459,-1.5439618999999998,-1.1872166000000002,4
-2.7154252529144287,9.885416030883787,-2.311814069747925,0.03835316002368927,-0.41905355,-1.0677924,4
-2.5359017848968506,11.768030166625975,-1.5842770338058472,0.1420668065547943,-1.2599095,-0.74006325,4
-2.404484510421753,13.293411254882812,-1.2394739389419556,0.10852743685245514,-2.0360138,0.6814201999999999,4
-2.6010899543762207,14.471302032470705,-1.5206537246704102,0.011150342412292956,-0.035430185,1.2840388,4
-2.958030462265014,15.338614463806152,-1.7750554084777832,-0.1462472677230835,0.07391469,1.1557571000000002,4
-3.299307107925415,15.84676742553711,-1.982540845870972,-0.3046965301036835,0.5757405,1.1866057,4
-3.340989351272583,15.58571720123291,-2.023934841156006,-0.41067174077034,0.7275404999999999,1.0403035,4
-3.2648611068725586,14.597899436950685,-2.0079150199890137,-0.454208642244339,0.28527406,0.7996226,4
-2.9440996646881104,13.027114868164062,-2.045938014984131,-0.4365100860595703,-0.061391957,0.7706065,4
-2.3664450645446777,11.094975471496582,-1.9519180059432983,-0.3821636438369751,-0.29535335,0.8552113000000001,4
-1.951632261276245,8.987232208251953,-1.6890292167663574,-0.3360995054244995,-0.29352075,0.895223,4
-1.959072470664978,6.946319580078125,-1.5386216640472412,-0.32187458872795105,-0.172264,0.6924158,4
-2.1175096035003658,5.3159894943237305,-1.584933519363403,-0.2888240218162537,0.2302962,0.3933972,4
-2.3679873943328857,4.1025495529174805,-1.701970458030701,-0.2532674670219421,0.7611380999999999,-0.10629055,4
-2.605328321456909,3.268030881881714,-1.8841323852539065,-0.20346449315547946,0.9184359,-0.4801401,4
-2.853670358657837,2.5746383666992188,-1.761359930038452,-0.10495205223560332,0.2171626,-0.86193085,4
-2.8430867195129395,1.9595013856887815,-1.2369078397750854,0.010382966138422491,-0.91629785,-1.1191051,4
-2.2675647735595703,1.5040427446365356,-0.786433756351471,0.07156556099653244,-1.1502593,-0.88147855,4
-1.1863219738006592,1.3648028373718262,-1.090300440788269,0.1022827997803688,0.09712757,-0.11728613,4
-0.2623085975646973,1.6037888526916504,-1.715476393699646,0.13069726526737213,1.2003502,0.19792034,4
-0.15576379001140594,2.3147637844085693,-1.6055035591125488,0.15492340922355652,0.52381694,-0.1142318,4
-1.1955811977386477,4.1405296325683585,-1.4014571905136108,0.17665426433086395,0.2932153,-0.9795224,4
-3.5069675445556636,6.7228641510009775,-1.9034688472747805,0.3236628770828247,-0.74036866,-2.3854287,4
-4.490583419799805,9.133788108825684,-2.7519681453704834,0.7096301317214966,-0.67073005,-1.3848315,4
-3.7622880935668954,11.12044620513916,-2.6403956413269043,0.9922503232955932,0.65209866,-0.8304713,4
-3.176128387451172,12.386030197143555,-1.4557620286941528,1.0387816429138184,-0.8762861999999999,0.22143865,4
-2.884446620941162,13.512717247009276,-1.3892881870269775,0.8008973002433777,-0.3817908,1.3750577,4
-2.849170923233032,14.559182167053224,-1.3801697492599487,0.4684156477451325,0.301462,1.7241671000000005,4
-3.3734209537506104,15.476191520690918,-1.3547407388687134,0.1103093847632408,-0.32620203,1.4278975,4
-4.314634323120116,15.96402359008789,-1.6668990850448608,-0.2207219898700714,0.30970868,0.61483586,4
-5.222027778625488,15.60252285003662,-2.1580700874328613,-0.4612492918968201,0.81489426,0.27947086,4
-5.314813137054443,14.674307823181152,-2.582714557647705,-0.5839941501617432,0.9431759,0.05375614,4
-4.1467318534851065,13.181585311889648,-2.7342348098754883,-0.6092035174369812,0.1863139,0.05925392700000001,4
-2.534109354019165,11.433290481567385,-2.799342393875122,-0.6014295816421509,-0.35735616,0.14996742,4
-1.1446919441223145,9.469261169433594,-2.819854259490967,-0.5376291871070862,-0.3390302,0.3753767,4
-0.5062678456306458,7.3097243309021,-2.632453203201294,-0.4232851564884186,0.07269296,0.49632803,4
-0.717616856098175,5.1976356506347665,-2.294944524765014,-0.3381824493408203,-0.1572978,0.15393804,4
-1.4477981328964231,3.8181447982788086,-1.8510482311248782,-0.2649637460708618,-0.65087694,-0.36987892,4
-1.9853142499923704,3.2513306140899663,-1.4759652614593506,-0.20626246929168698,-0.31826079999999995,-0.44990227,4
-2.0583362579345703,3.026613712310791,-1.2609219551086426,-0.1909446269273758,0.08002335,-0.4633413,4
-1.657581806182861,2.9037528038024902,-1.2631981372833252,-0.1827238351106644,0.6554584,-0.2669481,4
-0.8959740996360779,2.6295223236083984,-1.278894543647766,-0.13076746463775635,0.94042706,-0.016187929,4
-0.09148924052715303,2.213921070098877,-0.9752038717269896,-0.033689748495817184,0.11728613,-0.024740042,4
0.4135427176952362,2.0062854290008545,-0.8931309580802917,0.08495182543992996,-0.72326446,-0.29993483,4
0.10414224863052368,2.967901945114136,-1.6451911926269531,0.4282408356666565,-1.5723672,-1.3264938999999998,4
-1.0455712080001829,5.630558490753174,-1.2620607614517212,0.6080625057220459,-0.15424347,-1.1701124,4
-1.8614718914031985,8.14035701751709,-0.7485369443893433,0.622929573059082,-1.0659598,-1.0940597,4
-2.440127372741699,10.07127571105957,-0.3748303949832916,0.5393848419189453,-0.3726278,-1.3048081,4
-3.063107252120972,11.851812362670898,-1.339529037475586,0.3746308982372284,-0.21197024,-0.32253686,4
-2.7579705715179443,13.344048500061035,-1.7954925298690796,0.2841386795043945,0.990518,1.1319333,4
-2.647876262664795,14.557173728942873,-1.668926239013672,0.1714765876531601,0.5177083,1.9581286,4
-3.410622358322144,15.518723487854006,-1.732379674911499,0.018576174974441532,-0.017104227,1.385137,4
-4.2796545028686515,16.013383865356445,-2.020092248916626,-0.13502199947834015,-0.06536258,0.8717046999999999,4
-4.686654090881348,15.95725154876709,-2.46985125541687,-0.2499193549156189,0.09040806,0.6068946,4
-4.500999450683594,15.368361473083494,-2.661236524581909,-0.2758039832115173,-0.16829337,0.37201694,4
-3.801916360855103,14.20604133605957,-2.457338809967041,-0.245968297123909,-0.4251622000000001,0.25992316,4
-2.9397857189178467,12.56635856628418,-1.9425997734069824,-0.17581862211227414,-0.6301074999999999,0.22693644,4
-2.205158233642578,10.609858512878418,-1.369316339492798,-0.1105540618300438,-0.54244834,0.23762658,4
-1.791869878768921,8.479652404785156,-1.0326391458511353,-0.08000669628381729,0.05222898,0.20891592,4
-1.8455188274383545,6.496928691864014,-1.0973764657974243,-0.08737761527299881,0.43982297,0.096516706,4
-2.2045159339904785,5.019789218902588,-1.4706298112869265,-0.13297241926193235,0.32711834,-0.13041973,4
-2.6758708953857417,3.996724367141724,-1.729509949684143,-0.1623689979314804,0.026267206,-0.4361577999999999,4
-3.1111485958099365,3.1843905448913574,-1.5943468809127808,-0.20030255615711207,0.076052725,-0.7339545999999999,4
-3.410210371017456,2.486544132232666,-1.0639270544052124,-0.2674761414527893,0.10354166,-1.0024298,4
-3.106342315673828,1.967968702316284,-0.4493737816810608,-0.3301717936992645,0.18203785,-0.8552113000000001,4
-1.954408884048462,1.5776467323303225,-0.11092153936624527,-0.4047164022922516,1.421178,-0.6093381,4
-0.6196832060813904,1.425962209701538,-0.0646076574921608,-0.4343883991241455,1.8096883,-0.42455134,4
