acc_x,acc_y,acc_z,gyro_x,gyro_y,gyro_z,label
0.0,0.0,0.0,0.0,0.028710667,-0.007330383,1
-0.048728439956903465,0.2845263481140137,-0.00984928850084543,0.0004976814379915595,0.07574729,0.009162978,1
-0.17130069434642792,0.9622637033462524,-0.03317002207040787,0.0019702473655343056,0.046120327,0.0015271631,1
-0.3500812351703644,1.9013580083847048,-0.06180112063884735,0.0036583226174116135,0.04917465,0.006414085,1
-0.5609045624732971,2.9532892704010014,-0.08414767682552338,0.0057275379076600075,0.06658431,0.004886922,1
-0.7898730039596558,4.001242160797118,-0.1039690226316452,0.0013307014014571905,0.07269296,0.00030543262000000003,1
-1.0108522176742554,4.954470157623291,-0.14240862429141998,-0.002505902899429202,0.058337633,-0.00061086525,1
-1.2017552852630615,5.782539367675781,-0.19124822318553925,-0.005505258683115244,0.03390302,-0.0070249503,1
-1.3787100315093994,6.490762710571289,-0.21452824771404266,-0.007478556130081416,0.048563786,-0.0021380284,1
-1.521373629570007,7.100748538970947,-0.17695346474647522,-0.007955876179039478,0.03390302,0.0076358155,1
-1.6401236057281494,7.604092121124268,-0.2605157792568207,-0.007966897450387478,0.041233405,0.014660766,1
-1.7414087057113647,8.00910472869873,-0.3897603452205658,-0.005252359434962273,0.027183503,0.011301007,1
-1.8281025886535645,8.336955070495605,-0.4857542216777802,-0.004615869373083115,-0.011911872,0.013439035,1
-1.8858562707901,8.591376304626465,-0.5654349327087402,-0.002977601019665599,-0.032986723,0.016798794,1
-1.91464364528656,8.791550636291504,-0.6128883957862854,-0.0015261865919455884,-0.03359759,-0.0021380284,1
-1.9331117868423464,8.961664199829102,-0.5983155369758606,-0.003070828737691045,-0.0030543262,-0.0012217305,1
-1.9536714553833008,9.11014461517334,-0.5410597920417786,-0.004482808522880077,0.024129177,0.0009162979,4
-1.9784947633743288,9.22378158569336,-0.4489572048187256,0.0037211829330772157,0.009162978,0.007330383,4
-2.02534818649292,9.289254188537598,-0.3066932260990143,0.013718318194150923,-0.03604105,-0.00061086525,4
-2.0879993438720703,9.328953742980957,-0.19099822640419006,0.017928179353475567,-0.0070249503,-0.03634648,4
-2.1475048065185547,9.350152969360352,-0.13432058691978455,0.019504733383655548,0.102319926,-0.062002823,4
-2.1882879734039307,9.35020351409912,-0.16231556236743927,0.022225463762879368,0.22052236,-0.09712757,4
-2.211178541183472,9.338149070739746,-0.2553779482841492,0.031232872977852818,0.2742785,-0.118507855,4
-2.2235007286071777,9.337736129760742,-0.3781369030475617,0.04404540359973908,0.24556783,-0.13408493,4
-2.194040060043335,9.372659683227539,-0.5008998513221741,0.06393597275018692,0.18570304,-0.10567969,4
-2.114182710647583,9.434415817260742,-0.600418210029602,0.08410972356796265,0.095294975,-0.05100725,4
-2.01144814491272,9.519986152648926,-0.6314254403114319,0.09671197831630708,-0.05772676700000001,0.0030543262,4
-1.87886905670166,9.62863540649414,-0.5663172602653503,0.08730432391166687,-0.21533,0.10445796,4
-1.7553155422210691,9.74149227142334,-0.4345721304416657,0.05546944588422775,-0.34788775,0.17715092,4
-1.6430162191390991,9.810129165649414,-0.25998640060424805,-0.001115157501772046,-0.35643986,0.27030787,4
-1.5166960954666138,9.79977321624756,-0.01267825998365879,-0.08766686916351317,-0.52381694,0.39645153,4
-1.359650731086731,9.70490264892578,0.3667194545269013,-0.22059974074363708,-0.75136423,0.5644395000000001,4
-1.2145711183547974,9.499344825744627,0.7285245060920715,-0.386040061712265,-0.86284715,0.75655663,4
-1.0863364934921265,9.221514701843262,0.9594502449035645,-0.5388569831848145,-1.4450017,0.9718866,4
-0.8641552329063416,8.969721794128418,1.1394340991973877,-0.678787350654602,-2.0576997,1.3735305,4
-0.5886266827583313,8.742475509643555,1.3101364374160769,-0.8508695363998413,-2.3356433,1.59558,4
-0.7190077900886536,8.35130500793457,1.1070102453231812,-0.9748172760009766,-0.04184427,0.8747590000000001,4
-1.1026082038879397,8.044392585754395,0.9858436584472656,-1.1769133806228638,1.2437216,0.8240572,4
-1.2075049877166748,8.034675598144531,0.6749612092971802,-1.3094143867492676,2.146275,0.57787853,4
-0.96190345287323,8.59913444519043,0.564629852771759,-1.3540003299713137,1.0616838,0.9443977,4
-0.6517020463943481,9.24301052093506,0.7249917984008789,-1.318729043006897,0.7021896,0.9239337,4
-0.4659668505191803,9.705618858337402,1.2152889966964722,-1.256991982460022,0.63621616,0.5183192,4
-0.5125133395195007,10.22603702545166,1.637886881828308,-1.1652966737747192,0.77518797,0.10445796,4
-0.6664945483207703,10.948430061340332,1.984080791473389,-1.0574188232421875,0.7706065,-0.119729586,4
-0.8196858763694763,11.898122787475586,2.3552076816558842,-0.9283061027526855,0.5345071,-0.3005457,4
-1.0823488235473633,12.833916664123535,2.7151880264282227,-0.7532352805137634,0.33994650000000004,-0.47128254,4
-1.4782984256744385,13.616662979125975,2.99207091331482,-0.5393845438957214,0.11759156,-0.62125,4
-1.8853689432144165,14.20753574371338,3.1665802001953125,-0.2912316620349884,-0.1777618,-0.76083267,4
-2.1747443675994877,14.65721035003662,3.2325727939605717,-0.024601539596915245,-0.41416663,-0.79779,4
-2.1731595993041988,14.834925651550293,3.1947333812713623,0.2354840636253357,-0.62796944,-0.81489426,4
-1.9818655252456665,14.643988609313965,3.0485548973083496,0.4579086005687714,-0.7107416999999999,-0.8051204000000001,4
-1.6369287967681885,13.936869621276855,2.7384610176086426,0.6283802986145021,-0.43951756,-0.7284568,4
-1.2163763046264648,12.739072799682615,2.3417649269104004,0.7504993081092834,0.21197024,-0.6575964,4
-0.8624970316886902,11.207895278930664,1.9846423864364624,0.8304818868637085,0.8542950999999999,-0.5381723,4
-0.6146688461303711,9.57081127166748,1.7833375930786133,0.8654177188873291,1.0687088,-0.42302418,4
-0.4184102714061737,7.962051391601562,1.8604735136032104,0.8387423157691956,0.6203337,-0.3555236,4
-0.18721045553684235,6.505246639251709,2.1157116889953613,0.7547795176506042,-0.22937989,-0.1563815,4
0.12887810170650482,5.269065380096436,2.286738157272339,0.6143532395362854,-1.1068878,0.18661933,4
0.4215286672115326,4.277632236480713,2.1720750331878658,0.5072594285011292,-1.0742066,0.5555819000000001,4
0.5750866532325745,3.4989492893218994,1.7873047590255735,0.4977619051933289,-0.64599,0.77671516,4
0.5835427641868591,2.8327758312225337,1.6065917015075684,0.4599706828594208,-1.1545353,0.7828238000000001,4
0.4582859873771668,2.256653308868408,1.5331090688705444,0.3151770830154419,-1.3374895,0.73823065,4
0.2360479086637497,1.8190786838531492,1.3138206005096436,0.13282760977745056,-0.84574294,0.6423248,4
-0.1536531001329422,1.7736157178878784,1.3691006898880005,-0.007497145328670741,0.15149458,0.31703907,4
-0.6404814124107361,2.732518434524536,1.986722469329834,-0.25180986523628235,0.3436117,0.06658431,4
-0.8374450802803041,4.781624794006348,1.7307735681533811,-0.501255989074707,3.8090503,0.23457226,4
-1.2917916774749756,7.344043731689452,2.4965198040008545,-0.6577961444854736,-0.09132435,-0.21135938,4
-1.97799551486969,9.51487636566162,1.8940154314041135,-0.7290498614311218,1.6413950000000002,-0.34697145,4
-1.7882705926895142,11.405241012573242,1.7331860065460205,-0.6222861409187317,-0.408058,0.47952923,4
-0.4115197658538817,12.98520278930664,1.983222246170044,-0.3757458627223969,-1.9135354,0.4465425,4
0.5490970611572266,14.26987361907959,2.74416446685791,-0.07102075964212418,-3.807523,0.4343252,4
-0.12781070172786713,15.205262184143065,3.277294635772705,0.18311969935894007,-1.0906999,-0.28313604,4
-1.8650991916656492,15.429004669189453,3.058522224426269,0.2505595088005066,1.8723019,-1.1603385,4
-3.307590961456299,15.145341873168945,2.7174458503723145,0.2334735095500946,1.5418239,-1.319469,4
-3.758662223815918,14.646116256713867,2.592276334762573,0.2627163827419281,0.74006325,-1.2812898,4
-2.966892957687378,13.719557762145994,2.4624500274658203,0.3273998200893402,-0.034513887,-1.028697,4
-1.8517599105834959,12.420751571655273,2.2336056232452397,0.4467057585716248,-0.18570304,-0.72418076,4
-0.8728263378143309,10.785696983337402,1.9115982055664065,0.593512237071991,-0.11209377,-0.5207626000000001,4
-0.1966998279094696,8.994528770446777,1.753247857093811,0.6818653345108032,-0.462425,-0.41538838,4
0.2015747576951981,7.27151346206665,1.7521724700927734,0.6355582475662231,-0.7654141999999999,-0.26267207,4
0.5330348610877991,5.8061771392822275,1.8101744651794436,0.4889678657054901,-0.54702985,0.12614368,4
0.7858928442001343,4.622495174407959,1.836437463760376,0.3430356681346893,-0.4334089,0.58551437,4
0.8745124936103821,3.690330028533936,1.6619861125946045,0.2614700496196747,-0.38331795,0.7425067,4
0.8379705548286438,3.0077228546142583,1.42409086227417,0.21511434018611908,-0.74220127,0.8231409,4
0.8206109404563904,2.521575927734375,1.31170654296875,0.17198356986045835,-1.1734722,0.7812967,4
0.6580836176872253,2.188669204711914,1.4027653932571411,0.10868514329195024,-0.79137594,0.57848936,4
0.07738335430622101,2.2500760555267334,1.994875192642212,-0.08591575920581818,-0.28619036,0.33444872,4
-0.7784695029258728,3.23547911643982,2.6008169651031494,-0.4985864460468292,2.038152,0.5479460999999999,4
-1.17100191116333,5.3156471252441415,1.9745010137557983,-0.6737001538276672,2.8142562,0.59864795,4
-0.8340211510658264,7.788011074066162,1.9226548671722408,-0.7628368735313416,-2.2052236,0.41813725,4
-0.3313350975513458,10.02022933959961,2.0632259845733643,-0.6847246289253235,-1.1420126,0.6713409,4
-0.2395103573799133,11.871716499328613,2.3085665702819824,-0.4834203720092773,-1.1255191999999998,0.4636467000000001,4
-0.7613867521286011,13.373319625854492,2.7201948165893555,-0.24736906588077545,-0.35796702,-0.18173242,4
-1.6635007858276367,14.498391151428224,2.9977853298187256,-0.10718394070863724,0.7987063,-0.72051555,4
-2.424992561340332,15.210531234741213,3.066217422485352,-0.011060202494263649,1.2577715,-1.1078042,4
-2.6492345333099365,15.441520690917967,3.100876808166504,0.09344304352998734,0.66553766,-1.1664472,4
-2.268737316131592,15.163247108459473,2.9284958839416504,0.20713214576244354,-0.20463985,-1.0054842,4
-1.5813710689544678,14.380539894104006,2.523270845413208,0.3380677103996277,-0.121256754,-0.6768387,4
-0.9778712391853333,13.17232608795166,2.0955548286437993,0.4670133292675018,0.18112154,-0.4352415,4
-0.6194642186164856,11.658702850341795,1.764912486076355,0.5527352094650269,0.22235495,-0.2837469,4
-0.5228756070137024,9.904918670654297,1.5695723295211792,0.5657188296318054,-0.17379116,-0.20799962,4
-0.5465695858001709,8.039246559143066,1.5202498435974119,0.5214031338691711,-0.67256266,-0.08704830000000001,4
-0.5646308064460754,6.202274799346924,1.565368413925171,0.4616827666759491,-0.7892378999999999,0.017715093,4
-0.3478708565235138,4.488675117492676,1.6119304895401,0.3574519455432892,-0.5656611999999999,0.079107046,4
0.14246773719787598,3.2545349597930913,1.3168853521347046,0.255825012922287,-0.094989546,0.33261612,4
0.5509107112884521,2.5894558429718018,0.812481164932251,0.2322122901678085,0.3930918,0.63163465,4
0.7492101192474365,2.227560043334961,0.4368007779121399,0.2233403027057648,0.47555858,0.729984,4
0.8250806927680969,2.1540877819061284,0.9316810369491576,0.1763274073600769,-0.8781188,0.6218608,4
0.5654574632644653,2.2085039615631104,1.6026012897491455,0.0024484687019139533,-1.3136656999999998,0.6169739000000001,4
0.02018008753657341,2.5754847526550293,2.178100824356079,-0.2533576190471649,-0.7699956,0.38881573,4
-0.5431191921234131,3.838102102279663,2.0848870277404785,-0.5063965916633606,0.77396625,0.52015173,4
-1.0740268230438232,5.7871761322021475,1.677043318748474,-0.5874208211898804,1.1597277,0.36041048,4
-1.6597063541412354,7.842636108398437,0.9769987463951112,-0.6819719076156616,0.59528816,0.011911872,4
-1.5223323106765747,9.851778030395508,0.4518836438655853,-0.5932377576828003,-0.62949663,0.36865717,4
-0.015710072591900826,11.675559997558596,1.2599908113479614,-0.2824094593524933,-3.388164,0.86009824,4
1.0748815536499023,13.20185375213623,2.0278191566467285,-0.02375230006873608,-1.7965547,0.34177909999999995,4
0.3168057203292847,14.43096160888672,2.319311141967773,0.09258731454610823,1.2883148000000002,-0.25992316,4
-1.3726104497909546,15.25762939453125,2.379002809524536,0.07841578125953674,1.4306464,-1.058324,4
-2.784042835235596,15.819169998168945,2.5379467010498047,0.08250538259744644,0.88025683,-1.1209377,4
-3.320708513259888,15.995458602905273,2.6430423259735107,0.1299518346786499,0.4260785,-1.1508701,4
-3.0503077507019043,15.659683227539062,2.6670753955841064,0.1972811073064804,-0.26175576,-0.97219205,4
-2.27053451538086,14.701526641845705,2.4059224128723145,0.2735598385334015,-0.038179077,-0.67011917,4
-1.4794830083847046,13.110952377319336,2.0194053649902344,0.3440198302268982,0.21013765,-0.47647488,4
-0.9234151244163512,11.242274284362793,1.6243027448654177,0.32086044549942017,0.54702985,-0.40561453,4
-0.5656297206878662,9.289913177490234,1.2620998620986938,0.20146280527114868,0.79626286,-0.31764993,4
-0.3315765857696533,7.3726396560668945,1.002838373184204,0.07819172739982605,0.93554014,-0.15241088,4
-0.15141001343727112,5.6120476722717285,0.9205515384674072,0.005633069667965175,0.7654141999999999,0.016493361,4
0.04908803850412369,4.1474595069885245,0.9794777035713196,-0.03240085765719414,0.18112154,0.24281894,4
0.1974964290857315,3.168851375579834,0.9772399067878724,-0.014197233133018015,-0.20372356,0.310625,4
0.2707155644893646,2.7120728492736816,0.9078114628791808,0.0766863077878952,-0.14446963,0.3979787,4
0.30719050765037537,2.5732550621032715,1.06976056098938,0.15385021269321442,-0.41996986,0.3924809,4
0.4068030416965485,2.4649715423583984,1.3545714616775513,0.09280487895011902,-0.47952923,0.4437936,4
0.5400224924087524,2.2782444953918457,1.4522395133972168,-0.08431816101074219,-0.7492262,0.58551437,4
0.6952269077301025,2.268671989440918,1.5697623491287231,-0.29523766040802,-1.4520267,0.9645562,4
0.4532045722007752,2.9134609699249268,1.9183272123336792,-0.5508843064308167,0.16890424,0.8689558000000001,4
-0.4091362059116364,4.632084369659424,1.7417154312133791,-0.5616554021835327,2.7403414,0.81306165,4
-1.1815999746322632,7.248778343200684,1.3554017543792725,-0.6486450433731079,1.9608774,0.5540548000000001,4
-0.5019571781158447,9.609572410583496,2.305370807647705,-0.5806518793106079,-2.5943446,0.9954049,4
-0.15318557620048526,11.548932075500488,3.035994291305542,-0.4222220480442047,-0.8151997,0.56138515,4
-1.4147080183029177,13.117572784423828,3.3233346939086914,-0.2237652838230133,0.6417139000000001,-0.10629055,4
-3.071141481399536,14.295673370361328,3.316253662109375,-0.10396531224250792,1.2617421,-0.8408559999999999,4
-4.13560152053833,14.999171257019045,3.200612068176269,0.01214337721467018,0.97524637,-1.2718215,4
-4.1652846336364755,15.178014755249025,3.155668973922729,0.1393495947122574,0.23335053,-1.2586879,4
-3.4168763160705566,14.749323844909668,2.9484691619873047,0.2509037256240845,-0.08216137400000001,-0.89980453,4
-2.456023931503296,13.770158767700195,2.4367430210113525,0.3533197045326233,0.14080444,-0.5112942,4
-1.6358585357666016,12.331334114074707,1.924890637397766,0.4316444396972656,-0.048563786,-0.28130344,4
-1.1106634140014648,10.587696075439453,1.5414668321609497,0.4544879794120789,-0.5561928,-0.15699236,4
-0.8565378785133362,8.620948791503906,1.3399077653884888,0.4574246108531952,-0.86345804,0.020158553,4
-0.7324327826499939,6.539161682128906,1.3270436525344849,0.4630268812179565,-0.5693264,0.08704830000000001,4
-0.4882275760173798,4.528635501861572,1.532384753227234,0.3938903510570526,-0.04917465,0.09437868,4
-0.012911046855151652,3.197349071502685,1.5007773637771606,0.2546685039997101,-0.14599679999999998,0.1142318,4
0.3842084109783173,2.7132036685943604,1.0513824224472046,0.1886209100484848,0.016187929,0.4251622000000001,4
0.66056227684021,2.59073543548584,0.7466307282447815,0.14454112946987152,-0.0693332,0.62980205,4
0.8265901803970337,2.590174913406372,0.7297860980033875,0.06806164979934692,-0.1282817,0.743423,4
0.8466215133666992,2.443202257156372,0.8468673229217529,-0.039916250854730606,-0.014966198,0.9101892,4
0.7457621693611145,2.1948671340942383,0.8815953135490417,-0.17573952674865725,-0.11636983,0.9080511999999998,4
0.3132330775260925,2.175775051116944,1.1926954984664917,-0.3143621385097504,-1.217149,0.5366451,4
-0.33998265862464905,3.032864809036255,2.0187015533447266,-0.6085136532783508,0.7098253999999999,0.33750305,4
-0.948370099067688,4.897017955780028,2.068445444107056,-0.583523154258728,1.8377881,0.28710666,4
-1.7612035274505615,7.280146598815918,1.3101550340652466,-0.6560303568840027,1.3686435,-0.12980886,4
-1.6067277193069458,9.565973281860352,1.2665971517562866,-0.5132068991661072,-2.785851,0.70280045,4
0.012459074147045612,11.495924949645994,1.9262145757675169,-0.19475865364074707,-2.5854871,0.5732970000000001,4
0.3695113658905029,13.069786071777346,2.509058713912964,0.07090066373348236,0.70646566,0.09040806,4
-0.8185513019561768,14.32197093963623,2.7092862129211426,0.09304310381412506,2.3203716,-0.6814201999999999,4
-2.4176394939422607,15.058526992797852,2.729708194732666,0.06079741194844246,1.983174,-1.1120802,4
-3.4604609012603764,15.193404197692873,2.664614677429199,0.08138357102870941,1.1404854,-1.3069462,4
-3.5485007762908936,14.803203582763672,2.5197131633758545,0.17019736766815186,0.15943582,-1.2116512,4
-2.6573803424835205,13.90690803527832,2.338385581970215,0.2960355877876282,-0.25809056,-0.7113526,4
-1.7241207361221311,12.624528884887695,2.078766345977783,0.4378759264945984,-0.5384777,-0.43310347,4
-1.0991504192352295,10.997340202331543,1.8963582515716555,0.5603033304214478,-0.9783007,-0.3304781,4
-0.7517959475517273,9.106770515441896,1.7983752489089966,0.6002945303916931,-0.85154617,-0.28038713,4
-0.4738606512546539,7.22911262512207,1.6831881999969482,0.5387219786643982,-0.29046643,-0.18784106,4
-0.017434747889637947,5.55912971496582,1.5196332931518557,0.3737722933292389,0.00030543262000000003,0.10781772,4
0.4847052991390228,4.1794185638427725,1.0019623041152954,0.22437654435634613,0.364992,0.24465153,4
0.7979360222816467,3.2567830085754395,0.5848936438560486,0.2144000828266144,0.52503866,0.42760566,4
0.8518053889274597,2.771789073944092,0.6487839221954346,0.2665808498859405,0.13713925,0.55924714,4
0.6350765228271484,2.484827756881714,0.9735422134399414,0.3007938265800476,0.023823744,0.6383542,4
0.4143041968345642,2.2062158584594727,1.1297858953475952,0.19182319939136505,0.5342017,0.59773165,4
0.3468522131443024,1.9777777194976809,1.0450290441513062,-0.005516909994184971,0.47983465,0.65240407,4
0.3517778217792511,1.983914375305176,0.9046595096588136,-0.19323258101940155,-0.2275473,0.7147123000000001,4
0.23921164870262146,2.631159543991089,1.9651870727539065,-0.4830113351345062,-3.3930510000000003,0.7693848000000001,4
-0.2390214204788208,4.294779777526856,2.2013473510742188,-0.4466280341148377,0.691194,0.43676865,4
-1.2071760892868042,6.5946784019470215,1.802785038948059,-0.5889391899108887,2.1413882,0.40439278,4
-2.3867852687835693,8.92520523071289,0.7731993198394775,-0.6442528963088989,1.2709051000000002,-0.44623706,4
-1.913605570793152,10.966571807861328,1.0552109479904177,-0.5500335097312927,-1.6853772,0.2510656,4
-0.2754999101161957,12.641395568847654,1.780327081680298,-0.2840838730335236,-2.8344147,0.61086524,4
0.3305506110191345,13.99535846710205,2.7112104892730717,-0.005474284291267395,-2.0161607,0.21563543,4
-0.9877280592918396,14.948851585388185,2.8218982219696045,0.08298331499099731,1.7687602999999998,-0.8145888000000001,4
-2.793933391571045,15.324337005615234,2.5262105464935303,0.04456255584955216,2.273335,-1.5396858,4
-3.35425353050232,15.374978065490724,2.420182466506958,0.018295986577868458,1.3866642,-1.3231341,4
-2.8084421157836914,14.86241340637207,2.2029492855072017,0.05489273741841316,0.77732605,-1.1218541000000002,4
-1.7523720264434814,13.78198528289795,1.9109196662902832,0.12212911993265152,0.28405234,-0.59040123,4
-0.8918935060501099,12.20915412902832,1.6117810010910034,0.2511121332645416,-0.19547687,-0.3408628,4
-0.4582664966583252,10.443169593811037,1.3356379270553589,0.3759486079216003,-0.63621616,-0.19700404,4
-0.22369752824306488,8.578237533569336,1.1674675941467283,0.4277315735816956,-0.7825184000000001,-0.019242255,4
-0.005352516658604145,6.685354232788086,1.2435873746871948,0.43190652132034296,-0.7996226,0.06536258,4
0.3950435221195221,5.007124423980713,1.5384939908981323,0.36791449785232544,-0.79809546,0.19364429,4
0.7795021533966064,3.757497310638428,1.3650038242340088,0.2852942943572998,0.070554934,0.23945917,4
0.9080653190612792,2.9467315673828125,0.8701905608177185,0.26650041341781616,0.7134906,0.4831944,4
0.8827406764030457,2.444615364074707,0.5482422113418579,0.2509859800338745,0.5858198,0.5681046999999999,4
0.7684114575386047,2.1349842548370357,0.7057464718818665,0.2287528067827225,-0.54244834,0.36377025,4
0.3463189303874969,1.842068433761597,1.5867048501968384,0.06628745049238205,-2.1239784,0.06872234,4
-0.14915290474891665,1.8039810657501218,1.877694010734558,-0.25763416290283203,0.20005837,0.4089743,4
-0.6800823807716371,2.533148288726806,1.985347270965576,-0.5816261768341064,2.1694880000000003,0.040011674,4
-0.7628446817398071,4.519406318664551,1.6502133607864382,-0.733575165271759,2.7724118,0.5525276,4
-0.9244814515113832,7.044233798980713,2.0143294334411617,-0.6858837008476257,-1.8637499,0.32650748,4
-1.5656155347824097,9.382841110229492,1.4937214851379397,-0.5917975902557373,-0.42363504,0.17165314,4
-1.179870843887329,11.35051155090332,1.6431673765182495,-0.399186909198761,-1.303281,0.2929099,4
-0.5500354766845703,12.9544095993042,2.231374502182007,-0.2112937569618225,-1.3603969,0.32467487,4
-1.114322066307068,14.245600700378418,2.6062910556793213,-0.03056633658707142,1.0626001,-0.3979787,4
-2.5108389854431152,15.126917839050293,2.6259279251098637,0.007827060297131537,2.0638082,-1.026559,4
-3.5987250804901123,15.413556098937988,2.69234037399292,0.05331290513277054,0.68386364,-1.0571023000000002,4
-3.749824047088623,15.106315612792967,2.515307664871216,0.13465406000614166,-0.12980886,-1.0601566,4
-3.1462895870208736,14.327027320861815,2.047849416732788,0.23263654112815854,-0.24404067,-0.7852673000000001,4
-2.1694116592407227,13.177045822143555,1.5884273052215576,0.3550681173801422,-0.31520647,-0.38698313,4
-1.350902438163757,11.537797927856445,1.2854273319244385,0.4528956115245819,-0.46639562,-0.15607607,4
-0.8584367036819458,9.504862785339355,1.1329714059829712,0.4896275997161865,-0.7076874,0.06627888,4
-0.5566861629486084,7.431883811950684,1.076465368270874,0.5006740689277649,-0.8179486,0.17470746,4
-0.3346511125564575,5.425238132476807,1.2609069347381592,0.4845339059829712,-0.81581056,0.06841691,4
-0.001433509518392384,3.7436215877532963,1.2414017915725708,0.35960614681243896,0.28008172,0.08002335,4
0.2603954374790192,2.6848130226135254,0.8343093991279602,0.22290411591529846,1.2583824,0.122783914,4
0.3826945722103119,2.175814151763916,0.4880354106426239,0.14914600551128387,0.9993755,0.27947086,4
0.4183347821235657,1.948750138282776,0.3062081038951874,0.1183253899216652,0.5204572000000001,0.46486846,4
0.3907164037227631,1.939091920852661,0.4433937668800354,0.13664929568767548,0.08735373,0.63529986,4
0.33774739503860474,2.0703024864196777,1.206843376159668,0.1321330964565277,-1.5268577,0.7156286000000001,4
0.2978748679161072,2.1827354431152344,1.3469959497451782,-0.13769470155239105,-0.97585726,0.68019843,4
0.17786678671836853,2.914080619812012,1.8960292339324951,-0.4781849086284638,-2.4211645,0.91324353,4
-0.3331111371517181,4.70869255065918,2.1170480251312256,-0.543864369392395,0.86376345,0.6921103,4
-1.077042818069458,7.17944860458374,1.765523076057434,-0.6472530961036682,2.576935,0.6026186,4
-1.6671983003616333,9.4971923828125,0.6621828675270081,-0.6427367925643921,-0.7266241999999999,0.03145956,4
-0.5823169350624084,11.45362377166748,1.287643551826477,-0.4412446022033691,-2.8463266,0.7742717,4
-0.4692953824996948,13.039332389831545,1.665139079093933,-0.17918476462364194,-0.33108896,0.34422258,4
-1.8097041845321653,14.229822158813475,1.89298951625824,-0.010370314121246338,1.1588113000000002,-0.55833083,4
-3.3158061504364014,14.926109313964846,2.0257134437561035,0.03165532648563385,1.423316,-1.1044444,4
-4.010341167449951,15.258417129516602,2.25850248336792,0.05465584248304367,0.6621779000000001,-1.2611313,4
-3.642448902130127,15.11821746826172,2.3829641342163086,0.08203259855508804,-0.08277224,-1.2012665,4
-2.7290563583374023,14.435851097106935,2.2525012493133545,0.13584323227405548,-0.19181168,-0.79168135,4
-1.8464453220367432,13.139540672302244,1.869112849235535,0.2304341495037079,0.03573562,-0.5006041,4
-1.221338152885437,11.43280792236328,1.4277855157852173,0.3314064145088196,0.3277292,-0.3747658,4
-0.8105489015579224,9.381239891052246,1.1064094305038452,0.3215188682079315,0.528093,-0.20769419,4
-0.5137733817100525,7.2597084045410165,1.0226391553878784,0.2693975269794464,0.4269948,-0.26847526,4
-0.059742983430624015,5.34890079498291,1.2196313142776491,0.20032916963100436,0.0421497,-0.23884831,4
0.6508633494377136,4.0469751358032235,1.298283934593201,0.10220474004745483,-0.08246681,0.17104226,4
1.1370934247970579,3.3060474395751958,1.0528510808944702,0.09157231450080873,0.09193522,0.49327368,4
1.2785484790802002,3.0107936859130864,1.1692894697189329,0.145538330078125,-0.48380527,0.6389651,4
0.9808989763259888,2.71521258354187,1.5074920654296875,0.18469655513763428,-0.97219205,0.6924158,4
0.5325368642807007,2.297694444656372,1.439790964126587,0.03178579360246658,0.589485,0.66828656,4
0.19450761377811432,1.9345378875732424,1.0058068037033079,-0.28109338879585266,1.6832392,0.61544675,4
-0.25006118416786194,2.1604127883911133,1.6094733476638794,-0.4427643120288849,-0.17562376,0.41508293,4
-0.8214693665504456,3.9588100910186768,2.8578827381134038,-0.6924850344657898,-1.5128077,0.84391034,4
-1.4430145025253296,6.388497829437256,2.7696447372436523,-0.6934812664985657,0.89736104,0.3735441,4
-2.24563217163086,8.796786308288574,1.847075581550598,-0.8387818336486816,1.169807,-0.036651913,4
-1.9925566911697388,10.86447811126709,1.3881446123123171,-0.7731790542602539,-0.46975538,0.62125,4
-0.6699566245079039,12.559652328491213,1.697105884552002,-0.5167096853256226,-1.2486086,0.6224717,4
-0.27959388494491577,13.93001651763916,2.2869126796722408,-0.146913543343544,-1.2751812,0.3277292,4
-1.2433781623840332,15.01997184753418,2.822270154953003,0.10971347242593764,0.38545597,-0.48747048,4
-2.727506399154663,15.699297904968262,3.133368015289306,0.19083145260810846,0.9984592,-0.999681,4
-3.1876347064971924,15.8550386428833,3.2156476974487305,0.21576091647148127,0.14905111,-1.2574661,4
-2.75726580619812,15.382156372070312,2.95773983001709,0.2282869964838028,-0.03756821,-1.1368201999999998,4
-2.096475839614868,14.290135383605955,2.50030779838562,0.2624334692955017,0.30176744,-0.68691796,4
-1.5340980291366575,12.74563980102539,2.065258026123047,0.3362889885902405,0.34941490000000003,-0.46761733,4
-1.0968719720840454,10.97552490234375,1.660890817642212,0.40750405192375183,0.010079277,-0.34880406,4
-0.7589422464370728,9.09327793121338,1.3008142709732056,0.4136417806148529,-0.30665436,-0.21380283,4
-0.4990712702274322,7.198099613189697,1.046336650848389,0.375487744808197,-0.58032197,-0.036651913,4
-0.3029132485389709,5.398652076721191,0.8537980914115906,0.3625880181789398,-0.50518554,-0.040317107000000005,4
0.0014111509080976248,3.8810415267944336,0.8748348355293274,0.3734850883483887,-0.29535335,-0.09101892,4
0.432561457157135,2.8999712467193604,0.9385718107223512,0.3331182301044464,-0.041233405,0.21563543,4
0.6867199540138245,2.3000333309173584,0.6605374813079834,0.2891848683357239,0.591623,0.37232238,4
0.7704386711120605,1.978659987449646,0.3557531237602234,0.2651374042034149,0.9104946,0.52442783,4
0.7308886647224426,1.8935786485672,0.2430495321750641,0.2574188709259033,0.93523467,0.5360342,4
0.466684490442276,1.9418897628784182,0.8001521229743958,0.1943668872117996,-0.20189096,0.4783075,4
0.2894080579280853,2.0218760967254643,1.0335798263549805,-0.046387307345867164,-0.17623462,0.5861251999999999,4
0.4137800931930542,3.1815314292907715,2.036656856536865,-0.32587969303131104,-2.5222626,1.196685,4
0.022739563137292862,5.615856647491455,2.7286319732666016,-0.5479900240898132,-0.44929138,1.0836749,4
-0.7934864163398743,7.785270690917969,2.0767524242401123,-0.5669525861740112,0.84574294,0.68416905,4
-1.6005104780197144,9.249372482299805,0.3030062615871429,-0.7256303429603577,2.7586675,0.35796702,4
-1.4216643571853638,11.00153636932373,0.6425581574440002,-0.6061443686485289,-1.6777414000000002,0.28008172,4
-0.3558968305587769,12.613468170166016,1.2236089706420898,-0.23206768929958346,-0.61269784,0.48533243,4
-0.3891154825687408,13.958870887756348,1.9921512603759768,0.1288914978504181,-1.244638,-0.40683624,4
-1.5097502470016482,15.027960777282715,2.4629600048065186,0.3300352692604065,0.08460484,-1.0409144,4
-2.8370842933654785,15.664177894592285,2.747954130172729,0.34590303897857666,1.0152581,-1.3946054,4
-3.554161071777344,15.799766540527346,3.088332414627075,0.2722222805023193,0.28069258,-1.4040737,4
-3.4449498653411865,15.244827270507812,2.97261905670166,0.22208042442798612,0.105374254,-1.1285735,4
-2.8786540031433105,14.055557250976562,2.450568437576294,0.19231535494327545,0.59498274,-0.8866709,4
-2.177273988723755,12.4898042678833,1.8123294115066528,0.18167971074581146,0.6786713000000001,-0.55680364,4
-1.5687559843063354,10.645044326782227,1.2621029615402222,0.20525476336479187,0.183565,-0.4392121,4
-1.0929807424545288,8.683082580566406,0.9522829055786132,0.1722017079591751,-0.33322698,-0.26083946,4
-0.6689341068267822,6.744297981262207,0.7456610202789307,0.12424317002296448,-0.29168814,-0.12339478,4
-0.23876556754112244,4.981445789337158,0.5620027780532837,0.11366842687129974,0.10598512,-0.1966986,4
0.2646389305591583,3.705844879150391,0.4758423268795013,0.110888309776783,0.2134974,0.04917465,4
0.6469767689704895,2.944386959075928,0.3840246796607971,0.1212288737297058,0.48075095,0.4025602,4
0.8089873194694519,2.5890355110168457,0.410996288061142,0.1347617506980896,0.41141775,0.6224717,4
0.6634246706962585,2.506868600845337,0.7761409878730774,0.11521363258361815,0.008552114,0.5506949999999999,4
0.263449490070343,2.4018030166625977,1.1772065162658691,-0.045119937509298325,-0.04550946,0.49480084,4
0.12123069912195206,2.15997314453125,1.2608217000961304,-0.2585182189941406,-0.54000485,0.4813618,4
0.3003607392311096,2.519639015197754,1.8307926654815676,-0.4041420221328736,-1.919644,0.7831292,4
0.1261742115020752,4.3085293769836435,2.494259119033813,-0.5133341550827026,-1.7849482,1.1780536,4
-0.4852356016635895,6.718366622924805,2.250440120697021,-0.4135260879993439,0.93737274,0.9978484,4
-1.2683045864105225,8.957450866699219,0.4659477472305298,-0.5848071575164795,2.9681942,0.5345071,4
-0.6559678912162781,10.96890354156494,1.1687092781066897,-0.6106120944023132,-4.4822235,0.62858033,4
-0.1343878209590912,12.63677978515625,1.4205569028854368,-0.3928932845592499,1.0253373,0.22296582,4
-1.0800712108612058,13.990262985229492,1.5452420711517334,-0.34893617033958435,1.1908818,-0.21991149,4
-2.168920993804932,15.08075714111328,1.885383129119873,-0.20537810027599332,-0.13072516,-0.61636305,4
-2.8679356575012207,15.932119369506836,2.0915615558624268,0.011490849778056143,-0.16798794,-1.0445796,4
-2.991175651550293,16.295940399169922,2.3242781162261963,0.14907574653625488,-0.22357668,-1.1527027,4
-2.7179160118103027,15.90561580657959,2.5115647315979004,0.22553351521492004,-0.33505958,-0.9789116,4
-2.403774738311768,14.912496566772461,2.425217866897583,0.28759798407554626,-0.106901415,-0.7293731,4
-2.0718889236450195,13.517525672912598,2.062828779220581,0.31802240014076233,0.24129178,-0.50640726,4
-1.6918994188308716,11.547906875610352,1.7071703672409058,0.2967853546142578,0.16218472,-0.408058,4
-1.2424731254577637,9.425792694091797,1.474976658821106,0.22445128858089447,0.0580322,-0.29718593,4
-0.6918262243270874,7.3708815574646,1.3564274311065674,0.1367270201444626,-0.16676621,-0.15027285,4
-0.07642383873462677,5.605614185333252,1.2740352153778076,0.06457777321338654,-0.4700608,0.08979719,4
0.378865510225296,4.298573970794679,1.109976053237915,0.02974124066531658,-0.4297437,0.33108896,4
0.4901249706745148,3.4732441902160645,0.8270858526229858,0.06753353029489517,-0.100792766,0.44073927,4
0.3567133545875549,2.9883389472961426,0.5743955969810486,0.130742147564888,0.30848694,0.42546764,4
0.1286485642194748,2.6891849040985107,0.5025116801261902,0.1591789722442627,0.36163223,0.3594942,4
-0.012844695709645748,2.4107308387756348,0.6094958782196045,0.12591844797134402,-0.16798794,0.35613444,4
-0.003084583906456828,2.071460247039795,0.7591822147369385,0.042618870735168464,-0.8961393,0.42149702,4
0.16107241809368136,1.8105547428131104,1.0060220956802368,-0.06014363095164299,-1.7980819,0.6056729000000001,4
0.4537507593631744,2.1416587829589844,1.951865553855896,-0.2650821805000305,-3.0592132000000003,1.1914927,4
0.13334515690803528,4.381173610687257,2.201218366622925,-0.4799809753894806,2.7537806,1.0684034,4
-0.6097203493118286,7.112304210662843,2.498158693313598,-0.6701776385307312,1.6218473,1.1218541000000002,4
-1.3263461589813232,9.49527072906494,1.8847674131393437,-0.8239371180534363,1.1511755,0.36865717,4
-0.9219724535942078,11.455960273742676,2.6480400562286377,-0.7277343869209291,-1.9752327,1.2348641000000002,4
-1.1683751344680786,13.043448448181152,3.164576768875122,-0.4474297463893889,-0.18081611,0.089491755,4
-2.192999601364136,14.297327995300293,3.343613862991333,-0.19110172986984253,0.4437936,-0.6588182,4
-3.140050172805786,15.178913116455078,3.4933485984802246,0.002181004034355283,0.06688975,-1.1154399,4
-3.4205214977264404,15.622182846069336,3.3975577354431152,0.18057288229465485,0.49846604,-1.382999,4
-3.071131944656372,15.603799819946287,3.3023178577423096,0.32807981967926025,0.22174409,-1.3234396000000002,4
-2.4516451358795166,14.913382530212402,3.0088932514190674,0.4206340610980988,0.36285394,-0.960891,4
-1.9071344137191768,13.71261215209961,2.6226115226745605,0.4763832092285156,0.71868294,-0.66798115,4
-1.5378414392471311,12.09553050994873,2.2905399799346924,0.5009189844131471,0.68661255,-0.6010914,4
-1.3224037885665894,10.268824577331543,1.9860062599182131,0.4966586530208588,0.36102137,-0.44868052,4
-1.1068092584609983,8.294711112976074,1.7296297550201416,0.4906047284603119,0.19608775,-0.28313604,4
-0.6040691733360289,6.287208557128906,1.5997599363327026,0.4564661979675293,-0.0015271631,-0.2125811,4
0.2559167742729187,4.697206497192383,1.4545520544052124,0.37887683510780334,-0.11148291,-0.099265605,4
0.9552675485610962,3.776347160339356,1.1343052387237549,0.3111162781715393,0.06169739,0.44104472,4
1.2916316986083984,3.2507753372192383,0.8747709393501282,0.2816160321235657,0.18967366,0.6435465,4
1.28440523147583,2.9225389957427983,0.9325335025787354,0.2369392812252045,-0.20738874,0.6792821,4
0.9564585685729979,2.5831573009490967,1.2256622314453125,0.08749238401651382,-0.15882497,0.73853606,4
0.5871195197105408,2.2023983001708984,1.4462201595306396,-0.17509926855564115,0.25625798,0.8216136999999999,4
0.26301708817481995,1.9305535554885864,1.416633129119873,-0.3604436218738556,0.17959438,0.63499445,4
-0.2617568075656891,2.1327500343322754,1.7426050901412964,-0.44213834404945374,-1.3439035,0.34697145,4
-0.8112178444862366,3.470325469970703,2.118011951446533,-0.5744829773902893,-0.30024028,0.5983425,4
-1.362724781036377,5.763296604156494,2.3641185760498047,-0.598598837852478,-0.6844745,0.5360342,4
-2.261580228805542,8.254420280456543,2.0973289012908936,-0.7168973088264465,1.4645494,-0.2284636,4
-2.0480666160583496,10.419875144958496,1.7778403759002686,-0.7465822696685791,0.033292156,0.19792034,4
-1.3022620677947998,12.203925132751465,1.8876280784606931,-0.4937103390693665,-0.97524637,0.17104226,4
-1.3542861938476562,13.645566940307615,2.107053279876709,-0.17331989109516144,-0.46578476,-0.08368854,4
-1.8994016647338867,14.800917625427244,2.3223142623901367,0.07202951610088347,0.46944994,-0.6365215999999999,4
-2.536881446838379,15.574938774108887,2.4640915393829346,0.2363911122083664,0.6398814,-1.0519098999999998,4
-2.7528760433197017,15.641796112060547,2.5676727294921875,0.34659403562545776,0.084910266,-1.2095132,4
-2.5244922637939453,15.025647163391113,2.5424036979675293,0.4259588122367859,-0.15271631,-0.9575313,4
-2.115969181060791,13.810347557067873,2.4042530059814453,0.4872427880764008,-0.047647487,-0.55771995,4
-1.6727062463760376,12.08748722076416,2.1908392906188965,0.5261739492416382,0.183565,-0.38453966,4
-1.2159610986709597,10.084558486938477,2.0515713691711426,0.5203312635421753,-0.1441642,-0.24770586,4
-0.8428736925125122,8.070965766906737,1.9874848127365112,0.4437615275382996,-0.70066243,-0.12583824,4
-0.5401445031166077,6.137592315673827,1.8866291046142576,0.3309396803379059,-0.88208944,-0.090713486,4
-0.15603891015052795,4.418128490447998,1.791751503944397,0.2023181915283203,-0.6783658,-0.005497787,4
0.2601589262485504,3.27050256729126,1.367908000946045,0.1388397216796875,0.21685717,0.19517145,4
0.4925031960010529,2.655839204788208,0.7333105802536011,0.1491701900959015,0.6924158,0.45998153,4
0.4951839447021485,2.4053139686584477,0.3389541804790497,0.1316281259059906,0.6881397,0.50610185,4
0.37890294194221497,2.3065264225006104,0.14447642862796786,0.10315661132335664,0.7779369,0.5271766999999999,4
0.18488796055316925,2.109437227249145,0.7440037131309509,0.10711266845464706,-0.16768251,0.57360244,4
0.11987493187189102,1.8597561120986936,1.293023943901062,0.030273776501417164,-0.80878556,0.59528816,4
0.13914155960083008,1.7510998249053955,1.423897385597229,-0.1521119624376297,-1.10139,0.6377433000000001,4
0.3147920072078705,2.37229061126709,2.056295394897461,-0.3602569401264191,-2.982855,1.2913691,4
0.11955615878105165,4.3905348777771005,2.5089807510375977,-0.6768391132354736,0.9578367,1.0115929,4
-0.7904563546180725,6.9936771392822275,2.3363471031188965,-0.7372066378593445,2.234545,1.0852021,4
-1.807488203048706,9.366926193237305,1.1300616264343262,-0.8986072540283203,1.8955148,0.10415252,4
-1.1225000619888306,11.344136238098145,2.1324386596679688,-0.781063437461853,-2.5647178,1.1640037,4
-0.7248093485832214,12.950389862060547,2.655109405517578,-0.4695446193218231,0.5858198,0.14599679999999998,4
-1.8147016763687132,14.234572410583494,2.821496963500977,-0.2284107357263565,0.30024028,-0.4465425,4
-2.9763872623443604,15.202871322631836,3.019284963607788,0.003151474287733436,-0.11026118,-1.0048733,4
-3.612027406692505,15.795671463012695,3.145787715911865,0.18855829536914825,-0.129198,-1.4874569,4
-3.3047394752502437,15.793745994567873,3.2020049095153813,0.3020147383213043,-0.4260785,-1.3332133999999998,4
-2.5453405380249023,15.0411376953125,3.000922679901123,0.3858758211135864,0.118507855,-1.0094548,4
-1.8639510869979856,13.663966178894045,2.615678071975708,0.4507967233657837,0.7467828000000001,-0.7834346999999999,4
-1.3503825664520264,11.853471755981445,2.2431325912475586,0.5106765627861023,0.7892378999999999,-0.6569856,4
-0.9270856976509094,9.624612808227539,1.8322715759277344,0.5288184285163879,0.7654141999999999,-0.6252206,4
-0.4938828349113464,7.371785163879394,1.4787083864212036,0.4925081133842468,0.7293731,-0.56291234,4
0.1052803173661232,5.5228004455566415,1.3312017917633057,0.4184095561504364,0.6954701,-0.43127087,4
0.8967351913452148,4.41212797164917,1.4358662366867063,0.3486415445804596,-0.004581489,-0.034208454,4
1.5339587926864624,3.82403016090393,1.4633958339691162,0.2804148495197296,-0.47678033,0.3735441,4
1.807350277900696,3.478595733642578,1.3119710683822632,0.22039060294628146,-0.3555236,0.6282749,4
1.6661124229431152,3.2204434871673584,1.262952446937561,0.16892997920513153,-0.4642576,0.6814201999999999,4
1.128949522972107,2.8297135829925537,1.315357327461243,0.04709150269627571,0.043676864,0.61269784,4
0.5428627729415894,2.336803436279297,1.1288889646530151,-0.19936518371105194,1.3439035,0.6737844,4
0.05853773653507233,1.8589410781860352,0.8785669803619385,-0.41110897064208973,1.6792686,0.54061574,4
-0.5381867289543152,2.4329450130462646,1.8379191160202024,-0.5439383387565613,-2.1881194,0.31734450000000003,4
-0.8578984141349792,4.7298359870910645,1.9005125761032104,-0.6080065369606018,0.58551437,0.56138515,4
-1.3348674774169922,7.337387561798097,2.3140640258789062,-0.6253204941749573,-0.60903263,0.20372356,4
-1.8213540315628047,9.627835273742676,1.6310280561447144,-0.6490538716316223,0.060170225999999986,0.19456059,4
-0.9995512962341307,11.556538581848145,1.8830993175506592,-0.5043343305587769,-0.9602802,0.32253686,4
-0.7169284224510193,13.122694969177244,2.2772340774536133,-0.24598269164562225,0.47342056,0.04153884,4
-1.3426764011383057,14.331949234008787,2.553304672241211,-0.08155307173728943,0.8668178,-0.5271766999999999,4
-2.1347401142120357,15.126501083374025,2.8021366596221924,0.04003388434648514,0.44440445,-0.9083565999999998,4
-2.478860378265381,15.326844215393065,2.9055488109588623,0.15142472088336945,-0.258396,-1.0842858999999998,4
-2.1799261569976807,14.922213554382324,2.7206461429595947,0.2519644796848297,-0.63255095,-0.9605856,4
-1.6001269817352295,14.007390022277832,2.335458755493164,0.3413398265838623,-0.083383106,-0.57757306,4
-1.0665953159332275,12.586256980895994,1.9881378412246704,0.4432339668273926,0.069027774,-0.25534168,4
-0.6781207919120789,10.851738929748537,1.663016676902771,0.5229721069335938,0.028099801,-0.0580322,4
-0.440348207950592,8.959426879882812,1.4173811674118042,0.5483394861221313,-0.15118915,0.14935656,4
-0.3175054788589477,7.001358985900879,1.4049745798110962,0.5286992788314819,-0.7840455,0.19181168,4
-0.17647123336791992,5.214440822601318,1.5017151832580566,0.4447196125984192,-1.133155,0.18875736,4
0.08634335547685623,3.7856485843658447,1.2939914464950562,0.3149239420890808,-0.41263947,0.26236662,4
0.2469557821750641,2.7637789249420166,0.7865422964096069,0.2747663855552673,0.59773165,0.31978795,4
0.27117714285850525,2.187462329864502,0.38383805751800537,0.2597304284572601,0.8332202,0.45204028,4
0.2366461753845215,1.8629173040390012,0.14789541065692902,0.21997098624706268,0.9401216,0.5009095,4
0.1354815661907196,1.6664763689041138,0.06583390384912491,0.202539935708046,0.98715824,0.657291,4
-0.17625662684440613,1.5075221061706543,0.7056549787521362,0.180370569229126,-0.52595496,0.60994893,4
-0.4135616421699524,1.4386612176895142,1.2624366283416748,-0.004616504069417715,-1.146594,0.56779927,4
-0.3096294701099396,2.002417802810669,1.7664315700531006,-0.27931666374206543,-2.7800477000000003,0.9779953,4
-0.17562197148799896,4.3132758140563965,2.91487455368042,-0.5927195549011229,0.05497787,0.86926126,4
-0.535777747631073,6.983449935913086,2.874236583709717,-0.5830974578857422,1.0320568,1.1585059,4
-1.0537799596786501,9.268620491027832,1.4495729207992554,-0.8347542285919191,3.0161471,0.6560693,4
-0.3183228075504303,11.218548774719238,2.3563477993011475,-0.876456618309021,-3.0567696,1.3393221000000002,4
0.17011579871177673,12.838778495788574,2.6495800018310547,-0.7000933885574341,1.6249015,0.204029,4
-0.9331313371658324,14.15379524230957,2.49200177192688,-0.6166784763336182,1.6282613,-0.2434298,4
-2.257201194763184,15.202223777770994,2.644723653793335,-0.4339993596076965,0.2724459,-0.6750060999999999,4
-2.8853425979614262,16.031604766845707,2.740188837051392,-0.17905035614967346,-0.16707164,-1.0815369,4
-2.7603013515472408,16.378715515136722,2.775076389312744,0.051424164324998856,-0.68691796,-1.317331,4
-2.254601240158081,15.947751998901367,2.6798911094665527,0.2392576634883881,-0.5137377000000001,-1.2409728,4
-1.8228352069854736,14.88962459564209,2.3684144020080566,0.39277827739715576,0.29810223,-0.9801333,4
-1.508310079574585,13.430373191833494,2.020790338516236,0.5316071510314941,0.559858,-0.81061816,4
-1.2438441514968872,11.740402221679688,1.7712855339050293,0.6454617381095886,0.3735441,-0.6246096999999999,4
-0.9743655920028688,9.891603469848633,1.5794389247894287,0.6999127864837646,0.2144137,-0.453262,4
-0.6522971391677856,7.911524772644043,1.509448528289795,0.6725436449050903,-0.05589417,-0.41783184,4
-0.2285125851631165,6.071230411529541,1.530252456665039,0.5732529759407043,-0.40683624,-0.18478674,4
0.3284211456775665,4.64321231842041,1.5434560775756836,0.4363167583942413,-0.5864305999999999,0.17104226,4
0.8489372730255127,3.743833780288696,1.499787449836731,0.31589511036872864,-0.5882632,0.49571714,4
1.1314126253128052,3.2796473503112797,1.3595266342163086,0.2474211156368256,-0.42363504,0.68875057,4
1.105779767036438,2.967719078063965,1.2264412641525269,0.17764690518379211,-0.4474588,0.70554936,4
0.8057827949523926,2.583523988723755,1.2126920223236084,0.04922004044055939,-0.017104227,0.7431175999999999,4
0.3974419236183167,2.1938066482543945,1.3188889026641846,-0.147390678524971,0.06383542,0.6948592,4
-0.07771719992160797,2.1946854591369633,1.839632868766785,-0.3480308055877685,-0.04184427,0.5919284,4
-0.6434582471847534,3.445763111114502,2.621285915374756,-0.5877162218093872,-0.7535023000000001,0.7455609999999999,4
-0.7420082688331604,5.685591220855713,2.004700899124145,-0.639430046081543,1.8011361,1.010982,4
-0.6569561958312988,8.159914970397951,2.0124757289886475,-0.7134104371070862,-0.9129381,0.87017757,4
-0.08107522875070572,10.333001136779783,1.8708233833312988,-0.7104959487915039,-0.1133155,0.5699373000000001,4
0.16277717053890228,12.126845359802244,2.0980377197265625,-0.6042924523353577,-0.12064589,0.47861293,4
-0.4916059970855713,13.58103847503662,2.258007764816284,-0.3804507851600647,0.38698313,-0.007941248,4
-1.406596064567566,14.747892379760742,2.503308057785034,-0.1871149092912674,0.35094208,-0.60903263,4
-2.1581294536590576,15.664812088012695,2.661900758743286,0.00018522421305533496,0.19761491,-1.0760391000000002,4
-2.557300329208374,16.123144149780273,2.720885992050171,0.17220085859298706,-0.1432479,-1.3148874,4
-2.40797758102417,15.840192794799805,2.6551799774169917,0.30814263224601746,-0.5143485,-1.2305881,4
-1.9343082904815676,14.940430641174315,2.417402982711792,0.4287250339984894,-0.36163223,-0.9935723,4
-1.4449399709701538,13.635575294494627,2.087881565093994,0.5361107587814331,0.09865474,-0.7425067,4
-1.0166550874710083,12.021830558776855,1.8578341007232664,0.6122334003448486,0.093767814,-0.52656585,4
-0.6682236194610596,10.098678588867188,1.687329888343811,0.6401462554931641,-0.11056661,-0.3475823,4
-0.35742178559303284,7.906609535217285,1.562490701675415,0.6004200577735901,-0.36865717,-0.22876903,4
-0.020277472212910645,5.870818614959718,1.5143637657165527,0.5014750957489014,-0.35827246,-0.22510384,4
0.4921596050262451,4.340965747833252,1.5725315809249878,0.3971746265888214,-0.4202753,0.058337633,4
0.9464823007583618,3.448273181915283,1.400892972946167,0.2940686345100403,-0.16676621,0.40225476,4
1.141761064529419,2.906296968460083,0.964150607585907,0.2269664704799652,0.31612277,0.571159,4
1.1302998065948486,2.549959897994995,0.6760218143463135,0.1741323620080948,0.60139686,0.72784597,4
0.8975001573562622,2.353545904159546,1.0129306316375732,0.0680818110704422,-0.50488013,0.66767573,4
0.4303525686264038,2.1883897781372066,1.6660499572753906,-0.16196101903915405,-1.4104879,0.56382865,4
-0.1932004988193512,2.236469984054565,1.9623308181762693,-0.36596736311912537,-0.16096300000000002,0.5821546,4
-0.8455818295478821,3.0284409523010254,2.165466070175171,-0.5962468981742859,0.4465425,0.5830709,4
-0.954147458076477,4.708572864532472,1.5405614376068115,-0.6726506352424622,1.3548992,0.55771995,4
-1.1338950395584106,7.099910259246826,1.9823055267333984,-0.7104097008705139,-2.1120665,0.20830505,4
-1.2568724155426023,9.412999153137207,1.8502354621887207,-0.6263017058372498,-0.19700404,0.4550946,4
-0.6570906639099121,11.371589660644533,1.961676836013794,-0.5346540212631226,-0.6169739000000001,0.41874814,4
-0.540547788143158,12.969511985778807,2.132802963256836,-0.2718396186828613,-0.9120218,0.01160644,4
-1.28571879863739,14.246015548706055,2.428107023239136,-0.045023899525403976,0.4083634,-0.6719518,4
-2.304392576217652,14.960872650146484,2.553708791732788,0.06124997884035111,0.94897914,-1.2027937,4
-2.902451038360596,14.998764991760256,2.563992738723755,0.1402105987071991,0.3652974,-1.3918563999999998,4
-2.8145430088043213,14.43478012084961,2.262681007385254,0.2248700559139252,-0.042760565999999986,-1.3179418,4
-2.2030978202819824,13.356022834777832,1.7815780639648438,0.2964712977409363,0.24129178,-1.181108,4
-1.4161721467971802,11.903672218322756,1.4652920961380005,0.3975936472415924,0.38240165,-0.8491027,4
-0.7339701652526855,10.171675682067873,1.4224197864532468,0.5396591424942017,0.07086037,-0.6026186,4
-0.2985584437847137,8.326494216918945,1.4261702299118042,0.6150931119918823,-0.06688975,-0.45662177,4
-0.0639292299747467,6.506542682647705,1.3364341259002686,0.5923877358436584,0.11942416,-0.2883284,4
0.16462604701519012,4.870073795318604,1.331916570663452,0.5051851272583008,0.14141529999999994,-0.08460484,4
0.5157068967819214,3.6619901657104488,1.5092198848724363,0.3925468325614929,-0.07696902,0.14263703,4
0.8165497183799744,2.969013214111328,1.6141813993453982,0.2740839421749115,-0.13225232,0.35155296,4
0.9809309840202332,2.6163322925567627,1.4790732860565186,0.16905485093593595,-0.3323107,0.47250426,4
1.0063925981521606,2.4483625888824463,1.0835579633712769,0.0807342678308487,-0.32925636,0.6017023,4
0.975397288799286,2.30029296875,0.6867207884788513,0.003144178539514541,-0.081855945,0.6337727,4
0.9220214486122132,2.126893281936645,1.171701192855835,-0.14973261952400208,-0.7449501999999999,0.71685034,4
0.6854760646820068,2.31983494758606,1.6916590929031372,-0.34561687707901,0.26145032,0.8943066999999999,4
0.08044864237308502,3.704689025878906,2.630873680114746,-0.5608318448066711,0.01863139,1.0848966999999998,4
-0.3810174763202667,6.216235637664795,2.564116716384888,-0.5783257484436035,0.90041536,1.3008375,4
-0.7287833094596863,8.687384605407715,2.1406412124633794,-0.6376504898071289,-0.6462954000000001,0.77091193,4
-0.7220839262008667,10.785418510437012,1.8562710285186768,-0.585284411907196,-1.1264355,0.61636305,4
-0.412432461977005,12.498650550842285,2.1755814552307133,-0.39845550060272217,-0.03481932,0.14110987,4
-0.87708979845047,13.88066291809082,2.115527629852295,-0.2429276257753372,0.981355,-0.30848694,4
-1.5970370769500732,14.965271949768065,2.016279935836792,-0.060320720076560974,0.20311269,-0.8295549999999999,4
-2.3348779678344727,15.793559074401855,2.057422876358032,0.1460002213716507,0.2312125,-1.3057245000000002,4
-2.767487049102783,16.073165893554688,2.1759812831878658,0.31565478444099426,0.06536258,-1.3332133999999998,4
-2.560885190963745,15.383009910583494,2.1334266662597656,0.4331323802471161,-0.36468655,-1.1759156000000002,4
-2.031198501586914,14.013543128967285,1.915410280227661,0.5424079298973083,-0.08643743400000001,-0.8170323,4
-1.5470046997070312,12.359905242919922,1.7305859327316284,0.6336387991905212,0.22052236,-0.6084218000000001,4
-1.1965656280517578,10.492742538452148,1.55570387840271,0.669086217880249,0.44684792,-0.4877759,4
-0.9181677103042604,8.540525436401367,1.418262958526611,0.615121066570282,0.3484986,-0.41599923,4
-0.6188362836837769,6.57904577255249,1.3207665681838991,0.4996767938137054,0.35521814,-0.3136793,4
-0.2394330054521561,4.8220720291137695,1.2865960597991943,0.3419874012470245,0.22571471,-0.15088372,4
0.1460586041212082,3.6518590450286874,1.2529067993164062,0.1858956217765808,0.030543262,0.09437868,4
0.4316758513450623,3.059478044509888,1.132710576057434,0.06347363442182541,-0.24984388,0.29962940000000005,4
0.6555816531181335,2.776411771774292,0.8987636566162109,-0.0037306200247257952,-0.3323107,0.47800204,4
0.8274248242378235,2.593493223190308,0.7202916741371155,-0.046438828110694885,-0.55863625,0.61758476,4
0.9014235734939576,2.35856032371521,0.8157666921615601,-0.09411371499300004,-0.926988,0.6585127,4
0.7757186293601991,2.165334701538086,1.2298887968063354,-0.1993858367204666,-1.4679091999999998,0.64660084,4
0.2892466485500336,2.7685256004333496,1.885459542274475,-0.435680478811264,-1.0598511999999998,0.8072583999999999,4
-0.4167952835559845,4.738463401794434,1.8519405126571653,-0.6512665748596191,1.4828753,1.0393872,4
-0.7469654083251953,7.127576351165772,1.372488021850586,-0.6873534321784973,1.4315627,0.9440921999999998,4
-0.8625050187110901,9.393353462219238,0.7025067806243896,-0.6874014735221863,0.4605924,0.75625116,4
-0.38110777735710144,11.346275329589846,0.8374662399291992,-0.475981593132019,-0.9095783000000002,0.86193085,4
0.3632765114307404,12.947968482971193,1.659413456916809,-0.2641210556030273,0.09162979,0.21746802,4
-0.4026352763175965,14.24182415008545,2.253461599349976,-0.12854121625423431,1.0516045,-0.042760565999999986,4
-1.6465293169021606,15.251776695251465,2.5358166694641118,-0.0752934142947197,0.77213365,-0.7464773,4
-2.713090181350708,16.022279739379886,2.650886058807373,0.03365856409072876,0.2452624,-1.244638,4
-3.0202758312225337,16.6483154296875,2.7843952178955083,0.1871282011270523,-0.75502944,-1.2244794,4
-2.7425332069396973,16.65992546081543,2.821767568588257,0.3426308035850525,-1.258077,-1.0809261,4
-2.197181940078736,15.766942977905273,2.615586757659912,0.4529317021369934,-0.5861251999999999,-0.8011498,4
-1.6253068447113037,14.223276138305664,2.2059807777404785,0.5270795226097107,-0.0036651916,-0.5705481,4
-1.206962823867798,12.11933708190918,1.8206199407577517,0.5178362131118774,0.226631,-0.42302418,4
-0.8843877911567688,9.926453590393066,1.486976981163025,0.4056552946567536,0.4783075,-0.3436117,4
-0.5207756757736206,7.852120399475098,1.1965336799621582,0.21476754546165466,0.8378017,-0.20586158,4
-0.07065050303936005,6.0461978912353525,1.1052395105361938,0.037433788180351264,0.5329799,0.08277224,4
0.2679285407066345,4.692521572113037,1.056634545326233,-0.06838324666023254,0.0027488936,0.39095375,4
0.3583213686943054,3.802210330963135,0.8434082865715027,-0.09116879850625992,0.016798794,0.49449542,4
0.3030790984630585,3.2612993717193604,0.6565330028533936,-0.07826534658670425,0.1872302,0.46700647,4
0.21542617678642276,2.8753354549407963,0.666289746761322,-0.07618621736764908,0.33139440000000003,0.4288274,4
0.13157740235328674,2.503044605255127,0.7873328328132629,-0.12854337692260742,0.3023783,0.46853364,4
0.09664027392864227,2.1037764549255367,0.8507462143898009,-0.2327019423246384,-0.258396,0.5699373000000001,4
0.17925670742988584,1.7892128229141235,0.945781946182251,-0.3383917808532715,-1.1563678999999998,0.7305948,4
0.40054330229759216,2.0065963268280034,1.328937292098999,-0.4629742503166199,-2.0302107,1.1676688999999998,4
0.427484393119812,3.661147117614746,2.6059410572052,-0.6513579487800598,0.8200866,1.4816537,4
-0.06114542856812478,6.308577060699463,3.2230226993560787,-0.735421359539032,0.7779369,1.5818355,4
-1.0507495403289795,8.793869972229004,2.1236827373504643,-0.9128342270851136,2.0494528,0.5216789000000001,4
-1.1486380100250244,10.877974510192873,2.237858533859253,-0.9099294543266296,-1.9089539,0.9166033,4
-0.512072741985321,12.575034141540527,2.65716814994812,-0.6549906730651855,0.071776666,0.36377025,4
-1.126152515411377,13.939764976501465,2.952836513519287,-0.38193628191947937,-0.010690141499999998,-0.24190263,4
-2.106403589248657,14.99911403656006,3.1905858516693115,-0.1455397754907608,0.0711658,-0.8371908000000001,4
-2.776230573654175,15.682872772216795,3.1651241779327397,0.07045401632785797,0.06047566,-1.3573426000000002,4
-2.842519521713257,15.84757137298584,3.075843095779419,0.2575325965881348,-0.42210788,-1.4358387,4
-2.45206356048584,15.234954833984375,2.81646466255188,0.3773332238197327,-0.005497787,-1.1771374,4
-1.9881892204284668,14.032639503479006,2.4306437969207764,0.4394417703151703,0.7495316,-0.89369583,4
-1.614308476448059,12.45651149749756,2.0627427101135254,0.4829252064228058,0.87964594,-0.6533204,4
-1.3350353240966797,10.635456085205078,1.7511640787124634,0.5375527143478394,0.73639804,-0.48197266,4
-1.1022688150405884,8.711586952209473,1.5750875473022459,0.5683499574661255,0.23732115,-0.27947086,4
-0.8671798110008241,6.802281379699707,1.5566163063049316,0.5645953416824341,-0.3378085,-0.21838433,4
-0.3821318447589874,5.139019012451172,1.5234287977218628,0.5119760036468506,-0.66889745,-0.08032878,4
0.15510104596614838,4.032805442810059,1.216031551361084,0.43357568979263306,-0.3726278,0.103847094,4
0.51462322473526,3.3346071243286133,0.751058042049408,0.3981482684612274,0.25045475,0.3005457,4
0.7506307363510132,2.9139897823333736,0.5453113317489624,0.3817545771598816,0.70646566,0.5225952,4
0.7895976305007935,2.6966042518615723,1.2639737129211426,0.3273148834705353,-1.2721269,0.6209445,4
0.4994497001171112,2.4191431999206543,1.778961181640625,0.15408757328987122,-1.4984524,0.7305948,4
0.15532171726226807,2.1138925552368164,1.5675957202911377,-0.1024041697382927,0.29168814,0.7678576,4
-0.2329990863800049,2.2337234020233154,1.5835270881652832,-0.33116117119789124,0.4456262,0.7247916,4
-0.6949977874755859,3.8708999156951904,2.553142070770264,-0.5622303485870361,-1.3255776,1.0974194,4
-1.0258340835571291,6.4801998138427725,2.1327567100524902,-0.6393504142761229,1.0204504,0.77518797,4
-1.5439658164978027,8.929930686950684,1.4449629783630369,-0.6871735453605652,0.6747006999999999,-0.17928895,4
-1.1838264465332031,10.987872123718262,1.3967032432556152,-0.6121135950088501,-1.0812315,0.3549127,4
-0.6755245923995972,12.663501739501953,1.6863532066345217,-0.29367595911026,-1.3787229,0.25167647,4
-0.6004457473754883,14.010543823242188,2.1253750324249268,0.04278374463319778,-1.1636983,-0.25381452,4
-1.0533393621444702,15.025358200073242,2.4724488258361816,0.2309059947729111,0.5015204000000001,-0.86009824,4
-1.8557918071746824,15.54232692718506,2.6229043006896973,0.2756538391113281,1.2742649,-1.3310753,4
-2.451245069503784,15.254438400268555,2.6329345703125,0.28904739022254944,0.6774496,-1.3643675,4
-2.5598254203796387,14.436984062194824,2.55226731300354,0.339711993932724,-0.31764993,-1.1139128,4
-2.248383045196533,13.187592506408693,2.268260717391968,0.3873617947101593,-0.105068825,-1.0149527,4
-1.6438281536102295,11.634041786193848,1.9003634452819824,0.4420894086360931,0.20891592,-0.8588764999999999,4
-0.969904363155365,9.676013946533203,1.6628907918930054,0.4666255414485931,-0.09315695,-0.61391956,4
-0.4391213655471802,7.565449237823486,1.6554110050201416,0.43177366256713867,-0.70188415,-0.3747658,4
-0.05708455666899681,5.640971660614014,1.7639944553375244,0.3611412942409515,-0.9932669,-0.13164146,4
0.3551663160324097,4.255162715911865,1.7739397287368774,0.2639542818069458,-0.8011498,0.29779682,4
0.6904102563858032,3.3725063800811768,1.300907850265503,0.18586480617523196,-0.00580322,0.3924809,4
0.8666883707046509,2.833174228668213,0.6607666015625,0.1575448513031006,0.34819320000000004,0.77366084,4
0.9328693747520448,2.5255825519561768,0.16546976566314694,0.1502835899591446,0.45234573,0.8900306999999998,4
0.9440614581108092,2.3684356212615967,-0.14085231721401215,0.17273300886154175,0.57635134,0.85918194,4
0.8382390141487122,2.1869075298309326,0.4869031012058258,0.2110199481248856,-1.6597209,0.7012733,4
0.6301549077033997,1.9723265171051023,1.1502381563186646,0.09716110676527023,-1.8887954,0.8054258000000001,4
0.25184744596481323,1.8931488990783687,1.057276725769043,-0.1435309499502182,-0.07819075,0.54367006,4
-0.26254943013191223,2.612244129180908,1.895059585571289,-0.4851043224334717,-0.34055737,0.61300325,4
-0.4612186849117279,4.729191780090332,2.104964017868042,-0.572217583656311,0.54519725,0.8857546000000001,4
-0.7475327253341675,7.3141517639160165,1.6465232372283936,-0.6311907768249512,0.47739118,0.73761976,4
-0.5884543657302856,9.637158393859863,1.5211278200149536,-0.4903360903263092,-2.3374758,0.6957755,4
0.10282786935567856,11.56408405303955,2.1108787059783936,-0.26250115036964417,0.15851954,0.30665436,4
-0.6142794489860535,13.128299713134766,2.46106219291687,-0.14044274389743805,1.0714576,-0.47525316,4
-1.8748914003372192,14.31359577178955,2.658048152923584,-0.07433129101991652,0.86834496,-1.0231993,4
-2.7354226112365723,14.952791213989258,2.612075090408325,0.03228229284286499,0.78893244,-1.6502525,4
-2.8841321468353267,14.926505088806152,2.4415662288665767,0.14110368490219116,0.34177909999999995,-1.7217237,4
-2.45072078704834,14.328054428100586,2.1086721420288086,0.2351069450378418,0.19058995,-1.4193454,4
-1.6941014528274536,13.226444244384766,1.7322089672088623,0.3195631504058838,0.49418998,-1.0821478,4
-0.95462167263031,11.688142776489258,1.5472803115844729,0.4763216376304626,0.39370266,-0.73426,4
-0.4272643029689789,9.845685005187988,1.5351604223251345,0.6094932556152344,0.2284636,-0.41416663,4
-0.10289335995912552,7.847229957580566,1.6177068948745728,0.6384320855140686,-0.13897185,-0.15210545,4
0.14506526291370392,5.864344596862793,1.746915340423584,0.5559062361717224,-0.55680364,-0.13836098,4
0.5934592485427856,4.268970489501953,1.8333603143692017,0.3978274464607239,-0.5311473000000001,0.0033597588,4
1.0568215847015379,3.3669865131378174,1.4627182483673096,0.2596467435359955,0.310625,0.35338554,4
1.2230039834976196,2.8641178607940674,0.8287397623062134,0.17978161573410034,0.79412484,0.56505036,4
1.1883710622787476,2.5104317665100098,0.4005061089992523,0.11726881563663485,0.7455609999999999,0.6450737,4
1.0281751155853271,2.2303235530853267,0.34071996808052063,0.06090280786156655,-0.04062254,0.58276546,4
0.5898131728172302,1.930877923965454,0.976841926574707,-0.026495886966586116,-1.0913107,0.5910121,4
0.2380295544862747,1.682068943977356,0.987266719341278,-0.2190234661102295,0.6985244,0.74067414,4
0.1126251071691513,1.5211687088012695,0.4342287182807921,-0.4667913019657135,1.2971723,0.54733527,4
-0.05431635305285454,2.06461763381958,1.440338134765625,-0.5830605030059814,-1.743104,0.44593164,4
-0.2173401266336441,4.0630388259887695,2.496718168258667,-0.6026074290275574,-1.4892895,0.9822713,4
-0.7841543555259705,6.626404762268066,2.1274008750915527,-0.5460584163665771,0.86529064,0.7107416999999999,4
-1.9299360513687132,9.044106483459473,1.082241415977478,-0.5412676930427551,1.9898936000000005,-0.16493362,4
-1.1568758487701416,11.076659202575684,1.5328915119171145,-0.4473190009593964,-1.7996091,0.29626966,4
-0.027033053338527683,12.733463287353516,2.3557021617889404,-0.14153708517551422,-1.2388347,0.3381139,4
-0.5212335586547852,14.070250511169435,3.012477159500122,-0.014415121637284756,1.1814133999999998,-0.2864958,4
-2.0248398780822754,15.07626247406006,3.3268213272094727,-0.09010489284992218,1.568091,-0.8185594,4
-3.2853820323944087,15.512792587280273,3.3781118392944336,-0.1095363348722458,0.4886922,-1.1948525,4
-3.487611055374145,15.254664421081545,3.020313262939453,-0.09247514605522156,-0.013133603,-1.2977833,4
-2.879321575164795,14.476316452026367,2.4110324382781982,-0.05030398070812225,0.3381139,-1.0201449,4
-1.8998150825500488,13.251666069030762,1.813017964363098,0.05563708767294884,0.677755,-0.62980205,4
-0.96115380525589,11.632474899291992,1.3654558658599854,0.2116605043411255,0.37843102,-0.3585779000000001,4
-0.335684597492218,9.819336891174316,1.0451326370239258,0.30693602561950684,0.017715093,-0.07513642,4
-0.03670122846961021,7.918151378631593,0.8322291374206543,0.3256533145904541,-0.34605515,0.14691310000000002,4
0.05712709948420525,6.135830402374268,0.6998706459999084,0.3478187024593353,-0.3659083,0.2843578,4
0.1531200408935547,4.545167922973633,0.6713995933532715,0.409187912940979,0.118507855,0.4783075,4
0.3302639424800873,3.246720314025879,0.7031626105308533,0.4471229910850525,0.24007004,0.6814201999999999,4
0.3661941885948181,2.3859663009643555,0.5970557928085327,0.409405380487442,0.42119157,0.691194,4
0.3105878233909607,1.9328978061676023,0.4754557311534882,0.32826632261276245,0.46028697,0.6533204,4
0.21290349960327148,1.7272621393203735,0.5282279253005981,0.24331024289131165,0.49266282,0.66889745,4
-0.0712067112326622,1.8123817443847656,1.47512686252594,0.15987460315227509,-1.3014483,0.7180721,4
-0.4006765782833099,1.8521574735641482,1.8692328929901123,-0.06759921461343765,-1.4019357,0.59712076,4
-0.4018116593360901,1.8078484535217283,1.299368143081665,-0.38728973269462585,-0.32986724,0.66737026,4
-0.144972562789917,2.528261423110962,1.836941123008728,-0.644625723361969,-2.3215932999999995,1.2846496,4
-0.038622036576271064,4.450282096862793,1.895118236541748,-0.42476025223732,-0.37140608,1.4953982,4
-0.4101347327232361,7.039272785186768,0.291724294424057,-0.485880970954895,3.559512,0.15790866,4
0.18517619371414185,9.403571128845217,1.0972074270248413,-0.4177645146846771,-2.5879307000000003,0.95814216,4
0.6589927077293396,11.374124526977539,1.7974739074707031,-0.23850110173225406,1.3298537,0.41050145,4
-0.6369061470031738,12.974105834960938,1.797722578048706,-0.18097400665283206,1.0888673,-0.80756384,4
-2.0292868614196777,14.260377883911133,2.036071538925171,-0.0913262814283371,0.4370741,-1.1307116,4
-2.99662184715271,15.167149543762207,2.2193024158477783,0.04506159573793411,0.4147775,-1.5112807,4
-3.122581243515014,15.026294708251953,2.26562762260437,0.12676434218883514,0.0070249503,-1.6233743,4
-2.729753971099853,14.134384155273438,2.0249557495117188,0.20414388179779053,-0.17256944,-1.3093897,4
-2.0897352695465092,12.77232265472412,1.602074146270752,0.2955031991004944,0.2452624,-1.0219775,4
-1.3898544311523438,11.110066413879396,1.215043544769287,0.410845160484314,0.6038403,-0.8426886,4
-0.7311760187149048,9.241312026977539,1.005487322807312,0.4834342300891876,0.63621616,-0.72326446,4
-0.16741634905338287,7.367704391479492,0.902899444103241,0.4590001404285431,0.5305365,-0.57604593,4
0.3005453944206238,5.675344944000244,0.8099291324615479,0.3609776496887207,0.5421429,-0.32284227,4
0.7480915188789368,4.279615879058838,0.9461409449577332,0.2482975423336029,0.06963864,-0.040317107000000005,4
1.191148281097412,3.436509132385254,1.0891954898834229,0.15169905126094818,-0.052534413,0.21594086,4
1.4881417751312256,3.028650522232056,1.063007950782776,0.0971585288643837,-0.03970624,0.45234573,4
1.543039321899414,2.79965615272522,1.0249383449554443,0.028673743829131126,-0.19761491,0.6084218000000001,4
1.2696173191070557,2.5389561653137207,1.1736226081848145,-0.08008081465959549,-0.37904188,0.6985244,4
0.8072019815444946,2.234970569610596,1.48080313205719,-0.2557574510574341,-0.6713409,0.8576548,4
0.4136260151863098,1.965239763259888,1.3580179214477541,-0.4232911467552185,0.09743301,0.95203346,4
0.027256665751338,1.8298847675323489,0.7588606476783752,-0.5151768326759338,0.5323690999999999,0.6948592,4
-0.4560918211936951,2.321932077407837,1.1035795211791992,-0.6075766086578369,-2.1810944,0.5143485,4
-0.6984649300575256,4.220047473907472,1.4258043766021729,-0.6144366860389711,-0.09865474,0.94897914,4
-1.3239341974258425,6.880890369415282,1.0062313079833984,-0.5424781441688538,0.35399640000000004,0.33078352,4
-1.1197618246078491,9.309016227722168,0.9414693117141724,-0.4459502696990967,0.5360342,0.3680463,4
0.2400863319635391,11.305821418762207,1.7011592388153076,-0.23323336243629456,-2.223244,0.68844515,4
0.1899561733007431,12.922284126281738,2.4316554069519043,0.10148082673549652,-0.52931476,0.40439278,4
-1.2107455730438232,14.187070846557615,2.894582509994507,0.16160111129283905,1.536937,-0.74372846,4
-2.8389673233032227,14.965001106262207,3.190361976623535,0.09076040238142014,0.83260936,-1.2702943000000002,4
-3.727187156677246,15.07276439666748,3.174820899963379,0.10980579257011414,-0.30573806,-1.2947289,4
-3.69580602645874,14.585031509399414,2.7126564979553223,0.14755381643772125,-0.11453723,-1.5125023000000002,4
-2.8847556114196777,13.651651382446287,2.167687177658081,0.13460563123226166,0.4642576,-1.2183707,4
-1.7187454700469968,12.31930923461914,1.6724117994308472,0.17741766571998596,0.7309003000000001,-0.7886270000000001,4
-0.6771846413612366,10.651077270507812,1.3444777727127075,0.2781490683555603,0.35918877,-0.37384954,4
-0.10778407752513884,8.936161994934082,1.134584903717041,0.31631723046302795,-0.019547688,-0.1255328,4
0.109721802175045,7.223782062530518,0.9817482233047484,0.2971700131893158,-0.27275133,0.058948494,4
0.22150833904743195,5.526885032653809,0.9430117011070251,0.2858166396617889,-0.45998153,0.1685988,4
0.4621843993663788,4.0978288650512695,1.0241048336029053,0.2574112713336945,-0.17165314,0.38056904,4
0.5884053111076355,3.166672945022583,0.847484827041626,0.1823904514312744,0.40408736,0.5320636,4
0.5296642780303955,2.6126744747161865,0.5267581343650818,0.11017003655433656,0.5732970000000001,0.65240407,4
0.43185335397720337,2.2681069374084477,0.31550925970077515,0.0465279184281826,0.55833083,0.6389651,4
0.21406026184558868,2.10617470741272,0.7979902625083923,0.036774344742298126,-0.40286562,0.5348125,4
-0.19304141402244568,1.9559346437454224,1.904611110687256,0.01831052079796791,-2.3228152,0.5543602,4
-0.4550495147705078,1.8735380172729488,1.919511675834656,-0.2477613538503647,-0.29443705,0.51893,4
-0.6026749610900879,2.511932134628296,2.1402006149291988,-0.6195669174194336,-0.34513888,0.7678576,4
-0.5222828388214111,4.743656635284424,2.623108386993408,-0.6875169277191162,-0.21868975,1.8060231,4
-0.4655220210552216,7.364558696746826,2.8058671951293945,-0.7862754464149475,-0.083383106,1.1749994,4
-0.7137528061866759,9.68346118927002,2.358243703842163,-0.8515806198120117,0.28130344,0.6612616,4
-0.4696447551250458,11.602697372436525,2.270219087600708,-0.8101731538772583,-0.5412266,0.3381139,4
-0.14387337863445282,13.159183502197266,2.3372600078582764,-0.6291788816452026,0.6261369000000001,0.05375614,4
-0.4706876277923584,14.406630516052244,2.59587025642395,-0.4346886277198792,0.30695978,-0.23090707,4
-1.0897626876831057,15.350835800170898,2.71064567565918,-0.19261951744556427,-0.10934488,-0.8213083000000001,4
-1.6627233028411863,15.900674819946287,2.6432020664215092,0.06197386607527732,-0.098043874,-1.3225232,4
-1.811511516571045,15.865025520324707,2.497505187988281,0.2884591519832611,-0.046120327,-1.4672983,4
-1.6014128923416138,15.182305335998535,2.333120822906494,0.43830347061157227,0.03604105,-1.3509285,4
-1.3167905807495115,14.01303482055664,2.0971179008483887,0.5342693924903871,0.58093286,-1.0464121,4
-1.0567705631256104,12.530900955200195,1.9025193452835083,0.5816531777381897,0.80573124,-0.6759224,4
-0.7568206787109375,10.770147323608398,1.7355471849441528,0.5958802700042725,0.84665924,-0.45998153,4
-0.4255857169628143,8.880648612976074,1.5817145109176636,0.5633813738822937,0.73548174,-0.27397305,4
-0.10684952139854433,6.982421398162843,1.5573506355285645,0.4985480308532715,-0.020463986,-0.07574729,4
0.12055517733097075,5.198205947875977,1.6032143831253052,0.4327668845653534,-0.75533485,0.02687807,4
0.3348817229270935,3.75593376159668,1.5487879514694214,0.3677457571029663,-0.56596667,0.16982053,4
0.5351877212524414,2.883275032043457,1.2060893774032593,0.29125481843948364,0.005497787,0.258396,4
0.6456559300422668,2.393509864807129,0.7320278882980347,0.2237955629825592,0.37659842,0.44073927,4
0.6620905995368958,2.1438460350036617,0.446271151304245,0.14465032517910004,0.3820962,0.4822781,4
0.4643093645572662,2.097201108932495,0.8611267805099487,0.05249088257551193,-1.4230106000000002,0.52534413,4
0.16503821313381195,2.0681989192962646,1.390653133392334,-0.08681032806634903,-1.3536774,0.64996064,4
-0.0455656535923481,2.3560540676116943,1.882017731666565,-0.2863646447658539,-0.5748241999999999,0.61636305,4
-0.3149322271347046,3.9981992244720463,2.0550613403320312,-0.5404829978942871,-0.03573562,1.0012082,4
-0.5996306538581848,6.476168632507324,2.0794548988342285,-0.6200836300849915,1.065349,1.1420126,4
-1.1043095588684082,8.891383171081543,1.2915657758712769,-0.7276846170425415,1.520749,0.2864958,4
-0.938766062259674,10.947669982910156,1.1903655529022217,-0.6555296778678894,-1.0931433000000002,0.52473325,4
-0.2444988042116165,12.628853797912598,1.4331606626510618,-0.36103880405426025,-0.98899084,0.5213734999999999,4
-0.2124657928943634,13.986065864562988,1.9166097640991209,-0.029662080109119412,-0.5681046999999999,0.100792766,4
-0.9429177641868592,15.036312103271484,2.4497852325439453,0.16229668259620667,0.4428773,-0.441961,4
-2.101135730743408,15.761748313903807,2.811870813369751,0.20172536373138428,0.7302894,-0.960891,4
-2.851969957351685,15.931140899658205,3.018295288085937,0.21632276475429532,-0.27885997,-1.1111639,4
-2.904903650283813,15.493496894836426,2.8438544273376465,0.2512708008289337,-0.4352415,-1.1218541000000002,4
-2.5229880809783936,14.603134155273438,2.442387342453003,0.29741984605789185,0.087659165,-0.81092364,4
-1.9498608112335205,13.203520774841307,2.0167760848999023,0.3697490394115448,0.14630222,-0.59131753,4
-1.3414753675460815,11.102359771728516,1.5314425230026243,0.452523946762085,0.16187929,-0.3659083,4
-0.8854775428771973,8.91482925415039,1.257446527481079,0.4867390692234039,-0.008246681,-0.20952678,4
-0.5633339285850525,6.873325824737549,1.165840744972229,0.460372269153595,-0.28099802,-0.18417588,4
-0.2818634510040283,5.143796920776367,1.1777414083480835,0.40140533447265625,-0.32498032,-0.12644911,4
0.04571054130792618,3.7705581188201904,1.119942307472229,0.3301390111446381,-0.018936822,0.06780604,4
0.2989122569561005,2.810481548309326,0.8865152597427368,0.27457141876220703,0.45234573,0.23426682,4
0.44640496373176575,2.2544968128204346,0.6133600473403931,0.194421261548996,0.5488624,0.34666604,4
0.5308565497398376,1.9570264816284182,0.4094769954681397,0.11825156956911087,0.312763,0.3304781,4
0.5251326560974121,1.9427644014358518,0.7189109921455383,0.0936323255300522,-0.8943066999999999,0.44104472,4
0.31312015652656555,1.9814579486846924,1.273530125617981,0.020829750224947933,-1.6615535,0.52687126,4
0.07047352939844131,2.088419198989868,1.5318020582199097,-0.25564682483673096,-0.87109387,0.5705481,4
-0.1157446801662445,3.087568044662476,2.364981174468994,-0.5431781411170961,-1.2382239,1.0073168,4
-0.07018210738897324,5.2383551597595215,2.5747716426849365,-0.5912885069847107,-0.13652839,1.2822062,4
-0.12133367359638215,7.756294250488281,1.9890708923339844,-0.757257878780365,1.2455542,1.1297953,4
-0.3241938650608063,9.994546890258787,1.7476640939712524,-0.7630214095115662,-0.605062,0.89858276,4
-0.058669518679380424,11.852994918823242,2.0074093341827397,-0.6311883330345154,0.33475417,0.3378085,4
-0.6699010729789734,13.360716819763185,1.916221261024475,-0.3942086398601532,0.97310835,-0.26358834,4
-1.7065833806991575,14.573514938354492,2.093647718429565,-0.14652806520462036,0.3295618,-0.9202685,4
-2.380444288253784,15.477602005004885,2.209249258041382,0.09086133539676666,0.29229903,-1.352761,4
-2.6286892890930176,15.668988227844238,2.226790189743042,0.2759875059127808,-0.21105394,-1.5155567,4
-2.4735219478607178,15.09437084197998,2.0253005027771,0.4222148656845093,-0.28955013,-1.2822062,4
-2.012617826461792,13.94418239593506,1.7584363222122192,0.5279085636138916,0.046120327,-1.01312,4
-1.486458659172058,12.381916046142578,1.5939829349517822,0.6339150667190552,0.32192600000000005,-0.7528914000000001,4
-1.0192469358444214,10.519317626953123,1.4724658727645874,0.7409684658050537,0.6386596,-0.6065891999999999,4
-0.60096275806427,8.494678497314451,1.351218581199646,0.7748178243637085,0.9627236,-0.46883908,4
-0.2437500208616257,6.535737991333008,1.3102247714996338,0.6836124658584595,0.7816021,-0.36193767,4
0.032918434590101235,4.817008972167969,1.3888773918151855,0.5034400224685669,0.15760323,-0.36682457,4
0.3775720000267029,3.562538385391236,1.4348707199096682,0.3365314602851868,-0.17318029999999998,-0.16279559,4
0.7311854362487793,3.0055978298187256,1.1776776313781738,0.23871932923793796,0.32925636,0.15332718,4
0.9744787216186525,2.7991952896118164,0.9542161822319032,0.18793097138404846,0.24465153,0.52687126,4
1.0448548793792725,2.680837631225586,1.0504384040832522,0.11158784478902817,-0.7812967,0.6420194,4
0.8546538352966309,2.397298812866211,1.2654922008514404,-0.0037464443594217296,-1.3133603,0.59895337,4
0.5172495841979979,2.04993200302124,1.382811427116394,-0.17925389111042025,-0.77396625,0.66614854,4
0.08140432089567183,2.0097105503082275,1.3317646980285645,-0.4117974936962128,0.112704635,0.52870387,4
-0.4331440031528473,3.3802475929260254,1.779866099357605,-0.6584980487823486,-0.6979135000000001,1.0231993,4
-0.8912575244903564,6.057962894439697,1.6507093906402588,-0.7703008651733398,-0.05100725,0.9960158,4
-1.0932108163833618,8.617823600769043,0.6187154650688171,-0.7024549245834351,0.9114109,0.69913524,4
-0.13031424582004547,10.74228572845459,1.0251734256744385,-0.5351928472518921,-2.756224,1.1618657,4
0.5748220682144165,12.466774940490724,1.97655725479126,-0.20944109559059146,-1.4605788,0.39492437,4
-0.6897633671760559,13.821309089660645,1.9711819887161253,-0.05387822911143303,1.4504995,-0.19853121,4
-2.601937294006348,14.82587718963623,2.0287678241729736,-0.034478262066841125,0.24740042,-1.6841555,4
-3.930751323699951,15.70024299621582,2.1385154724121094,0.05551319569349289,0.05589417,-1.5674802,4
-3.729649305343628,16.18187141418457,2.0644998550415044,0.17806272208690646,-0.13316862,-1.65911,4
-2.705500602722168,15.831636428833008,1.852750897407532,0.3180559277534485,-0.63255095,-1.2748758,4
-1.688077092170715,14.758111000061035,1.6144697666168213,0.5046297311782837,-0.34574974,-0.79198676,4
-0.9324836134910583,13.16391372680664,1.4299575090408323,0.6716421246528625,0.33994650000000004,-0.55955255,4
-0.4283717274665833,11.227724075317383,1.2556928396224976,0.7322764396667479,1.0268645,-0.410196,4
-0.12085564434528352,9.168865203857422,1.1418582201004028,0.6589964628219604,1.464244,-0.23457226,4
0.054265446960926056,7.145368576049805,1.16856050491333,0.5062171220779419,1.2043208,-0.06352998,4
0.12685291469097135,5.3493618965148935,1.327228546142578,0.3273096978664398,0.33475417,0.043066,4
0.2642420828342438,3.9457600116729736,1.4139066934585571,0.1572507619857788,-0.124005646,0.3735441,4
0.4735213220119476,3.2146899700164795,1.2484453916549685,0.07055425643920897,-0.21288654,0.5925393,4
0.6174458861351013,2.866083860397339,1.067516207695007,0.0638945996761322,-0.4334089,0.6939429,4
0.6557164788246155,2.6410257816314697,1.0892171859741209,0.07866361737251283,-0.8753699,0.5910121,4
0.5595860481262207,2.322093963623047,1.0341432094573977,-0.020631873980164528,-0.26908615,0.61361414,4
0.4294996559619904,1.9260234832763672,0.7198343276977539,-0.2742007672786713,0.8237518,0.602924,4
0.3199581801891327,1.5958404541015625,0.3856583833694458,-0.4871468842029572,0.7910705,0.4550946,4
0.2365212291479111,1.8993933200836184,1.0459834337234497,-0.5224213600158691,-0.82741696,0.38637227,4
0.04646628722548485,3.5332453250885014,2.4170565605163574,-0.5695409178733826,-2.3176227000000003,0.9602802,4
-0.4490396976470947,6.115049839019775,2.661522388458252,-0.5604842305183411,0.29626966,0.96852684,4
-1.5929698944091797,8.611973762512207,2.0517282485961914,-0.6441260576248169,0.4373795,0.12186762,4
-1.345792293548584,10.724327087402344,1.7466926574707031,-0.6747097373008728,-0.9578367,0.21838433,4
-0.5470188260078429,12.44902229309082,1.8488696813583372,-0.5363591313362122,0.45631635,0.08155051,4
-0.9648038148880004,13.841768264770508,1.9763880968093872,-0.4084762036800385,1.1111639,-0.39064834,4
-2.14949369430542,14.938339233398438,1.969778299331665,-0.2712555825710297,0.81581056,-0.93737274,4
-3.113025188446045,15.516644477844238,1.7515034675598145,-0.07800748944282533,0.33628133,-1.5827519,4
-3.4108693599700928,15.828712463378904,1.5041602849960327,0.1339235007762909,-0.31581733,-1.4471397,4
-2.9939148426055913,15.6325044631958,1.2267091274261477,0.3257833421230316,-0.19425514,-1.1294898000000002,4
-2.1235525608062744,14.64423656463623,0.9327108860015868,0.5409820675849915,0.34300083,-0.74097955,4
-1.3549857139587402,12.907468795776367,0.7447119951248169,0.81190025806427,0.66920286,-0.3436117,4
-0.8451169729232788,10.637432098388672,1.1655055284500122,1.0393311977386477,-0.1572978,-0.16737708,4
-0.4866009652614594,8.227225303649902,1.8073365688323972,1.0273621082305908,-1.0192287,-0.061086524,4
-0.2190249264240265,6.273711204528809,1.7323017120361328,0.7991979122161865,-0.10629055,0.21930063,4
-0.07050377875566483,4.77611255645752,1.321418523788452,0.5486971735954285,0.55863625,0.39767328,4
-0.10968827456235886,3.764573574066162,0.8236162066459656,0.3802933394908905,0.27947086,0.4999932,4
-0.1792394071817398,3.1727144718170166,0.4660977721214294,0.2888372838497162,-0.11056661,0.6545420999999999,4
-0.3207186162471771,2.7165567874908447,0.5062094926834106,0.22029882669448853,-0.8668178,0.5137377000000001,4
-0.5489058494567871,2.2918987274169917,0.8234525322914124,0.13346663117408752,-1.3875803999999998,0.24587326,4
-0.5346868038177489,2.0022454261779785,0.8649982810020447,0.04271605983376503,-0.61819565,0.376293,4
-0.2794382572174072,1.801247477531433,0.7284475564956665,-0.13287249207496646,0.14996742,0.4596761,4
0.039348646998405463,1.6954773664474487,0.5905159115791321,-0.3416509032249451,-0.03604105,0.47067168,4
0.3684687316417694,1.937910079956055,0.8214808106422424,-0.4805923104286194,-0.034513887,0.66675943,4
0.6975923180580139,3.4648456573486333,2.0182132720947266,-0.6599209308624268,-1.2864822,0.98990715,4
0.20862850546836853,5.951821804046631,2.5303661823272705,-0.6751986145973206,0.29962940000000005,1.0033462,4
-0.9807208180427552,8.505094528198242,1.7320318222045898,-0.7105016708374023,1.4147639,-0.09560041,4
-0.895391047000885,10.655415534973145,2.0937457084655757,-0.5295909643173218,-1.0705414,0.40317106,4
-0.07425191253423691,12.39827823638916,2.587505340576172,-0.2199213802814484,-0.21899518,0.05925392700000001,4
-0.5417239665985107,13.80087947845459,2.7230603694915767,-0.0629003643989563,0.5348125,-0.5751295999999999,4
-1.818950653076172,14.877349853515625,2.8626551628112797,-0.009689901024103165,0.33994650000000004,-1.346347,4
-2.9377858638763428,15.383440971374512,2.863997220993042,0.02331651747226715,0.59681535,-1.5262468,4
-3.47379994392395,15.275201797485352,2.779632568359375,0.07552043348550798,0.41050145,-1.1200215,4
-3.318119525909424,14.536752700805664,2.4398176670074463,0.14241985976696014,0.27458394,-1.0036516,4
-2.6333603858947754,12.937004089355467,1.908303380012512,0.254893034696579,0.30665436,-0.8014551999999999,4
-1.8828846216201784,10.922059059143066,1.4674320220947266,0.36966806650161743,0.4908302,-0.57757306,4
-1.2785550355911257,8.847088813781738,1.2473983764648438,0.4116185903549193,0.3747658,-0.3930918,4
-0.8560900688171387,6.905253887176514,1.1612313985824585,0.38150498270988464,0.18600847,-0.25778514,4
-0.5698505043983461,5.19162130355835,1.1268658638000488,0.2997877895832062,0.113926366,-0.19120082,4
-0.2290536016225815,3.775160312652588,1.0107852220535278,0.2145895808935165,0.40591997,-0.096516706,4
0.16832582652568814,2.828157663345337,0.7645006775856018,0.15903161466121676,0.60903263,0.14385876,4
0.483462393283844,2.381469964981079,0.5451998114585876,0.12734302878379822,0.4615087000000001,0.44898596,4
0.6564649343490601,2.2722063064575195,0.5812561511993408,0.13409608602523804,-0.051923547,0.62980205,4
0.5845022797584534,2.381222486495972,1.145543098449707,0.156401589512825,-1.378112,0.729984,4
0.3609973192214966,2.2232069969177246,1.1859257221221924,0.01021838653832674,-0.32009340000000003,0.6786713000000001,4
0.16303107142448425,1.9144469499588013,0.8165465593338013,-0.22047418355941767,0.24465153,0.63132924,4
-0.10258863866329193,1.886541962623596,1.126490592956543,-0.4396186470985413,-1.5622878,0.6407976,4
-0.4290745258331299,3.098414182662964,2.0144906044006348,-0.6586853861808777,-1.0729848,1.2360858,4
-0.7090042233467102,5.535271167755127,1.9425358772277832,-0.6814157962799072,1.3750577,1.3927728,4
-1.336667776107788,8.084108352661133,1.2680542469024658,-0.7433102130889893,1.4358387,0.7031059000000001,4
-1.5110654830932615,10.28667449951172,1.1225556135177612,-0.6595712304115295,-1.9208658,0.6918049,4
-1.305127501487732,12.096208572387695,1.8032644987106323,-0.36673665046691895,-0.11636983,0.27855456,4
-2.144233226776123,13.554996490478516,2.1422924995422363,-0.20423611998558044,1.1707232,-0.28588495,4
-3.1992185115814213,14.619536399841307,2.330056667327881,-0.12766003608703613,0.93401295,-0.870483,4
-3.8175978660583496,15.108710289001465,2.3764207363128658,-0.025771379470825195,0.49021935,-1.3946054,4
-3.6997802257537837,14.998787879943848,2.31261944770813,0.10150817781686784,-0.43249258,-1.310306,4
-3.0703225135803223,14.287358283996582,2.03748631477356,0.242038369178772,-0.34972036,-1.0479393,4
-2.323060274124145,13.04774284362793,1.6655187606811523,0.3737412989139557,0.05955936,-0.7678576,4
-1.6835339069366455,11.38929843902588,1.2504839897155762,0.4776820838451386,0.45998153,-0.5360342,4
-1.1716634035110474,9.509812355041504,0.9291720390319824,0.5343341231346129,0.63438356,-0.2773328,4
-0.7812537550926208,7.609941482543945,0.7914362549781799,0.5597663521766663,0.52473325,-0.090713486,4
-0.5224117040634155,5.775388240814209,1.0194128751754759,0.5438978672027588,-0.27763826,-0.13958271,4
-0.22252655029296875,4.068605422973634,1.372794508934021,0.4429310262203217,-0.37293324,0.047647487,4
0.1291927844285965,2.882434368133545,1.1706699132919312,0.32985273003578186,0.6221663000000001,0.07452556,4
0.3764873147010803,2.344612598419189,0.7586796283721924,0.2624747157096863,0.8200866,0.28955013,4
0.5085119605064392,2.126670360565185,0.4849715232849121,0.21196651458740234,0.71959925,0.43554693,4
0.4315629005432129,2.1424119472503658,0.9081867933273317,0.15009638667106628,-0.7519751,0.49663344,4
0.1916908472776413,2.1521546840667725,1.375709056854248,0.006185806356370449,-0.6747006999999999,0.44043383,4
0.1652766466140747,1.9848372936248782,1.2533398866653442,-0.17166019976139069,-0.3378085,0.5366451,4
0.31264960765838623,2.257406234741211,1.640866994857788,-0.3598272204399109,-1.5787812,1.0299188,4
0.19334129989147186,3.771108388900757,2.8786604404449463,-0.5935382246971129,-3.0479121,1.543351,4
-0.1659952998161316,6.1564579010009775,2.942250490188598,-0.5857630968093872,0.25961772,1.5903877,4
-0.7329325079917908,8.607973098754883,1.4894862174987793,-0.8477370738983154,3.3255503,1.1838568,4
-0.879589319229126,10.711040496826172,1.3932780027389526,-0.9965954422950744,0.20463985,0.41630468,4
-0.7916990518569946,12.436080932617188,1.2676217555999756,-0.933050274848938,2.182316,0.34788775,4
-1.7635364532470703,13.83043384552002,1.3787983655929563,-0.7600460648536682,0.93828905,-0.07086037,4
-2.8690922260284424,14.923802375793455,1.5883551836013794,-0.4801874160766602,-0.49510628,-0.63224554,4
-3.304945945739746,15.716919898986815,1.7756133079528809,-0.14863517880439758,-1.3384056999999998,-1.2614367,4
-3.171504020690918,16.226573944091793,1.9320356845855715,0.19662955403327945,-1.996613,-1.3100005,4
-2.507503032684326,15.876017570495605,1.904993295669556,0.4429343044757843,-0.82344633,-1.1291844,4
-1.8575668334960935,14.61021614074707,1.7210773229599,0.6173964738845825,0.31642818,-1.001819,4
-1.4516260623931885,12.815774917602539,1.5130106210708618,0.7691274285316467,1.1377366000000002,-0.9783007,4
-1.1885684728622437,10.802433967590332,1.5092655420303345,0.8296425342559814,1.0097603000000002,-0.83199847,4
-0.9403234720230104,8.747041702270508,1.679546594619751,0.75527423620224,0.3472769,-0.63194007,4
-0.5332683920860289,6.801523208618164,1.908446192741394,0.6077674031257629,-0.27580565,-0.45814893,4
0.09595482796430588,5.406289577484131,2.009339570999145,0.41618654131889343,0.013439035,-0.064446285,4
0.5424656867980957,4.599184989929199,1.6049035787582395,0.2826222777366638,0.6218608,0.26358834,4
0.7000651359558105,3.955001354217529,1.2105754613876345,0.22582733631134036,0.34116822,0.5158757,4
0.5736967325210571,3.2925353050231934,1.1272287368774414,0.16955994069576266,-0.38728857,0.5684100999999999,4
0.29283607006073,2.6959025859832764,1.1968737840652466,0.07802333682775497,-0.84635377,0.6203337,4
0.027423849329352382,2.278503179550171,1.0569829940795898,-0.07655856013298035,-0.3155119,0.77763146,4
-0.17472532391548154,1.9185473918914795,0.8610573410987854,-0.2968850135803223,0.1020145,0.64599,4
-0.30442288517951965,1.7847237586975098,0.8642062544822693,-0.4891014397144318,-0.29962940000000005,0.49663344,4
-0.589154064655304,2.464075803756714,2.031868696212769,-0.620405912399292,-2.5986207,0.58093286,4
-0.9329789280891418,4.367133140563965,2.432056427001953,-0.6878414154052734,0.32895094,1.0910053,4
-1.150381565093994,6.75586462020874,2.5441479682922363,-0.7338058948516846,-0.4373795,0.8588764999999999,4
-1.539674162864685,9.119897842407227,1.8938013315200808,-0.7523360848426819,0.2049453,0.44104472,4
-0.9134420156478882,11.132280349731444,2.293316602706909,-0.6326342821121216,-0.093462385,0.47342056,4
-0.8157203197479248,12.777264595031738,2.6273117065429688,-0.4334264099597931,1.1239921,0.084910266,4
-1.765838623046875,14.105340957641602,3.1271023750305176,-0.21810372173786166,0.47403142,-0.6078109,4
-3.1150095462799072,15.03350067138672,3.3029701709747314,-0.03154364600777626,0.5198463,-1.3866642,4
-3.8868327140808105,15.284062385559082,3.017729997634888,0.14607813954353333,0.41386122,-1.9404135,4
-3.664902448654175,15.09354019165039,2.5492932796478267,0.2933727204799652,0.04428773,-1.3796391,4
-2.6465811729431152,14.042527198791506,2.110027313232422,0.4350748956203461,0.3659083,-0.9086621,4
-1.798601508140564,12.397008895874025,1.936912178993225,0.6153911948204039,0.09285152,-0.61269784,4
-1.2940354347229004,10.503271102905273,1.7688707113265991,0.7710489630699158,-0.11911872,-0.34941490000000003,4
-1.0204516649246216,8.520815849304201,1.716657280921936,0.8810425996780396,-0.23273966,-0.13316862,4
-0.8271273970603943,6.58018159866333,2.0492100715637207,0.8957779407501221,-1.0180069,-0.016798794,4
-0.54389888048172,4.81480598449707,2.405561208724976,0.7124544382095337,-1.0852021,0.16065755,4
-0.1798744946718216,3.377641201019287,2.0470228195190434,0.50699383020401,0.40530908,-0.03726278,4
0.06930279731750487,2.4943904876708984,1.2754734754562378,0.3585676252841949,1.4205671999999998,0.10048734,4
0.25505906343460083,2.115607500076294,0.64560866355896,0.25424259901046753,1.2492194,0.43860126,4
0.32004430890083313,1.941422700881958,0.5479894280433655,0.1803783029317856,0.19272798,0.45570546,4
0.1009121984243393,1.9632372856140137,1.224241018295288,0.06297294795513153,-1.2195925,0.5177083,4
-0.10081174224615096,1.9238165616989136,1.2245112657546997,-0.10355959832668304,0.23457226,0.58093286,4
-0.059509500861167915,1.742430567741394,0.831203281879425,-0.3158904016017914,0.33108896,0.31581733,4
0.18529662489891047,2.0264408588409424,1.1027400493621826,-0.448763519525528,-2.8389962000000004,0.65148777,4
0.4796019792556762,3.567643165588379,2.437849760055542,-0.5451284050941467,-1.4370605,1.1936307,4
0.2554762363433838,5.988945960998535,3.0524048805236816,-0.5123689174652101,0.42485678,1.2159272,4
-0.5900537371635437,8.494881629943848,2.166975736618042,-0.7211547493934631,2.7840183,0.9804387,4
-0.6145731210708618,10.643170356750488,2.219868898391724,-0.7706624269485474,-1.5155567,0.42241332,4
-0.5987080931663513,12.386520385742188,1.9859110116958616,-0.5892606973648071,1.7241671000000005,0.19975294,4
-1.2599376440048218,13.79101848602295,2.063922643661499,-0.4858875572681427,1.0283916,-0.13927728,4
-2.1236498355865483,14.884759902954102,2.1662790775299072,-0.28729677200317383,0.23335053,-0.66553766,4
-2.8628451824188232,15.713873863220215,2.184576272964477,-0.05574303492903709,-0.25809056,-1.3069462,4
-2.9334135055541988,16.12239646911621,2.3134264945983887,0.14729300141334534,-0.86162543,-1.3460416000000002,4
-2.4870400428771973,15.618707656860352,2.3960752487182617,0.3280997574329376,-0.9569204,-1.1206323,4
-1.9957687854766848,14.41478443145752,2.1520650386810303,0.4715469181537628,0.13469578,-0.76174897,4
-1.5636396408081057,12.68639087677002,1.7111256122589111,0.5640035271644592,0.8237518,-0.5299255999999999,4
-1.1879311800003052,10.719561576843262,1.3470190763473509,0.6018364429473877,0.88239485,-0.33261612,4
-0.9220876097679138,8.643478393554688,1.3605912923812866,0.5837025046348572,-0.035124752999999995,-0.15424347,4
-0.7738566398620605,6.590364456176758,1.6299833059310913,0.4838494658470154,-0.8720101,-0.13255776,4
-0.4884697794914246,4.825453758239746,1.6571811437606812,0.3119009137153625,-0.49541172,0.16462818,4
-0.14381390810012815,3.589171886444092,1.2426292896270752,0.2214900553226471,0.06078109,0.25595254,4
0.08033815026283264,2.877773761749268,0.7070116400718689,0.2013876885175705,0.267559,0.50640726,4
0.2210860252380371,2.451756715774536,0.3078320622444153,0.1620316505432129,0.42149702,0.56291234,4
0.2867912650108337,2.1905803680419917,0.07635147124528885,0.12790322303771973,0.6389651,0.4288274,4
0.21232245862483975,2.0857799053192143,0.3217353224754333,0.1136661022901535,-0.4831944,0.48808134,4
0.12214326858520508,1.9307529926300049,0.7163740992546082,-0.029050812125205994,-0.68936145,0.6261369000000001,4
0.17855572700500488,1.8960616588592532,0.7051586508750916,-0.23482465744018555,-0.47678033,0.59895337,4
0.3245803415775299,2.8182811737060547,2.121521472930908,-0.4585353434085846,-3.325245,1.1551461,4
0.040260203182697296,4.81317138671875,2.739267110824585,-0.6368436217308044,0.4801401,1.1914927,4
-0.6429546475410461,7.328786373138428,2.465227603912353,-0.8032260537147522,1.3118331,1.1527027,4
-1.4299806356430054,9.63486385345459,1.9085128307342532,-0.9579164385795592,0.691194,0.8695666999999999,4
-0.9176142811775208,11.55848503112793,2.5133538246154785,-0.9261967539787292,-0.7516696999999999,0.7266241999999999,4
-0.7495798468589783,13.122787475585938,2.562067747116089,-0.8005164265632629,1.0112875,0.19883664,4
-1.7216532230377195,14.382956504821776,2.4132297039031982,-0.6046824455261229,0.6197228,-0.45265114,4
-2.6739940643310547,15.374212265014648,2.344752788543701,-0.3426910638809204,0.41508293,-1.1279627,4
-3.061043739318848,16.003488540649414,2.1777911186218257,-0.06931242346763611,0.5299255999999999,-1.5940529,4
-2.828739643096924,16.214643478393555,2.083047389984131,0.16763412952423096,0.10293079,-1.4153748,4
-2.262596607208252,15.779556274414062,1.9386616945266724,0.4140856266021729,0.14660765,-1.0662653,4
-1.7334213256835938,14.676342964172365,1.7599635124206543,0.6685258150100708,0.41783184,-0.93431836,4
-1.4147762060165403,13.017696380615234,1.640643835067749,0.9058748483657836,0.6252206,-0.7828238000000001,4
-1.2963250875473022,10.816046714782717,1.8564802408218384,1.0355401039123535,0.31184670000000003,-0.6618725000000001,4
-1.2298481464385986,8.505699157714844,2.306955099105835,0.9584526419639589,-0.38789943,-0.63529986,4
-0.8976758122444153,6.3818626403808585,2.5282974243164062,0.7170731425285339,-0.1563815,-0.23396139,4
-0.3359234929084778,4.911475658416748,2.301386594772339,0.4570372700691223,0.11881329,-0.07360926,4
0.2000636160373688,4.114649295806885,1.7385932207107544,0.30479219555854803,0.23579398,0.40408736,4
0.5631693005561829,3.596428871154785,1.1949851512908936,0.2471683919429779,0.032986723,0.61086524,4
0.6891010999679565,3.1638741493225098,1.027408242225647,0.2185145318508148,-0.5467244000000001,0.6096435,4
0.5516965985298157,2.7781479358673096,1.1104992628097534,0.13006024062633514,-0.8622363000000001,0.5329799,4
0.3242040574550629,2.4189584255218506,1.0541520118713381,-0.06433214992284775,-0.10567969,0.65393126,4
0.1672644168138504,1.9936649799346924,0.7429588437080383,-0.3246121108531952,0.95203346,0.42180246,4
0.03321274369955063,1.7311547994613647,0.5948405861854553,-0.5298507809638977,0.7648033000000001,0.20952678,4
-0.1789592057466507,2.152719736099243,1.6368494033813477,-0.6430552005767822,-2.047315,0.34269542,4
-0.3569965660572052,3.778419017791748,1.9767035245895384,-0.6665818691253662,0.9987647,1.1389582,4
-0.6942022442817688,6.15185022354126,1.897194504737854,-0.6277746558189392,0.26878070000000004,1.0922271,4
-1.6629303693771362,8.602740287780763,1.170007586479187,-0.5480344891548157,0.06688975,0.3286455,4
-1.610972285270691,10.708028793334961,1.7333811521530151,-0.2693333625793457,-0.83108217,0.2510656,4
-1.592031478881836,12.434988975524902,2.508181095123291,0.026204640045762062,0.54305923,-0.376293,4
-2.6642491817474365,13.768928527832033,3.0093789100646973,0.14397896826267242,0.75533485,-1.3035865,4
-3.923375129699707,14.537734031677244,3.033785104751587,0.1947794109582901,0.5235115,-1.9459113,4
-4.305351257324219,14.822793006896973,2.79404616355896,0.2750566005706787,-0.06352998,-1.8634444,4
-3.693965196609497,14.39314079284668,2.267481565475464,0.3508841097354889,-0.38148534,-1.4535538,4
-2.581254243850708,13.152215957641602,1.6994080543518066,0.4504823982715607,-0.022296581,-0.89766645,4
-1.6159113645553589,11.417430877685547,1.2843600511550903,0.6123536229133606,0.059864793,-0.32162055,4
-0.973037838935852,9.430156707763672,1.1238983869552612,0.7282317280769348,-0.0009162979,0.10842858,4
-0.62513667345047,7.401398181915282,1.4412447214126587,0.777568519115448,-0.79045963,0.19456059,4
-0.3963348865509033,5.553840637207031,1.913579106330872,0.6286052465438843,-1.6337591,0.23518312,4
-0.11973436921834946,4.0238966941833505,1.6442841291427612,0.3894224166870117,-0.044593163,0.36071593,4
0.06486345082521439,2.868595123291016,1.0283457040786743,0.18662580847740173,0.9602802,0.33505958,4
0.17169949412345886,2.163536548614502,0.4895670711994171,-0.03976418823003769,0.5354234,0.36865717,4
0.23150202631950376,1.8552265167236328,0.07479270547628403,-0.17203651368618011,0.35735616,0.42913285,4
0.09556533396244048,1.7984573841094968,0.5913883447647095,-0.10878072679042816,-0.5723807,0.52534413,4
-0.1476435363292694,1.8281009197235107,1.7403311729431152,-0.07110684365034102,-0.9450085,0.43188173,4
0.022986212745308883,1.7422997951507568,1.814186215400696,-0.2772568166255951,0.21013765,0.5039638,4
0.4252885282039641,1.5411388874053955,1.1959803104400637,-0.4667053520679474,0.27152961,0.49174652,4
0.9311895370483398,1.5201817750930786,0.45993188023567205,-0.4984042942523956,-0.3032946,0.89644474,4
1.115864872932434,2.7938694953918457,0.9364436268806458,-0.4615426957607269,-4.6673160000000005,1.5515977,4
0.2792397141456604,5.508190155029297,1.1447597742080688,-0.2881369888782501,-0.5626069,1.890628,4
-1.3402853012084959,8.122300148010254,-0.7088381052017212,-0.4468404054641724,4.351804,0.5714644,4
-1.7293611764907837,10.331048965454102,0.16127237677574158,-0.4673117697238922,-3.1007519,0.0983493,4
-1.485649585723877,12.13302516937256,0.4538594782352448,-0.22050993144512174,0.84207773,0.004886922,4
-2.2010326385498047,13.58717441558838,0.6908287405967712,-0.15449188649654388,1.754405,-0.61178154,4
-3.1057820320129395,14.717291831970215,0.990092158317566,-0.05820419639348984,0.87598073,-1.3277156,4
-3.909910917282105,15.510151863098145,1.2764925956726074,0.09179694205522536,0.035430185,-1.6291776000000002,4
-4.167130947113037,15.636995315551758,1.6147629022598269,0.22209852933883667,-0.6603453,-1.1511755,4
-3.711597681045532,14.921660423278807,1.6271500587463381,0.34028372168540955,-0.34941490000000003,-0.9618073,4
-3.0229418277740483,13.557984352111815,1.2978743314743042,0.4663909375667572,0.32375857,-0.80756384,4
-2.3222532272338867,11.889688491821287,0.8492262363433838,0.5700811147689819,0.7367035,-0.56413406,4
-1.6497998237609863,10.024484634399414,0.5419050455093384,0.6183976531028748,0.7131852,-0.21563543,4
-1.1061080694198608,8.070780754089355,0.6094402670860289,0.6209583282470703,-0.15699236,-0.058948494,4
-0.7041801810264587,6.14349365234375,1.3306396007537842,0.5060730576515198,-1.6792686,-0.011911872,4
-0.3086635768413544,4.489416122436523,1.4092459678649902,0.3464509844779968,-0.14599679999999998,0.16249016,4
0.039276428520679474,3.2943124771118164,0.9302983283996582,0.2591174840927124,0.6478225999999999,0.33414328,4
0.26638203859329224,2.732229709625244,0.5359599590301514,0.18381349742412567,0.6948592,0.57543504,4
0.2584408223628998,2.428786516189575,0.7760874032974243,0.10564392060041428,-0.14141529999999994,0.47983465,4
-0.02440015412867069,2.276538610458374,1.2989851236343384,0.003279396565631032,-1.1588113000000002,0.4071417,4
-0.2189707458019257,2.139776468276977,1.246760010719299,-0.1364905685186386,-0.007330383,0.4633413,4
-0.17161864042282104,1.8383705615997317,0.8706855177879333,-0.3344922363758087,0.5390885999999999,0.3277292,4
0.009177031926810741,1.5913196802139282,0.4456329047679901,-0.5158958435058594,0.08124508,0.38362336,4
0.1909601092338562,2.0086166858673096,1.2517709732055664,-0.6002619862556458,-2.8249464,0.84421575,4
0.07581105083227158,3.7536251544952393,2.0440826416015625,-0.5447306632995605,-0.13225232,1.5711454,4
-0.4852573275566101,6.125542640686035,1.569849133491516,-0.5393307805061339,2.2974641,1.502423,4
-1.6722898483276367,8.571957588195799,0.4599563479423523,-0.5438841581344604,1.0784826,0.11362094,4
-1.1501553058624268,10.68093204498291,0.8304335474967957,-0.34727942943573,-1.3881912,0.46181414,4
-0.6984791159629822,12.411330223083494,1.5665242671966553,-0.03993479534983635,0.069027774,0.16554448,4
-1.823891878128052,13.810181617736815,2.1995713710784908,0.06924106925725937,0.6469063,-0.5739079,4
-3.4934256076812744,14.886245727539062,2.5663626194000244,0.059953294694423676,0.21594086,-1.2253957,4
-4.214313983917236,15.323986053466795,2.656167507171631,0.09792647510766984,-0.5681046999999999,-1.7397442,4
-3.8523893356323238,15.112309455871582,2.4742820262908936,0.12613898515701294,-0.7165449,-1.68385,4
-2.940260410308838,14.297648429870605,2.0729284286499023,0.1546308845281601,-0.37323865,-1.4355333,4
-1.9256939888000488,12.969879150390625,1.596435546875,0.2250521928071976,0.17348573,-1.0137309,4
-1.0002652406692505,11.204126358032227,1.1366914510726929,0.3194119930267334,0.5494733,-0.7470882,4
-0.24461299180984494,9.231915473937988,0.8663448691368103,0.37190693616867065,0.48349985,-0.42394048,4
0.28410500288009644,7.304763317108153,0.7636502981185913,0.3487671315670013,0.30298916,-0.08552113,4
0.5862181782722473,5.530925750732422,0.7345741987228394,0.27037689089775085,0.14110987,0.18173242,4
0.7394973039627075,4.078161716461182,0.6784754395484924,0.1942891627550125,0.06414085,0.5519168000000001,4
0.7183975577354431,3.1301109790802,0.4370919167995453,0.16040901839733124,0.44012842,0.5549710999999999,4
0.579355776309967,2.630393743515014,0.15783549845218658,0.10833699256181717,0.6056729000000001,0.6924158,4
0.39588305354118347,2.37544059753418,-0.028536228463053707,0.019726473838090897,0.7305948,0.68539083,4
0.04287523776292801,2.365262269973755,0.5177100896835327,-0.04428604990243912,-0.4529566,0.5354234,4
-0.29848262667655945,2.335066795349121,1.4224566221237185,-0.15797169506549835,-0.8210029000000001,0.6536258,4
-0.3820465803146362,2.081628799438477,1.6771841049194336,-0.3733998239040375,-0.5308419,0.6805039,4
-0.21921156346797946,1.8600817918777464,1.5067719221115112,-0.5912462472915649,-1.0299188,0.9025534,4
0.29757654666900635,2.4519894123077397,2.193570375442505,-0.7711975574493408,-2.2989914,1.6325374,4
0.19320262968540192,4.496006488800049,3.203730344772339,-0.6309927105903625,0.32070425,1.5717562,4
-0.7460447549819946,7.261691093444824,1.6981644630432131,-0.6684720516204834,3.5683693999999995,1.3466524,4
-0.3830985426902771,9.62773895263672,2.2963075637817383,-0.7533816695213318,-2.6282477,0.8747590000000001,4
0.10501088201999664,11.565119743347168,2.8475055694580083,-0.5090210437774658,0.90194255,0.26939157,4
-0.9933190941810608,13.131104469299315,2.9932558536529537,-0.4646245539188385,0.8573494,-0.40744713,4
-2.1570463180541988,14.380000114440918,3.1569371223449707,-0.2709222733974457,-0.5137377000000001,-0.83260936,4
-2.895618438720703,15.356405258178713,3.07729434967041,0.0250408947467804,-0.5421429,-1.8622227,4
-3.119276523590088,15.998682022094727,2.933241367340088,0.2685194909572601,-0.27122417,-2.0882428,4
-2.911937475204468,15.68336296081543,2.657973527908325,0.4537668228149414,-0.06414085,-1.7910568999999998,4
-2.4462523460388184,14.568513870239258,2.1172113418579097,0.6095520257949829,0.35613444,-1.1716396,4
-1.8895844221115112,12.946014404296875,1.5235183238983154,0.7219815850257874,0.6985244,-0.7611380999999999,4
-1.3335812091827393,10.920506477355957,1.109986424446106,0.7785897254943848,1.103528,-0.47739118,4
-0.8587619066238403,8.685638427734375,1.2793066501617432,0.7851174473762512,0.47250426,-0.34880406,4
-0.4818037450313568,6.5360960960388175,1.7157545089721682,0.6456664800643921,-0.118202426,0.02321288,4
-0.2424750030040741,4.829139709472656,1.7920819520950315,0.4330402910709381,-0.10354166,0.63132924,4
-0.14061126112937927,3.675745964050293,1.4763748645782468,0.2777724862098694,-0.08857546,0.51923543,4
-0.15278014540672302,2.9782946109771733,0.9932615756988524,0.19622011482715607,-0.26939157,0.47067168,4
-0.17793512344360352,2.740983009338379,0.7879724502563477,0.1382756531238556,-0.27885997,0.5314528000000001,4
-0.21492797136306765,2.6360583305358887,1.1113976240158079,0.06509032845497131,-0.8240572,0.42485678,4
-0.10318907350301744,2.3763341903686523,1.331781983375549,-0.054935980588197715,-0.6246096999999999,0.49938235,4
0.12880292534828186,2.1179332733154297,1.4244368076324463,-0.22572389245033264,-0.6053675000000001,0.5543602,4
0.456078827381134,1.8982388973236084,1.2335726022720337,-0.40786561369895935,-0.7910705,0.65576386,4
0.7457372546195984,1.814395904541016,0.5368660688400269,-0.5023366212844849,0.021685716,0.7296785,4
1.0773166418075562,2.630913734436035,1.5129965543746948,-0.489412248134613,-1.892155,1.2709051000000002,4
0.8758586049079895,4.787086009979248,2.128977537155152,-0.395035058259964,0.24953845,1.4669929,4
-0.503725528717041,7.3634071350097665,0.7379113435745239,-0.4670871198177338,3.947106,0.4089743,4
-1.502661943435669,9.675461769104004,1.0421580076217651,-0.4957338571548462,-1.1362093999999998,0.3707952000000001,4
-1.2154786586761477,11.595174789428713,1.8704671859741209,-0.3868147134780884,0.6053675000000001,0.2012801,4
-1.9293167591094968,13.153200149536133,1.9689980745315552,-0.2979932427406311,0.61819565,-0.38759398,4
-2.913002252578736,14.40032196044922,2.204604148864746,-0.16948096454143524,-0.31490102,-0.7122689,4
-3.814033508300781,15.288758277893065,2.311700820922852,0.01652502454817295,-0.3753767,-1.3603969,4
-4.133880138397217,15.43426513671875,2.3823814392089844,0.1303395926952362,-0.48441613,-1.5048665,4
-3.723022937774658,14.911685943603516,2.1910500526428223,0.2309600114822388,-0.24556783,-1.1276573,4
-2.810596704483032,13.88126277923584,1.7211560010910034,0.3630056083202362,-0.0027488936,-0.74281216,4
-1.8112145662307741,12.151019096374512,1.3478271961212158,0.5428952574729919,0.089491755,-0.4605924,4
-1.034988522529602,10.045205116271973,1.3829317092895508,0.6857015490531921,-0.4370741,-0.23945917,4
-0.4288294017314911,7.893478870391847,1.6945971250534058,0.7155643105506897,-1.3347405,-0.064751714,4
0.1151600182056427,5.97828483581543,1.6587858200073242,0.5895528197288513,-0.65484756,0.12858713,4
0.5517624616622925,4.452982425689697,1.198421835899353,0.4775978922843933,1.02717,0.28130344,4
0.7797874808311462,3.422182559967041,0.8446283936500549,0.413877010345459,1.2345587,0.59620446,4
0.7693735361099243,2.760738611221313,0.6303846836090088,0.3404998183250427,0.87995136,0.7443393,4
0.6076958775520325,2.2977397441864014,0.5885729789733887,0.2595067322254181,0.33841935,0.78954333,4
0.1950886696577072,1.956981897354126,1.0611345767974854,0.09631373733282088,-1.4248432,0.57696223,4
-0.22037598490715027,1.8980398178100584,1.0363682508468628,-0.14030002057552338,-0.6026186,0.8481864,4
-0.49911591410636896,1.829331636428833,0.5983306169509888,-0.29315224289894104,0.09743301,0.6826419,4
-0.6358063220977783,1.6815429925918581,0.3090006411075592,-0.3622292280197144,-0.30176744,0.46670106,4
-0.6315603852272034,1.933362364768982,1.0811133384704592,-0.5078068375587463,-3.1972687,0.89827734,4
-0.6634522080421448,3.211979389190674,2.1119940280914307,-0.6358654499053955,-0.32650748,0.8891144,4
-1.0042341947555542,5.5064239501953125,2.535081386566162,-0.7150592803955078,0.5702427,0.94714653,4
-1.5141301155090332,8.029433250427246,1.4259344339370728,-0.7343353033065796,0.2501493,0.12492194,4
-0.7428072094917297,10.233734130859377,1.5933483839035034,-0.5695003271102905,-0.6560693,0.258396,4
-0.039893236011266715,12.049395561218262,1.7661008834838867,-0.3291285336017609,1.2767084,-0.18325958,4
-0.9262462854385376,13.517267227172852,1.9647350311279297,-0.11476609855890275,1.14018,-0.9120218,4
-1.838711619377136,14.605562210083008,2.163544178009033,0.09104759991168976,0.32620203,-1.2571607,4
-2.4281117916107178,15.208473205566404,2.207089900970459,0.291750967502594,0.32925636,-1.6523905,4
-2.339478015899658,15.030345916748047,2.1857705116271973,0.4283735752105713,0.20922135,-1.5735888,4
-1.8917012214660645,14.137787818908693,2.0839827060699463,0.5320547223091125,0.52381694,-1.0793989,4
-1.4057745933532717,12.563703536987305,1.9353599548339844,0.6222302913665771,1.5580118,-0.86590147,4
-1.0169049501419067,10.64934539794922,1.8631445169448853,0.67014080286026,1.7388279999999998,-0.7119634,4
-0.6934584379196167,8.685169219970701,1.8674581050872805,0.6324653625488281,1.2040153999999998,-0.47983465,4
-0.4432739019393921,6.7372918128967285,1.9810733795166016,0.4874972999095917,0.13133603,-0.355829,4
-0.2728330194950104,4.95289421081543,2.0798265933990483,0.3016582131385803,-0.5109888,-0.31826079999999995,4
0.05855821445584297,3.6835112571716313,1.891472101211548,0.11676578968763353,-0.18997909,-0.05009095,4
0.4177395403385161,3.0193190574646,1.3171654939651491,-0.016881510615348816,0.28985557,0.18051068,4
0.5924447774887085,2.671229600906372,0.7469065189361572,-0.07819705456495285,0.4034765,0.40744713,4
0.5778896808624268,2.477858304977417,0.4253034889698029,-0.0963042825460434,0.25381452,0.5708536,4
0.32151731848716736,2.2850232124328613,0.5525450706481934,-0.10606493055820464,-0.3930918,0.4810564000000001,4
-0.01891900785267353,1.9457613229751587,0.9174834489822388,-0.20637470483779907,-0.46273044,0.3371976,4
-0.028201676905155182,1.6243817806243896,1.092341661453247,-0.4036286473274231,-0.17867808,0.3747658,4
0.09079878777265547,2.077874660491944,1.6019324064254759,-0.5953492522239685,-0.1863139,0.47158796,4
-0.1494489312171936,3.841679811477661,2.0958962440490723,-0.6870994567871094,-0.42730024,1.3246613,4
-0.6710558533668518,6.179819583892822,1.7989898920059204,-0.6955361366271973,0.9492846,0.75502944,4
-1.818483591079712,8.615085601806639,1.059118390083313,-0.7472114562988281,1.325883,0.31581733,4
-1.9970890283584597,10.715679168701172,1.2310397624969482,-0.6736428141593933,-1.237613,0.48563787,4
-1.1497623920440674,12.43992805480957,1.7039066553115845,-0.3968157470226288,-1.8280143,0.6053675000000001,4
-1.4368923902511597,13.83388614654541,1.91460919380188,-0.07766561955213548,-0.1282817,-0.21105394,4
-2.6597793102264404,14.87287712097168,1.910753607749939,0.055062618106603615,1.3994923,-1.17897,4
-3.783363580703736,15.430689811706545,1.907426834106445,0.08057577162981032,1.056186,-1.5683966,4
-4.086888790130615,15.50423526763916,1.905983328819275,0.1442425101995468,0.10323623,-1.2247848999999995,4
-3.671849489212036,14.969024658203125,1.6104822158813477,0.24648045003414154,0.016798794,-0.9615019,4
-2.9137647151947017,13.717659950256348,1.1918368339538574,0.4317211210727692,0.24312437,-0.64812803,4
-2.1914701461791988,11.908337593078613,0.9510431289672852,0.6441865563392639,0.04550946,-0.31948254,4
-1.625135064125061,9.869871139526367,0.97367262840271,0.7821627259254456,-0.48075095,-0.056199603,4
-1.205640435218811,7.782356739044189,1.4688533544540403,0.7835685014724731,-1.6566665,0.03848451,4
-0.8575434684753418,5.947679042816162,1.6648985147476196,0.6289663910865784,-0.8054258000000001,0.30726522,4
-0.5266129374504089,4.431367874145508,1.312975287437439,0.462285041809082,0.85154617,0.3390302,4
-0.29695388674736023,3.3012051582336426,0.9790032505989076,0.3192304372787476,1.0772609,0.25503623,4
-0.16864711046218872,2.6544342041015625,0.7816150188446045,0.20400533080101013,0.49266282,0.24007004,4
-0.10689379274845123,2.4037773609161377,0.9516313672065736,0.1441785991191864,-0.28893927,0.23457226,4
-0.056307412683963776,2.379159450531006,1.3105987310409546,0.09943282604217528,-1.0665708,0.26633725,4
0.07355868071317673,2.1945421695709233,1.1826237440109253,-0.05464140325784683,-0.113926366,0.5036584,4
0.17189215123653412,1.9678486585617063,0.9143095612525941,-0.21567828953266144,-0.6386596,0.57787853,4
0.3451003730297089,2.093883991241455,1.1622076034545898,-0.3231847286224365,-2.0265455,0.8738427,4
0.4273069798946381,3.8689780235290527,2.3773348331451416,-0.3671517372131348,-2.0030272,0.87964594,4
-0.15237797796726227,6.505112648010254,2.409583568572998,-0.4373512268066406,1.5451837,1.5460999,4
-1.0736992359161377,8.958488464355469,1.0532385110855105,-0.6149353384971619,1.280679,0.46120325,4
-1.1987208127975464,11.012563705444336,1.5428503751754759,-0.4453684389591217,-1.2791518,0.29749137,4
-1.8170278072357176,12.683531761169435,1.9787009954452517,-0.2525390386581421,1.0882565,-0.40469822,4
-2.941422700881958,13.959433555603027,1.6187351942062378,-0.1794731318950653,1.9346102,-1.9636264,4
-3.7534673213958736,14.81097412109375,1.4089224338531494,-0.07030780613422394,1.1212431,-1.3955216,4
-4.341796875,15.367300987243652,1.5234912633895874,0.12139796465635301,-0.2864958,-1.416902,4
-4.021240711212158,14.810346603393555,1.368962049484253,0.3485792279243469,0.070249505,-1.0369438,4
-3.3717937469482417,13.388212203979492,1.1267577409744265,0.582960307598114,0.904386,-0.85062987,4
-2.772728681564331,11.367162704467773,1.0895528793334959,0.8076332211494446,0.818254,-0.61208695,4
-2.239853382110596,9.072884559631348,1.4627914428710938,0.9032300114631652,-0.31887165,-0.45937067,4
-1.680436372756958,6.8880062103271475,1.9435956478118896,0.7639821171760559,-1.1954633,-0.42180246,4
-0.9664893150329591,5.0331244468688965,1.8681963682174685,0.499506950378418,0.050396383,-0.48258355,4
-0.2039220631122589,3.8186593055725098,1.41832435131073,0.3215879499912262,1.0506883,-0.35155296,4
0.3955323398113251,3.3455655574798584,1.3220057487487793,0.2100752890110016,-0.12736541,0.26725355,4
0.5671020746231079,3.072986602783203,1.5182018280029297,0.1086319163441658,-1.2018774,0.49541172,4
0.4401748180389404,2.732724666595459,1.3948854207992554,-0.04107987135648728,-0.5354234,0.816116,4
0.3458837568759918,2.4071497917175293,0.8475813269615173,-0.2407778650522232,0.8200866,0.93615097,4
0.3612856864929199,2.0995569229125977,0.26795196533203125,-0.4656585454940796,1.9095647,0.6808093000000001,4
0.4966528713703156,1.8803741931915283,0.015371365472674368,-0.6577702164649963,1.4535538,0.5183192,4
0.4973743855953217,1.8550759553909304,0.08764033019542694,-0.73885577917099,-0.23945917,0.6936375,4
0.04480898380279541,2.174167394638061,1.1259099245071411,-0.7225135564804077,-3.7885861,0.8729264000000001,4
-0.4623373448848725,3.1680827140808105,1.2173672914505005,-0.5987691283226013,0.18478674,1.2849549999999998,4
-1.162600040435791,5.0424766540527335,1.4691147804260254,-0.5455184578895569,-0.6908886,0.9053023,4
-2.758971929550171,7.538441181182861,1.3863896131515503,-0.6000744700431824,0.34788775,-0.24404067,4
-1.8039076328277588,9.845858573913574,1.365173578262329,-0.5781790018081665,0.43035457,0.47739118,4
-1.0408461093902588,11.741451263427734,1.643016338348389,-0.3293285667896271,-0.25961772,0.34055737,4
-1.6635700464248655,13.273270606994627,1.9247839450836184,-0.13252431154251101,0.6954701,-0.10293079,4
-2.8408565521240234,14.478187561035154,2.282107353210449,-0.02106431499123573,0.45234573,-0.70371675,4
-3.624080419540405,15.279839515686035,2.383636951446533,0.08056298643350601,-0.44348818,-1.210124,4
-3.550670623779297,15.526155471801758,2.206591844558716,0.17583832144737244,-0.659429,-1.1881329,4
-2.8996868133544917,15.067391395568848,1.8974909782409668,0.2760638892650604,-0.0143553335,-0.63224554,4
-2.2223689556121826,13.76280689239502,1.4679396152496338,0.42570853233337397,0.6065891999999999,-0.36377025,4
-1.7316651344299316,11.901432991027832,1.0503791570663452,0.5689420104026794,0.8604037,-0.061086524,4
-1.3769606351852417,9.881860733032227,0.870326817035675,0.6471752524375916,0.40653083,0.15577064,4
-1.1141401529312134,7.956256866455077,0.8935796618461609,0.6676482558250427,-0.22082779,0.2733622000000001,4
-0.9067103266716005,6.274106025695801,1.0575478076934814,0.6337471008300781,-1.0064004999999998,0.5549710999999999,4
-0.7242763042449951,4.80679178237915,1.0933188199996948,0.5411065220832825,-0.9294315,0.81214535,4
-0.5607133507728577,3.5254874229431152,0.8135492205619812,0.4675614237785339,0.2321288,0.86651236,4
-0.4803650677204132,2.468114852905273,0.5992633700370789,0.4249394536018372,0.70921457,0.68691796,4
-0.6529203057289124,1.7356910705566406,0.9706401824951172,0.3092980980873108,-0.15149458,0.124311075,4
-0.7932841181755066,1.448049545288086,1.3642903566360474,0.05327454954385757,0.018325957,0.0067195175,4
-0.6657963395118713,1.306883692741394,1.2813147306442259,-0.22443045675754547,0.61911196,0.0888809,4
-0.3722656965255737,1.1640617847442627,0.972016215324402,-0.4566383063793182,0.14446963,0.16920967,4
0.015048898756504059,1.179687261581421,0.781632125377655,-0.6052513122558594,-0.7464773,0.28344148,4
0.3230372965335846,2.1142947673797607,2.075878620147705,-0.7383283972740173,-4.618752,0.8750645,4
0.20359250903129575,4.000288009643556,2.355785608291626,-0.6948243975639343,-0.07971791,1.3164146,4
-0.3111074864864349,6.57974100112915,1.3118489980697632,-0.7561363577842712,2.4254405,2.6871963,4
-0.5638811588287354,9.004232406616211,1.3149861097335815,-0.8052000999450684,-0.4642576,0.42149702,4
-0.1627356857061386,11.04684352874756,1.7899622917175293,-0.619165301322937,-0.76052725,0.18478674,4
-0.7453774213790894,12.710210800170898,1.87340247631073,-0.3315457403659821,0.93279123,-0.59040123,4
-1.8344088792800903,14.050901412963867,1.9720190763473509,-0.15079325437545776,0.6270532,-1.38025,4
-2.748595952987671,15.062030792236328,2.1313495635986333,0.019322382286190987,0.29229903,-1.9300288,4
-3.22981595993042,15.473735809326172,2.2774715423583984,0.1736350804567337,0.057421334,-1.6963727,4
-3.081099271774292,15.065591812133787,2.2433762550354004,0.31252726912498474,0.09865474,-1.3466524,4
-2.4872300624847408,14.068987846374512,1.869704842567444,0.4635172784328461,0.6976081000000001,-0.97066486,4
-1.8746480941772459,12.553481101989744,1.5229064226150513,0.6325533390045166,0.58368176,-0.6246096999999999,4
-1.4406063556671145,10.52927017211914,1.5444797277450562,0.7531529664993286,0.04886922,-0.36377025,4
-1.15220844745636,8.300954818725586,1.6869537830352783,0.787894606590271,-0.72509706,-0.16737708,4
-0.8979669213294983,6.341484546661378,1.6666752099990845,0.7102892994880676,-0.7706065,-0.06750060599999999,4
-0.6030514240264893,4.705221652984619,1.3919870853424072,0.5447584986686707,0.23335053,0.02443461,4
-0.2931395769119263,3.393894910812378,0.9961838722229004,0.3373277485370636,1.056186,0.0018325958,4
-0.0034544847439974546,2.458742380142212,0.6619312167167664,0.13260258734226227,1.1835514,0.028405234,4
0.2748861312866211,2.0014269351959233,0.6288734674453735,-0.030511863529682163,0.21288654,0.21930063,4
0.2857170403003693,1.995410799980164,1.135185480117798,-0.15970605611801147,-1.1340714,0.5357288,4
0.2019828110933304,1.9378901720047,1.2273240089416504,-0.26048067212104803,-0.71776664,0.66798115,4
0.2007634937763214,1.8407057523727417,0.9007819294929504,-0.4001500904560089,0.23640485,0.70646566,4
