acc_x,acc_y,acc_z,gyro_x,gyro_y,gyro_z,label
0.0,0.0,0.0,0.0,-0.010995574,0.019242255,1
-0.003670854726806283,0.2886901795864105,-0.040178317576646805,-0.000864497444126755,-0.011301007,0.01282817,1
-0.019394058734178543,0.9692291617393494,-0.1274324506521225,-0.001956338761374355,0.005192355,-0.0030543262,1
-0.035167146474123,1.9050884246826167,-0.239688441157341,-0.0036343079991638656,0.035430185,0.01160644,1
-0.05213509127497673,2.964682579040528,-0.3603525161743164,-0.004782915115356445,0.02565634,0.020463986,1
-0.07456044852733612,4.0220117568969735,-0.5052984952926636,-0.005220339633524418,0.053145275,0.01863139,1
-0.09875143319368362,4.995771884918213,-0.6107560396194458,-0.006221127230674028,0.03604105,0.014049901000000002,1
-0.11875288933515547,5.842646598815918,-0.7497388124465942,-0.00866455864161253,0.0070249503,0.011911872,1
-0.13796435296535492,6.571187973022461,-0.8084545135498047,-0.012542445212602615,0.011911872,0.017104227,1
-0.1586991548538208,7.1862406730651855,-0.8203597664833069,-0.015431404113769531,0.044898596,0.021991149,1
-0.18990838527679446,7.681933879852295,-0.8091924786567688,-0.015624387189745903,0.051923547,0.01863139,1
-0.2096515446901321,8.084226608276367,-0.8180147409439087,-0.016410045325756073,0.08246681,0.02565634,1
-0.2282816767692566,8.414586067199707,-0.8796521425247192,-0.02166491560637951,0.10995574,0.034208454,1
-0.23093532025814054,8.683978080749513,-0.9472124576568604,-0.031140742823481563,0.06414085,0.042455133,1
-0.1905698925256729,8.902057647705078,-0.9811559319496156,-0.04533758759498596,0.008857545999999999,0.064751714,1
-0.1081976592540741,9.074098587036133,-0.9844545125961304,-0.07520382851362227,-0.013439035,0.10323623,1
-0.00265002460218966,9.242897033691406,-0.909286081790924,-0.13083067536354065,-0.04795292,0.15607607,1
0.06277240067720412,9.418270111083984,-0.7224897146224976,-0.20583155751228333,-0.15882497,0.19364429,1
0.08589071035385132,9.53390884399414,-0.4779359996318817,-0.2936988770961761,-0.3032946,0.17715092,1
0.1063111647963524,9.56286907196045,-0.2355995327234268,-0.40158742666244507,-0.37232238,0.15088372,1
0.13732357323169708,9.504849433898926,-0.05594885721802712,-0.5265160799026489,-0.26572640000000003,0.14813483,1
0.17730629444122314,9.355717658996582,0.1320895552635193,-0.6454571485519409,-0.21563543,0.14569137,4
0.20946134626865387,9.18441390991211,0.3570951521396637,-0.7745702266693115,-0.2489276,0.15515977,4
0.23818741738796234,8.99701976776123,0.4768694937229157,-0.941187858581543,-0.3323107,0.19975294,4
0.212072029709816,8.802774429321289,0.34299200773239136,-1.115605711936951,-0.45540005,0.29657507,4
-0.033803358674049384,8.691040992736816,0.09032993763685226,-1.2463594675064087,-0.19425514,0.2489276,4
-0.4558548331260681,8.794656753540039,-0.13106000423431394,-1.3014254570007324,-0.08399397,0.03756821,4
-0.838884174823761,9.17185115814209,-0.4895756542682648,-1.233747482299805,-0.19730948,-0.40866885,4
-1.051767349243164,9.985063552856444,-0.8094350099563599,-1.1057666540145874,0.18081611,-0.7302894,4
-0.8523628115653992,11.148900032043457,-0.9853374361991882,-0.9185822606086732,0.4654793,-0.68203104,4
-0.558255136013031,12.463709831237793,-1.0664815902709959,-0.7143648862838745,0.49266282,-0.59620446,4
-0.5076823830604553,13.554718017578125,-1.3248592615127563,-0.4654518067836762,0.7150178,-0.52778757,4
-0.5990015268325806,14.296435356140135,-1.7000218629837036,-0.1775723099708557,0.9016371,-0.35369098,4
-0.6729723215103149,14.530091285705565,-2.028327226638794,0.1940574049949646,0.50823987,-0.13194689,4
-0.6430152058601379,14.234006881713867,-2.40921401977539,0.6554222106933594,0.6249151,-0.021380283,4
-0.5504650473594666,13.662766456604006,-2.265474557876587,1.124483942985535,0.6236934000000001,0.105374254,4
-0.11238975077867508,12.852849006652832,-0.8513558506965637,1.449636697769165,-1.6129897,0.23762658,4
0.4136006832122803,11.39235019683838,0.6717281937599182,1.5650629997253418,-1.9596558,0.37720928,4
0.34456199407577515,9.6292085647583,1.887795209884644,1.3831372261047363,-0.9819659,0.09437868,4
0.1637846678495407,8.117249488830566,2.8329970836639404,0.9258171319961548,0.9428705,-0.12889257,4
0.29235443472862244,6.929075717926025,3.5422801971435547,0.3059213161468506,0.18906279,0.13408493,4
0.7410405278205872,5.788209915161133,3.2511143684387207,-0.11813764274120332,-1.1078042,0.3286455,4
1.0182014703750608,4.6986050605773935,1.5400904417037964,-0.33425310254096985,-0.27091873,0.5012149,4
0.8429148197174072,3.8970947265625,-0.025443000718951225,-0.4088093340396881,0.41447207,0.49968776,4
0.4619744718074799,3.5807368755340576,-0.7785726189613342,-0.41557714343070973,1.8188512,0.50946164,4
-0.1412048637866974,4.495993614196777,-0.587096095085144,-0.4289883077144623,4.3310347,-0.042455133,4
-1.2137125730514526,6.803203582763673,-0.1408587098121643,-0.3607419431209564,-0.47555858,-0.915687,4
-2.103748321533203,8.992239952087402,-0.3113164305686951,-0.3903043866157532,-1.3142766,-1.2308935,4
-2.56592321395874,10.571502685546877,-0.9971079230308532,-0.3386044204235077,0.36285394,-1.0338894,4
-2.4160196781158447,12.250707626342773,-1.8350182771682741,-0.12596304714679718,0.84879726,-0.4447099,4
-1.5050302743911743,13.232660293579102,-1.6942018270492554,0.24807167053222656,-0.38545597,-0.110872045,4
-0.2704310417175293,13.013888359069824,-1.1340413093566897,0.4990549981594086,-1.25319,0.2782491,4
0.6789566278457642,11.99696159362793,-0.7360334396362305,0.6412438154220581,-0.86926126,0.5870415,4
1.0640993118286133,10.8828706741333,-0.2101757377386093,0.7610285878181458,-0.35033122,0.74372846,4
0.9066248536109924,9.517348289489746,0.6371369957923889,0.7672144174575806,-0.5571090999999999,0.5018258,4
0.461136519908905,8.043806076049805,1.4531303644180298,0.5954153537750244,-0.5290093000000001,0.39400807,4
0.08245265483856201,6.510244846343994,2.077591180801392,0.26670897006988525,-0.5207626000000001,0.45051312,4
-0.30819612741470337,5.263819217681885,2.294097423553467,-0.1087145283818245,-1.0228939,0.3933972,4
-0.7043701410293579,4.0067501068115225,1.7059994935989382,-0.3550334870815277,-0.79351395,0.12370021,4
-0.8006556630134583,2.911685943603516,0.8214952349662781,-0.4066706895828247,-0.40225476,-0.13805555,4
-0.4584912657737732,2.490682601928711,0.3076968193054199,-0.4358627200126648,0.14813483,-0.040927973,4
-0.22604043781757355,2.7177605628967285,-0.15415123105049133,-0.565535843372345,1.2556334999999998,0.13041973,4
-0.36570650339126587,4.061945915222168,0.00859754253178835,-0.6289277076721191,2.060143,0.3943135,4
-0.9215637445449828,6.528339385986327,0.9777228236198424,-0.3995802700519562,0.16768251,-0.5839871999999999,4
-1.055540919303894,8.773855209350586,0.3549578487873077,-0.5415446758270264,-0.6554584,-1.3564261999999998,4
-1.67255437374115,10.420144081115724,-1.2099988460540771,-0.6697751879692078,0.8191703,-0.6646214,4
-2.6202876567840576,12.094439506530762,-2.209023952484131,-0.16144470870494845,0.7257079000000001,-0.45234573,4
-2.0773885250091557,13.465102195739744,-1.6482508182525637,0.3821157813072205,-0.19028452,-0.25167647,4
-0.2622210681438446,13.738463401794435,-1.0883780717849731,0.6516920924186707,0.24556783,0.49357912,4
1.2417070865631104,13.22092056274414,-0.3166173994541168,0.7839704155921936,-1.2880094,0.675617,4
1.6437770128250122,12.309956550598145,0.19887521862983704,0.7919325232505798,-0.8933904,0.7666359,4
1.0044260025024414,10.872992515563963,0.4349673986434937,0.7050700783729553,0.31826079999999995,0.8344419,4
-0.1294955313205719,8.895298957824707,0.7064280509948729,0.4975443482398987,0.6462954000000001,0.29382620000000004,4
-1.1648932695388794,6.568122386932372,1.0289894342422483,0.2520167529582977,0.795652,-0.076052725,4
-1.7015899419784546,4.5389676094055185,1.2098203897476196,0.10238248109817503,-0.1695151,-0.43463063,4
-1.506279706954956,3.1504704952239986,0.9081303477287292,0.08900213241577147,-0.66798115,-0.47708577,4
-1.000417709350586,2.4286859035491943,0.6224794983863831,0.1193109080195427,-0.43401974,-0.344528,4
-0.3796553611755371,2.302560567855835,0.8020700216293335,0.05445855483412743,-0.41050145,-0.023823744,4
0.3882001340389252,2.5921733379364014,1.175660252571106,-0.08213943243026732,-0.42913285,0.47678033,4
1.0685265064239502,2.9478561878204346,1.1040163040161133,-0.2641321122646332,0.13072516,0.7440339,4
1.221444845199585,3.1982204914093018,0.4945143759250641,-0.5222957134246826,0.5149594,0.68569624,4
0.8801663517951965,3.5294363498687744,-0.005127429962158203,-0.7702352404594421,0.8362745,0.5393939999999999,4
-0.9913151860237122,5.249070167541504,-0.3900822103023529,-0.8089605569839478,0.40866885,-0.47311515,4
-3.6789355278015137,7.748738765716553,-0.6065981388092041,-0.5647016763687134,-1.3118331,-1.1545353,4
-3.471853017807007,9.988969802856444,-0.8597015738487244,-0.29539477825164795,-0.5867361,-2.2171354,4
-0.6410794258117676,11.846973419189453,-1.6170310974121094,-0.2060615718364716,1.4327843999999998,0.19181168,4
1.6670644283294678,12.97185230255127,-1.9711562395095823,0.026441294699907303,1.8240436,0.95569867,4
2.3050954341888428,12.936098098754885,-1.5957003831863403,0.15756091475486755,-0.5830709,0.69913524,4
1.3866605758666992,12.401394844055176,-0.922304391860962,0.322341650724411,-3.3487632000000005,1.0671816,4
-0.8099495768547058,10.949466705322266,-0.2488937228918076,0.5773802399635315,0.22418754,0.34972036,4
-2.064110517501831,9.143736839294434,0.8336732983589172,0.4492639601230621,0.59040123,0.05589417,4
-2.012370109558105,7.637770175933838,1.9598772525787356,0.20609858632087708,-1.0500773,0.098043874,4
-1.2714170217514038,6.156853675842285,2.38507080078125,0.042287573218345635,-1.1545353,0.4083634,4
-0.3218819200992584,4.569964408874512,2.618795394897461,-0.030852310359478,-2.8301387000000005,0.4886922,4
0.12027487903833388,3.283554792404175,1.8180079460144043,-0.06617224961519241,-1.8994855,0.36743546,4
0.12767073512077332,2.5695595741271973,0.5396758913993835,-0.10155704617500304,0.64812803,0.36682457,4
0.08590550720691681,2.2209784984588623,-0.2273423969745636,-0.21467748284339905,1.3704761,0.31764993,4
0.07075978070497513,2.1776397228240967,-0.4154005348682404,-0.4238627552986145,1.3335188999999998,0.4529566,4
-0.030797705054283142,2.221449851989746,-0.7698038220405579,-0.6508616805076599,2.0347922,0.5140431,4
-0.3391396403312683,2.2488813400268555,-0.922695517539978,-0.7780255079269409,2.5088236,0.4792238,4
-1.1443213224411009,2.9366791248321533,-0.39509275555610657,-0.7770416140556335,1.1090258,-0.4654793,4
-2.6535465717315674,5.219910621643066,0.093768373131752,-0.4496045410633087,-1.5158621,-1.7733418,4
-3.2951912879943848,7.8610334396362305,-0.3539746105670929,-0.29842209815979004,-0.3408628,-2.3539693,4
-1.5935106277465818,10.121235847473145,-1.3059158325195312,-0.15978531539440155,1.5583171999999998,-0.6478225999999999,4
1.243999719619751,11.887542724609375,-1.0535635948181152,0.2388864457607269,0.09743301,1.0793989,4
2.6270647048950195,12.636930465698242,-1.036622405052185,0.4199498593807221,0.68875057,0.6041456999999999,4
2.3559813499450684,12.540914535522461,-0.7339347600936891,0.4414987862110138,-0.9673051,-0.14508049,4
1.127697467803955,12.084614753723145,-0.2420975863933563,0.5348679423332214,-2.1835377,0.6252206,4
-0.7379000782966614,10.716435432434082,0.26902011036872864,0.6284441351890564,0.23915374,0.3036,4
-1.8967679738998413,9.024856567382812,1.1128004789352417,0.4983932375907898,-0.012217305,0.31398472,4
-2.0439317226409908,7.4210267066955575,1.9978606700897217,0.2633725702762604,-1.3707817,0.16707164,4
-1.5504629611968994,5.5874342918396,2.219289302825928,0.09324588626623154,-1.9043725,0.09315695,4
-0.5359672904014587,4.035402297973634,2.130710363388061,-0.025643549859523773,-2.5949554,0.42577308,4
0.17410743236541748,3.256896495819092,1.271948218345642,-0.14724603295326233,-1.2568552,0.41813725,4
0.3199065923690796,2.7526605129241943,0.27570784091949463,-0.23942844569683075,0.9282097,0.3744604,4
0.15642942488193512,2.349100112915039,-0.3940417170524597,-0.3289743363857269,2.4877486,0.3191771,4
-0.15350522100925446,1.9890881776809688,-0.796305775642395,-0.44975346326828,2.982244,0.3454443,4
-0.3820346891880035,1.5231161117553709,-0.9819128513336182,-0.5091619491577148,2.2088888,0.12095132,4
-0.5541273355484009,1.1343176364898682,-0.941435933113098,-0.4591579735279083,0.22082779,-0.121256754,4
-0.7881850600242615,1.5269007682800293,-0.6794424057006836,-0.3502310216426849,0.12889257,0.09162979,4
-1.4711155891418457,3.635481834411621,0.011296773329377173,-0.2031012922525406,-1.2220358999999998,-0.6750060999999999,4
-2.9039676189422607,6.3876237869262695,0.07363631576299667,-0.1230027750134468,-0.39736784,-1.8112154,4
-3.144173622131348,8.879507064819336,0.1997612863779068,-0.07919241487979889,0.08643743400000001,-1.3817772,4
-2.008474349975586,10.952486991882324,-0.07422594726085663,0.01582731306552887,0.7974846,-0.0015271631,4
0.06061002239584923,12.452889442443848,0.3612821400165558,0.23753871023654935,-1.7095063999999998,0.23915374,4
1.249492049217224,12.92114543914795,0.6791536211967468,0.33062544465065,-0.93218035,0.65209866,4
1.3533684015274048,12.680841445922852,0.7225455641746521,0.3381916582584381,-1.0192287,0.6774496,4
0.7852828502655029,11.898189544677734,0.2760664820671081,0.3660957217216492,-0.84574294,0.6123924,4
-0.2891854047775269,10.523358345031738,-0.21169909834861755,0.4078560769557953,0.5879578000000001,0.49235737,4
-1.4937520027160645,8.65732479095459,0.20130226016044614,0.3121771514415741,0.68630713,0.3915646,4
-2.21936559677124,6.813857555389403,1.1937294006347656,0.10002180188894272,-0.6356053,0.100792766,4
-2.3065619468688965,5.279194355010986,1.4686340093612669,-0.038735788315534585,-0.9877690999999998,0.03756821,4
-1.7962249517440796,4.022444248199463,1.3710830211639404,-0.05605340749025345,-1.7220291,0.16737708,4
-1.2219595909118652,3.1542203426361084,1.0806044340133667,-0.0941137596964836,-1.3164146,0.19456059,4
-1.1581989526748655,2.3207452297210693,0.3308842182159424,-0.1139119416475296,0.5714644,0.009162978,4
-0.8988222479820251,1.7496337890625,-0.24283507466316226,-0.1706950068473816,1.0158689,-0.009468411,4
-0.2919262647628784,1.69512677192688,-0.3757984042167664,-0.26398760080337524,0.50671273,0.26236662,4
0.2547129690647125,2.4172587394714355,0.1193789765238762,-0.40837499499320973,-0.30970868,0.8481864,4
0.6892210841178894,4.2742180824279785,1.2185076475143433,-0.5270636081695557,-0.055283304000000005,1.3860532,4
0.1871009320020676,6.876802921295166,1.2407101392745972,-0.4468027055263519,1.3051136,0.18997909,4
-0.9972298741340636,8.954484939575195,0.4216386675834656,-0.5216990709304811,0.39706242,-1.7782288,4
-1.4503738880157468,10.528156280517578,-0.3299713730812073,-0.4716846942901611,1.981036,-1.2709051000000002,4
-1.111862063407898,12.167707443237305,-0.3102729022502899,-0.2181072235107422,1.4388931,-0.29382620000000004,4
0.3091244101524353,13.56008529663086,0.14930343627929688,0.04241381585597992,-0.31429017,0.15302174,4
1.4862128496170044,14.449240684509276,0.3938183188438416,0.21739500761032104,-0.42821655,0.39370266,4
1.7419383525848389,14.72343921661377,0.53764408826828,0.3157517611980438,-0.46211955,0.04795292,4
0.678864598274231,13.968249320983887,0.7140811085700989,0.2873392403125763,-0.57879484,-0.172264,4
-1.0397400856018066,12.166131973266602,0.6982733011245728,0.2149607092142105,0.6948592,-0.17043139999999998,4
-2.1534759998321533,9.851289749145508,1.1113537549972534,0.06430955976247787,0.7189884,-0.52503866,4
-1.905181884765625,7.713257312774657,1.4443390369415283,-0.14596906304359436,-0.17654006,-0.30543262,4
-0.5220698118209839,6.03983211517334,1.35165274143219,-0.20081332325935364,-1.527774,0.4266894,4
0.6381312608718872,4.483703136444092,0.9544040560722352,-0.17453059554100034,-2.3096814,0.7357872,4
0.7360858321189879,3.1796188354492188,0.15682095289230347,-0.146241694688797,-0.6713409,0.37018433,4
0.2288468182086945,2.1965997219085693,-0.2887116372585297,-0.11449863761663436,1.2843441999999998,0.058337633,4
-0.15769600868225098,1.661601424217224,-0.09451214969158173,-0.19141270220279694,1.1074986,-0.063224554,4
-0.1509040594100952,1.5530138015747068,-0.07877492904663086,-0.26206010580062866,1.0873401000000005,0.08674286,4
0.03653134778141976,1.6126881837844849,-0.21932287514209747,-0.3181986510753632,0.95417154,0.24862215,4
0.09659655392169952,1.7413829565048218,-0.14684540033340454,-0.4255165755748749,0.89552844,0.26267207,4
-0.3039421141147613,3.0245437622070312,0.558322548866272,-0.4293124377727509,0.999681,0.0021380284,4
-1.9274350404739382,5.858907699584961,0.2168424129486084,-0.3559354245662689,-0.8588764999999999,-1.736079,4
-2.8797357082366943,8.293271064758299,-0.0275315660983324,-0.3114769756793976,0.20830505,-2.0179935,4
-2.1776885986328125,10.413543701171877,0.12345119565725328,-0.1988361477851868,0.6310238,-1.0345002,4
0.10851943492889404,12.143957138061525,0.15182462334632876,-0.05105452984571457,-0.27000242,0.70463306,4
1.8849077224731443,12.763679504394533,-0.17086832225322726,0.09882646054029463,-0.36682457,0.49327368,4
2.5033605098724365,12.365364074707033,-0.6042100787162781,0.24938151240348816,-0.0983493,0.79626286,4
2.2267448902130127,11.592534065246582,-0.8814530372619629,0.3775303065776825,-0.569021,0.6407976,4
0.9717233777046204,10.524752616882324,-0.8762940764427185,0.5386875867843628,-0.27397305,0.54519725,4
-0.678327739238739,9.09356689453125,-0.0937766656279564,0.635841429233551,1.2122620000000002,0.61086524,4
-1.4258059263229368,7.58405876159668,1.1389195919036863,0.4131884574890137,-0.9877690999999998,0.28313604,4
-1.3341163396835327,6.104922294616699,1.5348700284957886,0.2303151786327362,-1.1914927,0.10995574,4
-0.8554479479789734,4.375631332397462,1.0228723287582395,0.22248224914073944,-0.752586,0.2678644,4
-0.255224883556366,2.971693754196167,0.7564396262168884,0.2143423855304718,-0.8246681,0.3145956,4
-0.189315527677536,2.2389662265777592,0.5226589441299438,0.18515844643116,0.19303341,0.36865717,4
-0.10656113177537918,1.9116042852401731,0.39625614881515503,0.1377519816160202,0.47739118,0.49266282,4
0.21874050796031952,1.8675080537796018,0.3077620267868042,0.0289715975522995,0.41508293,0.7648033000000001,4
0.5588318109512329,1.943281173706055,0.2573134005069733,-0.11634550243616106,0.2302962,0.79809546,4
0.5836696624755859,2.2610530853271484,0.3425951600074768,-0.3141098916530609,0.7128797,0.75502944,4
0.1522752195596695,3.5106928348541264,1.0811923742294312,-0.4484358727931976,1.9336939,0.28405234,4
-1.2442045211791992,6.0056400299072275,1.00711989402771,-0.4629777669906616,-0.19639318,-1.5622878,4
-2.165961742401123,8.348143577575684,0.3919350504875183,-0.47875884175300604,0.5992588000000001,-2.291661,4
-1.834829926490784,10.423219680786133,0.034913890063762665,-0.4204716384410858,1.7302758000000005,-1.2217305,4
0.04576599597930908,12.184803009033205,-0.4771193563938141,-0.19944246113300326,1.2831224,0.1337795,4
2.1202430725097656,13.485200881958008,-0.5538777709007263,0.11312299966812135,0.27000242,0.45051312,4
2.8964262008666988,14.10362720489502,-0.4605485200881958,0.3561811149120331,0.36926803,0.67347896,4
2.626128911972046,14.19735622406006,-0.0907488763332367,0.5033091902732849,-1.1169671,0.5717699,4
1.4842597246170044,13.45330047607422,0.3046852350234985,0.5940189957618713,-1.4437801,0.2947425,4
-0.28926628828048706,11.824634552001953,0.5042051672935486,0.6052261590957642,0.73853606,0.24373524,4
-1.6773841381072998,9.867042541503906,1.0365136861801147,0.4556775987148285,0.65118235,0.10567969,4
-2.2069180011749268,8.048357963562013,1.8807557821273804,0.18484151363372806,-1.1090258,0.070554934,4
-2.0747854709625244,6.113086223602295,1.920521855354309,0.058567695319652564,-0.9660834,0.074830994,4
-1.3265918493270874,4.177280902862549,1.5866203308105469,0.10544846206903458,-1.756543,0.21563543,4
-0.42261454463005066,2.8594543933868413,1.280332088470459,0.17894543707370758,-2.0357084,0.32528573,4
-0.008183656260371208,2.2307581901550293,0.7391764521598816,0.2325368374586105,-0.009162978,0.20433442,4
0.29077279567718506,1.967659831047058,0.3175283968448639,0.17351076006889346,0.7690793,0.12950343,4
0.7093774080276489,1.9288309812545776,0.14567594230175018,0.01064932066947222,0.7641924,0.22296582,4
1.0276154279708862,1.9444200992584229,-0.11621703952550888,-0.22334668040275574,1.251052,0.29260445,4
0.9553795456886292,2.3772919178009038,-0.3732192814350128,-0.4188458323478699,2.024102,0.46883908,4
0.2074301242828369,4.2373313903808585,-0.045365385711193085,-0.4739660322666168,1.784032,0.002443461,4
-1.6596990823745728,6.829513549804688,-0.7752270102500916,-0.45106863975524897,-0.09132435,-2.1704042,4
-2.5398695468902592,9.16461944580078,-0.9755950570106506,-0.307856559753418,0.47342056,-1.3161092,4
-2.410019397735596,11.156206130981444,-1.265124797821045,-0.12757079303264618,0.5155702999999999,-0.410196,4
-1.1674153804779053,12.792682647705078,-1.5933603048324585,0.19957655668258667,0.5372560000000001,-0.35735616,4
0.5059492588043213,13.684977531433105,-0.8966574668884277,0.4328534305095673,-0.95478237,0.24862215,4
1.3459416627883911,13.675527572631836,-0.31111305952072144,0.4466381669044495,-0.7171558000000001,0.46914452,4
1.1964091062545776,13.190040588378904,0.08330048620700836,0.3828390836715698,-1.8124372,0.18661933,4
0.37757807970047,12.09962558746338,0.11198509484529497,0.3603372275829315,-0.3036,0.07544186,4
-0.3471665382385254,10.198147773742676,0.2626243829727173,0.2969776391983032,0.36774087,0.074830994,4
-0.4855853319168091,8.150458335876465,0.7773276567459106,0.0949607789516449,-0.344528,0.20861048,4
-0.2287685126066208,6.333343029022218,0.9073717594146729,-0.019548654556274414,-0.7877107,0.27763826,4
0.29933276772499084,4.754659652709961,0.9265565872192384,-0.051063548773527145,-1.6166549,0.37415496,4
0.372812569141388,3.7165541648864746,0.6800368428230286,-0.06152386590838432,-0.9569204,0.33078352,4
0.03840714320540428,3.077010154724121,0.3684030473232269,-0.11243513226509094,0.40133846,0.3368922,4
-0.11901675164699554,2.695270299911499,0.289167582988739,-0.22073052823543549,0.6536258,0.2556471,4
-0.10795833170413972,2.460034847259521,0.3493630588054657,-0.4023503363132477,1.0161743,0.29565877,4
-0.0966985821723938,2.377253532409668,0.2506200671195984,-0.6492522358894348,1.4110987,0.36926803,4
-0.14853957295417786,2.972585439682007,0.17144714295864105,-0.8165096044540405,1.3729197,0.6102544,4
-0.5721952319145203,5.000380039215088,0.4483881890773773,-0.835022509098053,0.48716503,0.09010262,4
-1.5746451616287231,7.504597187042236,0.2779333889484405,-0.7526249289512634,-0.39003745,-1.484708,4
-2.070131540298462,9.338737487792967,0.5282086133956909,-0.6613729000091553,0.019242255,-1.5088371,4
-2.074318647384644,11.12136173248291,-0.2671026289463043,-0.572804868221283,1.1701124,-0.8500190000000001,4
-0.9754886031150818,12.71556568145752,-0.989212155342102,-0.25831446051597595,1.246776,-0.61727935,4
0.4701162874698639,13.845244407653807,-0.8877903819084167,0.03678642958402634,0.45142943,0.059864793,4
1.3311058282852173,14.258185386657715,-0.5695603489875793,0.256516307592392,-0.3032946,0.6078109,4
1.4894120693206787,14.1530179977417,-0.2723835408687592,0.43673592805862427,-1.717753,0.86193085,4
0.8390564918518066,13.01625919342041,-0.23842841386795044,0.6063951849937439,-1.3729197,0.82558435,4
-0.2952221632003784,10.953516960144043,0.04903016984462738,0.749426007270813,0.3213151,0.589485,4
-1.0288445949554443,8.898455619812012,1.1062132120132446,0.6592478752136229,-0.39675698,0.28955013,4
-1.066243052482605,6.9373722076416025,2.074057102203369,0.4309488236904144,-1.5048665,0.09254608,4
-0.5866240859031677,5.329935550689697,2.1670758724212646,0.17347770929336548,-1.4343116000000002,0.16982053,4
0.05910209566354752,4.214754104614259,1.8984118700027464,0.045346401631832116,-1.4559973,0.41874814,4
0.3503309786319733,3.3810861110687256,1.39898943901062,-0.07519762217998505,-0.8414669,0.5149594,4
0.1733895242214203,2.701866626739502,0.6453719735145569,-0.2261762619018555,1.0445796,0.34697145,4
-0.04931027069687843,2.1895015239715576,0.1049024611711502,-0.4174366295337677,1.9214766,0.14569137,4
-0.1831548511981964,1.8929312229156492,-0.2535372376441956,-0.6232723593711853,2.2101104,0.18906279,4
-0.26666584610939026,1.8407162427902224,-0.4277818500995636,-0.7365306615829468,1.990199,0.37415496,4
-0.3612311482429504,2.740387439727783,0.3037760853767395,-0.7131813168525696,1.7809776000000002,0.47250426,4
-0.5599554777145386,5.072153568267822,1.658948302268982,-0.5944344401359558,-2.3857343,-0.4251622000000001,4
-0.6998782157897949,7.75344705581665,0.8428651690483093,-0.5166525840759277,-0.14049901,-0.95081174,4
-0.9656398892402648,10.035152435302734,0.7482923865318298,-0.4716451168060303,2.370768,-1.0201449,4
-0.503376841545105,11.895112037658693,0.9492039680480956,-0.3386895954608917,1.2229522,-0.17623462,4
-0.11150530725717543,13.304484367370605,1.2440241575241089,-0.11724548786878584,0.14966199,-0.267559,4
0.02492837980389595,14.167099952697756,1.1876589059829712,0.11917509883642195,-0.11056661,-0.25259277,4
0.17999735474586487,14.87179470062256,0.7747232913970947,0.36516323685646057,0.8561276,-0.013439035,4
0.05393010750412941,14.942398071289062,1.0731443166732788,0.5581777691841125,-0.6243043,0.39645153,4
-0.2673627734184265,14.01593017578125,1.5917325019836426,0.5753695964813232,-1.6832392,0.65209866,4
-0.7807756066322327,12.166465759277346,1.6699981689453125,0.5490815043449402,-1.1337659,0.57604593,4
-1.3019614219665527,9.870887756347656,1.7839996814727783,0.4605351388454437,-0.8698720999999999,0.23151793,4
-1.4160057306289673,7.737040042877197,1.8056877851486208,0.27884435653686523,-0.81000733,0.038179077,4
-0.961984157562256,5.776554584503174,1.3795053958892822,0.1468275785446167,-0.6963864000000001,0.16829337,4
-0.3045065999031067,4.25205659866333,1.0371603965759275,0.055121973156929016,-1.9642372,0.24740042,4
-0.08252114802598952,3.2499799728393555,0.4807763397693634,0.021978868171572685,-1.4935656000000002,0.24373524,4
-0.3123320639133453,2.6041648387908936,-0.08840230107307434,0.025910764932632446,0.66950834,0.12858713,4
-0.4537035822868347,2.2561049461364746,-0.2146262228488922,-0.014275998808443546,1.0671816,0.06566802,4
-0.3439781069755554,2.0973446369171143,-0.17837631702423096,-0.10911602526903152,0.77304995,0.17165314,4
-0.20290446281433105,1.9839003086090088,-0.11484087258577348,-0.2474652677774429,0.9651671,0.24465153,4
-0.2460478842258453,2.1748185157775883,0.08963987231254578,-0.4463182389736176,1.1527027,0.34116822,4
-0.47489318251609797,3.160163402557373,0.526936948299408,-0.5634159445762634,1.0763446,0.35705075,4
-1.3423343896865845,5.457712650299072,0.2665295302867889,-0.5543487071990967,-1.3185526,-0.84513205,4
-2.82170844078064,7.941171169281006,-0.36479997634887695,-0.3719941675662993,-1.2935071000000002,-1.8799378,4
-2.9061098098754883,9.77175998687744,-0.8050762414932251,-0.1801408678293228,-0.26145032,-1.402852,4
-1.490611553192139,11.561898231506348,-1.6512573957443235,0.1143697127699852,1.9752327,-0.18325958,4
1.0914804935455322,13.077497482299805,-1.4488368034362793,0.4897082149982453,-0.009468411,0.7852673000000001,4
1.9704588651657104,13.831501007080078,-1.0527294874191284,0.6321410536766052,0.6007859999999999,0.12217305,4
1.424826741218567,14.09632968902588,-0.8166263699531555,0.6442603468894958,0.5369505,0.23182335,4
0.32394689321517944,13.604137420654295,-0.2941766381263733,0.7419157624244691,-1.2534955,0.5830709,4
-1.2132285833358765,12.023428916931152,0.3595550358295441,0.8946793675422668,-0.9975429,0.226631,4
-2.182780265808105,9.957609176635742,1.1746277809143066,0.8454470634460449,-0.29749137,-0.043676864,4
-2.129534959793091,8.238007545471191,1.9749443531036377,0.5875382423400879,-1.2534955,-0.21777347,4
-1.311224102973938,6.589748859405518,2.1803343296051025,0.3071231544017792,-0.42302418,0.007330383,4
-0.0599321536719799,5.014233112335205,2.0846502780914307,0.06447096914052962,-0.93218035,0.39828414,4
0.6753828525543213,3.802313327789306,1.766522765159607,-0.08225958794355392,-1.9889772,0.52839845,4
0.6057052612304688,2.7604610919952397,0.8210939764976501,-0.10537873208522797,-0.64599,0.2171626,4
0.3508369624614716,2.1465792655944824,0.05422459170222282,-0.1700672060251236,0.63529986,0.07269296,4
0.2809134721755981,1.9382396936416624,-0.2337664365768433,-0.2876574397087097,1.3066407,0.11484267,4
0.4417695999145508,2.1920089721679688,0.023270491510629654,-0.4259853661060333,1.3249667,0.45906523,4
0.7331833243370056,3.1167004108428955,0.5881885290145874,-0.5603751540184021,0.5561928,1.0170907,4
0.8462198376655579,5.242552280426025,1.4849947690963743,-0.6077073812484741,0.52290064,1.3683381,4
-0.055835124105215066,7.753067016601562,1.822115898132324,-0.5294427871704102,-0.45234573,-0.43157628,4
-1.1796236038208008,9.389100074768066,0.929987370967865,-0.6321393251419067,-1.3222178,-1.1643091,4
-2.445086479187012,10.74744987487793,-0.6619900465011597,-0.6176527142524719,2.1248949,-1.844813,4
-2.312790632247925,12.302355766296387,-1.2123790979385376,-0.33515942096710205,2.8209758,-1.1508701,4
-0.6473574638366699,13.614997863769533,-0.721044659614563,-0.0038133512716740365,0.4783075,0.18997909,4
0.8243648409843445,14.207697868347168,-0.2407122552394867,0.31493183970451355,-0.48197266,0.50610185,4
1.260201096534729,14.424966812133787,0.3085566163063049,0.4672452807426453,-1.0073168,0.5180137,4
1.0371330976486206,14.05482292175293,0.6037328243255615,0.4666837155818939,-0.7974846,0.49266282,4
0.3447442352771759,12.89029312133789,0.8098527193069458,0.4025220572948456,-0.5833763000000001,0.41416663,4
-0.6295744180679321,10.972368240356444,1.1954684257507324,0.24262401461601255,-0.9288206,0.25350907,4
-1.1023445129394531,8.722127914428711,1.2901402711868286,-0.017582535743713382,-0.67103547,-0.041233405,4
-0.8706769943237305,6.338210105895996,0.9476258158683776,-0.256075382232666,-0.02107485,-0.11453723,4
-0.17680102586746216,4.641056537628174,0.4303131401538849,-0.31803208589553833,-1.2843441999999998,0.56596667,4
0.18194282054901126,3.836930990219116,-0.09133335202932358,-0.2900367975234985,-0.7119634,0.57726765,4
0.15613976120948792,3.4348397254943848,-0.38343191146850586,-0.3079799711704254,-0.014049901000000002,0.64812803,4
0.08906640112400055,3.093104600906372,-0.4705057442188263,-0.42219123244285583,0.45814893,0.77396625,4
0.01808713562786579,2.673612117767334,-0.5146449804306029,-0.6063293814659119,1.0305296,0.72692966,4
-0.33812063932418823,2.6086554527282715,-0.3216558992862701,-0.8195967078208923,1.9398025,0.81183994,4
-1.4854942560195925,3.599543571472168,1.14556622505188,-1.008586883544922,1.5598444,-0.16462818,4
-3.326222896575928,5.962470531463622,1.7454814910888672,-0.875802218914032,-4.452596700000001,-2.4877486,4
-3.618893384933472,8.458430290222168,0.6839673519134521,-0.7711495161056519,1.0925325,-2.6313020000000003,4
-0.6008601188659668,10.614184379577637,0.8126968741416931,-0.6482936143875122,0.36713,0.06627888,4
2.2006468772888184,12.304939270019533,0.8345691561698914,-0.3279925882816315,-0.113926366,1.1582005,4
3.262784242630005,13.371521949768065,0.6957725882530212,-0.051420077681541436,-0.0021380284,0.6994406999999999,4
3.4964139461517334,14.199427604675293,0.3990941345691681,0.2603849172592163,1.0067059,0.36651915,4
3.2049884796142583,14.81931209564209,0.33689793944358826,0.479306161403656,1.1523973,0.0125227375,4
2.208064079284668,14.72495937347412,0.7896946668624878,0.5998131632804871,-0.44104472,0.552833,4
0.4822370707988739,13.308555603027346,1.1418884992599487,0.6296395659446716,-0.5494733,0.47708577,4
-1.561067819595337,10.917171478271484,1.214611291885376,0.5720664858818054,0.4251622000000001,-0.15454891,4
-2.7730579376220703,8.487306594848633,1.3995723724365234,0.3785313665866852,0.27763826,-0.50823987,4
-2.76938271522522,6.317336082458496,1.680550456047058,0.149998277425766,-0.56505036,-0.6010914,4
-1.6452239751815796,4.6567344665527335,1.383460521697998,0.041641619056463235,-1.1768318000000002,-0.110872045,4
-0.217207595705986,3.4733188152313232,0.8694130778312683,0.08167681843042374,-2.1774292,0.33750305,4
0.8503721356391907,2.730459928512573,0.428415447473526,0.14791764318943024,-1.8466456,0.5589417,4
1.1145542860031128,2.4776604175567627,-0.03684704378247261,0.15342989563941956,0.04153884,0.5207626000000001,4
0.9239287376403807,2.363424062728882,-0.3228198885917664,0.07808909565210342,1.3423764,0.5503895999999999,4
0.7367346286773682,2.2434556484222408,-0.3596731126308441,-0.06983405351638794,1.7718146,0.5671884,4
0.5041711330413818,2.09037446975708,-0.26840004324913025,-0.27895236015319824,1.8359555,0.50488013,4
0.13521303236484528,2.207847595214844,-0.15148630738258362,-0.5200337171554565,1.3768903,0.5720753000000001,4
-0.5260940790176392,2.904571533203125,0.3016646504402161,-0.681229829788208,1.7266107,0.47494772,4
-1.929993987083435,5.016237258911133,1.0855389833450315,-0.6802394986152649,-0.5323690999999999,-0.31337386,4
-2.895310640335083,7.555105209350586,1.513827204704285,-0.4425869882106781,-4.3456955000000015,-0.9379836,4
-1.6155076026916504,9.7818603515625,0.8408178091049194,-0.24283704161643985,-2.1661282,-0.1386664,4
0.6082007884979248,11.665385246276855,0.2456594258546829,-0.18515627086162567,-0.43188173,0.27885997,4
2.262450695037842,13.169892311096193,-0.1797013133764267,-0.06496395170688629,1.1798862,-0.03481932,4
2.482074737548828,14.03149700164795,-0.570110559463501,-0.005064757075160742,1.632232,-0.7626653,4
1.9370102882385252,14.87550163269043,-0.9270604252815248,0.06697741150856018,2.2656991,-1.1386528,4
1.200525403022766,15.617598533630373,-1.0940039157867432,0.2352204024791717,1.4932601,-0.50701815,4
0.5192574858665466,15.336115837097168,-0.8565911054611206,0.5423029065132141,0.008246681,-0.0580322,4
0.031860336661338806,13.818012237548828,-0.6017016768455505,0.8259806632995605,0.57848936,-0.0027488936,4
-0.09386036545038223,11.55258846282959,0.03108485229313374,0.9906387329101562,0.04886922,-0.22174409,4
0.1958676725625992,9.354521751403807,1.0649333000183103,0.9925567507743835,-1.1859949,-0.22235495,4
0.5499972105026245,7.555348396301269,1.8025881052017207,0.85056471824646,-1.1032226,-0.008552114,4
0.6802411079406738,6.11237382888794,2.177541494369507,0.5655479431152344,-0.97310835,0.050396383,4
0.5428474545478821,5.012947082519531,2.0541818141937256,0.2666101157665253,-0.98837996,0.010690141499999998,4
0.22822831571102145,3.9432218074798575,1.417670488357544,0.07110010832548141,-0.14172074,-0.10323623,4
-0.040810476988554,3.0208742618560787,0.7062575817108154,-0.07280434668064117,1.1392636,-0.21471913,4
-0.16286569833755493,2.461493730545044,0.41842761635780334,-0.20380349457263947,1.6920967,-0.17256944,4
0.08162234723567963,2.305794715881348,0.6865149140357971,-0.3013660609722137,0.38331795,0.17287487,4
0.7188259959220886,2.592082977294922,0.7057836651802063,-0.4007219076156616,-0.38026363,0.72173727,4
1.2363048791885376,3.26568865776062,0.4117436110973358,-0.5071067214012146,-0.58032197,1.2082913999999998,4
1.345089316368103,5.136279582977295,1.1985658407211304,-0.4954993724822998,-0.39950588,1.4422529,4
0.8672958612442017,7.638802051544189,2.678286075592041,-0.5015041828155518,-1.779756,0.22449298,4
-0.2847660481929779,8.87851619720459,1.7069309949874878,-0.6991901993751526,-0.018325957,-0.44104472,4
-1.5948637723922732,9.283583641052246,0.3055941164493561,-0.8762120604515076,1.6026049999999998,-1.6420058000000002,4
-2.3182859420776367,10.757471084594727,-0.720266580581665,-0.8875041604042053,3.1975741,-1.3387111,4
-1.4358514547348022,12.344098091125488,-0.7022956013679504,-0.6086703538894653,1.2550226,-0.26939157,4
0.3050019145011902,13.54942512512207,-0.10213809460401536,-0.21620766818523407,-1.0567969,0.081855945,4
1.6975098848342896,14.513710975646973,0.17459054291248322,0.19062307476997373,-0.97310835,0.5558874,4
2.395790338516236,14.726011276245115,0.15069133043289185,0.5137227773666382,-0.0421497,0.73731434,4
2.499799489974976,13.719717979431152,0.4618052840232849,0.649745762348175,-0.3155119,0.41050145,4
1.957908511161804,12.111122131347654,0.8552067875862122,0.6298326849937439,-0.23976462,-0.06658431,4
0.7152377367019653,10.293587684631348,1.3124780654907229,0.526158332824707,0.6093381,-0.012217305,4
-0.6721458435058594,8.453973770141603,1.8505547046661377,0.3456965684890747,0.44959682,0.34300083,4
-1.539348840713501,6.505879878997803,2.2942821979522705,0.10624496638774872,-0.81031275,0.018936822,4
-1.59819495677948,4.954163074493408,2.1904592514038086,-0.05834639444947243,-1.645671,0.07086037,4
-1.1383171081542969,3.7853846549987793,1.6176756620407104,-0.0770869255065918,-1.4114041000000002,0.26267207,4
-0.7321562170982361,2.7661657333374023,0.7753225564956665,-0.07490288466215134,0.08521569999999999,0.21105394,4
-0.42348453402519226,2.024474620819092,0.30487653613090515,-0.1473151594400406,0.5699373000000001,0.13652839,4
-0.09629788994789124,1.6645920276641846,0.2756972312927246,-0.2833979427814484,0.42180246,0.23518312,4
0.14632374048233032,1.5310473442077637,0.2403852194547653,-0.4573060870170593,0.9459248,0.33444872,4
0.14234019815921786,1.5384515523910522,0.0027875471860170364,-0.6584059000015259,1.9401081,0.35888332,4
-0.1355092227458954,2.171983003616333,0.11662665754556654,-0.7845409512519836,1.9184223,0.39095375,4
-0.7557821869850159,4.436775207519531,0.568811297416687,-0.8257941603660583,-0.079107046,-0.011301007,4
-1.411907196044922,7.116269588470459,1.387495756149292,-0.5531944632530212,-1.2131784,-1.1606439,4
-0.3253873884677887,9.486130714416504,2.653397798538208,-0.5564583539962769,-3.4168746,0.32986724,4
1.257219314575195,11.444513320922852,2.2931044101715092,-0.6852872371673584,-1.2394456,1.3069462,4
1.3183242082595823,12.985939979553224,1.8953882455825808,-0.8425331115722656,0.33933565,0.50823987,4
0.5259857177734375,13.791095733642578,1.1388301849365234,-0.8584765195846558,1.3921618,-0.68936145,4
-0.21516403555870056,14.153873443603516,0.5883860588073729,-0.7017178535461426,1.4202617,-1.4856243,4
-0.7229347825050354,14.645462036132812,0.059512015432119376,-0.4109938144683838,1.9046779,-1.6352862,4
-0.8230304121971129,15.030400276184082,-0.4052801430225372,0.011038855649530888,1.5647314,-0.98990715,4
-0.5169602036476135,14.833236694335938,-0.38931283354759216,0.5649662017822266,0.48349985,-0.18753563,4
0.31689009070396423,13.909076690673828,-0.02195056900382042,0.9794451594352722,-0.57757306,0.62858033,4
1.5657812356948853,12.483006477355955,0.7202246785163879,1.2862155437469482,-2.5552492,1.0302242,4
2.3938980102539062,10.60732650756836,1.2034207582473757,1.4806884527206419,-2.287385,0.73426,4
2.351869821548462,8.764159202575684,1.3231655359268188,1.411334991455078,-0.4111123,0.56596667,4
1.8246088027954104,7.273825168609619,1.7192484140396118,1.0861575603485107,-0.01160644,0.37018433,4
0.9602421522140504,6.161074638366699,2.4234745502471924,0.6741815209388733,0.25228736,0.17287487,4
-0.2789202034473419,4.8641629219055185,2.4270358085632324,0.30915331840515137,0.72418076,-0.14966199,4
-1.1047099828720093,3.6323261260986333,1.7434860467910769,0.06872018426656723,1.7831156000000004,-0.4071417,4
-1.4820986986160278,2.666118621826172,0.9942881464958192,-0.07798636704683304,1.3695598999999998,-0.49541172,4
-1.3615597486495972,2.0262401103973393,0.5665789246559143,-0.110636368393898,-0.20677789,-0.36285394,4
-0.8486135601997375,1.6871085166931152,0.4993284344673157,-0.16949941217899325,-0.9660834,-0.044593163,4
-0.2966204881668091,1.749614953994751,0.3049792051315308,-0.2330675721168518,-0.007941248,0.25534168,4
0.09989428520202637,3.0454502105712886,1.112705945968628,-0.1805352568626404,0.13164146,0.6630941999999999,4
0.3321346342563629,5.65692138671875,1.1821484565734863,-0.08604126423597336,-1.3545936,0.04153884,4
0.4939344525337219,8.132431030273438,0.6492957472801208,-0.05902165547013283,-1.6771306,-0.05772676700000001,4
0.6508248448371887,10.189677238464355,0.7749303579330444,0.019059864804148674,-0.42546764,0.058948494,4
0.5508686304092407,11.981494903564453,-0.02160627767443657,-0.13333691656589508,1.6850718,-0.25442538,4
0.6347115635871887,13.44728183746338,-0.12243768572807312,-0.2057933211326599,1.3701707,-0.6203337,4
0.3704533874988556,14.391002655029295,0.14952071011066434,-0.2277078479528427,0.51923543,-0.52381694,4
-0.27212393283843994,14.7648344039917,0.2896967232227325,-0.09025723487138748,-0.48899764,-0.528093,4
-0.7742863297462463,14.308195114135742,0.4231402277946472,0.04089038074016571,-0.24098633,-0.50518554,4
-0.3408609628677368,12.9169921875,0.5052101612091064,0.1049756556749344,-0.6258314,-0.12461651,4
0.4340499937534332,10.848589897155762,0.46533548831939703,0.1853865385055542,-0.8185594,0.31245756,4
1.1553230285644531,8.670602798461914,0.5224785804748535,0.24295522272586825,-0.6835581999999999,0.6948592,4
1.5676684379577637,6.780654430389403,0.6507671475410461,0.2512834072113037,-1.0186177,0.8793405000000001,4
1.5982153415679932,5.22887659072876,0.6897186636924744,0.18251635134220126,-1.6029103999999998,0.627664,4
1.223260760307312,4.073554039001465,0.5111380815505981,0.0960416942834854,-1.0916162,0.3707952000000001,4
0.4978012442588806,3.1717491149902344,0.359234631061554,0.03474244475364685,0.14080444,0.19853121,4
-0.3253943622112274,2.514364957809448,0.3333371579647064,-0.050479523837566376,1.185384,-0.040927973,4
-0.8679280281066895,2.022106409072876,0.4447545111179352,-0.15785247087478638,0.9251554,-0.10293079,4
-1.0368285179138184,1.6913918256759644,0.4135442972183228,-0.2601308822631836,0.5867361,-0.06627888,4
-0.8605793118476868,1.5873502492904663,0.27653247117996216,-0.3603605329990387,0.86651236,0.032070424,4
-0.4950894713401794,2.033681631088257,0.4604022204875946,-0.4602343142032623,0.7360926,0.25717425,4
0.053312532603740685,3.435555458068848,1.1693152189254759,-0.5144494771957397,-0.6786713000000001,0.4822781,4
0.10663457959890366,5.990884304046631,0.9832125306129456,-0.2669779658317566,-0.8793405000000001,-1.1246029,4
-0.2561903893947601,8.481226921081543,0.9560901522636414,-0.1441367268562317,-0.7125743,-0.59742624,4
0.2642782032489777,10.601208686828613,0.4132660627365112,-0.11699380725622174,0.9211848,-0.14844026,4
1.4594987630844116,12.345033645629885,0.17971304059028625,-0.019177578389644626,1.162782,-0.03634648,4
2.138192176818848,13.64543628692627,-0.08251543343067169,0.10694491863250732,1.1319333,-0.37965274,4
2.26176381111145,14.433195114135742,-0.2135650217533112,0.22653381526470184,0.6426301999999999,-0.21594086,4
1.9067622423172,14.665334701538086,-0.17812003195285794,0.3609950542449951,-0.18051068,0.10903945,4
0.9919090270996094,14.055374145507812,0.19947174191474915,0.4497004747390747,-0.7831292,0.3023783,4
-0.2379851192235947,12.49342441558838,0.5256026983261108,0.454580307006836,-0.2706133,0.3042109000000001,4
-1.2759661674499512,10.352044105529783,0.8201171755790709,0.3351093828678131,-0.37384954,0.21960606,4
-1.648936748504639,8.228498458862305,0.7545289993286133,0.13084618747234344,-0.30665436,0.23671028,4
-1.5028246641159058,6.06528902053833,0.41548705101013184,0.0061372765339910975,-0.58093286,0.25442538,4
-1.1660507917404177,4.035258293151856,0.2837307751178741,-0.015168513171374796,-1.5971072,0.12767084,4
-0.7659094333648682,2.713348627090454,0.12553483247756958,0.0592590756714344,-1.2968669,0.07299839999999999,4
-0.4621304869651794,2.1911885738372803,-0.02821863628923893,0.14125125110149386,-0.63163465,0.014966198,4
-0.10884929448366164,2.215778112411499,-0.12549720704555511,0.13893820345401764,-0.17409660000000002,0.0720821,4
0.4037126302719116,2.40692400932312,0.0609993003308773,0.04467573761940002,-0.007941248,0.35979962,4
0.8770925998687744,2.6420824527740483,0.8082640171051025,-0.12720143795013428,0.0067195175,0.66737026,4
1.1257102489471436,3.1751096248626713,1.4447145462036133,-0.4430630207061768,0.17256944,0.9673051,4
1.1503338813781738,3.8719577789306636,1.1773260831832886,-0.7882538437843323,0.36163223,1.1258247,4
0.5882576107978821,5.253049373626709,0.9546300172805786,-0.9080138206481934,2.7235427000000003,0.43035457,4
-1.0831480026245115,7.540011405944824,0.6819060444831848,-0.8319547772407532,0.9822713,-1.5131133,4
-1.689273238182068,9.616366386413574,0.26034361124038696,-0.8333198428153992,-0.4251622000000001,-1.0516045,4
-0.4376184642314911,11.419458389282227,0.8029021620750427,-0.8121024966239929,-0.3023783,0.06597344599999999,4
1.593090534210205,12.974522590637207,0.4233982563018799,-0.7811819911003113,-0.044898596,0.6765333,4
1.950227975845337,14.075007438659668,0.006769807543605566,-0.6294880509376526,0.8744536,-0.20097467,4
1.2145984172821045,14.827457427978516,-0.5544494986534119,-0.34924355149269104,1.6691893,-0.8219192,4
0.17213092744350433,15.360886573791506,-0.8876756429672241,0.011239118874073029,0.047036625,-0.6215554,4
-0.7036165595054626,15.035423278808596,-0.8493896722793579,0.4767008721828461,0.08704830000000001,-0.4550946,4
-0.7643218636512756,13.980609893798828,-0.2840301394462585,0.7825858592987059,0.5503895999999999,-0.2846632,4
-0.09325256198644638,12.609886169433596,0.34319621324539185,0.9539366364479064,-0.3857614,0.01160644,4
0.7674586772918701,11.030031204223633,0.9386324286460876,1.0656925439834597,-1.4819591,0.30665436,4
1.26031231880188,9.229504585266113,1.3873653411865234,1.0569268465042114,-0.96852684,0.42577308,4
1.3390825986862185,7.393370151519775,1.861868381500244,0.8275066614151001,-0.16920967,0.2761111,4
1.150910258293152,5.9794349670410165,2.252484083175659,0.4993830025196075,-0.39767328,0.20341812,4
0.7182760834693909,4.819580554962158,2.218716621398926,0.2666936218738556,-0.7351763000000001,0.14782938,4
0.21807928383350367,3.6799142360687256,1.721263408660889,0.1672196090221405,-0.021991149,0.12034045,4
-0.27565449476242065,2.6881165504455566,1.0862252712249756,0.09667543321847916,0.72051555,-0.05497787,4
-0.5994716286659241,2.0641047954559326,0.6806781888008118,0.008548613637685776,0.95417154,-0.14477506,4
-0.611211359500885,1.8334115743637085,0.7433869242668152,-0.08265155553817749,0.37201694,-0.014660766,4
-0.2561563551425934,2.131376981735229,1.0264103412628174,-0.2041080743074417,-0.15699236,0.40591997,4
0.3234675824642181,3.2217087745666504,1.6692842245101929,-0.3590444326400757,-0.9798279,0.89888823,4
0.6680688261985779,5.554487228393555,2.315610408782959,-0.32451224327087397,-0.7806858,0.65087694,4
0.6521895527839661,7.978332042694093,2.089275360107422,-0.3601052165031433,-1.7079792,-0.27397305,4
0.1050790548324585,8.777066230773926,1.5413293838500977,-0.5412917137145996,0.36163223,-1.3322971,4
-0.6810543537139893,9.89138126373291,0.16086606681346893,-0.6178978085517883,2.6371052,-1.2144,4
0.3497702181339264,11.550617218017578,-0.5459012389183044,-0.4110904335975647,2.1972822999999995,-0.4297437,4
1.7709953784942627,12.587457656860352,-0.3799544274806976,-0.13245616853237152,0.28863382,-0.14569137,4
2.3095242977142334,13.165750503540039,-0.26090922951698303,0.05937067419290544,-0.34116822,0.53786683,4
2.059944629669189,13.394954681396484,-0.20160049200057986,0.1985602229833603,-0.3472769,0.7507534,4
1.1617016792297363,12.95071792602539,-0.052636243402957916,0.2637198865413666,-0.49388456,0.44776422,4
-0.2110368311405182,11.757932662963867,0.2095796763896942,0.2956119477748871,-0.5858198,0.453262,4
-1.5978528261184692,9.968546867370604,0.7485573291778564,0.2730218768119812,-0.34574974,0.122783914,4
-2.12898063659668,7.90847635269165,1.423297643661499,0.10746881365776062,-0.27977628,-0.21563543,4
-1.751824140548706,5.933072566986084,1.5511198043823242,-0.03438173234462738,-0.33322698,-0.040317107000000005,4
-0.8479145765304565,4.333483695983887,1.1674901247024536,-0.029410487040877342,-1.271516,0.22785273,4
-0.07301558554172516,3.295796632766724,0.7634420394897461,-0.002844025148078799,-1.5366315000000002,0.35827246,4
-0.005685139447450639,2.7165682315826416,0.27793657779693604,0.021735247224569317,-0.26847526,0.20830505,4
-0.3203591108322144,2.3404810428619385,0.05262186750769615,0.011925369501113892,0.7467828000000001,0.13194689,4
-0.4906194806098938,2.084747791290283,0.09718145430088043,-0.06771478056907654,0.6081163,0.16829337,4
-0.3997201025485992,2.0111854076385502,0.23115165531635284,-0.21088792383670807,0.6927211999999999,0.267559,4
-0.1326325237751007,2.490145444869995,0.40495821833610535,-0.41085907816886896,0.17898351,0.5876524000000001,4
0.017597656697034836,3.4984455108642583,0.5682915449142456,-0.5087494850158691,0.38423425,0.68111473,4
-0.5142859816551208,5.705883979797362,0.489606112241745,-0.3814533650875092,0.07147124,-0.15607607,4
-1.4601585865020752,8.16724967956543,-0.0971670225262642,-0.1933726966381073,-1.2858714,-1.4242324,4
-1.0766677856445312,10.29598617553711,0.3555796444416046,0.07740508019924164,-1.4532484,-0.6282749,4
0.4713011384010315,12.08403205871582,0.3960696756839752,0.25261613726615906,1.044885,0.23304509,4
2.35243558883667,13.54481029510498,0.24765680730342865,0.2790234088897705,1.269378,-0.19364429,4
2.815327405929565,14.654163360595705,0.4658265709877014,0.18243086338043213,1.8329011,-0.41050145,4
2.0246751308441158,15.251405715942385,0.6794297099113464,0.17798949778079987,1.1487321,-0.20799962,4
0.3916965425014496,14.782742500305176,0.762455940246582,0.2628693580627441,-0.90408057,-0.15699236,4
-1.1920981407165527,13.255385398864744,0.41220623254776,0.3036086857318878,-0.33383787,-0.3484986,4
-1.8412641286849976,11.215006828308104,0.039432652294635766,0.267721027135849,0.9669997,-0.07086037,4
-1.704540729522705,9.101096153259276,0.07460330426692963,0.1777029037475586,0.099265605,-0.017104227,4
-0.9670557975769044,7.192467212677003,-0.1938105821609497,0.13221818208694458,0.2443461,0.34513888,4
-0.09403610229492188,5.416195869445801,-0.22580432891845706,0.12495037913322447,-1.0283916,0.52503866,4
0.412333220243454,3.9704301357269287,-0.1652957648038864,0.10805020481348038,-1.5500705,0.4251622000000001,4
0.30845052003860474,3.023919105529785,-0.09551768749952316,0.12310542166233066,-0.63255095,0.14446963,4
-0.2678702473640442,2.5873799324035645,0.01560213230550289,0.13569970428943634,0.21594086,0.060170225999999986,4
-0.7203017473220825,2.426471948623657,0.16405220329761505,0.08618458360433577,0.5027421,0.05100725,4
-0.723933219909668,2.425204277038574,0.5352690815925598,-0.031589508056640625,0.5506949999999999,0.23487769,4
-0.27987658977508545,2.729013442993164,1.0663063526153564,-0.2476213425397873,0.21746802,0.5467244000000001,4
0.3444558084011078,3.469588279724121,1.121127724647522,-0.5224224328994751,-0.4831944,1.1392636,4
0.5251976847648621,5.167294502258301,1.3172236680984497,-0.649596631526947,-0.45937067,1.1982121,4
-0.5682200789451599,7.581239223480225,1.5000489950180054,-0.618847131729126,-0.13011430000000002,-0.5421429,4
-1.1375306844711304,9.11609935760498,1.017375946044922,-0.577165424823761,-2.2369885,-1.1368201999999998,4
-1.2051013708114624,10.635830879211426,-0.4181333184242249,-0.5415545105934143,1.1334605,-1.2073752,4
0.1975317895412445,12.253164291381836,-1.0162378549575806,-0.35420069098472595,1.1111639,-0.37904188,4
2.497586488723755,13.522509574890135,-1.0037537813186646,-0.11976785212755205,1.0818423,-0.19242255,4
3.6303942203521733,14.28870677947998,-0.7275835275650024,0.08765866607427597,1.0073168,0.2275473,4
3.5873770713806152,14.742243766784668,-0.29193782806396484,0.2502194046974182,0.768163,0.108123146,4
2.6679978370666504,14.758023262023926,0.3010573387145996,0.3534029424190521,0.32345316,0.19639318,4
1.2454079389572144,13.83784294128418,0.970361053943634,0.3281418979167938,-0.18234327,0.21991149,4
-0.03946269303560257,12.15371799468994,1.2788516283035278,0.19797812402248385,-0.36743546,0.084910266,4
-0.5743514895439148,10.008581161499023,1.2490085363388062,0.009409739635884762,-0.46517387,0.12034045,4
-0.6395953297615051,7.50124979019165,0.8925422430038452,-0.1594107449054718,0.06719518,0.039095376,4
-0.2673669159412384,5.325164794921875,0.3411988019943237,-0.26003706455230713,0.116675265,0.1872302,4
0.3078592419624329,3.8971631526947017,0.001081684255041182,-0.28488242626190186,-0.89980453,0.37843102,4
0.6580479741096497,3.1176586151123047,-0.19335192441940308,-0.23179030418396,-1.0888673,0.40653083,4
0.573548436164856,2.713798999786377,-0.3428107500076294,-0.17844967544078827,-0.2947425,0.22968534,4
0.2996962368488312,2.485760450363159,-0.4880543351173401,-0.1942562311887741,0.73273283,0.31612277,4
0.1536431610584259,2.3739192485809326,-0.2587501108646393,-0.3021610975265503,1.2699889,0.38820487,4
0.1979205757379532,2.635352611541748,0.3764059543609619,-0.5838777422904968,0.768163,0.7189884,4
0.20424357056617734,3.312351703643799,0.6482753753662109,-0.7951846718788147,0.21044308,0.95294976,4
-0.07585454732179643,4.567967891693115,0.8336203694343567,-0.860260009765625,1.1881329,0.41599923,4
-1.4149585962295532,6.851548194885254,0.8383525609970093,-0.724137544631958,-1.1447614,-1.3420709,4
-2.3196678161621094,9.107492446899414,0.6355627179145813,-0.6336439251899719,0.09468412,-1.3591752,4
-1.5385255813598633,10.978788375854492,1.6391687393188477,-0.6341583132743835,-0.6435465,-0.5708536,4
0.5196882486343384,12.617568016052244,1.137075901031494,-0.6893070340156555,0.9755518,0.52778757,4
1.8440076112747192,13.896913528442385,1.0060642957687378,-0.6626327037811279,0.9083565999999998,-0.047647487,4
1.789893627166748,14.623615264892578,0.5703961253166199,-0.498770922422409,0.6942484,-0.6973026999999999,4
1.1967040300369265,15.322813987731935,-0.14544540643692014,-0.1834116727113724,0.1554652,-0.6630941999999999,4
0.3549213111400604,15.320938110351562,-0.8571856021881104,0.3372946381568909,-0.18081611,-0.27183503,4
-0.2749349176883697,14.365848541259766,-0.7834094166755676,0.834929347038269,1.2498302,-0.39064834,4
0.033065013587474816,13.02969455718994,0.07862506806850432,1.0528535842895508,-0.13194689,-0.23151793,4
0.8649212121963501,11.508074760437012,0.8498221635818481,1.1041548252105713,-1.0833695,0.07147124,4
1.565093994140625,9.68234634399414,1.4240938425064087,1.0554627180099487,-0.79168135,0.5662721,4
1.833459973335266,7.50515604019165,1.827023148536682,0.8470843434333801,0.3631594,0.5681046999999999,4
1.5186264514923096,5.807962894439697,2.386335849761963,0.4955697357654572,-0.094989546,0.28771752,4
0.844782829284668,4.739781379699707,2.708940029144287,0.1942091286182404,-0.7742717,0.28985557,4
0.0914338156580925,3.977538585662842,2.6009552478790283,0.0036933328956365594,-1.2183707,0.24801129,4
-0.43470406532287603,3.3380560874938965,2.006597757339477,-0.11889930069446565,-0.36987892,0.2284636,4
-0.8027863502502441,2.778895139694214,1.3220555782318115,-0.2534651756286621,0.50762904,0.13316862,4
-1.071539044380188,2.308931589126587,0.6497690081596375,-0.3762168884277344,1.2938126,0.044593163,4
-1.1164406538009644,1.9069225788116453,0.08737731724977492,-0.5090482234954834,1.815797,-0.03359759,4
-0.693452000617981,2.0292983055114746,0.2483929544687271,-0.6709386110305786,1.2907583,0.2724459,4
-0.2460781931877136,3.224394559860229,1.6133631467819214,-0.7539210319519043,-0.2302962,0.569021,4
-0.03782062977552414,5.695239543914795,2.0457026958465576,-0.7660808563232422,-1.8942931,0.6942484,4
-0.32683053612709045,8.225383758544924,1.4466903209686282,-0.5994114875793457,-1.8509218,-0.70738196,4
-0.30850327014923096,10.18775463104248,1.288125991821289,-0.7580402493476868,1.0910053,-0.7058548000000001,4
-0.14591506123542786,11.882726669311525,1.4375269412994385,-0.9536792039871216,-0.49388456,-0.13164146,4
0.18121278285980225,13.353156089782715,1.3497833013534546,-0.9035477638244628,0.59742624,-0.15943582,4
-0.12031158804893495,14.37005615234375,1.0230746269226074,-0.7905491590499878,0.67073005,-0.70463306,4
-0.6241167187690735,14.914891242980955,0.5447127223014832,-0.549338698387146,0.95081174,-1.3316863,4
-0.585488498210907,15.285405158996582,0.1566975712776184,-0.07227184623479843,0.6065891999999999,-0.6102544,4
0.036443863064050674,14.819064140319824,0.2889292240142822,0.5187681913375854,-0.4810564000000001,-0.032375857,4
1.0643748044967651,13.590787887573242,0.6541998386383057,1.012162446975708,-1.5467108,0.3652974,4
2.29236364364624,11.636846542358398,0.9583317041397096,1.3267688751220703,-0.82619524,0.5717699,4
2.974888563156128,9.590017318725586,1.475698947906494,1.3588098287582395,-0.26297748,0.5531385,4
2.906851053237915,7.899089336395264,2.090524435043335,1.1251552104949951,0.39278635,0.37598756,4
2.133676052093506,6.735971927642822,3.041203022003174,0.7903978228569031,0.3051272,0.32345316,4
1.17551589012146,5.76771354675293,3.5533249378204346,0.43790268898010254,-0.7858781,0.18875736,4
0.4286772012710571,4.719240188598633,3.2144472599029537,0.19483067095279694,-0.6960809,0.10934488,4
-0.11978809535503387,3.608043670654297,2.2528152465820312,-0.023627974092960358,0.6365215999999999,-0.0030543262,4
-0.529737114906311,2.6591796875,1.1926212310791016,-0.2419975996017456,1.7263051,-0.07941248,4
-0.7117905616760254,2.016357660293579,0.6685790419578552,-0.4299221634864807,1.4691309,0.062308256,4
-0.6493899822235107,1.698691725730896,0.3841603398323059,-0.5362896919250488,0.76052725,0.29810223,4
-0.5584461688995361,1.6193785667419434,-0.012449197471141815,-0.5722346901893616,0.11484267,0.24312437,4
-0.5883261561393738,1.804477334022522,-0.2669888734817505,-0.5198385715484619,0.113926366,0.4633413,4
-0.902027189731598,3.14180326461792,0.7474994063377379,-0.3360181152820587,-1.4181237,0.34880406,4
-0.7180887460708618,5.737467288970947,1.2480080127716064,-0.18803395330905914,-1.992337,-0.41691554,4
0.30090445280075073,8.246781349182129,1.6665033102035522,-0.3168388605117798,1.0137309,-0.453262,4
0.6743543148040771,10.321776390075684,1.957663655281067,-0.623815655708313,1.5873333,-0.14385876,4
0.3250629007816315,12.11339282989502,2.3699004650115967,-0.6567735075950623,0.5018258,0.061391957,4
-0.16273687779903412,13.546762466430664,2.476111888885498,-0.5374333262443542,-0.36041048,-0.3491095,4
-0.4933736622333527,14.6939058303833,1.8484532833099363,-0.3224001228809357,0.42852196,-0.8222246,4
-0.5196032524108887,15.310647010803224,0.995470941066742,0.010059479624032974,0.50885075,-0.7431175999999999,4
-0.3719823062419891,15.083892822265625,0.39153704047203053,0.3966412842273712,0.4147775,-0.46089783,4
-0.12455586344003675,14.172057151794435,0.1381516307592392,0.7690912485122681,0.46120325,-0.025045475,4
0.11035483330488204,12.79721736907959,0.4251682162284851,1.0100631713867188,-0.6078109,0.39645153,4
0.17054902017116547,10.726390838623047,0.7829151153564453,1.0759642124176023,-1.505172,0.5308419,4
0.1199011504650116,8.281209945678711,1.2040544748306274,1.0210978984832764,-1.2147056,0.5751295999999999,4
-0.2768682837486267,6.35003137588501,1.7924232482910156,0.8008539080619812,-1.0393872,0.12767084,4
-0.7162796258926392,4.916940689086914,2.06622576713562,0.5282740592956543,-0.93370754,-0.27916542,4
-0.8695558309555054,3.776495933532715,1.8102045059204104,0.38157758116722107,-0.2565634,-0.32986724,4
-0.8277813792228699,2.871111392974853,1.291590452194214,0.28930777311325073,0.20647246,-0.45814893,4
-0.6050643920898438,2.3030381202697754,0.5645195841789246,0.2212243378162384,0.35369098,-0.29382620000000004,4
-0.16853997111320496,2.117116689682007,0.04535920172929764,0.1522752344608307,0.1853976,0.10995574,4
0.40004244446754456,2.2065348625183105,0.21189871430397034,0.02294658124446869,0.21288654,0.5372560000000001,4
0.8283637166023254,2.570464611053467,0.7129105925559998,-0.21247802674770355,0.52931476,0.7489208,4
0.9267632961273192,3.236544370651245,0.9986794590950012,-0.4683723747730255,0.44135013,1.0060950000000002,4
0.4149377346038817,4.844750881195068,0.8316568732261658,-0.5720624327659607,1.0177015,0.6239988000000001,4
-1.5461360216140747,7.285494804382324,0.004774616099894047,-0.4717596471309662,-1.0848966999999998,-0.9101892,4
-3.2474188804626465,9.518488883972168,-0.5938478112220764,-0.2279237806797028,-0.4728097,-1.7052304,4
-2.6496541500091557,11.431164741516113,0.0031825590413063765,-0.02162295766174793,0.13072516,-1.099252,4
0.3164975047111511,12.978509902954102,0.3513855040073395,-0.09781277179718018,0.8717046999999999,0.54519725,4
1.830323576927185,13.764081001281738,-0.1300494372844696,-0.2104094922542572,1.9990565,0.17501289,4
1.432568073272705,14.202567100524902,-0.8166627883911133,-0.14789824187755585,1.7058412,-0.1423316,4
0.11668994277715684,14.133516311645508,-0.8515639901161194,0.15750478208065033,-1.2122620000000002,0.35613444,4
-1.2274365425109863,12.845786094665527,-0.3722338676452637,0.39675694704055786,0.14752395,-0.08521569999999999,4
-1.616635799407959,11.028651237487793,0.4948328137397766,0.37768322229385376,0.13775012,0.050396383,4
-1.218567132949829,9.08099365234375,1.3129158020019531,0.30408626794815063,-1.3011429,0.57787853,4
-0.692216157913208,7.176804542541504,1.4127289056777954,0.2758263051509857,-0.5681046999999999,0.71868294,4
-0.02042148075997829,5.413630962371826,1.5573930740356443,0.21347828209400174,-1.1600331,0.7443393,4
0.5305753946304321,4.150808334350587,1.657503366470337,0.07933728396892548,-2.0949624,0.6533204,4
0.44144949316978455,3.534007787704468,1.2726036310195925,-0.06477804481983185,-1.2040153999999998,0.5174029,4
0.04057929292321205,2.988530158996582,0.4681234061717987,-0.1903609335422516,0.9944886,0.28893927,4
-0.4465107619762421,2.3765239715576167,-0.2569843530654907,-0.30169981718063354,2.7644706,-0.047647487,4
-1.038137435913086,1.8771121501922607,-0.3644603192806244,-0.3951127231121063,3.1899383,-0.26847526,4
-1.4319095611572266,2.0061709880828857,0.43544086813926697,-0.4468449652194977,1.4902058,-0.14172074,4
-1.374641180038452,3.5923469066619877,1.68675434589386,-0.4597524106502533,-2.2333232999999995,-0.19975294,4
-1.2655528783798218,6.203233242034912,0.9625262618064879,-0.35422441363334656,-1.7595973000000005,-1.2153164,4
-0.5059522390365601,8.490659713745117,1.310231328010559,-0.2050902098417282,-2.1945333,-0.03176499,4
-0.13640710711479187,10.383035659790039,0.3444958031177521,-0.28849032521247864,0.34025195,-0.24220806,4
0.35088685154914856,12.10279941558838,-0.2349720299243927,-0.24525626003742215,0.9944886,-0.22296582,4
0.5300954580307007,13.060922622680664,0.11926835775375365,-0.10956155508756638,-0.8689558000000001,-0.095294975,4
0.17897242307662964,13.176072120666506,-0.0008950438932515682,0.024126533418893814,-0.46883908,-0.2779437,4
-0.14004778861999512,12.772207260131836,-0.7321522235870361,0.18864139914512634,1.0473285,-0.24465153,4
-0.30795523524284363,11.666601181030273,-1.2757307291030884,0.3791743516921997,1.9141463,-0.06811147,4
-0.3636965751647949,9.89560604095459,-0.828518271446228,0.5344080328941345,0.20799962,0.29779682,4
-0.2427968233823776,8.014665603637695,-0.15142036974430084,0.5196422338485718,-0.5534439,0.45998153,4
-0.035182103514671326,6.264598846435548,0.3728956282138825,0.3712108433246613,-1.072374,0.44715336,4
0.10399575531482697,4.739730358123778,0.7065794467926025,0.19478467106819156,-1.3799446000000002,0.30634892,4
0.009244393557310104,3.654367208480835,0.7879083752632141,0.08856644481420517,-0.68477994,0.22204952,4
-0.3605690896511078,3.0019173622131348,0.6798230409622192,0.06559337675571443,0.16920967,0.15882497,4
-0.5079493522644043,2.625910997390747,0.4625919759273529,0.017668895423412326,0.09437868,0.1826487,4
-0.2771458327770233,2.3897178173065186,0.3717404305934906,-0.08087804913520813,-0.13011430000000002,0.3662137,4
0.17313246428966522,2.497689247131348,0.6062994003295898,-0.2628721594810486,-0.14080444,0.66889745,4
0.6104581356048584,3.2441859245300293,0.9989835023880004,-0.5500243902206421,-0.5992588000000001,1.0274754,4
0.6048346161842346,4.974752426147461,1.4502865076065063,-0.6608147621154785,0.48258355,0.8390234000000001,4
-0.6732743978500366,7.432339191436768,1.0434485673904421,-0.6068819165229797,-0.15882497,-1.2073752,4
-1.2463594675064087,8.975506782531738,0.2580082416534424,-0.6336244344711304,-0.6759224,-1.6129897,4
-0.7335461974143982,10.57351016998291,-0.6120470762252808,-0.5153763890266418,1.3521502,-1.0803152,4
0.7112323045730591,12.217093467712402,-1.233110427856445,-0.2933938205242157,2.1630738,-0.08674286,4
1.765897512435913,13.51614761352539,-1.235323429107666,0.02157895639538765,1.2202033,0.23548855,4
1.9327955245971682,14.145359992980955,-1.0253928899765017,0.26457783579826355,0.105374254,0.41599923,4
1.2713123559951782,14.191170692443848,-0.786965548992157,0.4710530042648315,-0.6301074999999999,0.3848451,4
0.010187512263655664,13.36370086669922,-0.5085179805755615,0.5898175835609436,0.01985312,0.13347405,4
-1.344569206237793,11.619717597961426,-0.11007892340421677,0.6123384237289429,0.9737192,-0.22815818,4
-2.1303880214691158,9.632987022399902,0.7521060705184937,0.5086266994476318,-0.16646078,-0.28130344,4
-2.0913372039794917,7.806802272796631,1.3669710159301758,0.3343164622783661,-0.76083267,-0.15760323,4
-1.4334979057312012,6.013476848602295,1.3020086288452148,0.17823238670825958,-0.47158796,0.17165314,4
-0.6947130560874939,4.569467544555664,0.9612168073654176,0.07225081324577333,-1.069625,0.40653083,4
-0.5033469796180725,3.434849977493286,0.5968990325927734,0.0762283131480217,-0.43279803,0.25137106,4
-0.4765572547912598,2.731829643249512,0.4760925173759461,0.07553822547197342,0.26725355,0.026267206,4
-0.21095839142799375,2.475317478179932,0.4520202875137329,-0.0010275091044604778,0.13927728,0.15943582,4
0.20205286145210266,2.4684650897979736,0.43492642045021057,-0.11546307057142258,0.41386122,0.4007276,4
0.7222260236740112,2.8235347270965576,0.6626013517379761,-0.2686609029769897,0.17806722,0.8081746999999999,4
1.1721969842910769,3.6864914894104,0.5821020007133484,-0.4635423719882965,-0.03390302,1.1026118,4
0.977371633052826,5.510988235473633,0.5567210912704468,-0.4969458878040314,1.4627168,0.6105598000000001,4
-0.5835850238800049,7.90739107131958,0.7124360799789429,-0.466141402721405,-0.3436117,-0.9773844,4
-1.8927632570266724,9.55715560913086,0.5198179483413696,-0.5648776888847351,-0.37140608,-1.4532484,4
-2.9423699378967285,11.183832168579102,-0.1962374448776245,-0.4952328503131866,0.3213151,-1.5338826,4
-2.187832355499268,12.736083984375,-1.0829675197601318,-0.38232421875,0.95539325,-1.0106765,4
0.3310437798500061,13.951088905334473,-1.281405687332153,-0.08162830770015718,0.30176744,0.2003638,4
2.1936347484588623,14.392849922180176,-1.0024360418319702,0.2282503992319107,-0.03481932,0.6918049,4
2.6232740879058842,14.287382125854492,-0.7491857409477234,0.3854895234107971,-0.26542094,0.7281514,4
1.3165291547775269,12.965532302856445,-0.09386811405420303,0.4974379241466522,-1.0464121,0.5849035,4
-0.4215234220027924,10.832663536071776,0.28336963057518005,0.5165597200393677,0.18020524,0.25870144,4
-1.603549599647522,8.604733467102049,0.9236371517181396,0.3721849918365479,0.4792238,-0.077579886,4
-1.9615603685379028,6.546272277832031,1.5780960321426392,0.16353213787078855,-1.1420126,-0.15271631,4
-1.4857807159423828,4.885963439941406,1.4091366529464722,0.08288458734750748,-1.5552629,-0.06169739,4
-0.5052244067192078,3.7433385848999023,1.0291354656219482,0.07508189976215363,-1.8377881,0.24831672,4
0.2070221900939941,3.0741984844207764,0.5508958697319031,0.017600981518626213,-0.40408736,0.28313604,4
0.4625169038772583,2.6713340282440186,0.2750446200370789,-0.13526611030101776,0.77518797,0.22571471,4
0.5278092622756958,2.3808326721191406,0.3355875909328461,-0.3501754403114319,1.1835514,0.23701571,4
0.4666335582733154,2.0858774185180664,0.3211340010166168,-0.5976715683937073,1.6643023,0.3042109000000001,4
0.3030712902545929,2.044043779373169,0.2438054978847504,-0.8044564127922058,1.6221527,0.38515055,4
-0.18240000307559967,2.598130226135254,0.6077989935874939,-0.8611029386520386,1.7455473999999995,0.33139440000000003,4
-1.0366650819778442,4.599977493286133,1.1807657480239868,-0.8292394280433655,-0.37965274,-0.5635232,4
-1.864337921142578,7.187802314758301,0.40280917286872864,-0.7010561227798462,-1.4086553,-1.7971655,4
-1.836915373802185,9.530593872070312,-0.06489202380180359,-0.4776219129562378,-0.14966199,-1.4285084,4
-0.35489481687545776,11.478163719177244,-0.4977284967899322,-0.29594337940216064,0.7858781,0.25870144,4
1.4775607585906982,13.052042007446287,-0.22248820960521695,-0.005598112475126982,-0.34605515,0.906524,4
1.7629150152206419,14.015583038330078,-0.2677103877067566,0.17151129245758054,0.30757064,0.106595986,4
1.0166223049163818,14.47554874420166,-0.35806840658187866,0.3123050332069397,1.0797043,-0.30268374,4
-0.15811452269554138,14.493363380432127,-0.1824582666158676,0.4704426527023315,-0.30909783,-0.17989981,4
-1.191785216331482,13.66859245300293,-0.10189118981361388,0.6704542636871338,0.103847094,-0.23090707,4
-1.61510169506073,11.92363739013672,0.2421616166830063,0.7917463183403015,0.26542094,-0.03390302,4
-1.1328511238098145,9.755353927612305,1.0118750333786009,0.7301753759384155,-0.36713,0.40408736,4
-0.2006943374872208,7.49517822265625,1.4094364643096924,0.600157618522644,-1.0812315,0.59223384,4
0.331132173538208,5.696879863739014,1.348198175430298,0.40576556324958796,-1.7959439,0.47983465,4
0.13293524086475372,4.405359745025635,0.8320162892341614,0.2718595564365387,-1.0161743,0.17195857,4
-0.4019913971424103,3.4516572952270512,0.2579868733882904,0.19143417477607727,0.6462954000000001,-0.054061573,4
-0.8799681067466736,2.841609001159668,0.04081029817461968,0.13796207308769226,1.6691893,-0.17470746,4
-1.0216083526611328,2.4791829586029053,0.1430676430463791,0.06847475469112396,1.2565498,-0.1563815,4
-0.6296728253364563,2.1915826797485347,0.2542823851108551,0.0011290778638795018,0.18784106,-0.01863139,4
0.07835207134485245,2.0736258029937744,0.3254798352718353,-0.09427303075790404,-0.4633413,0.28893927,4
0.704204261302948,2.37056303024292,0.362261950969696,-0.2794616520404816,-0.22815818,0.6627888000000001,4
0.9202465415000916,3.355343580245972,0.3792432248592377,-0.4669540822505951,0.9254609,0.69974613,4
-0.0556793287396431,5.717609882354736,0.8272499442100525,-0.3901957869529724,1.0998629,-0.10903945,4
-2.109875202178955,8.16682243347168,1.3717162609100342,-0.4917908012866974,-2.2375994,-1.4935656000000002,4
-2.9127225875854488,9.91849136352539,0.5408451557159424,-0.5921695828437805,-0.112399206,-1.1081096,4
-1.8218646049499512,11.700823783874512,-0.042135730385780334,-0.4035716652870178,-0.98899084,-0.64934975,4
0.36437851190567017,13.18800449371338,-0.12811703979969025,-0.24085676670074466,-0.10323623,0.35979962,4
1.3393489122390747,13.980195999145508,0.15113699436187744,-0.09478094428777696,-1.1242975,0.8011498,4
0.93084055185318,14.011892318725586,0.02609846740961075,0.04334506019949913,-0.6020076999999999,0.6178902,4
-0.01833087392151356,13.188831329345705,-0.4296725392341614,0.20196297764778134,0.49480084,0.37873647,4
-0.9887632131576538,11.538861274719238,-0.7549885511398315,0.3318225145339966,1.493871,-0.03940081,4
-1.5491288900375366,9.471467971801758,-0.13758617639541626,0.3846094012260437,0.6768387,-0.033292156,4
-1.3848856687545776,7.447327136993407,0.7886234521865845,0.274360716342926,-0.6068946,0.02687807,4
-0.7412483692169191,5.562157154083252,1.148281812667847,0.1466762125492096,-1.412015,0.30970868,4
-0.026592262089252472,4.236816883087158,0.9753767251968384,0.07072645425796509,-1.7458528000000002,0.44959682,4
0.1925262957811356,3.4901936054229736,0.7439040541648865,0.02773444727063179,-0.99204516,0.40591997,4
-0.13380414247512815,2.915446758270264,0.693331778049469,-0.06592191010713577,0.27030787,0.14935656,4
-0.6593297719955444,2.4382920265197754,0.7917340397834778,-0.24121084809303284,1.3017538999999998,-0.058337633,4
-1.0060368776321411,2.073696613311768,0.8620314002037048,-0.4197542071342468,1.3252722,-0.16401732,4
-0.9464296102523804,1.876452922821045,0.7542985081672668,-0.557963490486145,1.0100657,-0.023518313,4
-0.4974267482757568,2.157544612884521,0.341457724571228,-0.6657652854919434,0.4166101,0.3707952000000001,4
-0.17157110571861267,3.9002394676208496,0.8732784986495972,-0.6657894849777222,-0.095294975,0.4868596,4
-0.6650179028511047,6.521430969238281,0.8301846385002136,-0.4723950326442719,-2.5506678,-0.70341134,4
-1.1000975370407104,8.564878463745117,0.5036247372627258,-0.32845237851142883,-0.27030787,-1.0390818000000002,4
-0.9543374180793762,10.533721923828123,-0.12318546324968338,-0.22733895480632785,1.2076806,-1.0622946000000002,4
0.0600903257727623,12.253082275390625,-0.7343881130218506,-0.1414429396390915,2.0570886,-0.22693644,4
0.9495487213134766,13.489121437072756,-0.6895665526390076,0.06332451105117798,0.7861836,-0.22907446,4
1.238134264945984,14.071735382080078,-0.4905244410037994,0.2769941985607147,0.22357668,0.19456059,4
0.9216300249099731,14.217784881591795,-0.34591904282569885,0.5079886317253113,-0.41874814,0.35216382,4
0.1832789480686188,13.614401817321776,-0.2732055187225342,0.6892135143280029,-0.4831944,0.24587326,4
-0.7025775909423828,12.119752883911133,-0.1240418329834938,0.7657086849212646,0.4297437,0.1600467,4
-1.25033700466156,10.13249397277832,0.4649641513824463,0.6836007833480835,-0.016493361,0.19272798,4
-1.168898344039917,8.21143913269043,1.1213451623916626,0.4905121922492981,-0.7993172,0.28252518,4
-0.636491060256958,6.0922789573669425,1.1411956548690796,0.35937631130218506,-1.0864239,0.28405234,4
-0.2556387782096863,4.459087371826172,0.9733620285987854,0.2294587343931198,-1.5827519,0.14110987,4
-0.33195361495018005,3.43481969833374,0.6367198824882507,0.15057465434074402,-0.7761043000000001,-0.074830994,4
-0.4717021286487579,2.927013397216797,0.32546648383140564,0.09587672352790833,0.28344148,-0.13530666,4
-0.3943309485912323,2.733753204345703,0.1358935385942459,0.00724363699555397,0.49754974,0.028405234,4
-0.152910053730011,2.6901333332061768,0.08933952450752257,-0.12837398052215576,0.6704246,0.30879238,4
0.13677996397018433,2.8227438926696777,0.1361655443906784,-0.32050129771232605,1.1151345,0.55680364,4
0.3733678460121155,3.302684783935547,0.08246922492980957,-0.5445675849914551,1.0928379,0.8915578000000002,4
0.2763996720314026,4.720907688140869,0.5766550302505493,-0.6277664303779602,0.7852673000000001,0.8723155999999999,4
-0.7256158590316772,7.132518291473389,0.8151582479476929,-0.5748724341392517,0.043066,-0.75716746,4
-1.9047870635986328,9.25221061706543,0.6778882145881653,-0.6315974593162537,-0.25686884,-1.2751812,4
-2.1759696006774902,10.979486465454102,-0.1255550980567932,-0.6855205893516539,0.17012598,-1.119716,4
-1.0993868112564087,12.587337493896484,-1.20768940448761,-0.5134009122848511,1.5176947,0.03604105,4
0.34451594948768616,13.830728530883787,-1.286992073059082,-0.2000451385974884,0.6798930000000001,-0.03940081,4
0.9228476285934448,14.418438911437988,-1.0845859050750732,0.0831872895359993,-0.26328292,0.111177474,4
0.8116054534912109,14.584029197692873,-0.9387156963348388,0.3568571507930756,-0.7492262,0.17440203,4
0.3130045533180237,14.022726058959961,-0.6738596558570862,0.5345560908317566,-0.30757064,0.116980694,4
-0.11434470862150192,12.329218864440918,-0.14612051844596866,0.6167097091674805,0.12797627,0.099571034,4
-0.2626206576824188,10.378150939941406,0.6810035705566406,0.5960506796836853,-0.4999932,0.269697,4
-0.23153068125247955,8.449227333068848,1.0997796058654783,0.4848394989967346,-0.40622538,0.37110063,4
0.11296972632408142,6.415302276611327,1.490261793136597,0.3559669554233551,-0.6032294,0.40683624,4
0.4497238993644713,4.918590068817139,1.7762559652328491,0.19416439533233645,-1.7376062,0.42943826,4
0.4806222319602966,3.7925384044647217,1.6616060733795166,0.1074702814221382,-1.5589281,0.226631,4
0.3652855455875397,3.01643180847168,1.2420105934143066,0.04665066674351692,-0.20097467,0.19914207,4
0.19477064907550806,2.4995596408843994,0.7491194605827332,-0.060563486069440835,1.0613784,0.035430185,4
0.056028757244348526,2.1975367069244385,0.4429279267787933,-0.2079894989728928,1.4547756,0.058643065,4
-0.0786699578166008,2.14139175415039,0.2011204957962036,-0.4064088761806488,2.1456642,0.17440203,4
-0.2282228469848633,2.585575580596924,0.1168532520532608,-0.5961353778839111,2.425746,0.559858,4
-0.5973156690597534,4.344493865966797,1.1788797378540041,-0.5905137062072754,0.35063666,0.5907066999999999,4
-1.2731144428253174,6.927159309387207,1.4135476350784302,-0.5248555541038513,-2.1749856,-1.3457361,4
-1.1293474435806274,8.806940078735352,1.1898839473724363,-0.5772753357887268,0.27122417,-0.6750060999999999,4
-1.263444185256958,10.335515975952148,0.2717349827289581,-0.7212584614753723,1.5522085,-0.87598073,4
-1.0944026708602903,11.996952056884766,-0.34485968947410583,-0.6289458274841309,0.9410379,-0.5732970000000001,4
-0.5187644362449646,13.41659927368164,-0.17220337688922882,-0.3998793363571167,-0.7079928000000001,-0.37048978,4
0.022325798869133,14.142167091369627,-0.3505542278289795,-0.10360409319400787,-0.48899764,-0.2883284,4
0.7577542662620544,14.225433349609375,-0.7116957902908325,0.22119030356407168,0.053145275,-0.058948494,4
1.559866189956665,13.61630916595459,-0.6610159873962402,0.4795740842819214,-0.10567969,0.4990769000000001,4
1.6592917442321775,12.152599334716795,-0.03268098458647728,0.622563898563385,-1.2483031999999998,0.92149025,4
1.0361185073852541,10.15571403503418,0.40228408575057983,0.670866847038269,-0.55863625,0.8011498,4
0.21727171540260315,8.197856903076174,0.9293397665023804,0.6017641425132751,0.36774087,0.6588182,4
-0.4763578772544861,6.2880191802978525,1.5714298486709597,0.4041624665260315,-0.81214535,0.36774087,4
-1.0917428731918335,4.584658622741699,1.641268610954285,0.2471991777420044,-0.8866709,0.14172074,4
-1.4727022647857666,3.2213079929351807,1.2906559705734253,0.2130744606256485,-0.2919936,-0.10842858,4
-1.4453670978546145,2.3511717319488525,0.8971896171569824,0.21288858354091644,-0.355829,-0.16035213,4
-1.136540174484253,1.947033405303955,0.34054282307624817,0.17894361913204193,0.13347405,-0.12308934,4
-0.6742939949035645,1.8132057189941408,-0.05807541310787201,0.07678842544555664,0.52473325,-0.055283304000000005,4
-0.1298053115606308,1.972493886947632,-0.047597751021385186,-0.09303733706474304,0.77091193,0.18967366,4
0.34803614020347595,2.5931429862976074,0.3515593409538269,-0.2330155819654465,0.84116143,0.5015204000000001,4
0.6005665063858032,4.341440200805663,0.9814814925193788,-0.2219502329826355,0.65148777,0.36285394,4
-0.022908847779035568,6.843616485595702,0.13121700286865234,-0.15072065591812134,0.40683624,-1.4437801,4
-0.7441092133522034,8.950848579406738,-0.4135690927505493,-0.02183595672249794,-0.27397305,-1.0595458,4
-0.5463396906852722,10.76600742340088,-0.9352093935012816,0.050796687602996826,0.8924741,-0.21777347,4
0.5205062627792358,12.452722549438475,-1.4949809312820437,0.200564369559288,1.2864822,0.07269296,4
1.1446324586868286,13.491496086120605,-0.7866335511207581,0.3016072809696197,-1.5693128,0.5186246,4
0.7517928481101991,13.71112823486328,-0.2450474202632904,0.3307458162307739,-1.9932534,0.3268129,4
-0.2111528068780899,13.289698600769045,-0.2138519138097763,0.36675891280174255,-0.77182823,0.03023783,4
-1.1177631616592407,12.223669052124025,-0.20535755157470706,0.3596065938472748,0.46517387,-0.3472769,4
-1.4831234216690063,10.730106353759766,0.2758543789386749,0.2598383724689484,-0.34177909999999995,-0.22296582,4
-1.1236746311187744,9.085466384887695,0.7581411004066467,0.05470198020339012,-0.82741696,0.19853121,4
-0.3413078784942627,7.291037559509277,0.4028488099575043,-0.08584070205688478,0.37048978,0.5531385,4
0.470041960477829,5.353497505187988,0.18973621726036072,-0.09630896896123886,-0.6383542,0.59773165,4
1.0204012393951416,3.96274733543396,0.37289902567863453,-0.1733637899160385,-1.9911152,0.6789767,4
0.9709370732307434,3.280401468276977,0.3011599183082581,-0.2254219800233841,-0.9126327,0.655153,4
0.30188775062561035,2.886324167251587,0.07229233533143997,-0.29738959670066833,0.91904676,0.34941490000000003,4
-0.5365643501281738,2.535959243774414,0.15937218070030212,-0.4575023949146271,2.3289237000000003,0.047647487,4
-1.15282142162323,2.659781217575073,0.6776219606399536,-0.6594042181968689,2.7797422000000003,-0.049480084,4
-1.151402711868286,3.5103960037231445,1.193151354789734,-0.7250840067863464,0.25900686,-0.045814894,4
-0.9403746724128724,5.52440357208252,0.3374668955802917,-0.6837261915206909,-1.1759156000000002,-0.84940815,4
-0.9750349521636964,7.969499588012695,-1.0177758932113647,-0.6388824582099915,-0.013133603,-1.6914859,4
0.12374932318925858,10.156402587890623,-0.4040078818798065,-0.2706393897533417,-0.19272798,-0.36957347,4
1.24891459941864,11.979937553405762,-0.6845023036003113,-0.09355209022760393,1.4425583,0.6609562,4
1.8937714099884035,13.439535140991213,-1.0483176708221436,0.0927206203341484,1.2476922,0.37659842,4
1.804462194442749,14.278563499450685,-0.8112735152244568,0.2275615632534027,0.102319926,0.21227567,4
0.9428022503852844,14.316133499145508,-0.3719750940799713,0.4041221737861633,-1.1053606000000002,-0.01038471,4
-0.4563600718975067,13.506887435913086,-0.4435262084007263,0.6021696925163269,-0.53786683,-0.30757064,4
-1.4157034158706665,12.019354820251465,-0.4727967381477356,0.6805136203765869,0.8155051,-0.28252518,4
-1.6148740053176882,10.410955429077148,0.1945553869009018,0.6124800443649292,-0.33658674,-0.16157386,4
-1.1468713283538818,8.865644454956055,0.588023841381073,0.4493403136730194,-0.80909103,0.12858713,4
-0.5341795086860657,6.934006690979004,0.4877533316612244,0.3143412470817566,-0.45906523,0.31612277,4
0.028707625344395638,5.064515113830566,0.5101689696311951,0.15702752768993378,-1.0659598,0.32162055,4
0.3262312412261963,3.8492217063903813,0.5359781980514526,-0.011541351675987244,-1.2217305,0.3839288,4
0.11068715155124664,3.2776219844818115,0.4827636778354645,-0.0938808098435402,-0.38026363,0.4266894,4
-0.3325890004634857,2.9616162776947017,0.42046692967414856,-0.14674054086208346,0.46639562,0.41172317,4
-0.5824796557426453,2.705658435821533,0.4375961720943451,-0.25397154688835144,0.59681535,0.34605515,4
-0.4882064163684845,2.789824247360229,0.5886129140853882,-0.42601028084754944,0.45937067,0.5222898,4
0.001704990048892796,3.578394889831543,0.6253831386566162,-0.6670723557472229,-0.06383542,0.98990715,4
0.4295225441455841,5.337911128997803,0.6220071911811829,-0.7846435308456421,0.14385876,0.91690874,4
0.07754311710596085,7.7365570068359375,0.6008142828941345,-0.8062073588371277,1.044885,-0.8536841999999999,4
-0.5720502138137817,9.548330307006836,0.7980353832244873,-1.0724358558654783,0.84635377,-1.3683381,4
-1.2573055028915403,10.909232139587402,-0.018353912979364395,-1.21896231174469,2.7046057999999995,-1.858252,4
-0.8583997488021851,12.461450576782227,-0.206416130065918,-0.98699688911438,1.0250319,-0.5580254,4
0.027737392112612724,13.70013427734375,-0.2309566736221313,-0.5486515164375305,-0.087659165,0.24617869,4
0.5611987709999084,14.481904983520508,-0.3631433546543121,-0.05778389051556587,-0.32467487,-0.03481932,4
1.1857502460479736,15.258065223693848,-0.666907012462616,0.4569023847579956,0.46578476,0.41263947,4
1.6899516582489014,15.361133575439453,-0.37538909912109375,0.8211852312088013,0.09162979,0.72295904,4
1.3868471384048462,14.340764045715332,0.5518031716346741,0.967751145362854,-1.3778065000000002,0.29993483,4
0.31564897298812866,12.585193634033205,1.1561098098754885,1.0140055418014526,-0.9950995,0.3811799,4
-0.9693515300750732,10.506616592407227,1.6226038932800293,0.961187481880188,0.18417588,0.10476339,4
-1.8060457706451416,8.376511573791504,2.08925199508667,0.6935443282127379,-0.25473082,-0.21105394,4
-1.9659776687622068,6.4361090660095215,2.431748628616333,0.4002945721149445,-0.8356636999999999,-0.20922135,4
-1.4369280338287354,4.80803918838501,2.2743237018585205,0.23540084064006805,-1.3451253,-0.18020524,4
-0.4201452434062958,3.567356824874878,1.520641565322876,0.18910500407218933,-0.98471475,0.015882496,4
0.3043700456619263,2.8253052234649663,0.8565106987953186,0.12314032763242723,-0.40011674,0.1386664,4
0.768782377243042,2.522458791732788,0.6058048605918884,0.0255908090621233,-0.026267206,0.28252518,4
1.0532151460647583,2.512247323989868,0.6226876974105835,-0.085984006524086,0.18906279,0.5723807,4
1.0880509614944458,2.6830642223358154,0.5283441543579102,-0.22899314761161804,0.72021013,0.8173377,4
0.8368735909461975,3.1749584674835205,0.2468697130680084,-0.4021020233631134,1.3652838,0.958753,4
-0.050629612058401115,4.641674995422363,0.5008449554443359,-0.4508046507835388,1.7284433,0.6258314,4
-1.453630805015564,7.066360950469972,0.665434718132019,-0.345206618309021,-0.84238315,-1.1191051,4
-1.8028807640075684,9.306089401245117,0.5164586305618286,-0.3207884132862091,-1.6029103999999998,-0.8680395000000001,4
-1.41021728515625,11.246209144592283,-0.15782642364501953,-0.2432868629693985,-0.31734450000000003,-0.37965274,4
0.07865649461746216,12.855714797973633,-1.1627835035324097,-0.15232503414154053,1.5293012,-0.06414085,4
1.5411133766174316,14.008597373962402,-1.332186579704285,-0.06818870455026628,1.1154399,-0.17287487,4
2.0640764236450195,14.496557235717773,-1.1542967557907104,-0.045688588172197335,0.5009095,-0.110872045,4
1.6866785287857056,14.551454544067385,-0.9485969543457032,0.0314212366938591,-0.36774087,0.0842994,4
0.3408040702342987,13.685728073120115,-0.7098604440689087,0.12548927962780002,-0.03726278,-0.026267206,4
-0.8679299354553223,11.717327117919922,-0.2666396200656891,0.17308567464351654,0.7800749,-0.23732115,4
-1.081352472305298,9.585737228393556,0.5867835879325867,0.1171990931034088,-0.45906523,-0.03359759,4
-0.5943774580955505,7.6571617126464835,1.0215122699737549,-0.009498665109276772,-1.2330315,0.17531833,4
0.2441689521074295,5.722108840942383,1.1060007810592651,-0.03923637047410011,-1.6685784,0.46181414,4
1.0862998962402344,4.238449096679688,1.0596489906311035,-0.07556439191102983,-2.6279423,0.6740898,4
1.3846230506896973,3.32584285736084,0.8739336133003235,-0.14406949281692505,-1.8170186,0.5476406999999999,4
1.0066012144088743,2.7746903896331787,0.5813195109367371,-0.268264502286911,0.29626966,0.3894266,4
0.3106436133384705,2.3429946899414062,0.008330964483320713,-0.4299183189868927,1.8613064,0.18417588,4
-0.32358452677726746,1.920823693275452,-0.6002588868141174,-0.5923017859458923,2.4938574,0.18234327,4
-0.8287126421928406,1.5115644931793213,-0.9390891194343568,-0.7046937346458435,2.5867088,0.07391469,4
-1.1564764976501465,1.5527817010879517,-0.9090124368667604,-0.7531490921974182,1.9703459,0.029321533,4
-1.4410184621810913,2.915851831436157,0.3903718888759613,-0.6984154582023621,-2.5030203,-0.46853364,4
-2.088033437728882,5.583914756774902,1.2240015268325806,-0.4597981870174408,-2.7073548,-1.7611245,4
-1.7463271617889404,8.140174865722656,0.6819037199020386,-0.5682352781295776,1.1704178,-1.3414601000000002,4
-0.590004563331604,10.313912391662598,1.0136631727218628,-0.6687138080596924,-0.090713486,0.0036651916,4
0.1491849720478058,12.07026195526123,0.9975054264068604,-0.5429322719573975,-0.81397796,0.08460484,4
0.5997622013092041,13.013626098632812,0.3500479459762573,-0.32595622539520264,-0.38881573,-0.2406809,4
1.112151026725769,13.475592613220215,-0.3119457960128784,0.0036723956000059843,0.6563747,-0.3042109000000001,4
1.6147552728652954,13.693328857421875,-0.5833906531333923,0.338769406080246,1.110553,0.22174409,4
1.7357161045074463,13.353317260742188,-0.2494061440229416,0.6513235569000244,0.021380283,0.75319684,4
1.4106372594833374,12.192769050598145,0.17367379367351532,0.8942689299583435,-0.64873886,0.8045095,4
0.6961238980293274,10.324712753295898,0.4044460654258728,1.0580865144729614,-0.13133603,0.64843345,4
-0.13547903299331665,8.203218460083008,0.8919240236282349,0.9868166446685792,0.5849035,0.41325033,4
-0.7958453893661499,6.224545955657959,1.4977751970291138,0.7192423343658447,0.070554934,0.07269296,4
-1.1200356483459473,4.6291117668151855,1.5786548852920532,0.4591496288776398,0.008246681,0.0018325958,4
-1.2078816890716553,3.369285345077514,1.3212101459503174,0.339590847492218,-0.03481932,-0.05467244,4
-1.1466749906539917,2.515083312988281,1.092708945274353,0.2832023799419403,-0.09743301,-0.048258353,4
-0.9457121491432191,2.16640853881836,0.89609694480896,0.23086032271385196,-0.03726278,0.034208454,4
-0.5283064246177673,2.159991502761841,0.7944930195808411,0.13889345526695251,-0.1432479,0.17928895,4
0.0018418990075588226,2.2946035861968994,0.9029287695884703,-0.009251458570361136,-0.28191432,0.41050145,4
0.464263767004013,2.7214109897613525,1.0044312477111816,-0.23750729858875275,0.004276057,0.68783426,4
0.6560185551643372,3.612040281295776,1.0070644617080688,-0.4768871366977692,0.3921755,0.98746365,4
0.2310834378004074,5.6106953620910645,0.969950795173645,-0.624593198299408,0.8542950999999999,0.5674938,4
-0.911584496498108,8.055103302001951,1.3481749296188354,-0.6258870959281921,0.011911872,-0.77182823,4
-1.5178316831588743,9.986227035522461,1.617375731468201,-0.7726663947105408,-1.996613,-0.5522222,4
-1.9315667152404783,11.697808265686035,0.6487285494804382,-0.8208991885185242,-1.1930199,-0.64476824,4
-1.559878945350647,13.198874473571776,-0.5926973819732666,-0.7149362564086914,1.5894713,-1.2360858,4
-0.9168259501457214,14.436049461364744,-1.4143285751342771,-0.4854229092597962,2.4162774,-1.1588113000000002,4
-0.6113620400428772,15.388863563537598,-1.8328500986099243,-0.07777716219425201,1.96271,-0.8228354999999999,4
-0.3504406213760376,15.830504417419435,-1.887523412704468,0.3717450201511383,1.2333368999999998,-0.3717115,4
0.19766007363796234,15.461230278015135,-1.357953667640686,0.6983751058578491,-0.08521569999999999,0.31887165,4
0.7838841080665588,14.122183799743652,-0.3396854996681213,0.9235977530479432,-1.4645494,0.77213365,4
1.1434181928634644,12.188922882080078,0.6876310110092163,1.055583119392395,-1.8686367,0.82253003,4
1.090139627456665,10.01010513305664,1.5223993062973022,0.9169294834136964,-1.2412782,0.5910121,4
0.8349628448486328,8.082967758178711,2.20910382270813,0.5680791139602661,-0.41172317,0.5403103,4
0.3731578290462494,6.6020379066467285,2.630246877670288,0.1809258908033371,-0.25442538,0.29962940000000005,4
-0.09729978442192078,5.223058223724365,2.7164053916931152,-0.08027003705501556,-1.1004738,0.0888809,4
-0.3573535084724426,3.956748962402344,2.078294038772583,-0.2334213554859161,-0.4718934,0.13561209,4
-0.4682855606079102,2.9486961364746094,1.1262902021408079,-0.3626912236213684,0.86284715,0.124005646,4
-0.3736510872840881,2.3284213542938232,0.4184142649173737,-0.4938046634197235,1.2928963,0.27855456,4
-0.09348976612091063,2.0652725696563716,0.2152622938156128,-0.6018013954162598,0.90377516,0.5393939999999999,4
0.010567022487521172,2.0371663570404053,-0.0990532636642456,-0.6967989802360535,0.54092115,0.659429,4
-0.20454810559749606,2.5192692279815674,-0.05218951404094696,-0.7400895953178406,0.63438356,0.8347474,4
-0.6194137930870056,4.0943870544433585,1.485613226890564,-0.7100932002067566,-0.26633725,0.60231316,4
-1.1255532503128052,6.584166049957275,2.1025092601776123,-0.7057117223739624,-3.5576792,-0.91996306,4
-1.0820183753967283,8.99072551727295,1.21100914478302,-0.6595273017883301,-1.9055941000000003,-0.9972375,4
-0.052572604268789284,10.985697746276855,0.7261036038398743,-0.91133314371109,1.8567249,-1.5583171999999998,4
0.8681015968322754,12.646585464477539,0.3485231101512909,-0.8974793553352356,2.7021625,0.18081611,4
0.9453611969947816,13.905224800109865,0.3697714507579804,-0.728139340877533,0.7648033000000001,0.026572637000000003,4
0.2838957905769348,14.572714805603027,0.4968995749950409,-0.4134535491466522,-0.26297748,-0.52870387,4
-0.06475565582513809,14.86692714691162,0.017232177779078484,-0.002649578265845776,0.7886270000000001,-0.7031059000000001,4
-0.02143730595707893,14.610915184020994,-0.24631214141845706,0.4406232535839081,1.4957036,-0.4877759,4
0.18476685881614685,13.760590553283693,0.08011951297521591,0.8185599446296692,1.185384,-0.18203785,4
0.5365302562713623,12.202439308166506,0.7660645246505737,1.0383273363113403,-0.028099801,0.23945917,4
0.9634386301040648,10.146990776062012,1.4426668882369995,1.0898920297622678,-1.2522738000000002,0.4783075,4
1.1254961490631104,8.243955612182617,1.828758716583252,0.9805679917335509,-1.1175779,0.6582073,4
0.8629021048545837,6.543586254119872,2.3305439949035645,0.7533623576164246,-1.2357804,0.56230146,4
0.35302209854125977,5.1992363929748535,2.5579543113708496,0.4310115277767181,-0.73884153,0.29016098,4
-0.21761484444141388,4.154763698577882,2.229201555252075,0.18269966542720795,0.1151481,0.15057829,4
-0.5760678052902222,3.305142641067505,1.6157059669494631,0.04523210227489472,0.7153232,0.08093964,4
-0.692229151725769,2.6437995433807373,0.991333782672882,-0.06750725954771042,0.5681046999999999,0.036957346,4
-0.5002921223640442,2.1829972267150883,0.4029448926448822,-0.1839858740568161,-0.1695151,0.08582657,4
-0.05488384887576103,1.8161172866821291,-0.043186087161302567,-0.3670401573181152,-0.5491679,0.076052725,4
0.4291847944259644,1.7796170711517334,-0.2186412662267685,-0.5474813580512999,-0.43096542,0.30085114,4
0.4000178575515747,2.498269557952881,-0.026955079287290573,-0.5649052858352661,1.003957,0.4120286,4
-0.4771289229393005,4.638856887817383,0.2703913748264313,-0.3611858487129211,0.22174409,-0.6988298000000001,4
-1.8610072135925293,7.262972354888916,0.3292824327945709,-0.15595145523548126,-0.589485,-1.3646729,4
-1.7588434219360352,9.600748062133787,0.7997406125068665,-0.13149206340312958,-0.9279043,-0.6105598000000001,4
-0.6537014842033386,11.54237174987793,0.8258230090141296,-0.11038588732481004,-0.087659165,0.78954333,4
-0.7264065146446228,12.985350608825685,0.4223286807537079,-0.04307572171092034,1.0012082,0.12705997,4
-1.5009297132492063,13.61742115020752,0.14759983122348785,0.053222190588712685,1.1050552,-0.7495316,4
-1.916409969329834,13.466809272766113,0.01111849583685398,0.17297030985355374,0.6600399,-1.02717,4
-1.616659164428711,12.804924011230467,-0.3039640486240387,0.33130285143852234,0.816116,-0.8405505999999999,4
-0.754967987537384,11.672163963317873,-0.3678441345691681,0.5167503952980042,1.3964379999999998,-0.14874569,4
0.20790070295333865,10.026995658874512,0.3043295443058014,0.6537628173828125,-0.103847094,0.54611355,4
0.9408037066459656,8.179383277893066,0.8176472187042236,0.6645013093948364,-0.20311269,0.9086621,4
1.2932448387145996,6.305418014526367,1.293591022491455,0.5648793578147888,-0.8072583999999999,0.99082345,4
1.1557819843292236,4.897327899932861,1.5207688808441162,0.3623831570148468,-1.273654,0.7318166,4
0.4827461540699005,3.909651041030884,1.323147535324097,0.21515440940856934,-0.30970868,0.21502456,4
-0.4240210950374603,3.1191103458404537,1.0742408037185671,0.11248210817575456,0.8897252,-0.069027774,4
-1.1199562549591064,2.505972385406494,0.8767316341400146,0.023687822744250298,0.7874053000000001,-0.17562376,4
-1.3738114833831787,2.0574085712432857,0.8119764924049377,-0.06914632022380829,-0.3155119,-0.20708331,4
-0.8587270379066467,1.6925716400146484,0.5953903198242188,-0.2420448958873749,-0.8536841999999999,-0.6423248,4
-0.1745922565460205,2.133166551589966,0.4811466634273529,-0.4081595242023468,-0.72295904,0.68416905,4
-0.13367916643619535,3.77991247177124,0.8834546208381653,-0.42781344056129456,-0.2782491,0.8381071,4
-0.6376644372940063,6.285355091094972,0.6373193264007568,-0.2658891975879669,-1.3109168,-0.20219639,4
-0.8272354006767273,8.657205581665039,0.6779223680496216,-0.14532281458377838,-2.0073032,-0.4456262,4
-0.7970047593116759,10.55576992034912,0.8743715286254883,-0.08597784489393234,-2.2971587,-0.29626966,4
-0.7194086909294128,12.2625732421875,-0.6829342842102051,-0.013139801099896431,2.0357084,-0.25900686,4
-0.3321576416492462,13.665352821350098,-1.7782653570175169,0.08907373249530792,2.2119431,-0.6236934000000001,4
0.0023789219558238983,14.529128074645994,-1.3642675876617432,0.2503749132156372,0.9941832,-0.50335294,4
-0.1282711625099182,14.618111610412598,-0.5648162364959717,0.35181206464767456,-0.119729586,-0.27672195,4
-0.5322166085243225,14.042291641235352,-0.15206119418144226,0.3711096942424774,-0.30726522,-0.12217305,4
-0.7687948346138,12.726672172546387,-0.027785809710621837,0.3449009358882904,-0.14569137,-0.03268129,4
-0.6398336887359619,10.83791732788086,0.04882049188017845,0.2779727578163147,-0.007330383,0.23090707,4
-0.15253251791000366,8.762530326843263,0.06702795624732971,0.15933580696582794,0.19517145,0.45631635,4
0.4473495781421661,6.690075874328612,-0.02238312549889088,0.04811522737145424,-0.25137106,0.5900958000000001,4
0.7520934939384459,4.757716655731201,-0.2912205159664154,0.0005187421338632703,-0.8732319,0.33139440000000003,4
0.7020347118377686,3.3545620441436768,-0.4458014667034149,0.005242957267910242,-0.36132678,0.12461651,4
0.26909181475639343,2.660386323928833,-0.3714807033538817,0.0418819859623909,0.43860126,-0.058643065,4
-0.1928728222846985,2.4052107334136963,-0.17488369345664978,0.042495258152484894,0.57604593,-0.10476339,4
-0.3174877166748047,2.3181726932525635,0.01849379763007164,-0.033364813774824136,0.6560693,0.0015271631,4
-0.014562365598976612,2.450915813446045,0.5474803447723389,-0.20786169171333316,0.96974856,0.26083946,4
0.5920036435127258,3.1865711212158203,1.1228413581848145,-0.5261462926864624,0.28099802,0.8912524,4
0.9496394395828248,4.500002384185791,1.161496877670288,-0.8010103106498718,-0.32498032,1.2788464,4
0.22998714447021484,6.697562217712402,0.6313644051551819,-0.8309296369552612,1.5176947,0.6301074999999999,4
-1.1302419900894165,8.864609718322754,0.9772948622703552,-0.7589141130447388,0.3915646,-1.3356569,4
-1.135683536529541,10.157469749450684,0.5159712433815002,-0.8460962772369385,-0.1518,-1.0183123,4
-0.3362833857536316,11.76718807220459,-0.9377224445343018,-0.7860395908355713,2.3075435,-0.19700404,4
0.693872332572937,13.115344047546387,-1.4823027849197388,-0.5140910744667053,1.6814066000000003,-0.06383542,4
1.1966593265533447,14.036476135253904,-1.2957080602645874,-0.2211424559354782,0.41783184,0.42485678,4
1.006600022315979,14.852042198181152,-1.0980708599090576,0.08603691309690475,-0.34116822,0.4297437,4
0.2769840955734253,15.346219062805176,-0.947973906993866,0.33342570066452026,-0.54702985,0.38881573,4
-0.5847980976104736,14.915677070617676,-0.5888725519180298,0.4652335047721863,-0.91324353,0.4456262,4
-1.4366796016693115,13.462099075317385,-0.10208707302808763,0.5321443080902101,-0.68233645,0.045814894,4
-1.9685343503952024,11.572179794311525,0.32254648208618164,0.5169077515602112,-0.23457226,-0.15057829,4
-1.7188564538955688,9.555834770202637,0.7362228631973267,0.4041437208652496,-0.5494733,-0.19120082,4
-1.0393236875534058,7.378296852111816,0.6816145777702332,0.2614499032497406,-0.4709771,-0.03268129,4
-0.2392321228981018,5.438331127166748,0.5311892628669739,0.17855346202850342,-1.0283916,0.27672195,4
0.1774735003709793,4.172175407409668,0.36539652943611145,0.1010371595621109,-1.176221,0.25992316,4
0.14259089529514313,3.323939085006714,0.16851964592933655,0.04873547330498696,-0.17837265,0.17379116,4
-0.043308075517416,2.738745212554932,0.15443092584609985,-0.010139903984963894,0.44409904,0.14446963,4
-0.16629542410373688,2.394850730895996,0.3289690613746643,-0.10958413034677504,0.38087448,0.18203785,4
-0.20588168501853946,2.243283987045288,0.4014129638671875,-0.2477171272039413,0.6310238,0.28008172,4
-0.13020646572113034,2.483593463897705,0.43724709749221796,-0.3814863860607147,0.4370741,0.5534439,4
-0.07948008179664612,3.577866077423096,0.6636112928390503,-0.4100940525531769,0.39278635,0.63255095,4
-0.6989464163780212,5.98213005065918,0.07096659392118454,-0.3086625039577484,-0.64476824,-0.9746355,4
-0.956941306591034,8.261013031005861,0.08710195124149323,-0.27722451090812683,-2.021353,-0.7837400999999999,4
-0.5575578808784485,9.91064167022705,0.5790565609931946,-0.3348038494586945,-0.20891592,-0.27855456,4
-0.2750067114830017,11.641753196716307,-0.2700832784175873,-0.4043605327606201,1.4181237,-0.1563815,4
0.3079142570495605,13.124518394470215,-0.71759033203125,-0.2895173132419586,1.0525209,-0.36254853,4
0.4967487454414368,13.790268898010256,-0.4931411743164063,-0.11611851304769515,-0.12522738,-0.34330627,4
0.4464096128940582,14.030698776245115,-0.3887850940227509,0.10087012499570848,0.08704830000000001,-0.32345316,4
0.4794594645500183,13.795690536499025,-0.16887104511260986,0.28625696897506714,0.30879238,-0.09712757,4
0.5701784491539001,12.89171314239502,0.22115105390548706,0.34829482436180115,-0.22999077,0.31948254,4
0.4449823498725891,11.302997589111328,0.4074178338050842,0.3186481297016144,-0.32803464,0.38026363,4
0.2464565485715866,9.445208549499512,0.4476017057895661,0.22358974814414975,0.20250183,0.45173484,4
0.09849943965673448,7.4795074462890625,0.3977035582065582,0.04684315621852875,0.31215215,0.4361577999999999,4
0.08534150570631027,5.2734718322753915,0.3973599672317505,-0.07889433950185776,-0.5885687,0.39187005,4
-0.005096280016005039,3.408186674118042,0.3129563331604004,-0.11079216003417967,-0.9425651,0.25992316,4
-0.39719995856285095,2.256309986114502,-0.09386685490608217,-0.06887450069189073,0.003970624,0.06994407,4
-0.7424963116645813,1.6713290214538574,-0.3987737596035004,-0.010454373434185982,0.4465425,-0.09468412,4
-0.6510018706321716,1.4447404146194458,-0.34372040629386896,-0.014266660436987875,0.08827003,-0.043676864,4
-0.07400938868522644,1.582589030265808,0.00808810442686081,-0.10026802867650986,-0.36041048,0.2919936,4
0.7547103762626648,2.2297751903533936,0.7544339895248413,-0.27189722657203674,-1.1114693000000002,0.86529064,4
1.5258283615112305,3.6259374618530273,1.643419861793518,-0.5380322337150574,-1.0714576,1.4911219999999998,4
1.6886804103851318,6.054466724395753,2.3361949920654297,-0.6989278197288513,1.3799446000000002,0.50762904,4
0.18421222269535065,8.346510887145996,1.7920739650726318,-0.7616400122642517,0.9966267,-0.5479460999999999,4
-0.8220495581626892,9.304182052612305,0.7274439930915833,-0.8713422417640686,-0.58276546,-0.49418998,4
-1.5368820428848269,10.803464889526367,-0.5698055028915405,-0.7401974201202393,0.6084218000000001,-0.61422503,4
-0.8501156568527222,12.389450073242188,-1.1017544269561768,-0.3822855353355408,1.3261883999999995,-0.34483343,4
0.7497984170913696,13.63087272644043,-0.8667000532150269,-0.036887235939502716,0.441961,-0.055283304000000005,4
1.462882161140442,14.685195922851562,-0.30848366022109985,0.2298097014427185,-0.1133155,-0.183565,4
1.2153502702713013,15.434306144714355,-0.10086849331855774,0.4026847183704376,0.8069529999999999,-0.5665775,4
0.5269758701324463,15.290115356445312,0.2525763511657715,0.4377482533454895,0.6948592,-0.41630468,4
-0.2902089059352875,14.130013465881348,0.5691851377487183,0.41642409563064575,0.06688975,-0.25625798,4
-0.9340090751647948,12.184978485107422,0.7716352939605713,0.4570966362953186,0.13622294,-0.3359759,4
-1.1359773874282837,9.869956970214844,1.1980866193771362,0.44857779145240784,-0.52564955,-0.15088372,4
-0.7253881096839905,7.604837894439697,1.5949162244796753,0.29146456718444824,-1.0384709,0.08124508,4
0.3097727298736572,5.838192939758301,1.6614969968795776,0.10768450051546097,-1.790446,0.6914994999999999,4
1.2122423648834229,4.697824001312256,1.3672775030136108,0.05718587711453438,-1.998751,0.7519751,4
1.4469411373138428,3.8287274837493896,1.0333517789840698,0.040921099483966834,-1.3796391,0.52290064,4
1.0297520160675049,3.0996713638305664,0.7013654112815857,-0.0408899188041687,0.08857546,0.32834008,4
0.4534562528133392,2.55800724029541,0.3923478424549103,-0.19229742884635925,1.4825699,0.19394971,4
0.0017394275637343526,2.1345670223236084,0.14769788086414334,-0.3691338896751404,1.9468275,0.21930063,4
-0.2396291345357895,1.853052258491516,-0.024776767939329147,-0.4948347806930542,1.7629571,0.29718593,4
-0.3942444026470184,1.8718608617782595,-0.01852971129119396,-0.5317381024360657,1.1377366000000002,0.2733622000000001,4
-0.5513185858726501,2.790493965148926,0.21812114119529724,-0.5326955318450928,-0.093462385,0.08307768,4
-1.0516414642333984,5.212581157684326,0.14689037203788755,-0.3930629789829254,-2.0393736,-1.328021,4
-1.2974261045455933,7.795349597930907,0.22435832023620605,-0.16687417030334473,0.16982053,-1.2776246,4
-1.175865888595581,10.046408653259276,0.3885099589824677,-0.216049998998642,0.07086037,-0.94806284,4
-0.3784013986587525,11.899288177490234,0.14107929170131686,-0.19098547101020813,0.5458081,0.40011674,4
0.36564552783966064,13.194299697875975,0.14997079968452454,-0.028992312029004094,-0.30909783,0.116675265,4
0.5820801258087158,13.530895233154295,-0.12781432271003726,0.1172436997294426,0.05955936,-0.023518313,4
0.4532753527164459,13.452799797058105,-0.2283748537302017,0.2857237160205841,0.18295415,-0.15913039999999998,4
0.17737916111946106,13.067246437072756,-0.11958047747612,0.439140260219574,0.13041973,-0.10751228,4
-0.2282184064388275,11.943399429321287,0.13935865461826324,0.5412649512290955,0.21013765,0.08307768,4
-0.7255169749259949,9.928858757019043,0.5614327788352966,0.6169358491897583,-0.17409660000000002,0.11759156,4
-0.6734597682952881,7.778684616088867,1.2247859239578247,0.535873293876648,-0.44165558,0.08216137400000001,4
-0.16930051147937775,5.913187026977539,1.5618677139282229,0.3668066263198853,-0.9202685,0.20311269,4
0.4308042824268341,4.572497844696045,1.534186601638794,0.20650061964988708,-1.5711454,0.46792278,4
0.6353416442871094,3.6109118461608887,1.2576321363449097,0.09513794630765916,-1.9275852,0.26542094,4
0.3846143186092377,2.8875086307525635,0.8251210451126099,0.004515849053859711,-0.77457714,0.17531833,4
-0.09010864049196243,2.395225048065185,0.3948432505130768,-0.09232917428016664,0.9737192,0.09468412,4
-0.4584074020385742,2.123899221420288,0.22035253047943115,-0.2163345217704773,1.3909402,0.110872045,4
-0.5674853324890137,2.113965511322021,0.2494557350873947,-0.3731294274330139,1.2947289,0.20616703,4
-0.4896581172943115,2.494762420654297,0.2832632958889008,-0.5659074783325195,1.2660183,0.50335294,4
-0.4518499374389648,3.3898546695709233,0.6305639743804932,-0.6520053148269653,0.63499445,0.623388,4
-0.7576021552085876,5.525157928466797,0.9845978617668152,-0.5831957459449768,-1.4440855,-0.30298916,4
-1.2214072942733765,8.024269104003906,0.8790785074234009,-0.4389244914054871,-1.8887954,-1.028697,4
-0.7764666676521301,10.223799705505373,1.1383605003356934,-0.4186355173587799,-0.44165558,-0.61727935,4
0.5247594118118286,12.039464950561525,0.8207579255104065,-0.4797429144382477,0.47739118,0.4654793,4
1.1531188488006592,13.50833797454834,0.6724682450294495,-0.4637433290481568,1.2226468,-0.13897185,4
0.7670039534568787,14.577266693115234,0.19848810136318207,-0.3555320203304291,0.93218035,-0.34574974,4
0.2617320120334625,15.075857162475586,-0.21214009821414948,-0.02726097032427788,-0.047036625,-0.3726278,4
-0.3580836653709412,14.93934726715088,-0.2691549956798553,0.3639768064022064,0.24251351,-0.47647488,4
-0.5283054709434509,14.140265464782715,0.11277379840612413,0.5764524340629578,0.08552113,-0.09560041,4
-0.1842106729745865,12.652997970581055,0.4883669316768646,0.6822518110275269,-0.63591075,0.23976462,4
0.2616955935955048,10.634653091430664,0.5885838270187378,0.7450353503227234,-0.657291,0.50762904,4
0.6755746603012085,8.477120399475098,0.9485636353492736,0.7323323488235474,-0.9114109,0.6026186,4
0.930974543094635,6.5718326568603525,1.6480919122695925,0.5606324076652527,-1.4410311000000002,0.70188415,4
0.5800831317901611,5.255259990692139,1.9702380895614624,0.2850431799888611,-1.1117748,0.4352415,4
-0.16655713319778442,4.211125373840332,1.8232146501541135,0.10504678636789322,0.0067195175,0.121256754,4
-0.8195530772209167,3.380707263946533,1.4631712436676023,-0.04528490826487541,0.9825767,-0.10751228,4
-1.229042410850525,2.7235422134399414,1.0367627143859863,-0.17433252930641174,1.0986412,-0.19975294,4
-1.0926026105880735,2.2404873371124268,0.6766976714134216,-0.27025163173675537,0.65087694,-0.092240654,4
-0.5768331289291382,1.95749032497406,0.3311668634414673,-0.3624229431152344,0.4981606,0.18570304,4
-0.03856094554066658,2.0556750297546387,0.00946657545864582,-0.5224002003669739,0.7855727,0.4361577999999999,4
0.19708095490932465,3.0568199157714844,0.5105752348899841,-0.5672935247421265,0.89827734,0.5928446999999999,4
0.028666799888014793,5.423945426940918,1.284638285636902,-0.4777412116527557,-0.72601336,-0.21288654,4
-0.5620244145393372,7.977019309997559,0.9657583832740784,-0.43213212490081787,-0.8054258000000001,-1.1551461,4
-0.9534450769424438,10.195746421813963,0.5919187664985657,-0.4880520105361938,1.4300356,-1.0027353,4
-0.8580740094184875,12.020365715026855,0.7137113213539124,-0.4672151207923889,0.05009095,0.15913039999999998,4
-0.25753822922706604,13.496634483337402,0.8612987399101257,-0.3227472007274628,-0.7696901999999999,-0.013744468,4
0.14129149913787842,14.420910835266113,0.6413772106170654,-0.1173018291592598,-0.3268129,-0.1133155,4
0.3122216761112213,14.64438247680664,0.26899585127830505,0.1649920791387558,0.6224717,-0.33200526,4
0.35727742314338684,14.309816360473633,0.12172529101371765,0.3998827040195465,0.43951756,-0.3145956,4
0.31900355219841003,13.332378387451172,0.282910019159317,0.5504201650619507,0.17837265,-0.02076942,4
0.21801885962486267,11.599320411682127,0.7131245732307434,0.6496684551239014,-0.07360926,0.31520647,4
0.2836309969425201,9.495819091796877,1.4046770334243774,0.6323614716529846,-0.24740042,0.5222898,4
0.5232526659965515,7.585191249847412,1.8235297203063965,0.4963575005531311,-0.6719518,0.66614854,4
0.7274413704872131,5.920451641082764,2.060064554214477,0.3203141093254089,-2.1988094,0.6432411,4
0.5599764585494995,4.717453002929688,1.893993616104126,0.13417093455791473,-1.8527542,0.4709771,4
0.16695564985275269,3.79649806022644,1.7031853199005127,-0.06750913709402084,-0.73731434,0.3277292,4
-0.3434966802597046,3.1113107204437256,1.3707033395767212,-0.3538205027580261,1.6077974,0.040317107000000005,4
-0.9220819473266602,2.5621297359466557,0.6478453278541565,-0.6814724802970886,3.4000760000000003,0.071776666,4
-1.278300166130066,1.9954589605331419,-0.1691524088382721,-0.8227677941322327,2.931237,0.14172074,4
-1.1962077617645264,1.434736967086792,-0.6547763347625732,-0.7820338606834412,0.8335256,-0.02321288,4
-0.7723223567008972,1.3078927993774414,-0.5942986607551575,-0.6666628122329712,-0.8206975000000001,0.22021692,4
-0.4040111005306244,2.253117561340332,0.21226336061954496,-0.5506906509399414,-1.4596626,0.2779437,4
-0.7429318428039551,4.750462055206299,1.280951976776123,-0.3129337728023529,-1.0341948,-1.1392636,4
-1.3521612882614136,7.4311442375183105,1.5273842811584473,-0.3270157873630524,-1.2547172,-0.8539896,4
-1.0984337329864502,9.754663467407227,1.3382983207702637,-0.3342981040477753,0.64965516,-0.27488935,4
-0.049999192357063287,11.665318489074707,1.4716051816940308,-0.2404913753271103,0.031154128,0.6762278,4
0.7263289093971252,13.073080062866213,1.076706051826477,-0.06015292927622795,0.7635816,-0.06078109,4
0.929309606552124,13.803400039672852,0.6003191471099854,0.15864330530166626,1.3888022,-0.18417588,4
0.633014976978302,14.294300079345705,0.3996396958827973,0.3861452639102936,0.3622431,-0.064446285,4
-0.16063441336154938,13.949366569519045,0.7455806732177734,0.6181914210319519,-0.5873469,0.17287487,4
-0.9367046356201172,12.652331352233887,1.229026436805725,0.7928232550621033,-0.42149702,0.0983493,4
-1.176231861114502,10.617210388183594,1.7701516151428225,0.8291594386100769,-0.2565634,0.08643743400000001,4
-0.8169366121292114,8.66586971282959,1.9545083045959477,0.6489580869674683,-0.4202753,0.29657507,4
-0.2643461227416992,6.757566928863525,1.8304300308227541,0.4392962157726288,-1.2082913999999998,0.51068336,4
0.2287881374359131,4.932931900024414,1.4286730289459229,0.2986852526664734,-1.8704693,0.39003745,4
0.4963010251522064,3.4075915813446045,1.0608291625976562,0.2167893648147583,-1.6203201,0.2415972,4
0.3510033488273621,2.348206043243408,0.7752492427825928,0.15163511037826538,-0.34238997,0.112399206,4
-0.05627945810556412,1.8274750709533687,0.5170487761497498,0.10714203864336014,0.6630941999999999,0.15515977,4
-0.25846925377845764,1.6163269281387331,0.3620351254940033,0.06663457304239273,0.6914994999999999,0.24007004,4
-0.10151255875825882,1.573555588722229,0.23123076558113095,0.025098750367760655,0.2452624,0.3472769,4
0.2596805989742279,1.589397668838501,0.2237747609615326,-0.04971795156598091,-0.13744467,0.44684792,4
0.3888452053070069,1.840331077575684,0.4911792576313019,-0.18675319850444794,0.3436117,0.5497787,4
0.13130708038806915,2.836430549621582,0.922956883907318,-0.3984222710132599,1.1026118,0.6206391,4
-0.699246346950531,5.221723556518555,1.6437538862228394,-0.4924480319023132,0.88514376,-0.25809056,4
-1.6779348850250244,7.7691893577575675,1.2594549655914309,-0.5226678252220154,-0.56321776,-1.6136005,4
-1.3287378549575806,9.806800842285156,0.8382552862167358,-0.5955251455307007,0.03268129,-0.77824235,4
0.3894261121749878,11.647662162780762,1.1560148000717163,-0.5461337566375732,-0.8368853999999999,0.4783075,4
1.7363775968551636,13.116097450256348,1.1721581220626829,-0.5247434973716736,-1.5632042,0.74097955,4
1.2943013906478882,14.199774742126465,0.7431927919387817,-0.33933356404304504,0.5910121,-0.26572640000000003,4
0.2588934898376465,15.168941497802734,0.1756826788187027,-0.06407807022333145,2.081218,-0.84665924,4
-0.578375518321991,15.740169525146484,0.317514032125473,0.190609872341156,1.2611313,-0.5015204000000001,4
-1.072510004043579,15.36390781402588,0.9050931930541992,0.3998021185398102,0.41813725,-0.22571471,4
-1.16923725605011,13.939587593078613,1.2181068658828735,0.4700871706008911,0.29168814,-0.20250183,4
-1.009119153022766,11.852499961853027,1.2040693759918213,0.4575090110301971,0.37751472,-0.16707164,4
-0.7008242607116699,9.489520072937012,1.218411922454834,0.39973145723342896,-0.06750060599999999,0.022296581,4
-0.3028668761253357,7.385200500488281,1.363403558731079,0.2381500899791717,-0.7296785,0.17043139999999998,4
0.260274201631546,5.78636646270752,1.2959059476852417,0.07902728766202928,-1.4095715,0.36957347,4
0.7247226238250732,4.618733882904053,0.9272620677947998,-0.019995637238025662,-1.3219124,0.34391713,4
0.8506017327308655,3.5168340206146236,0.6166400313377379,-0.06615214794874191,-0.6072,0.28313604,4
0.6200306415557861,2.548473358154297,0.2812098264694214,-0.09056223183870317,0.6047566,0.08032878,4
0.2582294046878815,1.9307785034179688,0.07367200404405594,-0.12022414803504945,1.6105462,-0.057421334,4
-0.06098601967096329,1.6812347173690796,0.13933640718460086,-0.16113905608654022,1.4905111999999998,0.02687807,4
-0.18780632317066195,1.6961593627929688,0.4229848086833954,-0.1818230003118515,0.31703907,0.09193522,4
-0.052930336445569985,2.238682508468628,0.675792396068573,-0.2627997398376465,-0.77946407,0.33414328,4
0.020800041034817696,3.76092529296875,1.2664906978607178,-0.3520149886608124,-1.258077,0.47616947,4
-0.4617321491241455,6.308166980743407,2.5346248149871826,-0.2918814718723297,-1.2773192,0.06597344599999999,4
-1.151072978973389,8.547214508056639,2.4635603427886963,-0.4879474937915802,-1.069625,-0.18661933,4
-1.537274718284607,9.930997848510742,1.1956151723861694,-0.6681528091430664,-0.21166481,-0.8503244000000001,4
-0.8702646493911743,11.566272735595705,0.32306769490242004,-0.7440534830093384,0.8524625,-0.27275133,4
0.5017729997634888,13.008249282836914,-0.04749390110373497,-0.6022019982337952,1.0430524,-0.39920044,4
0.9849945902824402,13.922826766967773,-0.4190583527088165,-0.34406211972236633,0.9801333,-0.7626653,4
1.0529690980911257,14.729714393615724,-0.7223363518714905,-0.01145740132778883,1.2315043,-0.52931476,4
1.1162230968475342,15.371954917907715,-0.9053413271903992,0.3636611998081207,0.96974856,0.22235495,4
0.777772068977356,15.208636283874512,-0.4031112194061279,0.6737430691719055,0.00580322,0.3323107,4
0.08462114632129669,13.698101043701172,0.2199002355337143,0.8421494960784912,-0.37110063,0.34238997,4
-0.4640892148017883,11.553995132446287,0.7651121020317078,0.9393970370292664,-0.5338961999999999,0.20158553,4
-0.6065628528594971,9.387358665466307,1.4373633861541748,0.8443177938461304,-0.68416905,0.22693644,4
-0.4634632766246796,7.303759574890138,1.867796301841736,0.5801749229431152,-0.95447695,0.3042109000000001,4
-0.16895641386508942,5.440773010253906,1.8745321035385127,0.33744511008262634,-1.3649784,0.29535335,4
0.030714621767401695,4.011308193206787,1.5828192234039309,0.21305082738399506,-1.5757268999999998,0.17287487,4
0.0567970797419548,3.0368218421936035,1.1440798044204712,0.15752892196178436,-0.82894415,0.16676621,4
-0.010256297886371613,2.4596166610717773,0.6295045614242554,0.08617036789655685,0.44135013,0.13408493,4
-0.004869801923632622,2.11880874633789,0.2596893310546875,-0.028160151094198223,0.90194255,0.15241088,4
0.15377672016620636,1.9664430618286133,0.13967680931091309,-0.1433659791946411,0.6374379,0.29138273,4
0.4153462052345276,1.9725294113159182,0.15668973326683044,-0.2671554088592529,0.43035457,0.49174652,4
0.4874438047409058,2.437516450881958,0.15029071271419525,-0.3824041783809662,0.3820962,0.79045963,4
0.03824126720428467,4.034446239471436,0.4046168625354767,-0.419041633605957,0.46395215,0.75441855,4
-1.078106164932251,6.583611011505128,1.0873236656188965,-0.3248589634895325,-0.36254853,-0.6102544,4
-1.4294034242630005,8.881547927856445,1.3069895505905151,-0.3931331932544708,-1.3805555,-0.84635377,4
-1.2395548820495603,10.781852722167967,0.39541095495224,-0.5118476748466492,0.15485434,-0.99296147,4
-0.4147893786430359,12.454880714416506,0.05584273487329483,-0.5715418457984924,1.0833695,-0.36987892,4
0.18485227227211,13.720556259155273,-0.11750587821006775,-0.450201153755188,0.0067195175,-0.6899723000000001,4
0.4032340347766876,14.518744468688965,-0.2862447500228882,-0.2243368923664093,-0.50671273,-0.7174611999999999,4
0.4842318296432495,15.030454635620115,-0.4348397254943848,0.06018342450261116,-0.29993483,-0.58184916,4
0.5880123972892761,14.98708724975586,-0.5007745027542114,0.3291964530944824,0.6759224,-0.11026118,4
0.6659186482429504,14.098039627075195,-0.17473407089710236,0.5544958710670471,0.84207773,0.26389378,4
0.6681826114654541,12.37746810913086,0.2844207882881165,0.6688618063926697,0.5876524000000001,0.40561453,4
0.6048405170440674,10.156832695007324,0.7264963984489441,0.6964396238327026,0.1432479,0.49510628,4
0.4313551187515259,7.855020046234131,1.2273136377334597,0.5766974091529846,-0.24953845,0.5320636,4
0.20845681428909305,5.845701217651367,1.4626342058181765,0.399011492729187,-0.45142943,0.3191771,4
0.0015320988604798913,4.359935760498047,1.5078444480895996,0.2238541692495346,-0.54733527,0.14049901,4
-0.08273990452289581,3.3801183700561523,1.3767834901809692,0.11604496091604233,-0.5109888,0.09437868,4
-0.06873060762882233,2.802912473678589,1.0314654111862185,0.05986017361283302,-0.12675454,0.21166481,4
0.018551165238022804,2.46512222290039,0.6613324284553528,-0.042699433863162994,0.37720928,0.33322698,4
0.14194855093955994,2.2644760608673096,0.413203239440918,-0.1908581554889679,0.61086524,0.47739118,4
0.18611876666545868,2.1755499839782715,0.2133031934499741,-0.34403592348098755,1.0671816,0.6026186,4
0.041413743048906326,2.5340006351470947,0.29426634311676025,-0.4927845597267151,1.4327843999999998,0.6933321,4
-0.5324366092681885,4.1860084533691415,1.1858124732971191,-0.5365254878997803,0.8228354999999999,0.34055737,4
-1.199912667274475,6.744019031524657,1.651038646697998,-0.4129071235656738,-2.4135287,-1.176221,4
-0.8641899824142456,9.025715827941896,1.1740498542785645,-0.5610798001289368,-1.1808025,-0.5036584,4
-0.7221835255622864,10.806548118591307,0.7065001130104065,-0.6390023827552795,-0.1777618,-0.1441642,4
