acc_x,acc_y,acc_z,gyro_x,gyro_y,gyro_z,label
0.0,0.0,0.0,0.0,-0.008246681,-0.0021380284,1
0.044743284583091736,-0.28028348088264465,-0.02309579215943813,-0.0018219681223854425,-0.025045475,0.0125227375,1
0.1532171070575714,-0.9487886428833008,-0.07962752878665924,-0.005805522669106722,-0.017104227,0.0061086523,1
0.3061918616294861,-1.8742170333862305,-0.16020040214061734,-0.010632376186549664,-0.0076358155,0.013744468,1
0.4811142086982727,-2.910944700241089,-0.2533855736255646,-0.0142467450350523,-0.029626964,0.010995574,1
0.6591132283210754,-3.9416780471801762,-0.3493971526622772,-0.016313632950186733,-0.004276057,0.02565634,1
0.8278161883354187,-4.892624378204347,-0.4416665434837341,-0.018488725647330284,0.007941248,0.02565634,1
0.9772160053253174,-5.728063106536865,-0.5243916511535645,-0.02088497206568718,0.002443461,0.015882496,1
1.1003785133361816,-6.438468933105469,-0.5932494401931763,-0.023674082010984417,0.055588737,0.01038471,1
1.1989737749099731,-7.030071258544923,-0.6490697860717773,-0.027668880298733708,0.0580322,0.012217305,1
1.2759209871292114,-7.515993595123291,-0.693371593952179,-0.03158169984817505,0.05131268,0.003970624,1
1.3344483375549316,-7.911450386047362,-0.7278560400009155,-0.035666704177856445,0.084910266,0.016187929,1
1.377665400505066,-8.231268882751465,-0.7541669607162476,-0.03769650310277939,0.100792766,0.015271631,1
1.4082987308502195,-8.488752365112305,-0.7737546563148499,-0.038399480283260345,0.093767814,0.01160644,1
1.4286962747573853,-8.695342063903809,-0.7878679633140564,-0.037867005914449685,0.08093964,0.0143553335,1
1.4408119916915894,-8.860624313354492,-0.7975478768348694,-0.03649059683084488,0.10048734,0.020463986,1
1.4462188482284546,-8.992494583129883,-0.8036381006240845,-0.037660080939531326,0.0842994,-0.0030543262,1
1.4419429302215576,-9.103864669799805,-0.7961932420730591,-0.03453372046351433,0.022296581,-0.04428773,1
1.424511432647705,-9.207012176513672,-0.7642725706100464,-0.041916310787200935,0.034513887,0.0030543262,1
1.396364688873291,-9.303668975830078,-0.7124173045158386,-0.04527156800031662,0.046731193,0.01740966,1
1.3595950603485107,-9.395109176635742,-0.644520103931427,-0.04633073881268501,0.01038471,0.027183503,1
1.3157366514205933,-9.482510566711426,-0.563435971736908,-0.045627254992723465,0.0076358155,0.03268129,1
1.2664963006973269,-9.56635856628418,-0.4723381102085114,-0.04673390835523605,-0.022296581,0.013439035,1
1.212794303894043,-9.647485733032227,-0.37293940782547,-0.05863063037395477,-0.17501289,-0.044898596,1
1.1554914712905884,-9.726441383361816,-0.2668417692184448,-0.06579918414354324,-0.17562376,-0.013744468,1
1.0953052043914795,-9.803643226623537,-0.1553800106048584,-0.04060214757919312,0.043982297,0.09590584,1
1.0328024625778198,-9.879438400268556,-0.0396084263920784,0.020343665033578876,0.12492194,0.23640485,1
0.9474769830703736,-9.996036529541016,0.11064768582582474,0.10645558685064316,0.16676621,0.3894266,4
0.8173450827598572,-10.198378562927246,0.3277825117111206,0.2551183104515076,0.11056661,0.53023106,4
0.6512298583984375,-10.469579696655273,0.5986257791519165,0.4794413149356842,0.009468411,0.77091193,4
0.4562934339046478,-10.795947074890137,0.9124813079833984,0.8275364637374878,-0.41386122,1.0638218000000002,4
0.2381115257740021,-11.166794776916504,1.2610348463058472,1.32623553276062,-1.1258247,1.3640621000000002,4
0.0012864695163443685,-11.573321342468262,1.6374144554138184,1.865571975708008,-1.5366315000000002,1.3884968,4
-0.25055131316185003,-12.008572578430176,2.0362043380737305,2.223121166229248,-0.007330383,1.1917981000000002,4
-0.5149641036987305,-12.467806816101074,2.453803300857544,2.2242555618286133,-0.30940324,0.75136423,4
-0.788318395614624,-12.944260597229006,2.8846950531005864,2.0307204723358154,-0.5122104999999999,0.4352415,4
-1.0694502592086792,-13.435596466064453,3.3271965980529785,2.0069656372070312,1.6297885,0.36682457,4
-1.2925876379013062,-13.817875862121582,3.7092604637146,1.7952557802200315,-0.0711658,0.83260936,4
-1.3883129358291626,-13.960530281066895,3.954085111618042,1.692568302154541,-0.63194007,0.35613444,4
-1.3807883262634275,-13.908923149108887,4.0879974365234375,1.4091075658798218,0.15454891,-0.88606006,4
-1.2904819250106812,-13.701577186584473,4.1329331398010245,0.9657051563262941,0.7272350999999999,-1.2095132,4
-1.133618712425232,-13.369012832641602,4.106351852416991,0.446801483631134,0.34208453,-1.3371841,4
-0.9230267405509948,-12.935338973999025,4.022124767303467,-0.1316397339105606,-0.06566802,-1.2278391000000002,4
-0.6692891716957092,-12.420475006103516,3.891602754592896,-0.7323490381240845,0.008552114,-1.0684034,4
-0.3809487521648407,-11.840499877929688,3.723933935165405,-1.2689889669418335,0.52870387,-0.754724,4
-0.0649573877453804,-11.20850658416748,3.526533603668213,-1.6588997840881348,0.5348125,-0.46792278,4
0.2732335329055786,-10.53475284576416,3.305259704589844,-1.8375707864761357,-0.40011674,-0.6569856,4
0.5853813290596008,-9.83785629272461,3.0872774124145512,-1.8112856149673464,-0.39064834,-1.1187996999999998,4
0.819733202457428,-9.135841369628906,2.90106463432312,-1.6915888786315918,-0.6096435,-0.88208944,4
0.9916136860847472,-8.429890632629395,2.7403850555419917,-1.4673534631729126,-0.40286562,-0.51251596,4
1.1133114099502563,-7.720765113830566,2.600214719772339,-1.1035119295120241,-1.070236,-0.0580322,4
1.194689154624939,-7.009007453918457,2.4765124320983887,-0.7730454802513123,-0.37812558,0.6722571999999999,4
1.2436761856079102,-6.295112133026122,2.3660366535186768,-0.6870922446250916,1.1774428,1.0775663,4
1.266637682914734,-5.57943868637085,2.2661802768707275,-0.5429722666740417,1.4804319,0.9816604,4
1.2687098979949951,-4.862477779388428,2.17486572265625,-0.3495788276195526,1.1774428,0.68111473,4
1.2540035247802734,-4.1444926261901855,2.0904128551483154,-0.18992118537425995,0.22602014,0.48838675,4
1.2258036136627195,-3.4255483150482178,2.0114614963531494,-0.09515951573848724,-0.48533243,0.3304781,4
1.2181638479232788,-2.719066381454468,1.7558320760726929,-0.1103266179561615,-0.5222898,0.32986724,4
1.3093947172164917,-2.125581979751587,1.0832052230834959,-0.0956665500998497,-0.72234815,0.36071593,4
1.4390937089920044,-1.7130370140075684,0.5076938271522522,0.011542909778654577,-0.82833326,0.3136793,4
1.5858161449432373,-1.8472634553909304,0.4962823390960693,0.1728718727827072,-1.6194037,0.09621128,4
1.861024618148804,-2.688042640686035,0.9757440090179444,0.553643524646759,-2.9813278,-0.034513887,4
1.9755266904830933,-4.60439920425415,0.9922049641609192,0.7614877820014954,0.24984388,-0.15760323,4
1.5170990228652954,-7.179624557495117,0.2220635563135147,0.868582546710968,1.8713857,0.10751228,4
1.8030900955200195,-9.516566276550293,1.1369160413742063,1.1297540664672852,-0.28252518,1.1756102,4
1.0177618265151978,-11.462347030639648,1.7108067274093628,1.255113124847412,0.0693332,0.8933904,4
0.26521649956703186,-13.044455528259276,2.4745826721191406,1.1216088533401491,-0.58184916,0.023518313,4
0.4167549908161163,-14.299219131469727,2.883309125900269,0.8049167990684509,0.3359759,-0.84574294,4
0.4929731786251068,-15.224600791931152,3.0728473663330083,0.37946873903274536,-0.03023783,-1.0885619,4
0.4651843011379242,-15.881004333496096,3.102250099182129,-0.05692313984036445,-0.3979787,-1.1557571000000002,4
0.3537329137325287,-16.321229934692386,3.002859354019165,-0.5079627633094788,-0.6398814,-1.3267993,4
0.4722222685813904,-16.03860855102539,2.7840728759765625,-0.9198810458183287,-0.72418076,-0.9969321,4
0.8382065296173096,-14.517082214355467,2.418344259262085,-1.2271500825881958,-0.22052236,-0.6065891999999999,4
1.0253440141677856,-12.073071479797365,1.883311748504639,-1.3987736701965332,0.24709499,-0.9068295,4
0.959467351436615,-9.476231575012207,1.3459335565567017,-1.4563719034194946,-0.34025195,-1.0094548,4
0.7855452895164491,-7.469673156738281,1.147114396095276,-1.333419919013977,-1.0280862,-0.6258314,4
0.5716891884803772,-6.128298759460449,1.489492654800415,-1.0709676742553709,-0.9483683,-0.12705997,4
0.3782491087913513,-5.197890281677246,1.8713341951370241,-0.7870365381240845,-0.26083946,0.29138273,4
0.2433207482099533,-4.415361881256104,1.747568130493164,-0.5995282530784607,0.34697145,0.29962940000000005,4
0.13829204440116882,-3.6716387271881104,1.3108196258544922,-0.4306882619857788,0.36865717,0.19975294,4
0.08036667853593826,-3.0044584274291988,0.9298827052116394,-0.19677789509296414,-0.05222898,0.24281894,4
0.05351480096578598,-2.468993663787842,0.7953476905822754,0.03297116234898567,-0.5852089,0.34788775,4
0.059024952352046973,-2.0220308303833012,0.6677709221839905,0.19679813086986545,-0.8023715,0.5103779,4
0.06839128583669662,-1.6859923601150513,0.4464639127254486,0.33334606885910034,-0.91813046,0.61300325,4
0.061644155532121665,-1.4587955474853516,0.23916569352149966,0.4914068281650543,-0.59589905,0.6914994999999999,4
0.02239822782576084,-1.2730779647827148,0.25274163484573364,0.6385960578918457,0.033292156,0.8374963,4
0.09951823204755783,-1.0973690748214722,0.10583072900772096,0.7886371016502379,-1.0259482,1.0070114,4
0.37983837723732,-1.2446777820587158,-0.2674612104892731,0.9707887172698976,-0.6401868000000001,0.52320606,4
0.8443161845207214,-2.2817318439483643,0.5229164958000183,0.9848817586898804,-0.7086037,0.13164146,4
0.694395899772644,-4.811742305755615,0.6210681200027466,0.8736139535903931,2.3811526,0.44990227,4
0.7587935328483582,-7.489560127258301,2.7640109062194824,0.8601102828979492,0.07849618,2.2937990000000004,4
0.9577972888946532,-9.801362991333008,4.321866989135741,1.0544071197509766,-0.0061086523,1.8729129,4
1.3967825174331665,-11.610361099243164,5.125712871551514,0.9594653844833374,0.18387043,-0.55680364,4
1.926223397254944,-13.097271919250488,5.45738697052002,0.5965345501899719,0.21930063,-2.2046127,4
1.740122675895691,-14.345577239990234,5.488872051239014,0.10175786167383194,-0.40378192,-1.8594738,4
1.2370549440383911,-15.361554145812988,5.120565891265869,-0.3780404031276703,-0.6401868000000001,-1.2394456,4
1.0580927133560178,-16.091239929199222,4.59212064743042,-0.8178406953811646,-1.0616838,-0.7620544,4
1.0814855098724363,-15.523635864257812,3.8544223308563232,-1.140742540359497,-0.59895337,-0.5910121,4
1.4195770025253296,-13.337369918823242,3.1204743385314937,-1.3232876062393188,-0.10170906,-0.6963864000000001,4
1.676530122756958,-10.548554420471193,2.321568489074707,-1.3502261638641355,0.16187929,-0.80878556,4
1.6433535814285278,-8.050443649291992,1.6574163436889648,-1.2109984159469604,-0.09682214,-0.72356987,4
1.5136959552764893,-6.151096820831299,1.464925765991211,-0.8655317425727844,-0.27855456,-0.15515977,4
1.2072548866271973,-4.863465785980225,1.4153295755386353,-0.5108513236045837,-0.24465153,0.26878070000000004,4
0.6275290846824646,-4.0829176902771005,1.047780990600586,-0.3228782117366791,0.5314528000000001,0.48349985,4
-0.029047243297100067,-3.4892382621765137,0.4435780942440033,-0.2384655624628067,0.75411314,0.37873647,4
-0.22130319476127625,-2.9018688201904297,-0.05376914516091347,-0.17887049913406372,1.1224649,0.42730024,4
0.032585881650447845,-2.4358808994293213,-0.07140776515007019,-0.12462754547595978,0.4111123,0.14141529999999994,4
0.4152247607707977,-2.0161023139953613,0.2722629606723785,-0.1189541593194008,-0.34177909999999995,-0.12095132,4
0.6674727201461792,-1.6913194656372068,0.5955271720886229,-0.1311175376176834,-0.35888332,-0.09162979,4
0.7209388017654419,-1.5041680335998535,0.8940289616584778,-0.13037090003490448,-0.46028697,0.21533,4
0.562206506729126,-1.3956286907196045,1.11529803276062,-0.07536116242408752,-0.33353242,0.66859204,4
0.22155775129795074,-1.3355933427810671,1.1905477046966553,0.08806806802749634,0.4456262,1.065349,4
-0.1084275171160698,-1.2998275756835938,1.2032066583633425,0.3458654582500458,1.1163563,1.3255776,4
-0.07403109222650528,-1.740874409675598,1.2312263250350952,0.7487350106239319,0.13408493,0.7162395,4
0.8064152598381042,-2.920967102050781,1.5215989351272583,1.1066492795944214,-2.6456573,-0.121256754,4
1.1093536615371704,-5.5537543296813965,0.6394102573394775,1.1831709146499634,2.0964894,-0.40103304,4
1.4795329570770264,-8.133710861206055,1.7104971408843994,1.1327942609786987,0.34147367,1.5402967,4
0.9030520915985109,-10.333773612976074,2.6604740619659424,1.1706242561340332,-0.08093964,1.6459764,4
0.481427788734436,-12.13221549987793,3.247078895568848,1.017892599105835,-0.35369098,0.10903945,4
1.3202749490737915,-13.584460258483887,3.3083627223968506,0.6535823345184326,-0.2312125,-0.9682214,4
2.1134467124938965,-14.741497993469238,3.1318676471710205,0.1991422921419144,0.06780604,-1.3014483,4
2.3589773178100586,-15.612764358520508,2.893482446670532,-0.22791928052902224,-0.58551437,-1.0720685,4
1.9980193376541135,-15.744897842407227,2.5332345962524414,-0.5726709365844727,-0.77854776,-0.8399397,4
1.4376243352890017,-14.538358688354492,2.0749244689941406,-0.8559623956680298,-0.43371433,-0.6435465,4
1.1153857707977295,-12.316166877746582,1.6319820880889893,-1.0419317483901978,-0.27397305,-0.8390234000000001,4
0.824239194393158,-9.664921760559082,1.2844361066818235,-1.188008427619934,-0.7892378999999999,-1.0021244,4
0.5089024305343628,-7.588009357452393,0.9723575711250304,-1.172207593917847,-0.42394048,-0.56138515,4
0.4223132729530335,-6.140749454498291,1.0288046598434448,-0.9508032798767091,0.23671028,0.16310102,4
0.383282482624054,-5.131224155426025,1.3586492538452148,-0.6762092709541321,-0.14172074,0.33750305,4
0.20369060337543488,-4.474102020263672,1.3853486776351929,-0.4273703098297119,0.2434298,0.43768495,4
-0.13611692190170288,-3.7913854122161865,1.2075684070587158,-0.2455754429101944,0.64965516,0.63071835,4
-0.30997955799102783,-3.140949487686157,1.0762704610824585,-0.1843010783195496,0.18051068,0.5858198,4
-0.2215605974197388,-2.59005069732666,0.6300826668739319,-0.17110197246074674,-0.032070424,0.5842925999999999,4
-0.037068434059619904,-2.0127403736114498,0.1028451770544052,-0.07918009907007217,-0.08368854,0.59650993,4
0.1137039065361023,-1.517778754234314,-0.10262998938560486,0.0264064259827137,-0.087659165,0.45478916,4
0.3021087646484375,-1.279561161994934,0.024860935285687447,0.08436118066310883,0.15332718,0.41141775,4
0.5588053464889526,-1.4539254903793335,0.09085507690906523,0.1571761965751648,0.11453723,0.47219884,4
1.2439584732055664,-2.004828929901123,-0.006437262520194054,0.4905906617641449,-0.40439278,0.6087272,4
1.896439790725708,-3.3553988933563232,1.1589689254760742,0.6091762781143188,-2.4645357000000003,-0.88697636,4
1.5509990453720093,-5.899948120117188,0.6101213693618774,0.664832353591919,3.2400293,-0.37018433,4
1.0644763708114624,-8.420221328735353,1.5837759971618652,0.7511179447174072,-0.46792278,1.736079,4
0.26151058077812195,-10.565754890441896,2.2279629707336426,0.8464159965515137,0.6215554,0.7602218000000001,4
-0.014371123164892197,-12.319416046142578,2.8079538345336914,0.7433207631111145,-0.25473082,-0.11056661,4
0.5188543796539307,-13.730947494506836,2.7966978549957275,0.4997825622558594,0.39614612,-0.6826419,4
0.7656899690628052,-14.782829284667967,2.691192388534546,0.12185453623533248,-0.032375857,-0.99112886,4
0.7328268885612488,-15.522306442260742,2.572781562805176,-0.27562952041625977,-0.6197228,-0.7797695,4
0.4831288754940033,-15.725193977355955,2.433166265487671,-0.6387825608253479,-0.79137594,-0.48808134,4
0.2445936948060989,-14.797879219055176,2.1370589733123784,-0.9180896878242492,-0.7852673000000001,-0.32742378,4
0.35029488801956177,-13.064675331115724,1.6791809797286987,-1.0822014808654783,-0.5467244000000001,-0.34269542,4
0.7700108885765076,-10.870894432067873,1.1907411813735962,-1.1141178607940674,0.08521569999999999,-0.17928895,4
1.2485572099685671,-8.663257598876951,0.9372462034225464,-1.046581506729126,-0.050396383,-0.16768251,4
1.4969244003295898,-6.807158470153809,0.6759459376335144,-0.8278084397315979,0.17073683,-0.27152961,4
1.3668498992919922,-5.423141479492188,0.7006927728652954,-0.4999144971370697,0.16707164,-0.15302174,4
1.0178513526916504,-4.391964912414552,0.7456931471824646,-0.2732573449611664,0.017715093,0.028099801,4
0.620728075504303,-3.519830703735352,0.38263338804245,-0.2230929583311081,0.21991149,0.14752395,4
0.42173901200294495,-2.741851806640625,-0.11012795567512512,-0.2490217387676239,0.33536503,0.13072516,4
0.4729007184505463,-2.2256267070770264,-0.2597060799598694,-0.22483262419700625,0.2742785,0.017104227,4
0.5794103741645813,-1.936162114143372,0.08341501653194427,-0.14563913643360138,-0.021685716,-0.040011674,4
0.5369620323181152,-1.8443678617477417,0.5915212631225586,-0.03982366621494293,-0.29810223,0.057421334,4
0.2870582342147827,-1.8644689321517944,1.024626851081848,0.10858523100614548,0.10323623,0.5467244000000001,4
-0.08132263273000717,-2.1161720752716064,1.0917531251907349,0.3774600625038147,0.9086621,1.196685,4
0.08508119732141495,-2.852419137954712,0.9988298416137696,0.8147863149642944,0.27855456,1.0238101000000002,4
0.9207645654678344,-4.124255180358887,0.7365527749061584,1.1592937707901,-1.7718146,0.011301007,4
1.5107731819152832,-6.394267559051514,1.125545859336853,1.234012246131897,2.8166997000000005,0.34025195,4
1.6193023920059204,-8.784839630126951,1.4357643127441406,1.3122199773788452,0.18509217,1.2589933,4
0.6558265686035156,-10.849663734436037,2.0559701919555664,1.296133041381836,0.20891592,0.41447207,4
0.6469869017601013,-12.544429779052734,2.42287015914917,1.0924397706985474,-0.5842925999999999,-0.074830994,4
1.096152663230896,-13.915751457214355,2.565991163253784,0.7681121230125427,-0.3454443,-0.7846564,4
1.3710685968399048,-14.96977996826172,2.4937283992767334,0.3052190244197845,-0.19517145,-0.8481864,4
1.3243714570999146,-15.714715003967285,2.322641134262085,-0.16034065186977384,-1.0574077,-0.7272350999999999,4
1.1322001218795776,-15.80930995941162,2.0522592067718506,-0.5645524263381958,-1.0913107,-0.35979962,4
1.029891848564148,-14.780069351196287,1.622683048248291,-0.9352280497550964,-0.6835581999999999,-0.41783184,4
0.9831646680831908,-12.784021377563475,1.0280995368957522,-1.224012017250061,-0.3631594,-0.42913285,4
0.9325571656227112,-10.269962310791016,0.5000945925712585,-1.385297417640686,-0.95264435,-0.50946164,4
1.1612361669540403,-8.240670204162598,0.8517254590988159,-1.3114609718322754,-0.81031275,-0.5216789000000001,4
1.289883375167847,-6.8745079040527335,1.8185178041458132,-0.9993667602539062,-0.36254853,-0.26236662,4
1.0654288530349731,-5.898996353149414,2.267078399658203,-0.5604584217071533,0.0580322,-0.010995574,4
0.5851984024047852,-4.960867404937744,1.7266074419021606,-0.2721044421195984,0.66706485,0.41386122,4
0.16860011219978333,-4.032337188720703,0.9699952602386476,-0.0941690430045128,0.8078693,0.63041294,4
0.009375745430588722,-3.3017151355743413,0.5400232672691345,0.06489390134811401,0.6401868000000001,0.61178154,4
-0.05798862874507904,-2.7161693572998047,0.4331278800964356,0.17421862483024594,0.40866885,0.5174029,4
-0.03523693606257439,-2.1973104476928706,0.4348165690898895,0.24285998940467834,0.42577308,0.56688297,4
0.2754301130771637,-1.773347020149231,0.6443115472793579,0.2876903712749481,0.095294975,0.6658430999999999,4
0.8605626821517944,-1.515887975692749,0.4876020848751068,0.4548716247081757,-1.2342533000000002,0.25717425,4
1.422421932220459,-1.4169063568115234,0.049029823392629616,0.746796727180481,-1.1102476,0.2742785,4
1.6206214427947998,-2.0247154235839844,0.2460381686687469,0.9245390892028807,-0.77579886,-0.30268374,4
1.0477722883224487,-3.889580488204956,0.07084231078624725,1.0123493671417236,1.2877040000000002,-0.1160644,4
1.1244637966156006,-6.468873977661133,0.8829269409179688,0.989129900932312,-0.26450464,0.8454375,4
1.2750617265701294,-8.757022857666017,1.250812292098999,1.2304418087005615,1.1808025,0.979217,4
0.9528807401657104,-10.694243431091307,1.9652107954025269,1.2708386182785034,0.8943066999999999,0.29565877,4
0.8474743962287903,-12.405536651611328,2.5420854091644287,1.1734288930892944,0.29810223,0.16493362,4
1.1210616827011108,-13.80087184906006,2.9705352783203125,0.9237779378890992,0.13133603,-0.4718934,4
1.109506368637085,-14.912988662719727,3.2297666072845463,0.5455480217933655,0.019242255,-0.88422745,4
0.9277175664901732,-15.729660987854006,3.283656358718872,0.08860283344984055,-0.33475417,-0.7357872,4
0.6326819062232971,-16.301576614379886,3.1683452129364014,-0.3800715208053589,-0.70616025,-0.70554936,4
0.5744722485542297,-16.27737045288086,2.9277493953704834,-0.8125275969505309,-0.7874053000000001,-0.80481493,4
0.9509831070899964,-15.352787971496582,2.68460464477539,-1.155140995979309,-0.6469063,-0.59131753,4
1.3702787160873413,-13.655218124389648,2.3343162536621094,-1.3941775560379028,-0.16279559,-0.5360342,4
1.575171947479248,-11.4044828414917,1.8202778100967407,-1.5277633666992188,0.29016098,-0.5732970000000001,4
1.472203493118286,-9.035051345825195,1.480141282081604,-1.5737905502319336,-0.4813618,-0.6243043,4
1.1815462112426758,-7.188651084899902,1.359342098236084,-1.449492335319519,-0.22632557,-0.44715336,4
0.8684503436088562,-5.9648308753967285,1.823263168334961,-1.2065768241882324,0.23335053,-0.055588737,4
0.5652343034744263,-5.218644142150879,2.44657564163208,-0.8137773871421814,0.6805039,0.3726278,4
0.2892363667488098,-4.6395602226257315,2.5859050750732417,-0.5133537650108337,0.8585710999999999,0.6041456999999999,4
0.05276936292648315,-3.9611544609069824,2.0458438396453857,-0.3231066465377808,1.0638218000000002,0.5858198,4
-0.07855495810508728,-3.193701267242432,1.3202900886535645,-0.1807607263326645,0.8582656999999999,0.54183745,4
-0.06652721017599106,-2.482426643371582,0.7353377938270569,-0.07948929071426393,0.5384777,0.41783184,4
0.1134481206536293,-1.933162331581116,0.4690312147140503,0.03357410430908203,0.23884831,0.4746423,4
0.4294300973415375,-1.5246686935424805,0.5172825455665588,0.16823193430900574,0.05955936,0.5876524000000001,4
0.6826691031455994,-1.2749781608581543,0.556989848613739,0.2890496551990509,0.5815437,0.5109888,4
1.2193793058395386,-1.2315142154693604,0.3676117658615112,0.4618345499038696,-0.7675522,-0.17134771,4
1.7793796062469482,-1.416447997093201,0.3538447618484497,0.5482193827629089,-1.1270463,-0.31337386,4
1.1860872507095337,-3.0763216018676762,-0.05604154244065285,0.5511254072189331,0.46761733,-0.63438356,4
0.30177485942840576,-5.683931350708008,-0.017802644520998,0.4309074580669403,2.3408356,0.8542950999999999,4
0.33484289050102234,-8.238202095031737,1.7609323263168335,0.5516401529312134,-0.16340645,1.7330247,4
0.17463168501853946,-10.41644287109375,2.6675682067871094,0.7187256217002869,0.35033122,0.20830505,4
0.00038784800563007593,-12.197230339050293,3.1912872791290283,0.6977602243423462,0.65668017,-0.026572637000000003,4
0.4054273068904877,-13.627531051635742,3.2703776359558105,0.4980542659759522,0.29993483,-0.59528816,4
0.4884616434574127,-14.712393760681152,3.1544606685638428,0.10238811373710632,-0.25259277,-1.0735956,4
0.21307775378227234,-15.510906219482422,2.87263822555542,-0.3408067226409912,-0.88606006,-0.80756384,4
-0.24605940282344815,-15.71863079071045,2.414520740509033,-0.7644724845886229,-1.3255776,-0.60231316,4
-0.4026796519756317,-14.900041580200195,1.6802420616149902,-1.0981863737106323,-0.7632760999999999,-0.76052725,4
0.08587511628866196,-13.108293533325195,1.191253900527954,-1.3077397346496582,-0.6786713000000001,-0.9053023,4
1.0312960147857666,-10.681123733520508,0.9893006086349488,-1.3813865184783936,-0.25686884,-0.63438356,4
1.8157739639282229,-8.201841354370117,1.109296798706055,-1.2785683870315552,-0.6239988000000001,-0.57848936,4
2.0866012573242188,-6.3220319747924805,1.3194955587387085,-0.9141613245010376,-0.1563815,-0.44868052,4
1.8113526105880735,-5.164704322814941,1.4411412477493286,-0.42446231842041016,0.8897252,-0.13408493,4
1.1609147787094116,-4.4208106994628915,1.304386854171753,-0.14901864528656006,0.4370741,0.29535335,4
0.5114217400550842,-3.730493068695069,0.543057382106781,-0.063831627368927,0.91354895,0.5036584,4
0.330943375825882,-3.022839069366455,0.01714540272951126,0.03002176247537136,0.84391034,0.4251622000000001,4
0.40874114632606506,-2.4198734760284424,0.06538491696119307,0.08012314885854721,0.20280726,0.14813483,4
0.4999256134033203,-1.9590208530426023,0.3560181558132172,0.11164984852075577,-0.11881329,0.053145275,4
0.5128360390663147,-1.6316828727722168,0.5118381977081299,0.16810758411884308,0.3659083,0.33933565,4
0.4195088744163513,-1.471365451812744,0.637885332107544,0.2770686447620392,0.50762904,0.5751295999999999,4
0.31630536913871765,-1.4690490961074831,0.8294923305511475,0.4629594087600708,0.73456544,0.7632760999999999,4
0.375462532043457,-1.720719575881958,1.2555199861526491,0.6888090372085571,0.7440339,0.7556403,4
1.0520215034484863,-2.1923251152038574,1.7200543880462646,1.02685546875,-2.0964894,0.5137377000000001,4
1.0679725408554075,-3.4821071624755864,0.5446276664733887,1.1997379064559937,-0.77549344,-0.23182335,4
0.5478752851486206,-5.532218456268311,0.246385470032692,1.1869522333145142,3.5766160000000005,0.9245446,4
0.9020560979843141,-7.996773242950439,1.536262273788452,1.1663428544998171,-0.2501493,1.9062049,4
0.57537442445755,-10.1933012008667,2.236532926559448,1.3427473306655884,0.22510384,1.349096,4
0.5329369902610779,-12.012128829956055,2.9516756534576416,1.257935643196106,0.12461651,-0.043982297,4
1.110496163368225,-13.487090110778807,3.2266461849212646,1.0010348558425903,0.12705997,-0.6337727,4
1.3075884580612185,-14.65924072265625,3.2363951206207275,0.5819312334060669,0.30176744,-1.0409144,4
1.1758841276168823,-15.53567600250244,3.1580066680908203,0.10741400718688963,-0.2864958,-0.9636399,4
0.7822384834289551,-16.168344497680664,3.0159740447998047,-0.3170139193534851,-0.9111055,-0.86590147,4
0.4950470328330994,-16.195240020751953,2.7103495597839355,-0.7017738223075867,-0.86162543,-0.93034774,4
0.6546763777732849,-15.262934684753418,2.299814462661743,-1.0333889722824097,-0.74464476,-0.77824235,4
1.0858991146087646,-13.439756393432615,1.812264323234558,-1.2737964391708374,0.070249505,-0.605062,4
1.30167818069458,-10.94442081451416,1.2549288272857666,-1.4157955646514893,0.20647246,-0.63163465,4
1.2994219064712524,-8.619954109191895,0.9557969570159912,-1.4120830297470093,0.28955013,-0.47219884,4
1.1169350147247314,-6.8672776222229,1.1748757362365725,-1.250630259513855,-0.17654006,-0.38728857,4
0.9355620741844176,-5.700171947479247,1.7220988273620603,-0.9479306936264038,-0.46578476,-0.1853976,4
0.6964113116264343,-4.987994194030762,2.1716854572296143,-0.5788870453834534,0.110872045,0.2855795,4
0.261329710483551,-4.442771911621094,1.9957767724990845,-0.4268329441547394,0.8185594,0.6450737,4
-0.02557774074375629,-3.7660398483276367,1.3693114519119265,-0.3849523365497589,1.2782356,0.75228053,4
-0.05348735302686691,-3.0641601085662837,0.8122984170913696,-0.3109883368015289,1.2061534,0.55741453,4
0.0854496881365776,-2.4086005687713623,0.43257516622543335,-0.20140765607357025,0.8313876,0.44440445,4
0.3205735981464386,-1.8641604185104368,0.26082900166511536,-0.04850143566727638,0.54733527,0.6597345,4
0.5578114986419678,-1.4889345169067385,0.44542050361633295,0.14733053743839264,-0.09468412,0.7263188,4
0.7710258364677429,-1.379112958908081,0.7627023458480835,0.3741538822650909,-0.027488936,0.45356745,4
1.20224928855896,-1.5605133771896362,1.285348653793335,0.5664148330688477,-0.90041536,0.35643986,4
1.811362743377685,-2.3999063968658447,1.4531731605529783,0.6577013731002808,-1.7107282,-0.24465153,4
1.1370744705200195,-4.936237812042236,1.0899865627288818,0.7880737781524658,3.662137,0.50946164,4
1.0278114080429075,-7.670326232910156,2.355543851852417,0.8395620584487915,-1.2070698,1.4101825,4
0.5381725430488586,-9.969364166259766,2.967341899871826,1.0589948892593384,0.3659083,1.0598511999999998,4
0.24296483397483826,-11.84129524230957,3.241231203079224,0.9970637559890748,0.2171626,0.061391957,4
0.37870433926582336,-13.34909439086914,3.274985313415528,0.7342603802680969,0.24801129,-0.38423425,4
0.4416168928146362,-14.50482940673828,3.217967987060547,0.33072665333747864,0.19883664,-0.65026605,4
0.4356159567832947,-15.358807563781738,3.0516545772552486,-0.12340477854013444,-0.30268374,-1.0659598,4
0.4038986563682556,-15.779953002929688,2.756997585296631,-0.5386694073677063,-0.7593055000000001,-0.8258898000000001,4
0.3877105712890625,-15.243441581726074,2.266947031021118,-0.8928626179695129,-0.87598073,-0.58459806,4
0.4907118678092957,-13.710775375366213,1.6921294927597046,-1.1491526365280151,-0.57910025,-0.6579019,4
0.7916023731231691,-11.467961311340332,1.0396159887313845,-1.2536540031433103,0.14691310000000002,-0.44837508,4
1.2144339084625244,-9.042627334594727,0.646476686000824,-1.2515228986740112,-0.57696223,-0.5732970000000001,4
1.5845502614974976,-6.971255302429199,0.5417244434356691,-1.051448106765747,-0.8940013000000001,-0.57818395,4
1.5749285221099854,-5.626418113708496,0.9114563465118408,-0.696548581123352,-0.67103547,-0.30024028,4
1.1638821363449097,-4.773164749145508,1.2565416097640991,-0.3833733201026917,0.16096300000000002,0.15393804,4
0.5623516440391539,-4.0938401222228995,0.9397102594375609,-0.2566073834896088,0.5161811,0.4098906,4
0.2720585465431213,-3.337913990020752,0.5480505228042603,-0.13730555772781372,0.56107974,0.4251622000000001,4
0.2517453134059906,-2.702569961547852,0.4569139778614044,-0.015643959864974022,0.23304509,0.3051272,4
0.30727866291999817,-2.2294554710388184,0.5270788073539734,0.105806864798069,-0.1133155,0.24587326,4
0.4015961885452271,-1.8873803615570068,0.5125347375869751,0.2409330904483795,0.22449298,0.47342056,4
0.40364137291908253,-1.6491408348083496,0.61128169298172,0.3940184414386749,0.20738874,0.57451874,4
0.4311211705207825,-1.5318046808242798,0.6366358995437622,0.5556914806365967,-0.076052725,0.6969972,4
0.866355299949646,-1.6888848543167114,0.4313066899776459,0.8718715310096741,-0.7867944,0.5018258,4
1.3138307332992554,-2.3581392765045166,0.6942839026451111,1.0986337661743164,-2.2208006,-0.14080444,4
1.0125788450241089,-4.3078389167785645,0.3975926041603088,1.1286884546279907,0.49296826,-1.3112222,4
0.9029919505119324,-6.917829990386963,0.8071381449699402,1.0650149583816528,2.6325238,0.86345804,4
1.2610654830932615,-9.292354583740234,2.0802242755889893,1.2477121353149414,1.0665708,1.6255124,4
1.5844721794128418,-11.113831520080566,2.552504777908325,1.1922272443771362,-0.20250183,-0.28619036,4
2.1342952251434326,-12.615815162658693,2.6918015480041504,0.7814554572105408,0.16218472,-0.8695666999999999,4
2.1985123157501216,-13.948498725891113,2.841871976852417,0.2274043709039688,-0.17073683,-0.73548174,4
1.7021346092224119,-14.994283676147461,2.853379964828491,-0.26492756605148315,-0.6649268,-0.4633413,4
1.0851569175720217,-15.320600509643555,2.6443936824798584,-0.6675093770027161,-0.6218608,-0.32406402,4
0.803000271320343,-14.59529972076416,2.1568470001220703,-0.9942353963851928,0.07269296,-0.31642818,4
1.0740398168563845,-12.889302253723145,1.6752201318740845,-1.2259399890899658,0.32650748,-0.3866777,4
1.6343865394592283,-10.49865436553955,1.3083817958831787,-1.3417985439300537,0.464563,-0.41325033,4
1.986246109008789,-8.136871337890625,1.1366989612579346,-1.3687764406204224,0.096516706,-0.50793445,4
2.0046553611755367,-6.457179069519043,1.2130361795425415,-1.2272093296051023,-0.36865717,-0.6462954000000001,4
1.6262696981430054,-5.586007595062256,1.5219483375549316,-0.900872528553009,-0.68294734,-0.59773165,4
1.0037405490875244,-5.00840425491333,1.6889156103134155,-0.5169368982315063,0.10323623,-0.1563815,4
0.3483806848526001,-4.298274517059326,1.6117478609085083,-0.24601672589778897,0.9850202,0.45204028,4
-0.12029260396957395,-3.443078994750977,1.2090981006622314,-0.09405114501714706,1.5192219,0.5644395000000001,4
-0.1864382326602936,-2.5920979976654053,0.7227532267570496,0.020173080265522003,1.5552629,0.6899723000000001,4
-0.08506625145673752,-1.993327260017395,0.3551784157752991,0.11388412117958067,1.0152581,0.50671273,4
0.03771645948290825,-1.6205947399139404,0.15205392241477966,0.21172332763671875,0.6169739000000001,0.4269948,4
0.2216005176305771,-1.3377580642700195,0.207560196518898,0.35777178406715393,0.13561209,0.50426924,4
0.5864395499229431,-1.0455954074859621,0.5950056314468384,0.5138909220695496,-0.7672467,0.49296826,4
1.1118464469909668,-0.9983311295509338,0.3003247082233429,0.7145819067955017,-0.9963212,-0.009773844,4
1.5523536205291748,-1.4489351511001587,0.14510753750801084,0.8438178300857544,-0.69058317,-0.30787608,4
1.0792487859725952,-4.1051669120788565,0.5461179614067078,0.9188627004623412,2.3399193,-0.29626966,4
1.1394996643066406,-6.929152965545653,2.118417978286743,0.8803632259368896,0.27091873,0.7492262,4
0.4286065101623535,-9.352126121520996,3.153686046600342,1.0321743488311768,0.68386364,1.7898352,4
0.13202597200870514,-11.318806648254395,4.087859630584717,1.0229607820510864,0.0021380284,0.5983425,4
0.8910502195358276,-12.91286849975586,4.2939414978027335,0.7461677789688109,0.21563543,-0.5681046999999999,4
1.853800892829895,-14.20981502532959,4.255098819732666,0.3040576279163361,0.32589662,-0.6630941999999999,4
2.135193109512329,-15.217399597167967,4.1107730865478525,-0.16604019701480865,-0.5910121,-0.6102544,4
1.7633435726165771,-15.887130737304688,3.8309309482574463,-0.6397651433944702,-0.91813046,-0.5186246,4
1.0121085643768308,-16.073921203613278,3.384628295898437,-1.0580898523330688,-0.8744536,-0.34238997,4
0.6283596754074097,-15.101152420043945,2.695636510848999,-1.3874255418777466,0.44623706,-0.39492437,4
0.8981203436851501,-13.11833381652832,2.275506496429444,-1.5704281330108645,-0.21166481,-0.72082096,4
1.5252889394760132,-10.538429260253906,1.80652928352356,-1.590617060661316,0.14721853,-0.8228354999999999,4
2.0082957744598393,-8.121099472045897,1.425546646118164,-1.4647887945175169,-0.35002577,-0.7440339,4
2.0845293998718257,-6.4304866790771475,1.4294085502624512,-1.1553733348846436,-0.5656611999999999,-0.6649268,4
1.7424718141555786,-5.515137195587158,1.731801986694336,-0.7288062572479248,-0.20555615,-0.4465425,4
1.0943622589111328,-4.8774847984313965,2.0302064418792725,-0.32325613498687744,0.5332854,0.08002335,4
0.4327836334705353,-4.077099800109863,1.830540895462036,-0.15027354657649994,1.2620476,0.42821655,4
0.137807697057724,-3.0838918685913086,1.2067201137542725,-0.08348919451236725,0.8417723,0.2919936,4
0.17794708907604218,-2.295969247817993,0.7460185885429382,-0.019402500241994858,0.15241088,0.19425514,4
0.2310995310544968,-1.7915353775024414,0.4400384426116944,0.03062552586197853,-0.26267207,0.14569137,4
0.2236279249191284,-1.489163517951965,0.3205018639564514,0.0803704634308815,-0.39645153,0.2125811,4
0.1421370804309845,-1.2855099439620972,0.4312142133712769,0.1301223188638687,-0.13500121,0.32650748,4
0.03264269605278969,-1.2229585647583008,0.6680516600608826,0.10565074533224106,0.19333886,0.39461896,4
0.1851358860731125,-1.5655702352523804,0.16394853591918945,0.17199060320854187,-0.118202426,0.35308012,4
0.9005692005157471,-2.4288430213928223,0.17921045422554016,0.4538728892803192,-1.6236799,0.037873644,4
1.4426779747009275,-4.314183235168457,0.4651576578617096,0.6150096654891968,0.9129381,0.08155051,4
1.4908279180526731,-6.890944480895996,1.2924786806106567,0.7199307084083557,1.1087204,0.8527679,4
0.9799943566322328,-9.2709321975708,1.5528292655944824,0.8419631719589233,0.5821546,1.9110919,4
0.35758909583091736,-11.259724617004395,2.4886562824249268,0.9925727248191832,-0.26878070000000004,0.84421575,4
0.5930474996566772,-12.811897277832033,2.886911630630493,0.8646105527877808,-0.36560285,-0.25625798,4
1.2907862663269043,-14.091073989868164,2.87554669380188,0.5043275952339172,0.17531833,-1.244638,4
1.8219926357269287,-15.149767875671387,2.758434295654297,0.05366750434041023,0.121256754,-0.9254609,4
1.6227551698684692,-16.007972717285153,2.463488817214966,-0.3804407715797424,-0.14996742,-0.78893244,4
0.9249945878982544,-16.345949172973633,2.0193767547607417,-0.7410624027252197,-0.87689704,-0.2666427,4
0.7471930384635925,-15.33482837677002,1.4812841415405271,-1.0026053190231323,-0.113926366,-0.35430184,4
1.2706170082092283,-13.309374809265135,1.3089730739593506,-1.2419536113739014,-0.5421429,-0.5204572000000001,4
1.8366248607635496,-10.802608489990234,1.0749050378799438,-1.4343664646148682,0.66675943,-0.41905355,4
1.803586483001709,-8.562241554260254,0.8073026537895203,-1.4832119941711426,0.11484267,-0.7663304,4
1.4077523946762085,-6.847039222717285,0.9692587852478028,-1.3296424150466921,-0.8136725,-0.66645396,4
1.0405786037445068,-5.867892742156982,1.2795331478118896,-1.0043659210205078,-0.15943582,-0.27458394,4
0.6613773703575134,-5.077785015106201,1.3863574266433716,-0.5913601517677307,-0.010995574,-0.053145275,4
0.2596316933631897,-4.231085777282715,1.2155131101608276,-0.28172582387924194,-0.28069258,0.16554448,4
-0.06442251801490784,-3.3862292766571045,0.9430235028266908,-0.05935326591134073,-0.07360926,0.32284227,4
-0.2089623361825943,-2.7691521644592285,0.7593694925308228,0.12772336602211,-0.25992316,0.25473082,4
-0.04115023836493492,-2.4640560150146484,0.5087577104568481,0.3196016252040863,-0.77121735,0.22693644,4
0.18568585813045504,-2.4002082347869877,0.1419975906610489,0.516960084438324,-0.3753767,0.464563,4
0.5104305744171143,-2.4950292110443115,-0.3715168833732605,0.7257807850837708,-0.0143553335,0.91324353,4
1.1141078472137451,-2.534494638442993,-0.6143403053283691,1.0660303831100464,-1.4553864,1.2678508,4
1.3192013502120972,-2.5169687271118164,0.14946188032627106,1.4834893941879272,1.1206323,1.0241156,4
1.5818521976470947,-2.747633457183838,0.9998505115509032,1.5134042501449585,-0.36774087,-0.122783914,4
1.7508453130722046,-3.5891115665435787,1.025290846824646,1.4985157251358032,2.4862216,0.56505036,4
0.8838757276535034,-5.872830390930176,2.349642276763916,1.2573837041854858,2.4544566000000003,-0.047647487,4
0.8327686786651611,-8.336259841918945,3.6494197845458975,1.238283634185791,-0.129198,1.5738943,4
0.4073543548583984,-10.3187894821167,4.406931400299072,1.2234506607055664,0.27397305,0.7968736999999999,4
0.6841745972633362,-11.504173278808596,4.801751136779785,0.9885892868041992,0.26633725,-1.1582005,4
1.2429391145706177,-12.811631202697756,4.734232425689697,0.5231637358665466,0.33261612,-1.1817188,4
1.3143136501312256,-14.066545486450195,4.414184093475342,-0.011749320663511751,-0.32345316,-0.6936375,4
0.998653769493103,-15.089954376220705,3.819920539855957,-0.5282198786735535,-0.64568454,-0.52412236,4
0.886387050151825,-15.399447441101074,3.219810009002685,-1.0140405893325806,-0.7067711,-0.9370673,4
1.3509079217910769,-14.7036771774292,2.735750675201416,-1.4029662609100342,0.0983493,-1.0192287,4
2.1458780765533447,-13.03550910949707,2.317390918731689,-1.6144636869430542,1.0268645,-0.29718593,4
2.4585347175598145,-10.712166786193848,2.080674409866333,-1.5690298080444336,0.5561928,-0.5207626000000001,4
2.140460968017578,-8.307435989379883,2.0971391201019287,-1.33512282371521,-0.5372560000000001,-0.57971114,4
1.5042873620986938,-6.496310234069824,2.275575399398804,-0.8898898363113403,-0.75228053,-0.310625,4
0.7933515310287476,-5.2062177658081055,2.0081374645233154,-0.5643580555915833,-0.45142943,0.015271631,4
0.009279804304242134,-4.258315086364746,1.1597613096237185,-0.4201651811599731,0.1441642,0.26878070000000004,4
-0.528721809387207,-3.5624823570251465,0.5218309164047241,-0.3095095157623291,0.6814201999999999,0.43218717,4
-0.5895969867706299,-3.024815082550049,0.3674069046974182,-0.20358714461326602,0.7458665,0.33169982,4
-0.2911404669284821,-2.565322160720825,0.4597411155700684,-0.107472725212574,0.33292156,0.10903945,4
0.12362413853406905,-2.153836488723755,0.5927568674087524,-0.0007209831965155901,-0.49754974,0.096516706,4
0.2976032495498657,-1.817289113998413,0.6497138142585754,0.11142528057098387,-0.8521569999999999,0.14385876,4
0.2245076894760132,-1.541087985038757,0.8146563768386841,0.2481236457824707,-0.56291234,0.3295618,4
0.05740420147776604,-1.354502558708191,1.2262332439422607,0.4013719856739044,-0.6239988000000001,0.7293731,4
-0.04162654653191567,-1.4519730806350708,0.8235229253768921,0.6747393012046814,-0.43585235,0.6759224,4
0.3676820397377014,-1.7807902097702026,0.2607675790786743,1.072966694831848,-0.109650314,0.22449298,4
1.1405528783798218,-2.950579643249512,0.5095343589782715,1.2120218276977541,-0.5873469,-0.025045475,4
1.3207638263702393,-5.402345657348633,1.2791893482208252,1.2985787391662598,2.1398609,0.4465425,4
1.4008469581604004,-7.982539176940918,2.1536669731140137,1.3635308742523191,0.74220127,1.2599095,4
0.542729377746582,-10.192896842956543,3.0842034816741943,1.4636602401733398,0.057421334,1.5546521,4
0.341067373752594,-11.816241264343262,3.890076160430908,1.3781317472457886,-0.24984388,0.42760566,4
0.9752953052520752,-13.170683860778807,4.3586530685424805,1.1010414361953735,0.07299839999999999,-0.56138515,4
1.5772157907485962,-14.378341674804688,4.46140193939209,0.6788217425346375,-0.09896017,-0.74464476,4
1.65263032913208,-15.380575180053713,4.323251247406007,0.23553618788719174,-0.24312437,-0.43493605,4
1.3782612085342407,-16.192085266113278,4.0312719345092765,-0.20582139492034912,-0.4783075,-0.45356745,4
1.2946690320968628,-16.62779426574707,3.5823078155517583,-0.6196872591972351,-0.5687156,-0.6270532,4
1.5986871719360352,-16.172157287597653,3.0441393852233887,-0.9883370995521544,-0.6951646,-0.6374379,4
2.0703160762786865,-14.796710968017578,2.498597860336304,-1.2571642398834229,-0.1872302,-0.6914994999999999,4
2.5039873123168945,-12.599590301513672,1.9997020959854128,-1.4369529485702517,0.71929383,-0.6093381,4
2.7081832885742188,-10.012950897216797,1.519961953163147,-1.5164004564285278,0.9095783000000002,-0.66553766,4
2.389132261276245,-7.694570541381836,1.2033010721206665,-1.474997878074646,-0.122783914,-0.7464773,4
1.5468251705169678,-6.2129340171813965,1.2234394550323486,-1.2567561864852903,-0.72021013,-0.5739079,4
0.6891014575958252,-5.348437786102295,1.4397741556167605,-0.960542857646942,-0.74464476,-0.28619036,4
0.12779656052589414,-4.775601863861084,1.5204222202301023,-0.6756460070610046,-0.28344148,0.06780604,4
-0.090687558054924,-4.112170219421387,1.2779245376586914,-0.4648030400276184,0.675617,0.37720928,4
-0.08310508728027344,-3.2745492458343506,0.8293797373771667,-0.309733510017395,1.4263704,0.43401974,4
0.0709204375743866,-2.5372722148895264,0.5907185077667236,-0.1846994310617447,1.1301007,0.40683624,4
0.20047639310359955,-2.0480778217315674,0.5945044755935669,-0.07022571563720703,0.35216382,0.36102137,4
0.2795432209968567,-1.7671276330947876,0.6919600367546082,0.05871189758181573,-0.6053675000000001,0.3145956,4
0.4135740101337433,-1.5845544338226318,0.9159145951271056,0.24892888963222504,-1.2180653,0.50823987,4
0.6620928049087524,-1.6387455463409424,0.8806710839271545,0.485435277223587,-1.5293012,0.2275473,4
1.214163064956665,-1.8633991479873655,0.932051420211792,0.6529863476753235,-1.5146403,-0.2574797,4
1.3599611520767212,-3.194313764572144,1.0968807935714722,0.7412410378456116,0.91782504,-0.115453534,4
1.0489304065704346,-5.801803112030028,1.3886929750442505,0.6458845138549805,3.299894,0.70554936,4
1.024928092956543,-8.349517822265625,2.701826810836792,0.9605985879898072,-0.122783914,2.1981986,4
0.730956494808197,-10.390727996826172,3.0820775032043457,1.0960651636123655,-0.19211712,0.18142697,4
1.822837829589844,-11.55276107788086,3.1725757122039795,0.8486112356185913,0.59681535,-1.3848315,4
3.1224405765533447,-12.739097595214846,2.767416000366211,0.3555164337158203,0.7993172,-1.668273,4
3.45686149597168,-13.966286659240724,2.431080818176269,-0.17269107699394226,-0.08093964,-0.54367006,4
2.182293653488159,-14.719810485839846,2.0165419578552246,-0.6450678706169128,-0.310625,-0.09407325,4
1.348054051399231,-14.316850662231445,1.4977648258209229,-1.0291763544082642,0.42760566,-0.5338961999999999,4
1.6912803649902344,-12.696024894714355,1.14521586894989,-1.2922269105911257,0.18661933,-0.67164636,4
2.4575612545013428,-10.29534149169922,0.7971367835998535,-1.3950519561767578,0.2501493,-0.711658,4
2.613068103790283,-8.137569427490233,0.4904355704784393,-1.3761887550354004,0.17928895,-1.102001,4
2.2974252700805664,-6.654165744781494,0.7859099507331848,-1.1617133617401123,-0.5369505,-0.91415983,4
1.6248306035995483,-5.664748191833496,1.6502981185913086,-0.8151323795318604,-0.70463306,-0.2489276,4
0.6399356722831726,-4.979838371276856,2.1505119800567627,-0.492971658706665,0.3277292,0.35124752,4
-0.32917171716690063,-4.2501091957092285,1.818632960319519,-0.2827587425708771,1.5671748,0.6612616,4
-0.8220972418785095,-3.4649977684021,1.259575366973877,-0.15862081944942474,1.5943583,0.89736104,4
-0.8200594782829285,-2.8336756229400635,0.8915504217147827,-0.08454520255327225,1.0143417,0.82344633,4
-0.4220331609249115,-2.392571210861206,0.6796993017196655,-0.015563421882689,0.09865474,0.6169739000000001,4
0.1329067051410675,-1.9545214176177976,0.5093314647674559,0.13103483617305756,-0.6774496,0.3817908,4
0.6456880569458008,-1.4746667146682741,0.4187733232975006,0.3062260746955872,-0.5320636,0.27152961,4
0.8855646848678589,-1.0916073322296145,0.3070523738861084,0.4307946264743805,0.22235495,0.2773328,4
1.144606351852417,-0.9013944864273072,-0.1528565138578415,0.5698287487030029,0.35796702,0.43371433,4
1.6726239919662476,-0.9528600573539734,-0.23497095704078674,0.8628882169723511,-0.1432479,0.16157386,4
2.1655704975128174,-1.8938390016555784,0.4597087204456329,0.8144474625587463,-0.979217,-0.12889257,4
1.50877583026886,-4.3363633155822745,0.14480052888393402,0.8046087622642517,2.7156014,0.08460484,4
1.0435705184936523,-7.068271160125732,1.5655144453048706,0.7651423215866089,-0.30482176,1.1661416999999998,4
0.8840137720108032,-9.456319808959961,2.559814453125,0.8741878271102905,-0.3631594,1.0729848,4
1.3046491146087646,-11.421896934509276,3.5601513385772705,0.7922650575637817,-0.093462385,-0.23945917,4
2.264111042022705,-13.012451171875,3.830515146255493,0.5372831225395203,0.18081611,-0.84757555,4
2.9301252365112305,-14.291278839111328,3.988857746124268,0.181439146399498,0.07147124,-0.98624194,4
2.960875988006592,-15.303470611572266,3.766819953918457,-0.23774486780166626,-0.31673363,-0.70280045,4
2.5378568172454834,-15.79277801513672,3.3558661937713623,-0.6386492252349854,-0.50243664,-0.30665436,4
2.0135748386383057,-15.227456092834473,2.7608356475830083,-0.9845525026321412,0.3277292,0.0067195175,4
1.530325412750244,-13.644384384155273,2.1421713829040527,-1.1868245601654053,0.31520647,-0.3707952000000001,4
1.5860531330108645,-11.134471893310547,1.7299669981002808,-1.2413175106048584,0.3136793,-0.42821655,4
1.813089370727539,-8.754250526428223,1.5717397928237915,-1.1593806743621826,0.03634648,-0.52320606,4
1.895341157913208,-6.949317455291747,1.7211170196533203,-0.8730690479278564,-0.5122104999999999,-0.54550266,4
1.6082563400268557,-5.6466169357299805,1.888172626495361,-0.4616432785987854,-0.89552844,-0.18936823,4
0.9675400853157043,-4.679147720336914,1.6770453453063965,-0.15980264544487,-0.25717425,0.27580565,4
0.2428329586982727,-3.8694701194763184,1.0510231256484983,-0.04423348605632782,0.38606682,0.46883908,4
-0.10530703514814377,-3.1585006713867188,0.4969746172428131,0.0016069047851487994,0.08368854,0.5216789000000001,4
-0.138075053691864,-2.6499593257904053,0.3049159348011017,0.06845492124557495,-0.3652974,0.40439278,4
-0.08006787300109862,-2.33153772354126,0.3607053756713867,0.1768493801355362,-0.74097955,0.41722095,4
-0.03287182748317718,-2.1298561096191406,0.514434814453125,0.3010920882225037,-0.74220127,0.4437936,4
-0.0195492822676897,-1.9216454029083248,0.6158126592636108,0.4323756694793701,-0.49357912,0.5369505,4
-0.01927776075899601,-1.6613705158233645,0.7149868011474609,0.59307861328125,-0.6759224,0.7886270000000001,4
0.04783705249428749,-1.43984055519104,0.4769127070903778,0.8686708211898804,-1.5537357,0.77488256,4
0.0002339422208024189,-1.5228086709976196,0.010898319073021412,1.1159651279449463,-0.017104227,0.41996986,4
0.41218242049217213,-2.2242095470428467,0.8579258322715759,1.159101486206055,-0.6469063,-0.046120327,4
1.267376184463501,-4.375253200531007,1.1038280725479126,1.0732352733612058,2.384207,-0.24770586,4
2.1030318737030034,-7.153656005859375,2.002118825912476,0.9203187823295592,0.8918633,1.4929546,4
1.3247356414794922,-9.54682445526123,3.259692668914795,0.9431853890419006,-0.020463986,1.3408492,4
0.9716016054153442,-11.500064849853516,3.9931457042694087,0.7341287732124329,-0.5861251999999999,-0.16646078,4
1.7958974838256836,-13.077388763427734,4.195605754852295,0.35072988271713257,-0.15668693,-1.2574661,4
2.685823678970337,-14.294239044189453,4.050763130187988,-0.11615841835737227,0.1908954,-0.90224797,4
3.042943000793457,-15.1836576461792,3.6990156173706055,-0.585633397102356,-0.27397305,-0.7089091,4
2.798041582107544,-15.417072296142578,3.1823647022247314,-0.9997848272323608,-0.4605924,-0.52626044,4
2.3010683059692383,-14.475308418273926,2.4891796112060547,-1.3049070835113523,0.40530908,-0.5018258,4
1.9508136510849,-12.375847816467285,1.8740154504776,-1.4550868272781372,0.7504479000000001,-0.6346890000000001,4
1.6890511512756348,-9.78415298461914,1.3866562843322754,-1.4788119792938232,0.16615535,-0.88270026,4
1.4908692836761477,-7.61365795135498,1.0430880784988403,-1.3554521799087524,-0.33261612,-0.73426,4
1.2398802042007446,-6.2414751052856445,1.1134846210479736,-1.0623645782470703,-0.57360244,-0.52595496,4
0.8705724477767944,-5.425261497497559,1.549910306930542,-0.7018892765045166,-0.5213734999999999,-0.24984388,4
0.5082942843437195,-4.727842807769775,1.86832857131958,-0.3790293633937836,-0.31734450000000003,0.094989546,4
0.09447959810495377,-3.8856141567230233,1.5622210502624512,-0.18216407299041748,0.44806966,0.30818152,4
-0.26928550004959106,-3.0025224685668945,1.0480067729949951,-0.09065107256174088,0.8362745,0.25167647,4
-0.3811272084712982,-2.3368608951568604,0.6839930415153503,-0.03761716559529305,0.3930918,0.31612277,4
-0.4032098948955536,-1.9112895727157595,0.3502207398414612,0.00626054499298334,-0.047036625,0.43066,4
-0.39380893111228943,-1.6400474309921265,0.03711474686861038,0.06823829561471939,-0.108123146,0.48624873,4
-0.22205905616283414,-1.3882582187652588,0.03433020412921905,0.19873689115047452,-0.29810223,0.6038403,4
0.22829370200634005,-1.2827991247177124,0.39739471673965454,0.38403570652008057,-0.70524395,0.49296826,4
1.0871145725250244,-1.5981197357177734,0.5398935079574585,0.6398076415061951,-1.2357804,-0.046120327,4
1.9814373254776,-2.9552886486053467,0.991710901260376,0.7456669807434082,-0.763887,-0.48930305,4
2.097696542739868,-5.543261528015137,0.8000596165657043,0.8192901015281677,2.9663615,-0.20066923,4
2.2220029830932617,-8.130383491516112,1.9922013282775881,0.8739766478538513,0.093767814,1.611768,4
1.1532213687896729,-10.331106185913086,2.6114535331726074,0.8799791932106018,0.14446963,0.6612616,4
0.7874082922935486,-12.130287170410154,3.213052034378052,0.6594225764274597,-0.38087448,-0.44043383,4
1.6727405786514282,-13.583585739135742,3.258574962615967,0.28587648272514343,-0.052534413,-0.6762278,4
2.295874118804932,-14.73466968536377,3.0698463916778564,-0.13172590732574466,0.02565634,-0.7528914000000001,4
2.3597328662872314,-15.518373489379885,2.7215075492858887,-0.5511332750320435,-0.26542094,-0.3848451,4
2.1301755905151367,-15.277406692504885,2.3247954845428467,-0.906863570213318,0.6881397,-0.16126843,4
2.1075162887573238,-13.791986465454102,2.079305410385132,-1.1725767850875854,0.77213365,-0.28252518,4
2.356907367706299,-11.425323486328125,1.7079185247421265,-1.2753511667251587,0.36957347,-0.48502702,4
2.4608945846557617,-8.929791450500488,1.3366340398788452,-1.2644944190979004,0.21410827,-0.5543602,4
2.185842037200928,-7.044752597808838,1.244691252708435,-1.1045262813568115,-0.07299839999999999,-0.5207626000000001,4
1.6248779296875,-5.948484897613525,1.2762032747268677,-0.7760238051414491,-0.6936375,-0.37201694,4
0.9042423367500304,-5.224318504333496,1.235502004623413,-0.4345800280570984,-0.4541782999999999,0.13225232,4
0.09362927079200743,-4.423227787017822,0.9960101842880248,-0.26425257325172424,0.033292156,0.40561453,4
-0.5282156467437744,-3.526530742645264,0.602242648601532,-0.1988936960697174,0.07299839999999999,0.34666604,4
-0.7973055839538574,-2.727085590362549,0.2685556411743164,-0.1480759233236313,-0.18875736,0.3115413,4
-0.8245438933372498,-2.169788122177124,0.08274418115615845,-0.08885204046964645,-0.41080686,0.12034045,4
-0.6838643550872803,-1.8313913345336916,0.03779366612434387,0.006687028333544731,-0.22724187,0.11178834,4
-0.3870031237602234,-1.6633015871047974,0.19004635512828827,0.12966713309288025,-0.21777347,0.3286455,4
0.003344663651660085,-1.6053019762039185,0.6144617199897766,0.2546170353889465,-0.50854534,0.6780604,4
0.4440664947032929,-1.8393027782440183,0.8319255113601685,0.5280299186706543,-1.3561208,0.48197266,4
1.2914246320724487,-2.4712088108062744,0.6974456310272217,1.0044366121292114,-2.6615398,-0.21960606,4
1.7962297201156616,-3.849714994430542,0.3517788648605347,1.1824402809143066,0.24251351,-0.5015204000000001,4
2.452817440032959,-6.355900764465332,1.4821584224700928,1.259256362915039,2.4733934,-0.03756821,4
2.0212438106536865,-8.786035537719728,2.3115715980529785,1.4168348312377932,0.36071593,2.6667323,4
0.5833220481872559,-10.571259498596193,3.113551378250122,1.4743407964706419,-0.57360244,0.59986967,4
1.2001240253448486,-11.936636924743652,3.5606403350830083,1.2675657272338867,-0.72204274,-0.9651671,4
2.297232389450073,-13.32579231262207,3.397480726242065,0.8016997575759888,0.52320606,-0.9645562,4
2.6791224479675293,-14.520865440368652,3.2264912128448486,0.1999194622039795,0.77366084,-0.3903429,4
2.579030513763428,-15.491124153137207,3.0336782932281494,-0.34639737010002136,0.48624873,-0.2489276,4
2.2368125915527344,-15.977999687194824,2.823535442352295,-0.8428521752357483,0.39706242,-0.3304781,4
2.0127453804016118,-15.39999294281006,2.424739360809326,-1.2480200529098509,0.97097033,-0.27702740000000003,4
1.9956922531127932,-13.743114471435547,2.109881639480591,-1.4858440160751345,0.8445212,-0.34605515,4
1.9925482273101809,-11.376066207885742,1.7754853963851929,-1.532359004020691,1.1731668,-0.23915374,4
1.8998667001724243,-8.996432304382324,1.5864465236663818,-1.4428507089614868,0.13561209,-0.410196,4
1.6245484352111816,-7.274677276611327,1.7070841789245603,-1.1018120050430298,-0.7153232,-0.46578476,4
1.1936575174331665,-6.205056667327881,1.8783119916915891,-0.6018424034118652,-0.7199047,-0.30848694,4
0.706817626953125,-5.409122943878174,1.6418107748031616,-0.1849244087934494,-0.09896017,0.2855795,4
0.17541956901550293,-4.586685180664063,1.0681055784225464,0.058220550417900085,0.6979135000000001,0.6026186,4
-0.1184157207608223,-3.605508089065552,0.4980764389038086,0.22288016974925995,0.93859446,0.7351763000000001,4
-0.09888161718845367,-2.8281779289245605,0.057616010308265686,0.3497210144996643,0.64751714,0.6759224,4
0.2015221267938614,-2.3036882877349854,-0.1200978234410286,0.5100467205047607,0.1328632,0.5152648,4
0.6031225323677063,-1.8559730052948,0.1852899193763733,0.6913942694664001,-0.4560109000000001,0.38545597,4
0.9476463794708252,-1.4007984399795532,1.1888333559036257,0.7962922453880309,-1.2458596000000002,0.52503866,4
1.1570988893508911,-1.0550800561904907,1.25398051738739,0.8503135442733765,-2.3591616,0.4529566,4
1.0476373434066772,-0.8866288065910339,0.5667353272438049,1.0367339849472046,-0.32009340000000003,0.14599679999999998,4
0.8417467474937439,-1.3472886085510254,0.6440923810005188,1.0618400573730469,-0.3549127,-0.40317106,4
0.7684284448623657,-3.053924083709717,0.2168126106262207,0.9514048099517822,1.9596558,-0.39553526,4
1.5069973468780518,-5.695071697235107,1.238078236579895,0.8070021867752075,0.48380527,-0.16401732,4
1.716756820678711,-8.266632080078125,1.9489681720733645,0.8315500617027283,0.763887,1.7577647,4
1.0176929235458374,-10.443793296813963,3.1042084693908687,0.8254536986351013,0.0571159,0.79137594,4
1.000297784805298,-12.221437454223633,3.7456896305084233,0.6278296113014221,-0.026267206,-0.31948254,4
1.9434372186660769,-13.657017707824707,4.025720119476318,0.27818286418914795,0.19272798,-0.92485,4
2.8346965312957764,-14.785386085510256,4.040102481842041,-0.15534768998622894,0.40133846,-0.9202685,4
3.0995841026306152,-15.644179344177244,3.7294867038726807,-0.603246808052063,0.31764993,-0.5412266,4
2.7722737789154053,-16.01220703125,3.1469709873199463,-1.0391714572906494,0.41538838,-0.11453723,4
1.9262319803237915,-14.703691482543945,2.478868007659912,-1.382140874862671,1.0757337,-0.28313604,4
1.5445476770401,-12.410276412963867,1.9384669065475464,-1.612080693244934,0.99173975,-0.6563747,4
1.6750115156173706,-9.687373161315918,1.4478871822357178,-1.7030706405639648,1.1884383,-0.5103779,4
1.8290754556655884,-7.458259582519531,1.268281102180481,-1.6380425691604614,0.17348573,-0.5412266,4
1.7213991880416868,-6.107741832733153,1.4258391857147217,-1.362199068069458,-0.3145956,-0.5647449000000001,4
1.4135055541992188,-5.344873905181885,1.6614528894424438,-0.9494665265083312,-0.37995818,-0.30909783,4
0.9648863673210144,-4.710780620574951,1.6030036211013794,-0.604444682598114,0.34147367,0.0888809,4
0.4208051264286041,-3.9324355125427246,1.0153759717941284,-0.4568050503730774,1.3588698,0.22785273,4
-0.020241763442754745,-3.1455180644989014,0.5043599605560303,-0.3031454384326935,0.76052725,0.109650314,4
-0.13587215542793274,-2.5520129203796387,0.3731397390365601,-0.151809424161911,0.27855456,0.112704635,4
-0.12937459349632266,-2.1414988040924072,0.5203840136528015,-0.04851529002189636,-0.22327125,0.12034045,4
-0.1356825977563858,-1.826804995536804,0.6871376633644104,0.07420160621404648,-0.25870144,0.29962940000000005,4
-0.17443564534187314,-1.5457303524017334,0.7714329361915588,0.23106591403484344,-0.098043874,0.4633413,4
-0.2596754729747772,-1.32519268989563,0.8833616375923157,0.379235714673996,-0.22602014,0.59315014,4
-0.2926362454891205,-1.2284362316131592,0.9530352950096129,0.49825957417488104,-0.54611355,0.6798930000000001,4
0.07238150388002396,-1.5763671398162842,0.4645589590072632,0.7463200688362122,-0.23396139,0.3463606,4
0.9042946100234984,-2.6669249534606934,1.3603854179382324,1.0323200225830078,-1.5234979,-0.42058071,4
1.335371732711792,-5.090209484100342,2.2969741821289062,1.247964859008789,1.7825048,-0.11362094,4
1.5978951454162598,-7.706438064575195,3.1774818897247314,1.3564919233322144,1.981036,1.325883,4
0.9522529840469359,-9.963685989379883,3.9344332218170166,1.5398221015930176,0.54183745,1.7397442,4
0.3024874329566956,-11.379151344299315,4.355760097503662,1.4569848775863647,-0.10354166,0.22602014,4
0.6809725165367126,-12.584242820739744,4.549859046936035,1.1124120950698853,0.08246681,-1.1184943,4
1.4686293601989746,-13.838011741638185,4.449748516082764,0.5580700039863586,0.027183503,-1.0280862,4
1.8376950025558472,-14.930834770202635,4.293359279632568,0.017105448991060257,-0.20799962,-0.17379116,4
1.491183161735535,-15.829206466674805,4.128776550292969,-0.4810137748718262,-0.5891795,-0.43463063,4
1.1983383893966677,-16.32689094543457,3.955368995666504,-0.9014642238616944,-0.3827071,-0.86926126,4
1.615378975868225,-15.833131790161133,3.94050669670105,-1.2177402973175049,-0.3744604,-0.7199047,4
2.387828826904297,-14.087700843811035,3.779292106628418,-1.34589684009552,0.35338554,-0.61086524,4
2.721382141113281,-11.666268348693848,3.3304064273834233,-1.3009392023086548,2.1374176,-0.75228053,4
2.6277754306793213,-9.163167953491213,2.647936582565308,-1.1833040714263916,0.16982053,-0.310625,4
1.9132499694824217,-7.337577819824219,2.2783129215240483,-0.8387562036514282,-2.2128594,-0.6954701,4
0.965759575366974,-6.205172061920166,2.0432419776916504,-0.4341552257537842,-1.4052955,-0.06505715,4
0.3205214142799377,-5.377766132354736,1.6515086889266968,-0.17151707410812378,0.49938235,0.7706065,4
-0.07172852009534836,-4.336441040039063,1.1272037029266355,-0.07592151314020157,0.5002986,0.6722571999999999,4
-0.2202855944633484,-3.2740471363067627,0.5737547874450684,-0.03781648725271225,0.14752395,0.73639804,4
-0.36535972356796265,-2.488104343414306,0.10921710729599,-0.0256454274058342,-0.1160644,0.59773165,4
-0.4492771029472351,-2.0005991458892822,-0.16554537415504456,0.026922473683953285,0.042760565999999986,0.3323107,4
-0.2888590395450592,-1.7068517208099363,-0.07371632009744644,0.0925443097949028,0.06994407,0.21227567,4
0.16264836490154266,-1.4583195447921753,0.3078226149082184,0.12559503316879272,-0.19150625,0.39095375,4
0.4746383726596832,-1.2134859561920166,0.8251898884773254,0.1814952939748764,-0.48441613,0.52290064,4
0.4448454082012177,-1.0476095676422121,1.10223126411438,0.2963526546955109,-0.86254174,0.48288897,4
0.391830325126648,-1.3491365909576416,1.097201943397522,0.5683360695838928,-1.303281,-0.048563786,4
0.6894709467887878,-2.1859822273254395,1.1165117025375366,0.8335786461830139,-1.4046847,0.29352075,4
0.739210307598114,-4.30479097366333,1.0796329975128174,0.9390491247177124,1.8078557,0.5177083,4
0.9696337580680848,-6.971835613250732,1.991793155670166,1.0096181631088257,0.71868294,0.64965516,4
1.4783284664154053,-9.35966968536377,2.6427929401397705,1.136993169784546,0.07941248,2.2721133,4
0.6397939920425415,-11.339027404785154,3.6930649280548096,1.1792727708816528,-0.16279559,1.0824533,4
0.5228323340415955,-12.946205139160154,4.375993728637694,1.0543708801269531,-0.6273586,-0.11728613,4
1.287234902381897,-14.22838020324707,4.6032752990722665,0.7271535992622375,0.044898596,-1.099252,4
2.2484681606292725,-15.262137413024902,4.457383632659912,0.23274852335453036,0.31031954,-1.1010846,4
2.5336313247680664,-16.096685409545902,4.04465389251709,-0.2784205973148346,-0.25809056,-1.0122037,4
2.192332029342652,-16.511287689208984,3.528653383255005,-0.7374910116195679,-0.20525073,-0.9114109,4
1.7062807083129885,-16.011152267456055,3.0152955055236816,-1.1429723501205444,-0.022907447,-0.7128797,4
1.301973581314087,-14.503710746765135,2.5218567848205566,-1.4575611352920532,0.57543504,-0.55863625,4
1.206400990486145,-12.28006649017334,2.109264373779297,-1.6092033386230469,1.6536123,-0.48930305,4
1.371443510055542,-9.876023292541504,1.795829176902771,-1.6012039184570312,1.6065756000000002,-0.39400807,4
1.3760894536972046,-8.065341949462889,1.9171268939971924,-1.4228277206420898,0.33108896,-0.52595496,4
1.1450388431549072,-6.925447940826416,2.561229944229126,-0.9986862540245056,-0.77518797,-0.47494772,4
0.6867993474006653,-5.957042217254639,2.947882413864136,-0.40594321489334106,-1.3869696000000002,0.105374254,4
0.03709087148308754,-4.901237964630127,2.356786727905273,-0.02502792328596115,0.5815437,0.8032878000000001,4
-0.7261124253273009,-3.842682838439941,1.4331207275390625,0.15446694195270538,0.73823065,0.410196,4
-1.0897200107574463,-3.029134511947632,0.7158753871917725,0.2493092119693756,0.11789699,0.27275133,4
-0.9833233952522278,-2.53018569946289,0.15753374993801114,0.3151283264160156,-0.16737708,0.3717115,4
-0.6441269516944885,-2.201903820037842,-0.1710996925830841,0.4265204668045044,-0.2275473,0.45998153,4
-0.08844007551670073,-1.815509557723999,-0.12468130886554718,0.5407528877258301,-0.9798279,0.49510628,4
0.5744919776916504,-1.2592591047286987,0.13292758166790009,0.5760306715965271,-1.717753,0.33353242,4
1.0033589601516724,-1.0180320739746094,0.23619210720062256,0.567861795425415,-1.2030991000000002,0.26267207,4
0.9671018123626708,-2.077615737915039,0.7635180950164795,0.6800714731216431,-0.42913285,0.23579398,4
1.0100642442703247,-4.127603054046632,0.20080970227718356,0.6184269189834595,0.35521814,-0.18692477,4
1.26863431930542,-6.730900287628174,1.1833534240722656,0.6453909873962402,-0.5119051,0.310625,4
1.0649574995040894,-9.141806602478027,2.1309313774108887,0.7557898163795471,0.18875736,2.2745566000000004,4
0.3906431198120117,-11.135904312133787,3.679664850234986,0.916202425956726,-0.50579643,1.0604621,4
1.0360310077667236,-12.652576446533205,4.296767234802246,0.8212976455688477,0.23548855,-0.15027285,4
2.282923698425293,-13.952292442321776,4.419187545776367,0.4870888292789459,0.68691796,-1.02717,4
3.1819667816162114,-15.036606788635256,4.327388286590576,0.03532059118151665,0.6026186,-1.01312,4
3.3149120807647705,-15.889470100402832,3.9586708545684814,-0.4423213005065918,0.5216789000000001,-0.5546656,4
2.787754535675049,-16.106420516967773,3.4760320186614986,-0.8686001300811768,-0.0030543262,-0.462425,4
2.0618789196014404,-15.440621376037598,2.8099822998046875,-1.1944856643676758,0.7171558000000001,-0.52687126,4
1.5300341844558716,-13.69321060180664,1.94231379032135,-1.4085873365402222,1.6184875,-0.56505036,4
1.4659926891326904,-11.194262504577637,1.1884183883666992,-1.5110498666763306,1.2073752,-0.7452555999999999,4
1.7294381856918335,-8.735642433166504,0.9906924962997437,-1.420897126197815,-0.34666604,-1.0503827,4
1.7068160772323608,-6.994041442871094,1.132383108139038,-1.1497260332107544,-1.02717,-0.88270026,4
1.2472779750823977,-5.868359088897705,1.35889732837677,-0.7768387794494629,-1.0815369,-0.35094208,4
0.6427387595176697,-4.850141525268555,1.232604742050171,-0.4869301915168762,0.21380283,0.12950343,4
0.2930907607078552,-3.757786989212036,0.7221956849098206,-0.34391462802886963,1.0464121,0.10934488,4
0.16387467086315155,-2.8418264389038086,0.3905102610588074,-0.26079538464546204,0.38759398,0.021991149,4
0.04619696736335754,-2.3185086250305176,0.3240761458873749,-0.1632843315601349,-0.45081854,0.048258353,4
-0.08052526414394379,-2.0867033004760738,0.4047761559486389,-0.05262035876512528,-0.41996986,0.19028452,4
-0.11768922954797745,-1.8942962884902956,0.5959203839302063,0.07741210609674454,0.0842994,0.42546764,4
-0.1028118059039116,-1.7175333499908447,0.953376531600952,0.2147972583770752,0.23823744,0.7965683000000001,4
-0.12810082733631134,-1.5827946662902832,1.2928060293197632,0.3747713267803192,-0.28069258,0.9660834,4
0.10196380317211153,-1.598562479019165,1.0344012975692751,0.6875887513160706,-1.8600847,0.21380283,4
0.7957893610000609,-1.7484310865402222,0.9885963201522828,0.8727483153343201,-1.6600263,-0.28771752,4
1.3776031732559204,-3.495765686035156,1.8965003490448,0.9587043523788452,0.44929138,-0.6078109,4
1.9562159776687624,-6.195113658905028,2.4953598976135254,1.027043342590332,2.6288586,1.3121386,4
1.5252412557601929,-8.705023765563965,3.755263805389404,1.269875168800354,0.15118915,2.1303926,4
0.2556021213531494,-10.806169509887695,4.597768306732178,1.258454203605652,-0.63132924,0.28924468,4
0.6770745515823364,-12.501216888427734,4.609894275665283,0.9215309619903564,-0.36102137,-1.087951,4
2.122948408126831,-13.85794734954834,4.2414159774780265,0.3799842596054077,0.36468655,-1.0748174,4
2.3406901359558105,-14.96976375579834,3.879322052001953,-0.19713351130485532,-0.8081746999999999,-0.46761733,4
1.4246386289596558,-15.579998970031738,3.261441946029663,-0.6935505867004395,-0.68386364,-0.08246681,4
0.7941409349441528,-14.90479564666748,2.618187427520752,-1.0803837776184082,0.6252206,0.1001819,4
0.8863685131072998,-13.03604793548584,2.2615396976470947,-1.3628398180007937,0.44226643,-0.30726522,4
1.3909262418746948,-10.41299533843994,1.7174718379974363,-1.4946336746215818,0.8002335,-0.3005457,4
1.6227431297302246,-8.027070045471191,1.2301350831985474,-1.488081693649292,0.15577064,-0.42852196,4
1.694539189338684,-6.5005717277526855,1.1647233963012695,-1.2615822553634644,-0.66614854,-0.50915617,4
1.6078844070434568,-5.7699623107910165,1.5509332418441772,-0.9139230251312256,-1.2284501,-0.51251596,4
1.286980390548706,-5.354151248931885,1.8762061595916748,-0.5285671353340149,-0.9773844,-0.24923302,4
0.7613078355789185,-4.757552146911621,1.828145146369934,-0.19943144917488095,-0.2751948,0.32589662,4
0.17491114139556885,-3.8994417190551762,1.329529881477356,0.037888728082180016,0.7165449,0.53969944,4
-0.2831190824508667,-3.0550687313079834,0.806035578250885,0.22502629458904266,0.59803706,0.49938235,4
-0.4590253531932831,-2.4077064990997314,0.3926868736743927,0.3582785725593567,0.30848694,0.56199604,4
-0.3925655782222748,-1.9629919528961184,0.2454080134630203,0.4315549433231354,-0.36071593,0.5726861999999999,4
-0.1948050558567047,-1.647950530052185,0.28282806277275085,0.4737925529479981,-1.4239268,0.5864305999999999,4
0.18013527989387512,-1.3594523668289185,-0.15975064039230347,0.6282240152359009,-1.9706513,0.4783075,4
0.4156297743320465,-1.2499842643737793,-0.4018291532993317,0.7958118319511414,-0.6774496,0.23060162,4
0.9364840388298036,-2.603696346282959,0.17029568552970886,0.9258756637573242,-1.7763962,-0.54275376,4
1.8034263849258425,-4.839108943939209,0.314763605594635,0.9921611547470092,1.387275,-0.5531385,4
2.599668264389038,-7.437386035919189,1.4971318244934082,0.9856780767440796,0.92485,-0.0067195175,4
1.2834995985031128,-9.74266242980957,2.8373055458068848,1.1279336214065552,0.70921457,2.0971005000000003,4
0.5864914655685425,-11.52332592010498,3.6197726726531982,1.17608642578125,-0.28191432,1.201572,4
1.8032617568969729,-12.747640609741213,3.760793924331665,1.0475314855575562,0.56291234,-0.31826079999999995,4
3.149176359176636,-13.95131015777588,3.7084381580352783,0.671496570110321,0.4642576,-0.9615019,4
3.208227634429932,-15.017087936401367,3.5807230472564697,0.20302382111549375,0.051923547,-0.45998153,4
2.1119539737701416,-15.885160446166992,3.3689093589782715,-0.2399128079414368,-0.31031954,-0.5018258,4
1.3472249507904053,-16.187997817993164,3.1466155052185063,-0.6441965103149414,-0.3921755,-0.4447099,4
1.37162446975708,-15.438191413879395,2.8525137901306152,-1.0066171884536743,-0.37965274,-0.42913285,4
1.778592228889465,-13.593597412109375,2.47104287147522,-1.2382357120513916,0.3115413,-0.37110063,4
2.178285360336304,-11.171833992004396,2.0805163383483887,-1.3607392311096191,0.9786061,-0.48197266,4
2.193025827407837,-8.798896789550781,1.623401761054993,-1.3833574056625366,0.5375614000000001,-0.59131753,4
1.89749538898468,-7.015678405761719,1.407614827156067,-1.2062277793884275,-0.21166481,-0.49938235,4
1.5188521146774292,-5.846604824066162,1.7103524208068848,-0.8708944320678711,-0.63132924,-0.28771752,4
1.072097897529602,-5.116055488586426,2.210508108139038,-0.5160436034202576,-0.7699956,0.004581489,4
0.4788046777248383,-4.584137916564941,2.1732053756713867,-0.2637426257133484,0.3036,0.53786683,4
-0.23718735575675964,-3.937005043029785,1.4052139520645142,-0.10129537433385848,1.4401149,0.6044512,4
-0.4756450355052948,-3.1958084106445312,0.8947317004203796,0.055028047412633896,1.0280862,0.40500367,4
-0.26868054270744324,-2.5499985218048096,0.7606246471405029,0.1669384241104126,0.056199603,0.30787608,4
-0.00027116868295706814,-2.003058671951294,0.6752834916114807,0.2686687111854553,-0.79381937,0.39187005,4
0.12825559079647064,-1.5013798475265503,0.5563088059425354,0.4235599637031555,-0.70096785,0.65148777,4
0.2236766368150711,-1.0867040157318115,0.6852062940597534,0.5903509855270386,-0.5729916,0.79779,4
0.623380184173584,-0.8006698489189148,0.40387311577796936,0.6885455846786499,-1.1569787,0.44532076,4
1.0928720235824585,-0.9642438888549804,0.8152946829795837,0.7035428285598755,-0.42058071,0.15821409,4
1.1388747692108154,-3.037580728530884,1.0655021667480469,0.7248592376708984,0.68661255,-0.9260716999999998,4
1.7358342409133911,-5.878037929534912,1.7249308824539185,0.6481708884239197,0.06658431,-0.2846632,4
2.1098010540008545,-8.460177421569824,2.5505602359771733,0.7449192404747009,1.8460348,1.956296,4
0.7756443619728088,-10.611610412597656,3.886677503585816,0.7778581380844116,-0.04550946,0.9392053,4
0.7084450721740723,-12.360103607177734,4.3941683769226065,0.6208396553993225,-0.022907447,-0.33108896,4
1.862079620361328,-13.756022453308105,4.330078601837158,0.21093229949474332,0.3735441,-1.1496483999999998,4
2.2806038856506348,-14.71810817718506,4.007394790649413,-0.29542291164398193,-0.36071593,-1.2223413,4
1.7835363149642944,-15.29812240600586,3.483736515045166,-0.7806885242462158,-0.37323865,-0.3585779000000001,4
0.803003191947937,-15.17771053314209,2.868330717086792,-1.1597439050674438,0.6383542,-0.005497787,4
0.2404385954141617,-13.896454811096193,2.473522901535034,-1.4750722646713257,0.31856623,-0.16310102,4
0.3400280773639679,-11.55364990234375,1.92756450176239,-1.6242095232009888,0.08979719,-0.5195409000000001,4
0.8143513202667236,-8.956877708435059,1.3346647024154663,-1.633596897125244,0.013439035,-0.2910773,4
1.2708678245544434,-6.9865050315856925,1.1390875577926636,-1.4764343500137331,-0.22266038,-0.38759398,4
1.5440615415573118,-5.936113834381104,1.3852351903915403,-1.135527729988098,-0.5195409000000001,-0.45020768,4
1.5764845609664917,-5.34722900390625,1.8093557357788088,-0.6324187517166138,-0.116675265,-0.34238997,4
1.2849245071411133,-4.5862770080566415,1.984519600868225,-0.27940958738327026,-0.16401732,0.1160644,4
0.6655693650245667,-3.6837003231048575,1.3128018379211426,-0.15326310694217682,0.6291912,0.22296582,4
0.20434989035129547,-2.8359191417694087,0.731535792350769,-0.0017228099750354884,0.19639318,0.17837265,4
0.04426931217312813,-2.2411539554595947,0.5707459449768066,0.10571452230215073,-0.34941490000000003,0.076052725,4
-0.04494035989046097,-1.8963418006896973,0.5573056936264038,0.16077636182308194,-0.54061574,0.14874569,4
-0.17552495002746582,-1.7488248348236084,0.4917459785938263,0.2348787784576416,-0.5467244000000001,0.39400807,4
-0.3386249244213104,-1.6740387678146362,0.42343801259994507,0.3673336505889893,-0.4569272,0.5543602,4
-0.468722403049469,-1.5788226127624512,0.7161035537719727,0.5048792958259583,-0.42180246,0.782213,4
-0.357448011636734,-1.5564045906066897,0.8590397238731384,0.7280699610710144,-0.98746365,0.9297369,4
-0.02428821660578251,-1.8727047443389893,0.6120606064796448,1.1268925666809082,-0.00061086525,0.23609942,4
0.7777176499366759,-3.3546812534332275,0.93379408121109,1.2291661500930786,0.02687807,-0.40530908,4
1.4448833465576172,-5.924603462219237,2.1057534217834477,1.360551118850708,2.0201313,0.00580322,4
1.790467619895935,-8.445140838623049,2.8694946765899663,1.5467076301574707,1.8219056,2.1633792,4
0.8396890163421631,-10.55179214477539,3.818175792694092,1.7009943723678589,0.39920044,1.564426,4
0.5579003095626831,-11.977032661437988,4.2839460372924805,1.5672919750213623,-0.13958271,0.21655174,4
0.9483065009117126,-13.062946319580078,4.347616195678712,1.132777214050293,0.6740898,-0.7901541999999999,4
1.3707737922668457,-14.20472240447998,4.4067158699035645,0.5529718399047852,0.23518312,-0.77274454,4
1.3190735578536987,-15.219259262084961,4.400658130645752,0.025526368990540504,-0.41172317,-0.30390546,4
0.8674581050872803,-16.01083755493164,4.274097442626953,-0.40274539589881897,-0.50823987,-0.50335294,4
0.7853658199310303,-15.973496437072756,3.9432373046875,-0.7531391978263855,-0.031154128,-0.55924714,4
1.1953859329223633,-14.845996856689453,3.4820189476013184,-1.0147995948791504,0.6133086999999999,-0.2773328,4
1.4496877193450928,-12.737515449523926,3.05249571800232,-1.1806797981262207,0.7012733,-0.32162055,4
1.1984106302261353,-10.444531440734863,2.4697959423065186,-1.265469312667847,0.5830709,-0.4437936,4
0.8504624366760254,-8.524121284484862,1.879131555557251,-1.2702887058258057,0.25289822,-0.40744713,4
0.7192118167877197,-7.0277161598205575,1.5653138160705566,-1.113218903541565,0.04734206,-0.22327125,4
0.6998469233512878,-5.845624923706055,1.603872537612915,-0.8444283604621887,-0.64873886,-0.118507855,4
0.6876419186592102,-4.837439060211182,1.7597182989120483,-0.5688458085060121,-0.84879726,0.08124508,4
0.5504950881004333,-3.930629968643189,1.6497607231140137,-0.4033898413181305,-0.15332718,0.18967366,4
0.3188930451869965,-3.1273386478424072,1.133849024772644,-0.31609389185905457,0.56382865,0.081855945,4
0.2320263832807541,-2.4975643157958984,0.6997081637382507,-0.21838249266147614,0.43585235,0.11209377,4
0.2764858305454254,-2.090770483016968,0.5602499842643738,-0.1134527176618576,-0.19120082,0.15332718,4
0.2618569433689117,-1.8111977577209477,0.5914828181266785,0.02066092938184738,-0.45662177,0.31123585,4
0.1442883014678955,-1.6488299369812012,0.934173047542572,0.1876453310251236,-0.95905846,0.593761,4
0.08689354360103607,-1.56499183177948,0.7992250919342041,0.4641381204128266,-1.3478742,0.6575964,4
0.1587565541267395,-1.5867018699645996,0.35849687457084656,0.8348717689514159,-0.0421497,0.07727446,4
0.8800109624862671,-2.383460998535156,1.3960496187210083,0.9524532556533812,-0.44043383,-0.4447099,4
1.7006055116653442,-4.760211944580078,1.875332713127136,1.0954995155334473,3.4721580000000003,-0.39920044,4
2.7688920497894287,-7.408287048339844,3.1476230621337886,1.3066343069076538,1.649947,1.4837917,4
2.0511829853057857,-9.727917671203613,4.096217155456543,1.5286636352539062,0.25289822,1.640784,4
0.7587789297103882,-11.103463172912598,4.763917446136475,1.4618712663650513,-1.207986,-0.58001655,4
1.089610576629639,-12.336427688598633,4.893721580505371,1.0740483999252322,0.027488936,-1.4040737,4
1.903734803199768,-13.617616653442385,4.766014575958252,0.3801102042198181,0.52931476,-0.7330383,4
2.028655767440796,-14.74704647064209,4.494952201843262,-0.2812565267086029,0.28008172,-0.20097467,4
1.4648845195770264,-15.586322784423828,4.197169303894043,-0.799869179725647,-0.44623706,-0.24312437,4
0.8561179041862488,-15.409164428710938,3.706843852996826,-1.212072730064392,-0.13683382,-0.47219884,4
0.7669872045516968,-14.100390434265135,3.173547744750977,-1.495838284492493,0.41050145,-0.34972036,4
1.2589758634567259,-12.024378776550293,2.8261940479278564,-1.5970056056976318,0.32895094,-0.50793445,4
1.8669034242630005,-9.478082656860352,2.346848487854004,-1.5736845731735232,1.2528846000000002,-0.2012801,4
2.0425465106964107,-7.26238489151001,1.8799988031387331,-1.4651004076004028,0.49663344,-0.37201694,4
1.8829208612442017,-5.825424671173097,1.6329901218414309,-1.0571470260620115,-0.5448918,-0.4092797,4
1.4887745380401611,-5.0388712882995605,1.711949586868286,-0.6191574931144714,-1.636508,-0.20097467,4
0.9295387864112854,-4.482670307159424,1.568003535270691,-0.3338931500911713,-0.64996064,0.28099802,4
0.2843177318572998,-3.838220596313477,0.9755247831344604,-0.14464475214481354,0.83291477,0.34422258,4
-0.11472003161907195,-3.0794966220855717,0.4848575294017792,-0.013215848244726658,0.6575964,0.26083946,4
-0.12013264745473863,-2.3888609409332275,0.29947006702423096,0.0853240042924881,-0.2773328,0.28893927,4
-0.057073298841714866,-1.9271864891052248,0.2598426938056946,0.17157238721847534,-1.10139,0.3472769,4
-0.19031764566898346,-1.58436381816864,0.20749057829380035,0.2855605185031891,-1.1142181999999998,0.47433686,4
-0.3949970901012421,-1.2925646305084229,0.5031681060791016,0.3965013027191162,-0.6395759,0.61850107,4
-0.4458775818347931,-1.1926867961883545,0.8394591212272644,0.5257360339164734,-0.9816604,0.6032294,4
-0.15206001698970795,-1.4414732456207275,1.0102916955947876,0.7396829724311829,-0.50579643,0.12644911,4
0.6467427015304565,-2.512247323989868,1.2492820024490356,0.8890277147293091,-1.3542882,-0.36377025,4
1.3227672576904297,-4.788092613220215,1.9481709003448489,0.9409310221672058,1.9434677,0.09987647,4
1.6151303052902222,-7.414987087249756,2.817215919494629,1.0156074762344358,1.3096951,1.1242975,4
0.4101160764694214,-9.717853546142578,3.834999084472656,1.1683082580566406,-0.42852196,1.7000380000000002,4
-0.06321470439434053,-11.475557327270508,4.2972187995910645,1.0947352647781372,-0.5839871999999999,0.018325957,4
1.0556601285934448,-12.982076644897461,4.355280876159668,0.7747297883033752,-0.28863382,-1.3500122,4
2.4619314670562744,-14.250723838806152,4.170413017272948,0.3505314886569977,-0.30634892,-1.056186,4
2.74158263206482,-15.284693717956545,3.8861494064331055,-0.062348198145627975,-0.49357912,-0.91782504,4
2.360711574554444,-16.066043853759766,3.502649068832397,-0.43345555663108826,-0.35308012,-1.0341948,4
2.1159071922302246,-15.990426063537598,2.8529367446899414,-0.7221674919128418,-0.049785517,-0.58368176,4
1.7809373140335083,-14.890755653381348,2.3614590167999268,-0.9792625308036804,0.67347896,-0.25137106,4
1.3609328269958496,-12.987223625183105,1.901277780532837,-1.1468194723129272,0.89644474,-0.31642818,4
0.9723817706108092,-10.791059494018556,1.5596517324447632,-1.1954395771026611,-0.076052725,-0.30634892,4
0.6690643429756165,-8.735087394714355,1.375309705734253,-1.0979316234588623,-0.16829337,-0.15882497,4
0.6068556904792786,-7.095329284667969,1.460368037223816,-0.9143927693367004,0.15577064,-0.022296581,4
0.6119277477264404,-5.841399192810059,1.710288643836975,-0.6896098852157593,0.42485678,0.3381139,4
0.37479811906814575,-4.808909893035889,1.7570723295211792,-0.4885562062263489,0.39858958,0.49357912,4
0.03103593923151493,-3.985629558563232,1.553380250930786,-0.32127201557159424,0.13744467,0.44073927,4
-0.20467358827590945,-3.3313181400299072,1.2125879526138306,-0.1627749800682068,-0.12492194,0.48075095,4
-0.2871314585208893,-2.769566774368286,0.8423963785171509,-0.016503416001796722,-0.1282817,0.53786683,4
-0.2926987707614899,-2.2709903717041016,0.5257725119590759,0.12455595284700395,0.09437868,0.5897904,4
-0.25735095143318176,-1.865405797958374,0.37179949879646296,0.2686154544353485,0.16554448,0.6960809,4
0.0065686218440532676,-1.5516139268875122,0.4564985632896423,0.422380805015564,-1.4294246000000002,0.63255095,4
0.5405949950218201,-1.184385895729065,-0.017630495131015778,0.6845201253890991,-2.2537873,0.4156938,4
0.8662573099136353,-0.8981325030326843,-0.15727993845939636,0.7991507053375244,-0.19394971,0.22266038,4
1.1466562747955322,-1.8144968748092647,0.8705464601516724,0.7585251927375793,-0.7067711,-0.7199047,4
1.505652904510498,-4.152864456176759,0.35260823369026184,0.6422128677368164,2.740036,-0.1826487,4
1.5714097023010254,-6.873630046844482,2.113010168075561,0.6927169561386108,0.89461213,1.3350459,4
0.7433959245681763,-9.286717414855957,3.5027375221252437,0.8756093978881836,-0.9120218,2.1471913,4
0.5944818258285522,-10.951776504516602,4.359511375427246,0.9532716870307922,-0.7583892,0.17501289,4
2.035813570022583,-12.138154983520508,4.512979507446289,0.6922712922096252,0.81092364,-1.5149458999999998,4
3.4482898712158203,-13.436616897583008,4.5084614753723145,0.22292105853557587,0.25076020000000004,-1.5509868999999998,4
3.3736388683319087,-14.594488143920898,4.192306995391847,-0.2712987959384918,-0.15393804,-0.7791585999999999,4
2.0505614280700684,-15.52532196044922,3.6275346279144287,-0.7326776385307312,-0.3567453,-0.45845437,4
0.837497353553772,-15.719231605529785,2.984226942062378,-1.1537539958953855,-0.14691310000000002,-0.34972036,4
0.4339092969894409,-14.704946517944336,2.523794174194336,-1.4525408744812012,0.055588737,-0.6200281999999999,4
0.94696706533432,-12.537903785705565,2.3708410263061523,-1.620929718017578,0.016798794,-0.8023715,4
1.8220366239547732,-9.75822925567627,2.0020277500152592,-1.6556237936019895,1.4114041000000002,-0.76144356,4
2.2046802043914795,-7.383545398712157,1.6788405179977417,-1.5548950433731081,0.8374963,-0.8729264000000001,4
2.020936250686645,-5.950790882110597,1.9308756589889529,-1.128468632698059,-0.35002577,-0.45142943,4
1.3973803520202637,-5.288727283477783,2.521170139312744,-0.5777145624160767,-1.221425,-0.29993483,4
0.5604013204574585,-4.790438175201416,2.5459115505218506,-0.2291039228439331,-0.5015204000000001,0.05100725,4
-0.2431651204824448,-3.9023206233978267,1.5100041627883911,-0.16138270497322085,1.3090841999999998,0.32528573,4
-0.7061917185783386,-2.9331662654876713,0.7346236109733582,-0.10585428774356842,0.5149594,0.23701571,4
-0.776032567024231,-2.2677314281463623,0.3841613531112671,-0.06918121129274367,0.05681047,0.18967366,4
-0.7367748022079468,-1.883782267570496,0.2786860167980194,-0.039156980812549584,-0.36896262,0.13713925,4
-0.6750719547271729,-1.628459095954895,0.2494442015886307,0.006177022121846676,-0.66645396,0.15210545,4
-0.5427387356758118,-1.3733930587768557,0.2363425046205521,0.0705350786447525,-0.52870387,0.23579398,4
-0.24891118705272675,-1.1727184057235718,0.4034663140773773,0.1290457248687744,-0.45478916,0.4269948,4
0.18508921563625336,-1.2596869468688965,0.4240383207798004,0.24116383492946625,-0.9285152,0.5363397,4
0.7800061106681824,-1.6813585758209229,0.3762385845184326,0.6285861134529114,-1.1844677,0.28588495,4
1.4230101108551023,-2.817580461502075,0.7659714221954346,0.8768484592437744,-1.8344283,-0.24984388,4
1.687042236328125,-5.206714630126953,1.5201370716094968,1.1038163900375366,2.6896396,-0.106901415,4
2.536903619766236,-7.8001885414123535,2.629328966140747,1.2752432823181152,0.9550878,1.3738358999999998,4
1.4658805131912231,-10.049769401550293,3.5142912864685063,1.4664252996444702,0.30298916,1.4559973,4
0.6556153297424316,-11.900866508483887,4.205631732940674,1.3510266542434692,-0.4709771,-0.3555236,4
1.5620192289352417,-13.399210929870605,4.411261081695557,1.0356528759002686,-0.7828238000000001,-0.93737274,4
2.508012294769287,-14.541919708251953,4.264298439025879,0.5869482159614563,-0.54061574,-0.84329945,4
2.89775824546814,-15.35230541229248,3.938620805740357,0.08350101858377458,0.092240654,-0.5119051,4
2.838429927825928,-15.895090103149414,3.468120574951172,-0.4465409517288208,0.41722095,-0.029932396,4
2.673220634460449,-15.690881729125975,2.9015085697174072,-0.8677978515625,0.65240407,0.009773844,4
2.611449956893921,-14.346424102783205,2.668658494949341,-1.1484432220458984,0.35338554,-0.3136793,4
2.549919605255127,-12.183719635009766,2.5056848526000977,-1.2728999853134155,0.23151793,-0.528093,4
2.252450466156006,-9.629596710205078,2.1430680751800537,-1.2891062498092651,0.56046885,-0.4538729,4
1.6405524015426636,-7.388111114501952,1.9129881858825684,-1.2050226926803589,-0.4990769000000001,-0.3631594,4
1.0419785976409912,-6.116130352020264,1.7805821895599363,-0.9885730743408204,-0.5815437,-0.24098633,4
0.5930845737457275,-5.431998252868652,1.805952787399292,-0.7491436004638672,-0.6979135000000001,-0.0125227375,4
0.2293502539396286,-4.827930927276611,1.8048895597457888,-0.4811039865016937,-0.2864958,0.464563,4
-0.1445050984621048,-4.091506004333496,1.6316742897033691,-0.21018908917903897,0.38759398,0.68203104,4
-0.453608363866806,-3.2511579990386963,1.1984381675720217,-0.0017369729466736315,0.73426,0.65026605,4
-0.5066713690757751,-2.482609510421753,0.7575055956840515,0.14536529779434204,0.4202753,0.5271766999999999,4
-0.2706969082355499,-1.934253215789795,0.4220292568206787,0.2457069605588913,-0.14569137,0.45112398,4
0.09544460475444794,-1.6345587968826294,0.27686506509780884,0.34676581621170044,-0.46395215,0.42821655,4
0.5688713788986206,-1.3762024641036987,0.5354276299476624,0.4668974876403809,-1.0363328,0.5143485,4
1.133893370628357,-1.0057575702667236,0.4172961711883545,0.6520697474479675,-1.6084082,0.12980886,4
1.7312581539154053,-0.7443317174911499,0.8091589212417603,0.7226207256317139,-0.2489276,-0.19181168,4
1.8520877361297607,-2.1354150772094727,1.4017642736434937,0.7688020467758179,-0.28619036,-0.86926126,4
1.0001603364944458,-4.898974418640137,1.1204301118850708,0.6101294159889221,3.8918226,0.42119157,4
1.3121250867843628,-7.611239433288574,1.959286332130432,0.8503690361976624,-0.09712757,1.7302758000000005,4
1.4265031814575195,-9.674487113952637,2.7283153533935547,0.9766453504562378,0.22357668,-0.52778757,4
1.865282416343689,-11.201800346374512,3.207909107208252,0.5996907353401184,0.7473936,-1.2849549999999998,4
2.373120069503784,-12.734906196594238,3.5559022426605225,0.09192751348018646,-0.09437868,-0.786489,4
1.98993182182312,-14.03165340423584,3.4910776615142822,-0.3925581872463226,-0.23396139,-0.5494733,4
1.3484426736831665,-14.742542266845705,3.2286741733551025,-0.8445771932601929,-0.3903429,-0.49571714,4
1.1409499645233154,-14.373220443725586,2.7425673007965092,-1.1913695335388184,0.5006041,-0.5222898,4
1.6349480152130127,-12.819143295288086,2.3534862995147705,-1.3877170085906982,0.786489,-0.462425,4
2.35814905166626,-10.381035804748537,1.9828041791915891,-1.4002035856246948,0.73548174,-0.47586402,4
2.4302754402160645,-8.035147666931152,1.6225926876068115,-1.2897292375564575,-0.15088372,-0.6747006999999999,4
1.911107897758484,-6.261726379394531,1.3837882280349731,-1.0070360898971558,-0.21685717,-0.3549127,4
1.1182540655136108,-5.058236122131348,1.349015474319458,-0.6984158158302307,-0.54336464,0.16615535,4
0.1572793573141098,-4.2241549491882315,1.2434574365615845,-0.5165515542030334,-0.589485,0.3191771,4
-0.5572656393051147,-3.4559154510498047,0.584231972694397,-0.4637705087661743,0.112704635,0.53969944,4
-0.7710033059120178,-2.8692307472229004,0.030688460916280743,-0.4501800835132599,0.68477994,0.63285637,4
-0.6056421995162964,-2.4986674785614014,-0.15344753861427307,-0.418572723865509,0.7318166,0.45051312,4
-0.17170046269893646,-2.2369921207427983,-0.16012383997440338,-0.3396548628807068,0.3622431,0.29779682,4
0.28940585255622864,-2.00866961479187,0.02021577954292297,-0.19061848521232605,-0.41050145,0.23915374,4
0.5166813731193542,-1.8598226308822632,0.3851232528686523,-0.0013939030468463898,-0.93126404,0.21319197,4
0.3818744122982025,-1.7681010961532593,0.785431444644928,0.22837355732917786,-0.9016371,0.50915617,4
0.14122481644153595,-1.7391299009323118,0.922592043876648,0.5679885149002075,-0.7840455,0.88147855,4
0.1884339898824692,-1.9122655391693115,1.00952410697937,0.9979960918426514,-0.100792766,0.3848451,4
0.8436140418052673,-2.8740170001983643,0.9084704518318176,1.137332320213318,-1.246776,0.06780604,4
1.234790325164795,-5.332728385925293,1.4498798847198486,1.1387134790420532,1.0421360999999998,-0.26236662,4
1.5960155725479126,-7.916007995605469,2.056924819946289,1.225705623626709,0.3381139,1.244027,4
0.9065970182418824,-10.145776748657227,2.8528461456298833,1.4538747072219849,-0.09743301,0.7663304,4
1.0123530626296997,-11.909919738769533,3.0442216396331787,1.4386292695999146,-0.07391469,0.056199603,4
2.1248276233673096,-13.382837295532227,2.892893552780152,1.175465703010559,0.49021935,-0.6243043,4
2.9402337074279785,-14.586111068725586,2.387697696685791,0.6795021295547485,0.93859446,-0.6762278,4
2.77829647064209,-15.540165901184082,2.0281460285186768,0.12663613259792328,-0.07666359,-0.59131753,4
2.1524922847747803,-16.218862533569336,1.7252906560897827,-0.4082594513893128,-0.38423425,-0.63804877,4
1.642823576927185,-16.146574020385742,1.5315643548965454,-0.8563187122344971,-0.027183503,-0.52687126,4
1.7674946784973145,-14.873438835144045,1.5617010593414309,-1.1839126348495483,0.75136423,-0.3979787,4
2.299532890319824,-12.703600883483887,1.5929398536682131,-1.362712264060974,1.0103711,-0.52503866,4
2.6551003456115723,-10.16844081878662,1.4213837385177612,-1.4291515350341797,1.0112875,-0.66431594,4
2.5499961376190186,-8.212773323059082,1.5855016708374023,-1.300261616706848,0.043676864,-0.732122,4
2.0112779140472408,-6.933286666870117,2.1307966709136963,-0.9834216833114624,-0.93218035,-0.54550266,4
1.165553331375122,-5.933681011199951,2.3222110271453857,-0.5940130949020386,-0.37048978,0.17562376,4
0.3176196217536926,-5.009605407714844,1.8225768804550169,-0.2530089914798737,0.8362745,0.54733527,4
-0.22031477093696594,-4.0219783782958975,1.2781329154968262,-0.01286235637962818,0.79504114,0.46822822,4
-0.4281322658061981,-3.191260814666748,0.8604010939598083,0.11856730282306673,0.29718593,0.41599923,4
-0.3742527067661285,-2.5486857891082764,0.3787001669406891,0.2012814581394196,0.20250183,0.49113566,4
-0.14286638796329498,-2.0551297664642334,-0.01714714616537094,0.27826836705207825,0.30604348,0.6032294,4
0.21627208590507507,-1.699635624885559,0.030864996835589412,0.3599570095539093,0.18753563,0.5708536,4
0.8496997356414795,-1.3924932479858398,0.478120505809784,0.455576241016388,-1.0616838,0.2929099,4
1.7546950578689575,-0.9774708747863771,0.4954662024974823,0.5148994922637941,-1.1679744,-0.044898596,4
2.014620304107666,-1.1924581527709959,0.5749910473823547,0.4369978606700897,-0.18845193,-0.12461651,4
1.3657588958740234,-3.3361034393310547,0.25255391001701355,0.3932290077209473,0.90194255,-0.6805039,4
0.7913931012153625,-6.136667251586914,1.174752712249756,0.4389898180961609,0.08155051,0.32192600000000005,4
1.128408432006836,-8.670538902282715,2.416506767272949,0.6946595907211304,-0.16432275,1.3808608999999998,4
0.9957944750785828,-10.642679214477539,3.715409755706787,0.7786543965339661,0.58459806,0.079107046,4
1.2162933349609375,-12.25872039794922,4.2887372970581055,0.4808187782764435,0.8539896,-0.4981606,4
1.5300909280776978,-13.654735565185547,4.405329704284668,0.008310973644256592,0.5748241999999999,-0.43279803,4
1.3587008714675903,-14.8029146194458,4.2885169982910165,-0.4960732758045197,-0.5564981999999999,-0.45570546,4
0.928568959236145,-15.533111572265625,3.732668399810791,-0.9495176076889038,-0.7507534,-0.7351763000000001,4
1.1427329778671265,-15.037997245788574,2.9422855377197266,-1.2582587003707886,0.061086524,-0.7699956,4
1.9600567817687988,-13.100749015808105,2.054392099380493,-1.418915629386902,1.1649200000000002,-0.7602218000000001,4
2.613409996032715,-10.432485580444336,1.3120561838150024,-1.4878376722335815,1.4749341,-0.77763146,4
2.395946979522705,-8.155837059020996,1.0581204891204834,-1.4048573970794678,-0.36713,-0.8185594,4
1.5468920469284058,-6.6676883697509775,1.1680006980895996,-1.092330813407898,-0.44073927,-0.46731192,4
0.6958653330802917,-5.727448463439941,1.516698122024536,-0.6925643086433411,-0.37018433,-0.124005646,4
0.14806079864501953,-4.880077362060547,1.4471547603607178,-0.42312768101692205,-0.19303341,0.15271631,4
-0.1341024935245514,-3.9942564964294434,0.9658412933349608,-0.2678065299987793,-0.30207285,0.13713925,4
-0.2589223086833954,-3.2380466461181636,0.4607000052928925,-0.11610303074121475,-0.42638394,0.03848451,4
-0.2468516677618027,-2.5768022537231445,0.2640957534313202,0.036053426563739784,-0.32620203,0.13469578,4
-0.12803873419761658,-2.0441155433654785,0.3803521990776062,0.14396977424621582,-0.18478674,0.2843578,4
0.019227003678679463,-1.6548025608062744,0.5875149965286255,0.21645940840244293,-0.3371976,0.3930918,4
0.1280052363872528,-1.4252125024795532,0.6937773823738098,0.28591495752334595,-0.2947425,0.52290064,4
0.1267397701740265,-1.3507510423660278,0.8056960105895996,0.3902619481086731,-0.30451632,0.70157874,4
0.06433679908514023,-1.3021228313446045,1.0229635238647459,0.5255466103553772,-0.4792238,0.8381071,4
0.13864684104919436,-1.5160953998565674,0.6672627329826355,0.7785665988922119,-0.4352415,0.39370266,4
0.7559395432472229,-2.1849586963653564,0.766861617565155,1.0754355192184448,-1.2684617,0.115453534,4
1.2234386205673218,-4.1740684509277335,0.9366950988769532,1.1243317127227783,0.7287621999999999,-0.10323623,4
1.7427372932434082,-6.817126750946045,2.0735042095184326,1.0576815605163574,2.1343632,0.41416663,4
1.8636770248413088,-9.219162940979004,3.051171064376831,1.2066389322280884,-0.19364429,1.5488489,4
1.232707142829895,-11.215254783630373,3.631336212158203,1.1862306594848633,-0.20525073,0.16523905,4
1.8494119644165041,-12.840965270996096,3.8049297332763667,0.8931352496147156,-0.5109888,-0.7263188,4
2.6500942707061768,-14.154032707214355,3.7335124015808105,0.3697805106639862,0.45906523,-0.5852089,4
2.770703792572021,-15.195352554321287,3.52370548248291,-0.1968551129102707,-0.060170225999999986,-0.21288654,4
2.2390151023864746,-15.93740463256836,3.0005283355712886,-0.6892656683921814,-0.043982297,-0.57971114,4
2.0017564296722408,-15.59296989440918,2.3578932285308842,-1.051655411720276,0.56138515,-0.3717115,4
2.3692104816436768,-13.865927696228027,1.5717812776565552,-1.3318119049072266,0.6835581999999999,-0.49693888,4
2.9517514705657963,-11.367093086242676,0.8996018171310425,-1.4256126880645752,0.37018433,-0.9651671,4
3.3474457263946533,-9.134859085083008,1.2417203187942505,-1.2397359609603882,-0.3286455,-0.9963212,4
2.9058210849761963,-7.339102268218994,1.555875539779663,-0.8624291419982909,0.6084218000000001,-0.19975294,4
1.612385869026184,-5.828102111816406,1.1048461198806765,-0.6308422684669495,1.4144584999999998,0.43982297,4
0.1977575123310089,-4.91724967956543,0.6526695489883423,-0.4842129349708557,-0.23426682,0.3032946,4
-0.6678892374038696,-4.281604290008545,0.4044480621814728,-0.3145825266838074,-0.67011917,0.36865717,4
-0.969926655292511,-3.667415380477905,0.3368050754070282,-0.14837254583835602,-0.61666846,0.30818152,4
-0.8039928674697876,-3.004656791687012,0.3472484052181244,0.007033093832433225,-0.13255776,0.3839288,4
-0.32947736978530884,-2.3723773956298833,0.41497063636779785,0.12278837710618973,0.22479841,0.4783075,4
0.20621493458747864,-1.8630424737930296,0.426869660615921,0.207201823592186,0.3680463,0.5314528000000001,4
0.5455057024955751,-1.515581488609314,0.3973508477210999,0.32353371381759644,0.2611449,0.59650993,4
0.671649158000946,-1.347448468208313,0.5482270121574402,0.4902759194374085,-0.12614368,0.65393126,4
0.8367834687232971,-1.343217134475708,0.5615962147712708,0.7198448181152344,-1.3026701,0.44165558,4
0.9955596923828124,-1.3604576587677002,0.2899814546108246,1.0006322860717771,-0.960891,-0.037873644,4
1.2349764108657837,-1.7640678882598877,0.7304400205612183,1.1499879360198977,-1.0299188,-0.17409660000000002,4
1.1023404598236084,-3.7685730457305913,0.6782625317573547,1.213651418685913,1.8591684,-0.19272798,4
1.1814336776733398,-6.464116096496582,1.8333678245544436,1.2653270959854126,0.0070249503,0.4334089,4
1.264384627342224,-8.93101978302002,2.5258448123931885,1.3670165538787842,0.21135938,1.3090841999999998,4
0.4923234283924103,-10.989925384521484,3.3780839443206787,1.221153974533081,0.14996742,0.4654793,4
0.7252651453018188,-12.663753509521484,3.831064939498901,0.8689777255058289,-0.14935656,-0.12156218,4
1.4393568038940432,-13.978618621826172,4.1304850578308105,0.3978760540485382,-0.07666359,-0.462425,4
1.8596754074096682,-14.961525917053224,4.136483669281007,-0.11463627964258195,-0.16982053,-0.71929383,4
2.0440099239349365,-15.677779197692873,3.906777620315552,-0.6313264966011047,0.27000242,-0.5534439,4
2.119208574295044,-15.86249828338623,3.633886575698853,-1.1008613109588623,0.61575216,-0.62125,4
2.243699073791504,-14.902101516723633,3.2696189880371094,-1.482521653175354,0.5693264,-0.34941490000000003,4
2.1069672107696533,-12.729097366333008,2.405501365661621,-1.690327525138855,1.1261301,-0.5143485,4
1.9204365015029907,-10.079190254211426,1.6338398456573486,-1.7272619009017944,0.6536258,-0.63194007,4
1.988044023513794,-8.099671363830566,1.6864404678344729,-1.4958529472351074,-0.24770586,-0.7309003000000001,4
2.007120370864868,-6.864066123962402,2.1931543350219727,-1.0405490398406982,-0.41905355,-0.61483586,4
1.737091898918152,-5.810486316680907,2.28269362449646,-0.6154425740242004,-0.06505715,0.0143553335,4
1.0042598247528076,-4.836089134216309,1.5304999351501465,-0.4789059162139893,0.45081854,0.33750305,4
-0.04410825669765472,-4.047403812408446,0.8505105376243591,-0.30401703715324396,-0.13836098,0.16737708,4
-0.7061711549758911,-3.3431124687194824,0.5521937608718872,-0.1235085427761078,0.11056661,0.28771752,4
-0.95903480052948,-2.7640321254730225,0.4704055190086365,0.006438645534217358,0.3643811,0.24312437,4
-0.7273635268211365,-2.2645280361175537,0.4776999354362488,0.07986664026975633,0.19303341,0.2489276,4
-0.2783555090427399,-1.790109157562256,0.5603896975517273,0.13565880060195926,-0.05925392700000001,0.3912592,4
0.07153028249740599,-1.4147498607635498,0.6597142219543457,0.18721820414066315,-0.24587326,0.50610185,4
0.12061191350221635,-1.189962387084961,0.7039656043052673,0.2627691328525543,-0.4633413,0.58001655,4
0.12746554613113406,-1.0290564298629759,0.5084402561187744,0.3803546130657196,-0.45540005,0.5842925999999999,4
0.5741197466850281,-1.0041978359222412,0.1677091121673584,0.5887742042541504,-0.86559606,-0.06597344599999999,4
1.4316673278808594,-1.3977895975112915,1.0186554193496704,0.7730208039283752,-1.9743165,-0.20066923,4
1.85746431350708,-3.2872905731201167,0.35408350825309753,0.7803968787193298,0.5128214,-0.6606508000000001,4
1.8184237480163572,-5.9242610931396475,0.3620063662528992,0.6886691451072693,2.7983737,0.8240572,4
1.3583866357803345,-8.456421852111816,1.2531077861785889,0.8077743649482727,1.0519098999999998,2.6539040000000003,4
0.062496080994606025,-10.59877872467041,2.638091325759888,1.0562829971313477,-0.9651671,1.3558153999999998,4
0.4082651436328888,-12.08218765258789,3.409151554107666,1.0255844593048096,-0.45081854,-0.01282817,4
2.2870464324951167,-13.195707321166992,3.681657314300537,0.7124252319335938,0.44929138,-1.5076154,4
4.052804470062257,-14.337841033935547,3.6854209899902335,0.2388412207365036,0.7651087,-1.5503759,4
4.2350730895996085,-15.333332061767578,3.353826999664306,-0.2288121283054352,0.26267207,-0.27763826,4
2.6665568351745605,-16.024179458618164,2.8471951484680176,-0.5824431777000427,-0.1337795,-0.44806966,4
1.1119928359985352,-15.566051483154295,2.3821351528167725,-0.8971179723739624,0.03359759,-0.46089783,4
0.5917949080467224,-13.851827621459961,1.818825840950012,-1.1116689443588257,0.49846604,-0.46089783,4
0.9091224074363708,-11.042362213134766,1.3600345849990845,-1.2369447946548462,1.1129965,-0.11881329,4
1.0130270719528198,-8.615731239318848,1.0363796949386597,-1.3442543745040894,0.8191703,-0.26419923,4
0.8500698804855347,-6.977282524108888,0.9424725174903871,-1.2915267944335938,0.17989981,-0.32162055,4
0.6708700656890869,-5.950439453125,1.2732936143875122,-1.0440640449523926,-0.16035213,-0.26328292,4
0.5614050626754761,-5.23592472076416,1.8692626953125,-0.7189074158668518,-1.3017538999999998,-0.07696902,4
0.3690469563007355,-4.494300365447998,1.7962476015090942,-0.43644559383392334,-0.8949176,0.16523905,4
-0.022881081327795986,-3.5764048099517822,1.0054086446762085,-0.2611421346664429,0.95142263,0.35430184,4
-0.34558483958244324,-2.7710165977478027,0.415838748216629,-0.1231188103556633,0.93034774,0.21135938,4
-0.34817180037498474,-2.2853312492370605,0.2647709548473358,0.016941960901021957,-0.049480084,0.24129178,4
-0.18192407488822934,-2.0280103683471684,0.3260183334350586,0.11760881543159485,-0.6563747,0.34116822,4
-0.031578119844198234,-1.7963535785675049,0.4007309377193451,0.2255011349916458,-0.67073005,0.5314528000000001,4
0.06918977200984955,-1.5283674001693726,0.7664636969566345,0.3468616008758545,-0.8539896,0.84482664,4
0.2895810902118683,-1.401777267456055,0.7281550168991089,0.5822536945343018,-1.4315627,0.49541172,4
0.7231023907661438,-1.44377863407135,0.4040170013904572,0.7878274321556091,-1.3075571,0.028710667,4
1.2232825756072998,-2.425259590148926,0.7129291296005249,0.8432009220123291,-0.16493362,-0.34177909999999995,4
1.2095094919204712,-4.945287704467773,1.2257434129714966,0.8836807012557983,2.4019222,0.14660765,4
1.7715095281600952,-7.602846145629883,2.708668708801269,1.112727403640747,-0.054061573,2.1542163,4
0.9787445068359376,-9.855237007141113,3.6716399192810063,1.1981427669525146,0.021380283,0.6114761,4
1.590365290641785,-11.701642036437988,3.9390480518341056,0.9339299201965332,0.06658431,-1.1154399,4
2.826399326324463,-13.227940559387207,4.00533390045166,0.4762578010559082,0.7189884,-1.0916162,4
3.286188125610352,-14.464153289794922,3.8354127407073975,-0.02243278361856937,0.5864305999999999,-0.6762278,4
2.8288974761962886,-15.366424560546875,3.4794538021087646,-0.46948587894439703,-0.23396139,-0.30757064,4
2.220077514648437,-15.335992813110352,2.868083238601685,-0.8459787964820862,0.37782016,-0.42180246,4
2.06512188911438,-13.89309787750244,2.3633100986480717,-1.1014082431793213,0.98471475,-0.33261612,4
2.2483506202697754,-11.379026412963867,1.8251069784164429,-1.2344794273376465,1.7528778000000005,-0.7855727,4
2.453066110610962,-8.737895965576174,1.3757773637771606,-1.2744624614715576,1.3845261,-0.7357872,4
2.294602632522583,-7.02688455581665,1.351233959197998,-1.125552773475647,-0.8402450999999999,-0.8029824000000001,4
1.7559086084365845,-6.036177158355713,1.4566781520843506,-0.7860047817230225,-1.2654073,-0.6407976,4
1.0754835605621338,-5.237720489501953,1.5661009550094604,-0.4183191955089569,-0.30818152,-0.0693332,4
0.24137113988399506,-4.47981071472168,1.3091121912002563,-0.18976937234401706,1.1704178,0.3145956,4
-0.5282043814659119,-3.646324157714844,0.7831957936286926,-0.07015802711248398,0.6753115,0.20005837,4
-0.6729999184608461,-2.836261987686157,0.5188279747962952,0.01954101398587227,0.084910266,0.27305678,4
-0.5407543778419495,-2.2682156562805176,0.4844643771648407,0.07109323889017105,-0.30390546,0.3454443,4
-0.40989014506340027,-1.855507731437683,0.4893431067466736,0.11499135196208955,-0.13561209,0.4783075,4
-0.3288709819316864,-1.5311895608901978,0.4449048638343811,0.16337046027183533,0.12767084,0.6246096999999999,4
-0.1955874264240265,-1.3223587274551392,0.3610798716545105,0.22118698060512546,0.029932396,0.7119634,4
0.20728671550750727,-1.1973798274993896,0.11543937027454375,0.340149462223053,-1.0980303,0.5681046999999999,4
0.637896716594696,-1.2416270971298218,-0.06027146801352501,0.5627977252006531,-1.3252722,-0.00030543262000000003,4
1.2718161344528198,-1.7692214250564575,0.5755283236503601,0.8140199780464172,-1.0906999,-0.2049453,4
2.0749294757843018,-3.4202113151550293,0.7537763714790344,0.8802632093429565,0.3023783,-0.33139440000000003,4
2.2089710235595703,-5.995175361633301,1.4176172018051147,0.8696605563163757,2.515543,0.5684100999999999,4
1.7204155921936035,-8.499467849731445,2.503336191177368,0.9130370020866394,0.36468655,2.3762658,4
0.3608857691287993,-10.619858741760254,3.7472681999206543,1.0465871095657349,-0.6267477,0.9324858,4
0.4675222933292389,-12.285584449768065,4.356025218963623,0.9209549427032472,-0.56107974,-0.766025,4
1.6471577882766724,-13.677911758422852,4.425719261169434,0.5337279438972473,0.17348573,-1.0403035,4
2.4371263980865483,-14.81956386566162,4.269103527069092,0.06346913427114488,-0.27550024,-0.8356636999999999,4
2.327286958694458,-15.743856430053713,3.813419818878174,-0.417226642370224,-0.43188173,-0.63499445,4
1.8653911352157595,-16.312240600585938,3.3194618225097656,-0.9028216004371644,-0.2302962,-0.28099802,4
1.5727095603942869,-15.589585304260256,2.7701003551483154,-1.3126301765441897,0.43279803,-0.15210545,4
1.6971890926361084,-13.435715675354006,2.3062059879302983,-1.6103407144546509,0.3659083,-0.40958515,4
2.1173205375671387,-10.750381469726562,1.7929341793060305,-1.7634583711624146,0.7156286000000001,-0.37995818,4
2.3835198879241943,-8.45460319519043,1.7996970415115356,-1.6898455619812012,-0.17592919,-0.81153446,4
2.2696399688720703,-7.088604927062987,2.2936031818389893,-1.3213787078857422,-1.0128145,-0.9877690999999998,4
1.8888829946517944,-6.303254127502441,2.494464159011841,-0.7999280691146851,-1.5650368,-0.71593404,4
1.2783632278442385,-5.548083782196045,1.9354362487792969,-0.4650749266147614,-1.1407908000000002,0.21166481,4
0.2417938858270645,-4.698199272155762,1.214126467704773,-0.27820321917533875,-0.26419923,0.61422503,4
-0.8515127301216125,-3.8665637969970703,0.8416855335235596,-0.1597122997045517,0.0036651916,0.50885075,4
-1.3416359424591064,-3.1115198135375977,0.5974392294883728,-0.09009210020303726,0.00580322,0.46761733,4
-1.2300052642822266,-2.5571987628936768,0.4014987945556641,-0.033968955278396606,-0.59528816,0.28283059999999993,4
-0.7985821962356567,-2.158194303512573,0.1818993091583252,0.0370652861893177,-0.8216136999999999,0.1966986,4
-0.29543331265449524,-1.84456467628479,-0.020092077553272247,0.14440564811229706,-0.56779927,0.3203988,4
0.04855348914861679,-1.5799013376235962,-0.05658936873078346,0.2743509113788605,-0.42363504,0.48899764,4
0.2425196617841721,-1.3893879652023315,0.1363275647163391,0.4489439129829407,-0.7635816,0.48258355,4
0.5807271599769592,-1.592664361000061,0.5346235632896423,0.8468377590179443,-1.4450017,0.19639318,4
1.2936285734176636,-2.360394239425659,0.8753997683525085,1.0701996088027954,-1.7993035,-0.07544186,4
1.3213258981704712,-4.697049617767334,1.3231616020202637,1.2545751333236694,1.7415768,0.119729586,4
1.1755160093307495,-7.347565174102782,2.3076612949371342,1.2800960540771484,1.3521502,1.5042557,4
0.4393455684185028,-9.619756698608398,2.9459800720214844,1.406360149383545,-0.4877759,2.1401663,4
0.04838644340634346,-11.141250610351562,3.387278318405152,1.304834485054016,-0.4792238,0.63224554,4
0.9865071773529052,-12.549822807312012,3.5630247592926025,0.9266852736473083,-0.3747658,-0.9993755,4
2.391720533370972,-13.862793922424315,3.687978506088257,0.4434971213340759,0.09773844,-0.91324353,4
2.916643619537353,-14.962827682495115,3.5707807540893555,-0.04004191979765892,-0.26053402,-0.6603453,4
2.710460662841797,-15.810644149780273,3.1870133876800537,-0.4661922752857208,-0.06291912,-0.8958339,4
2.658851861953736,-15.898898124694824,2.6534996032714844,-0.8612906932830809,0.44409904,-0.6377433000000001,4
2.736846208572388,-14.910539627075195,2.1946344375610347,-1.1867181062698364,0.5546656,-0.20952678,4
2.4471681118011475,-12.90585231781006,1.65891432762146,-1.4226051568984983,1.1206323,-0.43799037,4
1.934802770614624,-10.411184310913086,0.9816203713417052,-1.541984796524048,1.0461067,-0.37232238,4
1.4564005136489868,-8.347208976745605,0.656633198261261,-1.4877212047576904,0.15607607,-0.47036624,4
1.1689735651016235,-6.918254375457764,0.8676299452781677,-1.238646149635315,-0.3585779000000001,-0.46944994,4
1.002139449119568,-5.923128128051758,1.359985589981079,-0.8648277521133423,-0.7266241999999999,-0.4700608,4
0.7626841068267822,-5.084088325500488,1.4444574117660522,-0.4625929594039917,-0.79320854,-0.28619036,4
0.3330602049827576,-4.3229713439941415,0.984445869922638,-0.17344191670417786,-0.030543262,0.07391469,4
-0.13388249278068542,-3.643552303314209,0.528581440448761,0.043974895030260086,0.19211712,0.20922135,4
-0.30237627029418945,-3.0659849643707275,0.385361522436142,0.21680571138858795,0.16218472,0.44440445,4
-0.2593010663986206,-2.5886576175689697,0.372553825378418,0.3367091119289398,-0.16646078,0.47433686,4
-0.11676140874624252,-2.1322646141052246,0.3424670100212097,0.4611725807189941,-0.47800204,0.59528816,4
0.01689210347831249,-1.6812406778335571,0.5360549688339233,0.6101893186569214,-0.6356053,0.7367035,4
0.26331576704978943,-1.2896335124969482,0.8332552313804626,0.7569968104362488,-2.055867,0.79809546,4
0.5477170348167419,-1.0935950279235842,0.541603684425354,1.0389639139175415,-1.3420709,0.21135938,4
0.7209566831588745,-1.3460686206817627,0.6179196238517761,1.1891697645187378,0.07696902,-0.24190263,4
1.0522904396057131,-3.071983337402344,1.138535976409912,1.247201681137085,1.0647382,-0.41691554,4
1.7140538692474363,-5.792513847351074,2.284672737121582,1.2480008602142334,1.1047498,0.65179324,4
2.2973079681396484,-8.363301277160645,3.3405919075012207,1.4572759866714478,0.82527894,2.8307495,4
1.402919054031372,-10.43691635131836,4.3686861991882315,1.4199693202972412,-0.19639318,0.7128797,4
1.5788981914520264,-11.944281578063965,4.797998428344727,1.147727370262146,-0.2864958,-0.8081746999999999,4
2.440324068069458,-13.355029106140135,4.889637470245361,0.6249619722366333,0.453262,-1.4425583,4
3.1553850173950195,-14.549304008483887,4.740540027618408,0.04146768897771835,0.12736541,-0.91415983,4
2.990162849426269,-15.468788146972654,4.409768104553223,-0.4952225089073181,-0.20280726,-0.7724390999999999,4
2.496262311935425,-15.501351356506348,3.916580200195313,-0.9554895758628844,0.018936822,-0.59498274,4
2.109359741210937,-14.306528091430664,3.032655000686645,-1.3196346759796145,0.42149702,0.09101892,4
1.6262358427047732,-12.171870231628418,2.1226813793182373,-1.4853111505508425,1.3008375,0.0061086523,4
1.2391782999038696,-9.749958992004396,1.58148193359375,-1.4970412254333496,0.90010995,-0.17806722,4
1.0623161792755127,-7.625387191772461,1.2677491903305054,-1.4009895324707031,0.046120327,-0.22479841,4
0.998676300048828,-6.1663360595703125,1.0702089071273804,-1.1740416288375854,-0.41691554,-0.26939157,4
0.9562963843345642,-5.3664140701293945,1.1317758560180664,-0.8313820958137512,-0.63621616,-0.26511553,4
0.907185196876526,-4.823193073272705,1.4282610416412354,-0.4462696015834808,-0.61911196,0.02687807,4
0.7544177174568176,-4.18297815322876,1.5452384948730469,-0.14091071486473086,0.16126843,0.2302962,4
0.5529531240463257,-3.3008182048797607,1.1264806985855105,0.019746940582990646,1.2913691,0.22968534,4
0.5077565908432007,-2.372830629348755,0.6861597299575806,0.11865325272083282,0.82986045,0.07147124,4
0.6410289406776428,-1.7274253368377686,0.5101303458213806,0.1979534327983856,-0.18692477,0.0015271631,4
0.6008073687553406,-1.3720628023147583,0.4052515923976898,0.25638255476951605,-0.68875057,0.122478485,4
0.01914283819496632,-1.2897818088531494,0.3742699921131134,0.3198872804641724,0.15057829,0.548557,4
-0.4595112204551697,-1.2710977792739868,0.7449715137481691,0.418292224407196,0.73945236,0.8772025,4
-0.24870026111602786,-1.3830894231796265,0.9101470708847046,0.6387961506843567,-0.32559118,0.6197228,4
0.6437267065048218,-1.9419664144515991,1.20601487159729,0.8513474464416504,-0.4166101,0.13164146,4
1.5999176502227783,-3.9299023151397705,1.5041533708572388,1.0378936529159546,0.408058,-0.33628133,4
2.1725032329559326,-6.609609127044678,2.6744632720947266,1.1418956518173218,1.6899587,0.4382958,4
1.6916474103927612,-9.05107879638672,3.4703800678253174,1.3445223569869995,0.6575964,1.6856827,4
0.4921411871910095,-11.088407516479492,4.246415138244629,1.3257752656936646,-0.4251622000000001,0.3454443,4
0.6114621758460999,-12.743629455566404,4.45107889175415,1.050599217414856,-0.18509217,-0.7464773,4
1.484530329704285,-14.067381858825685,4.559275150299072,0.5494542717933655,-0.14110987,-0.8350528,4
1.8686418533325195,-15.07560920715332,4.394332408905028,0.021045738831162453,-0.45814893,-0.6041456999999999,4
1.7560157775878906,-15.825429916381836,3.987813711166382,-0.48548239469528204,-0.4569272,-0.70402217,4
1.5154508352279663,-15.909205436706545,3.4415323734283447,-0.9024687409400941,-0.20189096,-0.5824600000000001,4
1.4707258939743042,-14.886784553527832,2.8533802032470703,-1.213711500167847,0.058643065,-0.32284227,4
1.503287672996521,-12.901522636413574,2.222071647644043,-1.364661693572998,0.27214047,-0.6722571999999999,4
1.6357672214508057,-10.405170440673828,1.619038462638855,-1.3945058584213257,0.3436117,-0.49663344,4
1.7175908088684082,-8.168625831604004,1.2156152725219729,-1.3106157779693604,-0.17043139999999998,-0.5204572000000001,4
1.5093046426773071,-6.832141876220702,1.2098538875579834,-1.1244921684265137,-0.691194,-0.63804877,4
1.0710126161575315,-6.182492733001709,1.4973270893096924,-0.8647775650024414,-0.9669997,-0.5235115,4
0.5441151857376099,-5.520420551300049,2.041202545166016,-0.5364140272140503,-0.9944886,0.043982297,4
0.06934251636266707,-4.6859130859375,2.390549898147583,-0.2599954307079315,0.32406402,0.46211955,4
-0.22194083034992215,-3.740726947784424,2.307119369506836,-0.10296818614006042,1.3588698,0.58368176,4
-0.2940124869346619,-2.917099475860596,1.9631636142730715,0.015533064492046831,1.1178834,0.46486846,4
-0.2160535454750061,-2.3263680934906006,1.5350630283355713,0.12035392969846725,0.09682214,0.50243664,4
-0.20494544506073,-1.9569941759109497,1.1061606407165527,0.20129187405109408,-0.31306845,0.6545420999999999,4
-0.3407926857471466,-1.659078598022461,0.9521340131759644,0.2570981979370117,-0.50732356,0.77732605,4
-0.4705652296543121,-1.3260892629623413,0.5965381860733032,0.3011842370033264,-1.239751,0.8872818000000001,4
-0.5403302311897278,-1.0601265430450442,-0.26499754190444946,0.4974531531333923,-1.0861185,0.47800204,4
-0.5165917873382568,-1.186615824699402,0.028846243396401405,0.6446871757507324,0.9468411,0.22052236,4
0.19646480679512024,-2.8249514102935787,1.123126745223999,0.6784296035766602,-0.88086766,-0.13164146,4
0.9957610368728638,-5.563660144805908,1.6333981752395632,0.8437443971633911,1.8289305,0.28496864,4
1.6455086469650269,-8.172901153564451,2.782467126846313,1.0602928400039673,0.24678956,1.704314,4
0.7085500955581665,-10.372036933898926,3.4688267707824707,1.1808656454086304,-0.36651915,0.97097033,4
0.3835276365280152,-12.16508960723877,3.646057605743408,1.0012485980987549,-0.40194935,-0.116980694,4
1.3062310218811035,-13.607022285461426,3.6388442516326895,0.6097626090049744,-0.204029,-1.1823297,4
1.9091891050338743,-14.679791450500488,3.4982447624206543,0.12913303077220914,-0.34116822,-1.0305296,4
1.858556032180786,-15.430771827697756,3.1589701175689697,-0.3873330056667328,-0.35246924,-0.9776898,4
1.2991943359375,-15.901098251342773,2.6698660850524902,-0.8504189848899841,0.16890424,-1.149343,4
0.8777433037757874,-15.434783935546875,2.3379831314086914,-1.235357403755188,0.34116822,-0.3222314000000001,4
0.7283061146736145,-13.804827690124512,2.1505272388458248,-1.5294352769851685,0.5137377000000001,-0.5332854,4
0.7355893850326538,-11.354085922241213,1.8691720962524412,-1.7092276811599731,0.20769419,-0.66889745,4
0.5876991152763367,-8.870211601257324,1.35163152217865,-1.7567588090896606,-0.18906279,-0.46731192,4
0.5272697806358337,-7.100250244140625,1.1459589004516602,-1.5732442140579224,-0.1994475,-0.45875978,4
0.6384512186050415,-6.0324482917785645,1.7205939292907717,-1.2514108419418335,-0.73884153,-0.398895,4
0.7513449788093567,-5.492456912994385,2.704955816268921,-0.7517593502998352,-0.8078693,-0.19425514,4
0.6492247581481934,-4.959343910217285,3.291088581085205,-0.27454864978790283,0.42485678,0.20005837,4
0.19721461832523346,-4.184912204742432,3.0627663135528564,-0.03472897782921791,0.43218717,0.5039638,4
-0.2698571979999542,-3.337669849395752,2.077689409255981,0.15050570666790009,0.6988298000000001,0.548557,4
-0.4480181038379669,-2.595792293548584,1.0761648416519165,0.29647722840309143,0.60048056,0.64812803,4
-0.4746143817901611,-2.054767370223999,0.4038755297660828,0.3951637446880341,-0.07574729,0.6032294,4
-0.3676214814186096,-1.8151197433471682,0.09732389450073242,0.489518016576767,-0.6423248,0.5338961999999999,4
-0.01621231622993946,-1.6027911901474,0.08333852142095566,0.6224722266197205,-1.2690725,0.59131753,4
0.4875389635562897,-1.2517296075820925,-0.27446675300598145,0.8251558542251587,-2.0360138,0.40439278,4
0.6400821805000305,-0.9836920499801636,-0.07061896473169328,0.890178382396698,0.4841107,0.26542094,4
0.5666244626045227,-2.3268358707427983,0.4363427460193634,0.9003517031669617,-1.0607675,-0.42058071,4
0.4411402940750122,-5.011102199554443,1.0143673419952393,0.871498703956604,2.9141326000000003,0.20372356,4
1.1868685483932495,-7.692085266113281,2.159407377243042,0.9751160740852356,0.21746802,1.7098118000000002,4
0.5524022579193115,-9.895034790039062,3.360630512237549,1.2073867321014404,0.06658431,1.5906931,4
0.4360955059528351,-11.232020378112793,4.0085225105285645,1.1269235610961914,0.051618114000000014,0.17348573,4
0.9279690384864808,-12.54481029510498,4.182797431945802,0.7417290806770325,0.3747658,-1.3692545,4
1.4959867000579834,-13.838788032531738,4.193082332611084,0.2432694882154465,-0.16920967,-0.8784242,4
1.3499680757522583,-14.938186645507812,3.9752917289733887,-0.2677401602268219,-0.19364429,-0.64660084,4
0.8370475769042969,-15.795011520385742,3.563857316970825,-0.7883963584899902,-0.19608775,-0.6914994999999999,4
0.6656175851821899,-15.807774543762207,3.0017516613006587,-1.2701537609100342,-0.106595986,-0.32711834,4
0.9583830237388612,-14.638418197631836,2.41210675239563,-1.594209909439087,0.27030787,-0.40011674,4
1.5244150161743164,-12.48763370513916,1.7763769626617432,-1.7605818510055542,1.0207558,-0.4859433,4
2.0995512008666988,-10.090860366821287,1.4604302644729614,-1.7768656015396118,0.03848451,-0.8512407,4
2.393326997756958,-8.132482528686522,1.9849878549575808,-1.4987390041351318,-1.3316863,-1.0852021,4
2.2686734199523926,-6.786043643951416,2.4892687797546387,-0.9448150396347046,-1.003957,-0.8857546000000001,4
