timestamp,rel_time,acc_x,acc_y,acc_z,gyro_x,gyro_y,gyro_z,azimuth,pitch,roll,label
0.0,0.0,0.0,0.0,0.0,0.0,-0.015271631,0.021685716,235.19683999999998,-150.52719,40.248709999999996,STD
388955500000.0,1.4931206351320725e-05,0.0009444010211154819,0.029476333409547806,-7.262277358677238e-05,9.500994929112494e-05,-0.02076942,0.017104227,234.45644,-149.72136,39.81146,STD
1161077300000.0,7.431239646393806e-05,0.0028276657685637474,0.08797891438007355,-0.00020684837363660336,0.00018721097148954868,-0.036651913,0.011301007,233.74542000000002,-148.92279,39.365906,STD
2304996000000.0,0.00020649783255066723,0.005630435422062874,0.174635112285614,-0.00039093251689337194,0.00020994810620322824,-0.04520403,0.004581489,233.05475,-148.12885,38.917891999999995,STD
3804165000000.0,0.00043865133193321526,0.009320497512817383,0.2881803810596466,-0.0006124957581050694,-4.3445237679407e-05,-0.041233405,-0.003970624,232.38457999999997,-147.33578,38.46631,STD
5637433000000.0,0.0007950233411975205,0.013853673823177814,0.4270022213459015,-0.0008592134108766913,-0.0004908135742880404,-0.021991148999999998,-0.0036651915999999997,231.73431000000002,-146.55147,38.015583,STD
7779749000000.0,0.0012975753052160144,0.019175706431269646,0.5891934633255005,-0.001118747517466545,-0.001129313139244914,0.0021380284,-0.00030543262000000003,231.10075,-145.76993000000002,37.564926,STD
10202957000000.0,0.001964941155165434,0.025223877280950546,0.7726127505302429,-0.0013792525278404355,-0.0016457057790830731,0.008552114,0.0036651915999999997,230.48672000000002,-144.99818,37.114414000000004,STD
12876637000000.0,0.002812820253893733,0.03192915767431259,0.9749484062194824,-0.0016294121742248535,-0.0020519280806183815,0.026572637000000003,0.00580322,229.88277999999997,-144.23305,36.671196,STD
15768951000000.0,0.0038538083899766207,0.039218202233314514,1.1937823295593262,-0.0018586639780551195,-0.002136992523446679,0.027488936000000002,0.009468411,229.30116,-143.48062,36.22719,STD
18847451000000.0,0.005095699802041054,0.047014813870191574,1.426651954650879,-0.0020579283591359854,-0.0017502858536317945,0.025961772999999997,0.009468411,228.7326,-142.73819,35.786365999999994,STD
22079819000000.0,0.006560011301189661,0.05524704232811928,1.6710994243621826,-0.0022135658655315638,-0.0011577950790524483,0.006414085,0.010079277,228.1864,-142.0055,35.344013000000004,STD
25434520000000.0,0.008220037445425987,0.06383101642131805,1.9247448444366455,-0.0023282088804990053,-6.834114174125716e-05,-0.005192355,0.010079277,227.93307232866601,-141.661972144436,35.1326531068534,STD
28881354000000.0,0.010089879855513573,0.07269778102636337,2.185293674468994,-0.0023911185562610626,0.0010007123928517103,-0.013133603,-0.004276057,227.65343,-141.28276,34.899338,STD
32391886000000.0,0.01216855552047491,0.08177832514047623,2.4505908489227295,-0.00239694956690073,0.002100121695548296,-0.016187929,-0.005497787,227.14006,-140.56985,34.458633,STD
35939775000000.0,0.01445083413273096,0.09100747853517532,2.718641757965088,-0.0023421933874487877,0.002711850916966796,-0.033292156,-0.009773844,226.64697,-139.86158999999998,34.009945,STD
39500986000000.0,0.016930943354964256,0.10032550990581512,2.9876270294189453,-0.002223983407020569,0.0028404013719409704,-0.041233405,-0.016493361,226.16617000000002,-139.1612,33.563815999999996,STD
43053927000000.0,0.01960095204412937,0.10967794060707092,3.2559127807617188,-0.0020406614057719707,0.0026690105441957712,-0.042455133,-0.020158553,225.70207000000002,-138.46735,33.11808,STD
46579480000000.0,0.02245371602475643,0.11901652812957764,3.522052764892578,-0.001790800248272717,0.002053293865174055,-0.038179077,-0.019547688,225.25185,-137.77837,32.67413,STD
50060977000000.0,0.025479193776845932,0.1282981038093567,3.784787654876709,-0.001474429969675839,0.0014452709583565593,-0.03756821,-0.010995574,224.81699,-137.09951999999998,32.233288,STD
53484130000000.0,0.02866830863058567,0.13748551905155182,4.043037414550781,-0.0010917317122220993,0.0009650914580561221,-0.03176499,-0.0036651915999999997,224.39212,-136.42752,31.797046999999996,STD
56836883000000.0,0.03200897201895714,0.14654618501663208,4.29589319229126,-0.0006443411111831665,0.0009362021228298545,-0.04276056599999999,0.007330383,223.98623999999998,-135.7681,31.364221999999998,STD
60109288000000.0,0.03549451753497124,0.15528106689453125,4.542791843414307,-0.0006835455424152315,0.001112809288315475,-0.050701816,-0.005192355,223.58646000000002,-135.11328,30.93249,STD
63293314000000.0,0.03911281004548073,0.16360613703727722,4.783196449279785,-0.0014064715942367911,0.0012012076331302524,-0.052534412999999995,0.00061086525,223.20472999999998,-134.47377,30.510431,STD
66382683000000.0,0.04285602271556854,0.17150551080703735,5.016632556915283,-0.0028096113819628954,0.0005660033784806728,-0.056505035999999995,-0.008246681,222.84392000000003,-133.828,30.090421999999997,STD
69372680000000.0,0.04673340171575546,0.17895564436912537,5.242754936218262,-0.0049359905533492565,-0.0006799934199079871,-0.046120327,-0.007941248,222.4931,-133.19331,29.679316999999998,STD
72259964000000.0,0.05069531872868538,0.18598295748233795,5.461276531219482,-0.0076464940793812275,-0.002479162998497486,-0.048563786,-0.013439035,222.1547,-132.56065,29.265556,STD
75042415000000.0,0.05475405976176262,0.19257061183452606,5.672048568725586,-0.010985015891492367,-0.00444833654910326,-0.039095376,-0.01282817,221.8213,-131.93618999999998,28.860327,STD
77718950000000.0,0.05890163406729698,0.1987209916114807,5.874983787536621,-0.014930887147784233,-0.006892525590956211,-0.0421497,-0.010079277,221.50117000000003,-131.3153,28.455679999999997,STD
80289400000000.0,0.06313054263591766,0.2044392079114914,6.070063591003418,-0.019462045282125473,-0.008729657158255577,-0.041233405,-0.01160644,221.18599,-130.70508,28.055915999999996,STD
82754330000000.0,0.06743323802947998,0.20973308384418488,6.257325172424316,-0.024553852155804634,-0.01096048578619957,-0.04428773,-0.005192355,220.8835,-130.0989,27.661597999999998,STD
85114960000000.0,0.07180242240428925,0.21461240947246552,6.436853408813477,-0.030180418863892555,-0.013264642097055912,-0.037873644,0.003970624,220.58684,-129.50429,27.273031,STD
87373020000000.0,0.07623638957738876,0.21908454596996307,6.608776092529297,-0.036331042647361755,-0.015499386005103588,-0.03726278,0.0030543262,220.30032000000003,-128.9156,26.886274,STD
89530670000000.0,0.08072340488433838,0.22316601872444153,6.773245811462402,-0.04296336695551872,-0.017063282430171967,-0.027794369,-0.0070249503,220.01744,-128.33658,26.50563,STD
91590400000000.0,0.0852639228105545,0.22686518728733063,6.93044900894165,-0.05007077753543854,-0.018028201535344124,-0.02076942,0.0009162978999999999,219.74532000000002,-127.76871499999999,26.133067999999998,STD
93554980000000.0,0.08985233306884766,0.23019593954086304,7.080586910247803,-0.05762753635644913,-0.018964149057865143,-0.019242255,0.0018325957999999999,219.47675,-127.20537,25.760872,STD
95427350000000.0,0.09447726607322693,0.2331773042678833,7.22387170791626,-0.06558983772993088,-0.019605383276939392,-0.026572637000000003,0.008246681,219.21765,-126.65568999999999,25.395985,STD
97210620000000.0,0.09914062172174454,0.23581860959529877,7.360535621643066,-0.07395349442958832,-0.01990138739347458,-0.018325957,-0.0009162978999999999,218.95831,-126.11098,25.033766,STD
98907970000000.0,0.10383722186088562,0.2381349354982376,7.490812301635742,-0.0826926976442337,-0.01996205560863018,-0.014966198,0.0021380284,218.7115,-125.57841499999999,24.678888,STD
100522644000000.0,0.10857018083333969,0.24013520777225494,7.614946365356445,-0.09180643409490585,-0.0196079071611166,-0.014660766,0.00030543262000000003,218.46739,-125.05257399999999,24.325332999999997,STD
102057890000000.0,0.11332550644874573,0.24184150993824005,7.733170986175537,-0.1012420579791069,-0.019096435979008675,-0.020158553,-0.00030543262000000003,218.23047999999997,-124.53516,23.976807,STD
103516980000000.0,0.11810526996850967,0.2432635873556137,7.845729827880859,-0.11099536716938019,-0.019104039296507835,-0.018936822,-0.0012217305,217.99695,-124.02386499999999,23.632885,STD
104903130000000.0,0.12290675193071365,0.24441476166248322,7.952861309051514,-0.12104787677526474,-0.01831316575407982,-0.024129177,0.00061086525,217.7725,-123.52611,23.292382999999997,STD
106219510000000.0,0.12772917747497559,0.24530668556690216,8.054801940917969,-0.13138705492019653,-0.017562098801136017,-0.036957346,-0.010995574,217.663454591176,-123.277098093815,23.1217985816154,STD
107469225000000.0,0.13257107138633728,0.2459513247013092,8.151782035827637,-0.14199848473072052,-0.016865089535713196,-0.040927973,-0.0125227375,217.55417000000003,-123.02753999999999,22.95084,STD
108655316000000.0,0.13742764294147491,0.24636290967464447,8.244025230407715,-0.15285804867744446,-0.016412215307354927,-0.049785517,-0.011301007,217.34215,-122.54196,22.618217,STD
109780720000000.0,0.14229823648929596,0.2465522289276123,8.33174991607666,-0.16395427286624908,-0.01583785191178322,-0.05009095,-0.014049901000000002,217.13509,-122.06151000000001,22.284632000000002,STD
110848300000000.0,0.14718246459960938,0.24652953445911407,8.415169715881348,-0.17527683079242706,-0.01527690701186657,-0.047647487,-0.011911871999999999,216.93513,-121.5883,21.95642,STD
111860810000000.0,0.152078315615654,0.24630598723888397,8.494488716125488,-0.18681088089942932,-0.015469986014068127,-0.032070424,-0.013133603,216.7352,-121.11881000000001,21.63252,STD
112820920000000.0,0.15698525309562683,0.245891273021698,8.569905281066895,-0.19854620099067688,-0.015846632421016693,-0.015882496,-0.011301007,216.53925,-120.65963,21.314747,STD
113731190000000.0,0.16189952194690704,0.24529719352722168,8.641607284545898,-0.21046330034732819,-0.016187580302357674,-0.0012217305,-0.0033597588,216.34395,-120.20658999999999,21.004170000000002,STD
114594064000000.0,0.16682453453540802,0.24452969431877136,8.7097806930542,-0.22256463766098022,-0.015605876222252846,0.005192355,-0.005192355,216.1494,-119.76163500000001,20.696617,STD
115411910000000.0,0.17175662517547607,0.2435998022556305,8.774599075317383,-0.2348315268754959,-0.01481196191161871,0.005192355,0.0009162978999999999,216.056295980823,-119.545741586097,20.548180158210197,STD
116186980000000.0,0.17669692635536194,0.24251452088356018,8.836231231689453,-0.2472602277994156,-0.013379919342696667,-0.007941248,0.007330383,215.96252,-119.32829,20.398672,STD
116921430000000.0,0.18164148926734924,0.24128438532352448,8.894834518432617,-0.25983187556266785,-0.012152458541095257,-0.021380282999999996,0.004886922,215.77559,-118.8978,20.101093,STD
117617330000000.0,0.18659313023090363,0.2399144321680069,8.950566291809082,-0.2725483775138855,-0.010697821155190468,-0.03726278,-0.010079277,215.59647999999999,-118.47907,19.806053,STD
118276630000000.0,0.1915488988161087,0.2384137660264969,9.003570556640625,-0.285394549369812,-0.009319666773080826,-0.05009095,-0.007941248,215.512481682355,-118.270321952734,19.660901611255802,STD
118901220000000.0,0.19650930166244507,0.2367885559797287,9.053987503051758,-0.29836586117744446,-0.009684313088655472,-0.06291912,-0.013744468000000001,215.42817999999997,-118.06081999999999,19.515226000000002,STD
119492886000000.0,0.20147481560707092,0.23504464328289032,9.101950645446777,-0.3114580810070038,-0.010808403603732586,-0.09193522,-0.015577064,215.26702999999998,-117.65097,19.223274,STD
120053320000000.0,0.20644284784793854,0.23318995535373688,9.147584915161133,-0.3246579170227051,-0.012376232072710991,-0.10018189999999999,-0.01740966,215.10983,-117.2417,18.934204,STD
120584150000000.0,0.21141186356544495,0.23123130202293396,9.191010475158691,-0.3379555344581604,-0.014429385773837566,-0.08704830000000001,-0.019547688,214.95743,-116.835396,18.648169,STD
121086906000000.0,0.2163834422826767,0.22917282581329346,9.232342720031738,-0.3513508141040802,-0.016779910773038864,-0.07452556,-0.013744468000000001,214.81087000000002,-116.43561000000001,18.367264000000002,STD
121563060000000.0,0.2213962972164154,0.2272280901670456,9.271437644958496,-0.36386749148368835,-0.01835636794567108,-0.061391957000000004,-0.008246681,214.66272999999998,-116.043724,18.0913,STD
122013990000000.0,0.22637353837490082,0.2254413515329361,9.30836296081543,-0.3753582835197449,-0.0198980700224638,-0.041233405,-0.009162978,214.51147000000003,-115.65394599999999,17.821151999999998,STD
122441030000000.0,0.23135380446910858,0.22381313145160675,9.343216896057129,-0.38581880927085876,-0.020366892218589783,-0.026267206,0.0018325957999999999,214.41752999999997,-115.28911599999999,17.523315,STD
122845420000000.0,0.236336350440979,0.22233498096466064,9.376108169555664,-0.39530402421951294,-0.02009577862918377,-0.0030543262,0.0061086523,214.31617999999997,-114.92811,17.23142,STD
123228360000000.0,0.2413201630115509,0.22099880874156952,9.407139778137207,-0.40386658906936646,-0.01948145218193531,0.0009162978999999999,0.012217305,214.21863,-114.578476,16.94787,STD
123590970000000.0,0.2463056743144989,0.2197972536087036,9.436408996582031,-0.4115542471408844,-0.018915990367531776,0.0070249503,0.016493361,214.11537,-114.23683999999999,16.67231,STD
123934330000000.0,0.25129303336143494,0.21872328221797943,9.464009284973145,-0.4184127151966095,-0.017535092309117317,0.01740966,0.020463986,214.01148999999998,-113.90713000000001,16.403988000000002,STD
124259440000000.0,0.25628095865249634,0.21776989102363586,9.490029335021973,-0.4244875907897949,-0.015560855157673359,0.030848695,0.022907447,213.90632999999997,-113.58315,16.142001999999998,STD
124567290000000.0,0.2612681984901428,0.21693040430545807,9.51455307006836,-0.4298222064971924,-0.014211928471922874,0.015577064,0.018325957,213.80714,-113.263016,15.882307,STD
124858770000000.0,0.2662591338157654,0.2161998599767685,9.537657737731934,-0.434448778629303,-0.012528100982308388,0.005192355,0.013744468000000001,213.70392,-112.95517,15.629420000000001,STD
125134750000000.0,0.27125054597854614,0.21557176113128662,9.559418678283691,-0.43840956687927246,-0.011568154208362103,-0.0070249503,0.004276057,213.60564,-112.644966,15.377034,STD
125396060000000.0,0.2762414813041687,0.21504046022891998,9.57990837097168,-0.44174131751060486,-0.01085445936769247,-0.021380282999999996,0.0012217305,213.5119,-112.343925,15.128623999999999,STD
125643460000000.0,0.2812400460243225,0.2146027684211731,9.599190711975098,-0.4444645345211029,-0.011382544413208961,-0.028099801,-0.0012217305,213.41946000000002,-112.04018400000001,14.881903,STD
125877710000000.0,0.28623446822166443,0.21425099670886993,9.617334365844727,-0.44662946462631226,-0.012533284723758698,-0.0290161,-0.003970624,213.32987999999997,-111.7426,14.638020499999998,STD
126099485000000.0,0.2912646532058716,0.21399009227752686,9.634383201599121,-0.44820302724838257,-0.013818026520311832,-0.032070424,-0.011301007,213.24292000000003,-111.44612,14.395885,STD
126309460000000.0,0.296258807182312,0.21379850804805756,9.650424003601074,-0.4493269920349121,-0.014432385563850403,-0.03359759,-0.009162978,213.15697000000003,-111.156906,14.159970999999999,STD
126508260000000.0,0.3012518286705017,0.2136804610490799,9.665497779846191,-0.44997313618659973,-0.014737432822585106,-0.038179077,-0.008246681,213.07262999999998,-110.8693,13.925510999999998,STD
126696480000000.0,0.30624499917030334,0.21363233029842377,9.679654121398926,-0.45016491413116455,-0.01457063015550375,-0.04276056599999999,-0.008857545999999999,212.98928999999998,-110.590096,13.695316,STD
126874670000000.0,0.31123971939086914,0.21365073323249817,9.692941665649414,-0.4499242305755615,-0.013810629956424236,-0.045814894,-0.01038471,212.90727,-110.31766999999999,13.469026000000001,STD
127043370000000.0,0.3162335455417633,0.2137315720319748,9.70540714263916,-0.4492778182029724,-0.012668001465499401,-0.055283304000000005,-0.00580322,212.82921000000002,-110.05241000000001,13.247507999999998,STD
127203100000000.0,0.32123035192489624,0.21387244760990143,9.717093467712402,-0.4482411742210388,-0.011293298564851284,-0.044898596,-0.011301007,212.7458,-109.79168999999999,13.028064,STD
127354310000000.0,0.3262248933315277,0.2140689492225647,9.728043556213379,-0.44684311747550964,-0.010756674222648144,-0.03390302,-0.017715093,212.66551,-109.53387,12.812903,STD
127497470000000.0,0.33122438192367554,0.21431981027126312,9.738293647766113,-0.4450916647911072,-0.01028117910027504,-0.02687807,-0.013439035,212.58405,-109.28586000000001,12.603534,STD
127633010000000.0,0.33622288703918457,0.21462078392505646,9.747883796691895,-0.44301456212997437,-0.009472970850765705,-0.020463986,-0.008246681,212.49947999999998,-109.03995,12.3972,STD
127761330000000.0,0.3412190079689026,0.21496886014938354,9.75684928894043,-0.4406314194202423,-0.009098407812416553,-0.013439035,0.0012217305,212.41362,-108.79705,12.197473,STD
127882810000000.0,0.3462164103984833,0.21536238491535187,9.765222549438477,-0.4379529058933258,-0.008532221429049969,-0.008857545999999999,-0.0015271631,212.32634,-108.56116499999999,11.999666,STD
127997830000000.0,0.3512130081653595,0.21579843759536743,9.773035049438477,-0.4349979758262634,-0.008191500790417194,-0.0070249503,0.00580322,212.23947,-108.330055,11.811033,STD
128106710000000.0,0.35620975494384766,0.21627499163150787,9.780316352844238,-0.4317798912525177,-0.007624798454344273,-0.010690141499999998,0.00580322,212.15231,-108.10396599999999,11.622936,STD
128209800000000.0,0.3612050712108612,0.21678949892520905,9.78709602355957,-0.428315132856369,-0.008487997576594353,-0.014966198,0.0033597588,212.06534,-107.87543000000001,11.439568,STD
128307390000000.0,0.3662009835243225,0.2173404097557068,9.793399810791016,-0.4246138036251068,-0.008279827423393726,-0.016798794,-0.003970624,211.97849,-107.66103999999999,11.257986,STD
128399780000000.0,0.3711985945701599,0.21792607009410858,9.7992525100708,-0.42068666219711304,-0.00865240953862667,-0.008246681,-0.0030543262,211.89046000000002,-107.43951399999999,11.081613,STD
128487250000000.0,0.3761952519416809,0.21854400634765625,9.804678916931152,-0.41654977202415466,-0.00962363462895155,-0.014049901000000002,-0.01740966,211.80557000000002,-107.22186,10.901019,STD
128570060000000.0,0.3811938166618347,0.21919317543506622,9.809700965881348,-0.4122098684310913,-0.010705874301493168,-0.008246681,-0.019547688,211.71596,-107.01013,10.728511,STD
128648460000000.0,0.3861921727657318,0.2198714315891266,9.814340591430664,-0.4076809585094452,-0.011811831034719944,0.003970624,-0.035430185,211.6244,-106.79504399999999,10.551294,STD
128722690000000.0,0.3911900818347931,0.2205771505832672,9.818618774414062,-0.4029735326766968,-0.012451945804059505,0.010690141499999998,-0.049480084,211.53284,-106.58525,10.377041,STD
128792960000000.0,0.3961895704269409,0.2213093638420105,9.822553634643555,-0.39809390902519226,-0.012960292398929596,0.0076358155,-0.057726767000000005,211.44002999999998,-106.37596,10.203168,STD
128859480000000.0,0.401187926530838,0.2220660299062729,9.826164245605469,-0.39305540919303894,-0.013408998027443886,0.02076942,-0.061391957000000004,211.34024,-106.17033400000001,10.031148,STD
128922460000000.0,0.4061877727508545,0.22284646332263947,9.829466819763184,-0.3878624439239502,-0.01368730328977108,0.02076942,-0.05009095,211.24556,-105.97068999999999,9.863008,STD
128982090000000.0,0.41118723154067993,0.22364895045757294,9.832479476928711,-0.38252609968185425,-0.013836841098964214,0.022296581,-0.04795292,211.14601000000002,-105.77258,9.695171,STD
129038534000000.0,0.41618338227272034,0.22447162866592407,9.835217475891113,-0.37705865502357483,-0.013262228108942509,0.01740966,-0.038179077,211.04955,-105.584724,9.535084,STD
129091970000000.0,0.42118191719055176,0.2247214913368225,9.837296485900879,-0.3714408278465271,-0.01187183614820242,0.015577064,-0.034208454,210.95164,-105.4009,9.377049000000001,STD
129142560000000.0,0.42617979645729065,0.22421033680438995,9.838604927062988,-0.3656787872314453,-0.009692857973277569,0.008246681,-0.028405233999999998,210.85745,-105.22573,9.224347,STD
129190460000000.0,0.43119609355926514,0.22292517125606537,9.83913803100586,-0.3597484827041626,-0.007239347789436579,0.004886922,-0.027488936000000002,210.75565,-105.03398,9.08201,STD
129235800000000.0,0.436195969581604,0.2210024744272232,9.839020729064941,-0.3537153899669647,-0.004721259232610464,0.0018325957999999999,-0.028099801,210.6566,-104.849205,8.942706,STD
129278725000000.0,0.4411938786506653,0.21843796968460083,9.838253021240234,-0.3475622832775116,-0.0030372729524970055,-0.011301007,-0.024740042,210.56215,-104.66640500000001,8.806211,STD
129319370000000.0,0.44619283080101013,0.21525776386260986,9.83686351776123,-0.34129077196121216,-0.0018662309739738703,-0.025350908,-0.026267206,210.46900000000002,-104.487915,8.670159,STD
129357850000000.0,0.4511914849281311,0.21149827539920807,9.834888458251953,-0.3349092900753021,-0.0011807994451373816,-0.03359759,-0.046731193,210.37742999999998,-104.306946,8.531496,STD
129394270000000.0,0.4561903774738312,0.20718885958194733,9.832357406616211,-0.32842278480529785,-0.0009876550175249577,-0.042455133,-0.06169739,210.29058999999998,-104.12793,8.395304,STD
129428756000000.0,0.4611876606941223,0.20236393809318542,9.829303741455078,-0.3218398988246918,-0.0012117326259613037,-0.0580322,-0.074830994,210.20723999999998,-103.94736999999999,8.255312,STD
129461400000000.0,0.4661867022514343,0.1970418244600296,9.825748443603516,-0.3151603639125824,-0.0027260438073426485,-0.08155051,-0.0711658,210.12909,-103.76459,8.117239999999999,STD
129492310000000.0,0.4711851477622986,0.19125530123710632,9.821722984313965,-0.30839303135871887,-0.004908407106995583,-0.09437868,-0.08063421400000001,210.05112000000003,-103.5813,7.9739127000000005,STD
129521570000000.0,0.4761826694011688,0.18503019213676453,9.817254066467285,-0.3015432357788086,-0.007544171530753374,-0.099571034,-0.08307768,209.97849,-103.39832,7.835081,STD
129549270000000.0,0.48118096590042114,0.1783851981163025,9.812360763549805,-0.2946125864982605,-0.010446403175592422,-0.095294975,-0.081855945,209.90666000000002,-103.215225,7.6968155,STD
129575490000000.0,0.48618048429489136,0.17134135961532593,9.807064056396484,-0.2876046299934387,-0.01405666396021843,-0.09621128,-0.089186326,209.83739,-103.029205,7.5572605,STD
129600320000000.0,0.49117928743362427,0.1639251708984375,9.801390647888184,-0.2805265486240387,-0.01817444898188114,-0.094989546,-0.09193522,209.76677,-102.84644,7.421996000000001,STD
129623824000000.0,0.4961804449558258,0.15614794194698334,9.795353889465332,-0.27337706089019775,-0.02200768142938614,-0.08827003,-0.09254608,209.69473,-102.66578,7.2878112999999995,STD
129646080000000.0,0.5011798739433289,0.14804016053676605,9.788981437683105,-0.2661665976047516,-0.025441305711865425,-0.06414085,-0.07880162,209.61816000000002,-102.48791999999999,7.1601186000000006,STD
129667140000000.0,0.5061786770820618,0.13961642980575562,9.782289505004883,-0.25889667868614197,-0.028285013511776924,-0.03390302,-0.06841691,209.53787,-102.313965,7.034161599999999,STD
129687090000000.0,0.5111782550811768,0.13088984787464142,9.775291442871094,-0.2515681982040405,-0.030065644532442093,-0.005497787,-0.071776666,209.4514,-102.1463,6.9113874000000015,STD
129705970000000.0,0.5161778926849365,0.12187834829092026,9.76800537109375,-0.24418537318706512,-0.03111656755208969,0.019242255,-0.074830994,209.35811999999999,-101.98404000000001,6.7948823,STD
129723850000000.0,0.5211769938468933,0.11259876936674118,9.760448455810547,-0.23675207793712616,-0.03214403986930847,0.04642576,-0.06261369,209.25688,-101.82776,6.6851287,STD
129740770000000.0,0.5261759161949158,0.1030646488070488,9.752634048461914,-0.2292705625295639,-0.03269354626536369,0.052839845,-0.05955936,209.15416000000002,-101.67718,6.5739484,STD
129756790000000.0,0.5311753153800964,0.09328759461641312,9.744573593139648,-0.22174222767353058,-0.033278875052928925,0.062308256,-0.061086524,209.0435,-101.528305,6.4680758,STD
129771960000000.0,0.5361746549606323,0.08328191190958023,9.736282348632812,-0.21417036652565002,-0.03461432456970215,0.0720821,-0.06169739,208.93143999999998,-101.38146,6.365278,STD
129786320000000.0,0.5411736965179443,0.07306068390607834,9.72777271270752,-0.20655784010887146,-0.036220427602529526,0.08063421400000001,-0.06047566,208.81735,-101.23897,6.2645626,STD
129799920000000.0,0.5462186336517334,0.06250537186861038,9.718942642211914,-0.19882969558238983,-0.03814787045121193,0.089186326,-0.06078109,208.70068,-101.09501999999999,6.165253,STD
129812790000000.0,0.5512173175811768,0.0518861785531044,9.710030555725098,-0.19114179909229279,-0.040509745478630066,0.11209377,-0.057726767000000005,208.57805,-100.952324,6.069792,STD
129824975000000.0,0.5562143325805664,0.04108788073062897,9.700937271118164,-0.18342165648937225,-0.04333173483610153,0.13713925,-0.05681047,208.4526,-100.8098,5.975579,STD
129836510000000.0,0.5612102746963501,0.030118675902485847,9.691670417785645,-0.17567016184329987,-0.046507932245731354,0.15485434,-0.053450707,208.32338000000001,-100.66869,5.884997,STD
129847430000000.0,0.5662081241607666,0.018979575484991074,9.682232856750488,-0.1678842008113861,-0.05026361718773842,0.18051068,-0.053450707,208.18507,-100.52606,5.796488,STD
129857770000000.0,0.5712057948112488,0.007685031741857529,9.672637939453125,-0.1600688099861145,-0.0532820001244545,0.20128010000000002,-0.042455133,208.04422,-100.39175,5.7138343,STD
129867560000000.0,0.5762027502059937,-0.003755022305995226,9.662895202636719,-0.1522265374660492,-0.05570003762841225,0.21594086,-0.04734206,207.89763,-100.253685,5.628687,STD
129876830000000.0,0.5812051296234131,-0.01535007730126381,9.652997970581055,-0.14434857666492462,-0.0574357807636261,0.22266038,-0.05009095,207.7485,-100.12305,5.5488834,STD
129885610000000.0,0.5862025022506714,-0.02706322818994522,9.642979621887207,-0.13645382225513458,-0.05854187160730362,0.23701571,-0.05100725,207.59348,-99.99619,5.470222,STD
129893910000000.0,0.5911988019943237,-0.0388985313475132,9.632837295532227,-0.12853704392910004,-0.058807700872421265,0.22876903,-0.06688975,207.44281,-99.87244399999999,5.38694,STD
129901770000000.0,0.596196174621582,-0.050855472683906555,9.62257194519043,-0.12059584259986877,-0.05743163079023361,0.22082779,-0.08216137400000001,207.28859,-99.75712,5.3052316,STD
129909220000000.0,0.6011928915977478,-0.06292277574539185,9.612195014953613,-0.11263437569141388,-0.05593356490135193,0.19150625,-0.099571034,207.14268,-99.63825,5.2183532999999995,STD
129916270000000.0,0.6061887741088867,-0.07509395480155945,9.601713180541992,-0.10465407371520996,-0.054417673498392105,0.15027285,-0.12278391400000001,207.00215,-99.52515,5.125955,STD
129922945000000.0,0.6111872792243958,-0.08737307041883469,9.5911226272583,-0.09665025025606155,-0.05286862701177597,0.09621128,-0.14019357,206.8737,-99.41342,5.0299515999999995,STD
129929260000000.0,0.6162123680114746,-0.09982230514287949,9.58036994934082,-0.08858385682106018,-0.05149979516863823,0.050701816,-0.16096300000000002,206.75392,-99.29936,4.9266467,STD
129935240000000.0,0.6212071180343628,-0.11195585131645203,9.569656372070312,-0.08000296354293823,-0.05145726725459099,0.01863139,-0.18692477,206.64517,-99.17949,4.816992,STD
129940905000000.0,0.6262058019638062,-0.12362447381019592,9.558942794799805,-0.07043872028589249,-0.05169372260570526,0.021991148999999998,-0.20708331,206.53896,-99.063835,4.7044907,STD
129946266000000.0,0.6312004923820496,-0.1348477154970169,9.548245429992676,-0.05998503416776657,-0.051950130611658096,0.01985312,-0.21135938,206.5257,-98.86126999999999,4.528475299999999,STD
129951340000000.0,0.6361943483352661,-0.14565131068229675,9.537557601928711,-0.04867338389158249,-0.05224170535802841,0.049480084,-0.21777347,206.50191999999998,-98.65804,4.350248000000001,STD
129956150000000.0,0.6411900520324707,-0.15605942904949188,9.526872634887695,-0.03653528541326523,-0.05219219624996185,0.07696902,-0.21563543,206.47984,-98.46106,4.1758337,STD
129960690000000.0,0.6461858749389648,-0.16609202325344086,9.516193389892578,-0.023623593151569366,-0.05087568983435631,0.076052725,-0.20708331,206.45773,-98.27229,4.004222400000001,STD
129965006000000.0,0.6511792540550232,-0.17576739192008972,9.505525588989258,-0.009993175975978374,-0.048424821346998215,0.07391469,-0.19425514,206.4287,-98.08964,3.8380845,STD
129969080000000.0,0.6561737060546875,-0.18510685861110687,9.494861602783203,0.004335853271186352,-0.04450938478112221,0.059864793,-0.18417588,206.40385,-97.919525,3.675762,STD
129972940000000.0,0.6611681580543518,-0.19412761926651,9.484203338623047,0.01932057924568653,-0.039614368230104446,0.04062254,-0.18448131,206.38144,-97.75735,3.5164218000000003,STD
129976600000000.0,0.666162371635437,-0.20284651219844818,9.473550796508789,0.03492492064833641,-0.03401985764503479,0.027794369,-0.18967366,206.36163,-97.60608,3.3607839999999998,STD
129980060000000.0,0.6711577773094177,-0.21128058433532715,9.46290111541748,0.05112352967262268,-0.0283165592700243,0.059864793,-0.20769419,206.33428999999998,-97.45987,3.204744,STD
129983340000000.0,0.676156759262085,-0.21944662928581238,9.452248573303223,0.06789752840995789,-0.023910123854875565,0.10323623,-0.21410827,206.3078,-97.31596,3.0529387000000003,STD
129986450000000.0,0.6811542510986328,-0.22735567390918732,9.441603660583496,0.08519038558006287,-0.021447639912366867,0.14905111,-0.22082779,206.27109,-97.17198,2.89955,STD
129989380000000.0,0.6861573457717896,-0.23502615094184875,9.430951118469238,0.10301196575164795,-0.02048368752002716,0.17073683,-0.2284636,206.22894,-97.02769,2.7471547000000003,STD
129992170000000.0,0.6911535859107971,-0.24246256053447723,9.420317649841309,0.12126901745796204,-0.022175481542944908,0.16920967,-0.23732115,206.1804,-96.87177,2.5956222999999996,STD
129994800000000.0,0.6961513757705688,-0.24968278408050537,9.409684181213379,0.1399812400341034,-0.025518791750073433,0.13897185,-0.24068089999999998,206.13412,-96.71699,2.4456564999999997,STD
129997290000000.0,0.7011477947235107,-0.2566964626312256,9.399057388305664,0.15910930931568146,-0.03177662566304207,0.089186326,-0.24373524,206.09392,-96.54555500000001,2.2949946,STD
129999650000000.0,0.7061441540718079,-0.263515442609787,9.388434410095215,0.17863789200782776,-0.03965424373745918,0.03940081,-0.24251351,206.06261999999998,-96.375336,2.1460884,STD
130001880000000.0,0.7111399173736572,-0.27014970779418945,9.377816200256348,0.198542520403862,-0.04914671182632446,-0.014966198,-0.24373524,206.04688000000002,-96.19291,1.9964321,STD
130004000000000.0,0.7161370515823364,-0.27661043405532837,9.36719799041748,0.21881365776062012,-0.05937037616968155,-0.040927973,-0.23365596,206.03769,-96.01019000000001,1.8521823,SDL
130006000000000.0,0.7211341261863708,-0.2829059362411499,9.356582641601562,0.23942439258098602,-0.07036765664815903,-0.06597344599999999,-0.23060162,206.04355,-95.820526,1.7065331999999998,SDL
130007900000000.0,0.7261421084403992,-0.2890523672103882,9.345947265625,0.26041486859321594,-0.08178805559873581,-0.07788532,-0.22266038,206.05347,-95.63195999999999,1.5672344999999999,SDL
130009690000000.0,0.7311439514160156,-0.2950466275215149,9.3353271484375,0.28167733550071716,-0.09206268191337585,-0.08002335,-0.19792034,206.06816,-95.45076,1.435597,SDL
130011395000000.0,0.7361450791358948,-0.30090025067329407,9.324710845947266,0.3032242953777313,-0.10174091160297394,-0.10170906,-0.18387043,206.09163,-95.26619000000001,1.3047171999999998,SDL
130013005000000.0,0.7411461472511292,-0.30662113428115845,9.31409740447998,0.32504400610923767,-0.11065920442342758,-0.13591751,-0.16065755,206.12,-95.09225500000001,1.1853809,SDL
130014530000000.0,0.7461462616920471,-0.31221580505371094,9.303487777709961,0.3471173644065857,-0.11877666413784027,-0.16371189,-0.13805555,206.15283,-94.92412,1.071655,SDL
130015975000000.0,0.7511477470397949,-0.31769248843193054,9.292877197265625,0.36944279074668884,-0.1260383129119873,-0.1994475,-0.1160644,206.19795,-94.763245,0.9654143,SDL
130017340000000.0,0.7561464905738831,-0.323054701089859,9.282275199890137,0.3919849693775177,-0.13275019824504852,-0.21471913,-0.10140363,206.24518,-94.60746,0.8652931999999999,SDL
130018630000000.0,0.7611463665962219,-0.32831108570098877,9.271672248840332,0.4147525429725647,-0.13861607015132904,-0.204029,-0.09773844,206.29503,-94.45998,0.7698803000000001,SDL
130019860000000.0,0.7661476731300354,-0.3334675431251526,9.261068344116211,0.4377354681491852,-0.1429322510957718,-0.18387043,-0.11911872,206.34589,-94.32055,0.6730735,SDL
130021020000000.0,0.7711484432220459,-0.3385280966758728,9.250467300415039,0.4609120488166809,-0.1450488567352295,-0.14691310000000002,-0.14202617,206.38852,-94.191505,0.5790945,SDL
130022115000000.0,0.7761491537094116,-0.34349820017814636,9.239867210388184,0.4842745363712311,-0.14482265710830688,-0.093767814,-0.16920967,206.41986,-94.07326,0.48022163,SDL
130023156000000.0,0.7811501622200012,-0.3483829200267792,9.229268074035645,0.5078150033950806,-0.14156465232372284,-0.058643065,-0.204029,206.44485,-93.97291,0.37473333,SDL
130024145000000.0,0.7861510515213013,-0.3531864583492279,9.218670845031738,0.5315213799476624,-0.13496436178684235,-0.030543262,-0.23884831,206.45588999999998,-93.89057,0.26420459999999996,SDL
130025080000000.0,0.791151762008667,-0.35791316628456116,9.208075523376465,0.5553848743438721,-0.12565568089485168,-0.00030543262000000003,-0.25534168,206.45578,-93.82619,0.1516073,SDL
130025960000000.0,0.7961519956588745,-0.36256691813468933,9.197482109069824,0.5793953537940979,-0.11526418477296829,0.028710667000000002,-0.2773328,206.4471,-93.77675,0.030056244,SDL
130026800000000.0,0.8011528253555298,-0.36715227365493774,9.186888694763184,0.6035504341125488,-0.10554042458534241,0.05100725,-0.29718593,206.43137,-93.73925,-0.09306478,SDL
130027590000000.0,0.8061530590057373,-0.3716721534729004,9.176298141479492,0.6278364062309265,-0.09724640101194382,0.05009095,-0.312763,206.4136,-93.71070999999999,-0.21897893,SDL
130028350000000.0,0.8111531734466553,-0.37613028287887573,9.165708541870117,0.6522482633590698,-0.09142905473709106,0.057421334000000004,-0.3359759,206.38663,-93.68093,-0.34996906,SDL
130029060000000.0,0.8161536455154419,-0.38053029775619507,9.155119895935059,0.6767821907997131,-0.08945391327142715,0.048563786,-0.35613444,206.36432,-93.64399999999999,-0.48260126,SDL
130029730000000.0,0.8211540579795837,-0.38623952865600586,9.145673751831055,0.7020898461341858,-0.09188125282526016,0.02565634,-0.36743546,206.34368999999998,-93.59855999999999,-0.6171331999999999,SDL
130030370000000.0,0.826156735420227,-0.3937785029411316,9.137798309326172,0.728426992893219,-0.09802068769931793,-0.00061086525,-0.38606682,206.32607,-93.544975,-0.75735515,SDL
130030970000000.0,0.8311583399772644,-0.4030238389968872,9.131397247314453,0.7557100057601929,-0.10804876685142517,-0.08063421400000001,-0.38545597,206.39117,-93.35356999999999,-0.9132734,SDL
130031540000000.0,0.8361585736274719,-0.4138821065425873,9.126389503479004,0.783885657787323,-0.1193329319357872,-0.17012598,-0.37904188,206.46729,-93.1723,-1.0706236,SDL
130032090000000.0,0.841158926486969,-0.42627832293510437,9.12270736694336,0.8129186630249023,-0.1321806162595749,-0.28588495,-0.36438109999999996,206.5748,-92.98652,-1.2241149,SDL
130032600000000.0,0.8461602330207825,-0.44013774394989014,9.120283126831055,0.8427712917327881,-0.1468503326177597,-0.40622538,-0.32986724,206.7103,-92.80959,-1.3683329,SDL
130033090000000.0,0.8511611819267273,-0.45537179708480835,9.119044303894043,0.8733881115913391,-0.1629519760608673,-0.5140431,-0.29840767,206.87592,-92.647835,-1.5073935,SDL
130033550000000.0,0.8561611771583557,-0.471902996301651,9.118926048278809,0.9047237038612366,-0.18032784759998322,-0.5696318,-0.28008172,207.0615,-92.50146,-1.6380322,SDL
130033985000000.0,0.8611606359481812,-0.48966431617736816,9.11987018585205,0.9367421269416809,-0.19812873005867004,-0.57757306,-0.25900686,207.2646,-92.3763,-1.7565148000000002,SDL
130034400000000.0,0.8661609292030334,-0.5086016654968262,9.121825218200684,0.9694196581840515,-0.21472051739692688,-0.51068336,-0.26297748,207.46191000000002,-92.287766,-1.8739264,SDL
130034790000000.0,0.8711609244346619,-0.528643012046814,9.124732971191406,1.0027108192443848,-0.22689589858055115,-0.41416663,-0.26297748,207.65288,-92.23754,-1.9814060000000002,SDL
130035160000000.0,0.8761609196662903,-0.5497320890426636,9.12854290008545,1.036585807800293,-0.2323346883058548,-0.3203988,-0.26175576,207.82509,-92.23029,-2.0867825,SDL
130035510000000.0,0.8811661005020142,-0.5718545317649841,9.133228302001953,1.0710595846176147,-0.23024021089076996,-0.24037547,-0.26633725,207.97331,-92.262825,-2.1911438,SDL
130035850000000.0,0.8861683011054993,-0.5948922038078308,9.138711929321289,1.1060301065444946,-0.21914204955101013,-0.18906279,-0.26358834,208.10273999999998,-92.3237,-2.290724,SDL
130036170000000.0,0.891167938709259,-0.6187984347343445,9.144950866699219,1.1414731740951538,-0.2000083327293396,-0.13164146,-0.24953845,208.20743000000002,-92.39986,-2.386231,SDL
130036470000000.0,0.8961701989173889,-0.6435671448707581,9.151926040649414,1.1774084568023682,-0.17590424418449402,-0.08521569999999999,-0.2452624,208.30057,-92.48691600000001,-2.4818919,SDL
130036750000000.0,0.9011701941490173,-0.6691147089004517,9.159578323364258,1.2137677669525146,-0.1505129039287567,-0.06780604,-0.24556783,208.38571000000002,-92.57475,-2.5731714,SDL
130037020000000.0,0.9061697125434875,-0.6954127550125122,9.167879104614258,1.2505431175231934,-0.12904655933380127,-0.10720685,-0.25809056,208.47406,-92.66528000000001,-2.6651472999999997,SDL
130037270000000.0,0.9111689925193787,-0.7224229574203491,9.176794052124023,1.2877141237258911,-0.1146654561161995,-0.18173242,-0.28710666,208.56773,-87.239334,-2.7603822,SDL
130037520000000.0,0.9161689877510071,-0.7501145601272583,9.186294555664062,1.3252677917480469,-0.11107760667800903,-0.29871312,-0.3023783,208.68509,-87.14284,-2.8535771,SDL
130037740000000.0,0.9211686253547668,-0.7784436345100403,9.196345329284668,1.3631752729415894,-0.12040984630584717,-0.39828414,-0.3277292,208.81897,-87.0295,-2.956037,SDL
130037960000000.0,0.9261684417724609,-0.8073800206184387,9.206918716430664,1.4014219045639038,-0.14272239804267883,-0.441961,-0.34422258,208.9703,-86.90138,-3.0581763,SDL
130038160000000.0,0.9311694502830505,-0.8368993997573853,9.217991828918457,1.4399986267089844,-0.170470729470253,-0.49632803,-0.35705075,209.15305,-86.75177,-3.1639245,SDL
130038356000000.0,0.9361696839332581,-0.8669554591178894,9.22952938079834,1.4788707494735718,-0.2093552201986313,-0.5366451,-0.3903429,209.3441,-86.551765,-3.27735,SDL
130038540000000.0,0.9412117004394531,-0.8978577256202698,9.241676330566406,1.5183994770050049,-0.25640588998794556,-0.5681046999999999,-0.43371433,209.54787,-86.31781,-3.3942788,SDL
130038720000000.0,0.9462100267410278,-0.9288997054100037,9.254069328308105,1.5578126907348633,-0.31278273463249207,-0.56505036,-0.44837508,209.75282,-86.031624,-3.5092269999999997,SDL
130038884000000.0,0.9512078166007996,-0.9603980779647827,9.266857147216797,1.597477674484253,-0.3696872889995575,-0.5448918,-0.46609017,209.96162,-85.708954,-3.6339172999999994,SDL
130039040000000.0,0.9562052488327026,-0.9923297762870789,9.28001880645752,1.6373825073242188,-0.42797040939331055,-0.49571714,-0.4896085,210.16083999999998,-85.32847,-3.7611477,SDL
130039195000000.0,0.9612021446228027,-1.0246700048446655,9.293534278869629,1.677512526512146,-0.48612621426582336,-0.38881573,-0.50701815,210.3372,-84.92458,-3.8892889999999998,SDL
130039340000000.0,0.9661984443664551,-1.057396650314331,9.307384490966797,1.7178552150726318,-0.5425988435745239,-0.24892759999999997,-0.5198463,210.48969,-84.497734,-4.020881,SDL
130039470000000.0,0.9711964130401611,-1.0905067920684814,9.321560859680176,1.758419156074524,-0.5948899388313293,-0.06597344599999999,-0.5372560000000001,210.59906,-84.06018,-4.1584477,SDL
130039600000000.0,0.9761943221092224,-1.123966932296753,9.336038589477539,1.799177885055542,-0.641220211982727,0.17470746,-0.5296202,210.65117999999998,-83.626076,-4.294017,SDL
130039715000000.0,0.9811928272247314,-1.1577634811401367,9.350804328918457,1.840126633644104,-0.6790262460708618,0.43799037,-0.50732356,210.64424,-83.20894,-4.432937,SDL
130039830000000.0,0.9861910939216614,-1.1918721199035645,9.365839958190918,1.8812482357025146,-0.706157922744751,0.7476991,-0.45356745,210.55411,-82.82600000000001,-4.566235,SDL
130039940000000.0,0.9911898374557495,-1.226281762123108,9.381134033203125,1.9225395917892456,-0.7211169600486755,1.0332786,-0.39431350000000004,210.395,-82.486176,-4.6968665000000005,SDL
130040040000000.0,0.9961870908737183,-1.2609611749649048,9.3966646194458,1.9639747142791748,-0.725235641002655,1.2702943000000002,-0.36987892,210.16128999999998,-82.18791,-4.828678,SDL
130040140000000.0,1.0011861324310303,-1.2959213256835938,9.412431716918945,2.0055742263793945,-0.7185056805610657,1.4300356,-0.37415496,209.86806,-81.947296,-4.957211,SDL
130040235000000.0,1.0061850547790527,-1.3311327695846558,9.42841625213623,2.0473132133483887,-0.7040120363235474,1.4947872,-0.40011674,209.53546,-81.74301,-5.0883975,SDL
130040320000000.0,1.0112286806106567,-1.366937279701233,9.444783210754395,2.0895800590515137,-0.6847401857376099,1.4633276000000002,-0.41935900000000004,209.18613,-81.57648499999999,-5.219469999999999,SDL
130040400000000.0,1.016223669052124,-1.4025821685791016,9.461152076721191,2.131542921066284,-0.6638747453689575,1.3106114,-0.43004912,208.85516,-81.43144000000001,-5.3517737,SDL
130040480000000.0,1.021220326423645,-1.4217915534973145,9.493753433227539,2.172900915145874,-0.6440073251724243,1.2021828,-0.45234573,208.5232,-81.29576999999999,-5.4912066,SDL
130040550000000.0,1.0262175798416138,-1.4168791770935059,9.54995059967041,2.21329665184021,-0.6273636221885681,0.91782504,-0.45356745,208.28627,-81.16534399999999,-5.6145797,SDL
130040630000000.0,1.0312141180038452,-1.3831294775009155,9.61694622039795,2.244570255279541,-0.6131044030189514,0.593761,-0.47342056,208.19489,-80.7675,-5.9031970000000005,SDL
130040700000000.0,1.0362114906311035,-1.3179165124893188,9.68670654296875,2.261770009994507,-0.6023396849632263,0.30176744,-0.49999319999999997,208.1772,-80.3628,-6.1796417,SDL
130040760000000.0,1.0412088632583618,-1.228285789489746,9.744650840759277,2.263404130935669,-0.5940205454826355,0.10170906,-0.5009095,208.32967,-80.01773,-6.3285756,SDL
130040820000000.0,1.0462068319320679,-1.118103265762329,9.784163475036621,2.2491209506988525,-0.5875120759010315,-0.011911871999999999,-0.49968776,208.54207,-79.66651,-6.4732970000000005,SDL
130040880000000.0,1.0512056350708008,-0.995174765586853,9.797320365905762,2.22172474861145,-0.5814643502235413,-0.025961772999999997,-0.48380527,208.92393,-79.40664,-6.4712553,SDL
130040940000000.0,1.0562031269073486,-0.8653702139854431,9.779052734375,2.1834990978240967,-0.5751041173934937,0.016187929,-0.47952923,209.32437,-79.144424,-6.4696865,SDL
130040990000000.0,1.0612002611160278,-0.7322984337806702,9.727718353271484,2.1387245655059814,-0.5691968202590942,0.10415252,-0.49877146,209.73251000000002,-78.97411,-6.371492400000001,SDL
130041040000000.0,1.0661985874176025,-0.6026682257652283,9.638406753540039,2.0952131748199463,-0.5635554790496826,0.21044308,-0.5375614000000001,210.12694,-78.80255,-6.2820599999999995,SDL
130041090000000.0,1.0711965560913086,-0.47997888922691345,9.51936149597168,2.0564422607421875,-0.5588496327400208,0.30787608,-0.5684100999999999,210.58667000000003,-78.64974000000001,-6.150047,SDL
130041130000000.0,1.076193928718567,-0.3673585057258606,9.377911567687988,2.0255377292633057,-0.5543457269668579,0.37934732,-0.59498274,211.02888,-78.491714,-6.031756,SDL
130041174000000.0,1.0812182426452637,-0.26468726992607117,9.221467971801758,2.00502610206604,-0.5497074723243713,0.40378192,-0.59498274,211.64122000000003,-78.26201,-5.9084144,SDL
130041220000000.0,1.0862151384353638,-0.17075981199741364,9.061417579650879,1.994442343711853,-0.544225811958313,0.3622431,-0.58368176,212.25711,-78.03063,-5.7866983,SDL
130041260000000.0,1.0912115573883057,-0.0854562371969223,8.896690368652344,1.9941918849945068,-0.5378968715667725,0.27183503,-0.57879484,213.28276,-77.636215,-5.6634164,SDL
130041300000000.0,1.096209168434143,-0.0127951018512249,8.733071327209473,2.0076019763946533,-0.5310750603675842,0.14172074,-0.5681046999999999,214.33478,-77.24433,-5.5223746,SDL
130041330000000.0,1.1012052297592163,0.04586821049451828,8.573238372802734,2.0356154441833496,-0.5249097943305969,0.01740966,-0.56107974,215.41455,-76.849655,-5.367760700000001,SDL
130041370000000.0,1.106203317642212,0.09119583666324615,8.425189971923828,2.070765495300293,-0.5205380320549011,-0.10720685,-0.5497787,217.54385,-76.076515,-5.1295824,SDL
130041400000000.0,1.1112011671066284,0.12399546056985855,8.291443824768066,2.109961748123169,-0.5189222693443298,-0.16676621,-0.5271766999999999,219.67989,-75.29669,-4.8538394,SDL
130041434000000.0,1.1161991357803345,0.14240022003650665,8.175338745117188,2.1461520195007324,-0.5200620889663696,-0.15271631,-0.5183192,222.09291000000002,-74.34878,-4.5551085,SDL
130041470000000.0,1.121195673942566,0.1459432691335678,8.07799243927002,2.1759612560272217,-0.5242013335227966,-0.110872045,-0.49785519999999994,224.48062000000002,-73.39523,-4.211995,SDL
130041490000000.0,1.1261941194534302,0.13144516944885254,7.995236873626709,2.2050092220306396,-0.5299755930900574,0.014966198,-0.49205196,226.4758,-72.51687,-3.9359910000000005,SDL
130041520000000.0,1.1312001943588257,0.09794079512357712,7.925153732299805,2.235513687133789,-0.5380139350891113,0.14385876,-0.49296826,228.42436,-71.63088,-3.6408671999999997,SDL
130041540000000.0,1.13619863986969,0.04491249844431877,7.865667343139648,2.277174234390259,-0.5468447208404541,0.23823744,-0.5131268,230.0236,-70.87071999999999,-3.4585977,SDL
130041570000000.0,1.141196608543396,-0.02862345613539219,7.815845966339111,2.3353776931762695,-0.5557908415794373,0.27091873,-0.5479460999999999,231.58395,-70.11242,-3.2748642000000006,SDL
130041590000000.0,1.1461957693099976,-0.1264050304889679,7.775298118591309,2.4109325408935547,-0.5634788870811462,0.2706133,-0.57604593,233.11172000000002,-69.35101,-3.1831465,SDL
130041620000000.0,1.1511971950531006,-0.2518114149570465,7.743639945983887,2.504530906677246,-0.5681203007698059,0.27458394,-0.61666846,234.61261000000002,-68.61085,-3.0967095000000002,SDL
130041640000000.0,1.156195044517517,-0.4013972282409668,7.717810153961182,2.6082723140716553,-0.5715702772140503,0.30757064,-0.6258314,236.45122999999998,-67.6866,-3.0436902000000003,SDL
130041670000000.0,1.1611924171447754,-0.5733572244644165,7.695907115936279,2.7174506187438965,-0.573762059211731,0.35430184,-0.627664,238.24951000000001,-66.80344000000001,-2.9879568,SDL
130041690000000.0,1.1661908626556396,-0.7603650093078613,7.67526912689209,2.82807993888855,-0.5758044719696045,0.38912117,-0.63621616,240.38315,-65.74446999999999,-2.9923973,SDL
130041700000000.0,1.1711894273757935,-0.9572878479957581,7.65416145324707,2.9375221729278564,-0.5784379839897156,0.39003745,-0.6420194,242.45047000000002,-64.72927,-2.9824731,SDL
130041720000000.0,1.1761876344680786,-1.1515291929244995,7.632205009460449,3.040745496749878,-0.5814194679260254,0.35918877,-0.65270954,244.54349,-63.68091,-3.0913169999999996,SDL
130041740000000.0,1.1811872720718384,-1.3366467952728271,7.609208583831787,3.135275363922119,-0.5840467214584351,0.31429017,-0.6536258,246.57266,-62.678013,-3.1819108,SDL
130041750000000.0,1.1861859560012817,-1.505034327507019,7.584993839263916,3.2193386554718018,-0.5848248600959778,0.27947086,-0.6618725000000001,248.50269,-61.712826,-3.3764293,SDL
130041770000000.0,1.1911847591400146,-1.6511882543563843,7.559417247772217,3.291689395904541,-0.5826315879821777,0.27458394,-0.6743952,250.37967999999998,-60.79628,-3.5555632000000004,SDL
130041790000000.0,1.1961857080459595,-1.7727099657058716,7.534579277038574,3.353447198867798,-0.5773485898971558,0.26847526,-0.7058548000000001,252.17108,-59.948288,-3.743432,SDL
130041800000000.0,1.2011852264404297,-1.8668380975723267,7.512966632843018,3.405937433242798,-0.5685057044029236,0.27855456,-0.72173727,253.9129,-59.15529,-3.9205341000000002,SDL
130041820000000.0,1.2061833143234253,-1.9375073909759521,7.496530532836914,3.4544694423675537,-0.5569925308227539,0.27275133,-0.7498371,255.43967,-58.490463,-4.115292,SDL
130041840000000.0,1.2111822366714478,-1.9876848459243774,7.486627578735352,3.5028748512268066,-0.543114185333252,0.27672195,-0.76144356,256.93445,-57.869423,-4.3040332999999995,SDL
130041850000000.0,1.2161812782287598,-2.019667148590088,7.485494613647461,3.5486693382263184,-0.5281849503517151,0.2846632,-0.7846564,258.2702,-57.351882999999994,-4.466362,SDL
130041870000000.0,1.221181035041809,-2.03558611869812,7.495387077331543,3.5894126892089844,-0.5129119157791138,0.29138273,-0.79504114,259.58893,-56.863994999999996,-4.622804,SDL
130041880000000.0,1.2261799573898315,-2.0383670330047607,7.520163059234619,3.6287286281585693,-0.49697157740592957,0.28496864,-0.8026769,260.82617,-56.436519999999994,-4.733219,SDL
130041890000000.0,1.2311805486679077,-2.0303618907928467,7.563162326812744,3.6696603298187256,-0.4822388291358948,0.22357668,-0.8258898000000001,262.06747,-56.01849,-4.8380623,SDL
130041896000000.0,1.2361786365509033,-2.018838405609131,7.613716125488281,3.707308292388916,-0.46959343552589417,0.17287487,-0.8249735,263.12823,-55.69774,-4.940343,SDL
130041900000000.0,1.2411777973175049,-2.0118165016174316,7.660203456878662,3.7360897064208984,-0.45959150791168213,0.14905111,-0.8216136999999999,264.19495,-55.38025699999999,-5.038574700000001,SDL
130041910000000.0,1.2461738586425781,-2.009398937225342,7.702003479003906,3.7571628093719482,-0.4513108432292938,0.14599679999999998,-0.82527894,265.15955,-55.131190000000004,-5.1177306,SDL
130041920000000.0,1.2511738538742065,-2.013045072555542,7.735910892486572,3.773066282272339,-0.44352030754089355,0.1518,-0.8197812,266.1225,-54.886030000000005,-5.1887989999999995,SDL
130041930000000.0,1.2561694383621216,-2.021732807159424,7.761544227600098,3.7861053943634033,-0.43450093269348145,0.14049901,-0.8167268,267.00732,-54.68659,-5.306033599999999,SDL
130041940000000.0,1.2611684799194336,-2.034022808074951,7.7766642570495605,3.8012444972991943,-0.42352062463760376,0.094989546,-0.80909103,267.89542,-54.49726999999999,-5.4124355,SDL
130041950000000.0,1.266202688217163,-2.0485472679138184,7.780598163604736,3.8169214725494385,-0.4099188446998596,0.035430185,-0.7797695,268.75876,-54.329390000000004,-5.5452285,SDL
130041954000000.0,1.2712006568908691,-2.062126398086548,7.776111125946045,3.830223321914673,-0.3947305679321289,-0.052839845,-0.75594574,269.63763,-54.174484,-5.661356400000001,SDL
130041960000000.0,1.276197910308838,-2.0747861862182617,7.762462139129639,3.8410537242889404,-0.37919601798057556,-0.13805555,-0.7538077,270.56863,-53.996113,-5.7762,SDL
130041970000000.0,1.2811983823776245,-2.080677032470703,7.740333080291748,3.8471648693084717,-0.3628127872943878,-0.19914207,-0.7360926,271.50534,-53.839859999999994,-5.8683662000000005,SDL
130041980000000.0,1.2861953973770142,-2.077434778213501,7.710563659667969,3.8477623462677,-0.3480677008628845,-0.25259277,-0.7302894,272.45883,-53.68156,-5.947493,SDL
130041990000000.0,1.291193962097168,-2.064610481262207,7.677286624908447,3.8428845405578613,-0.33443397283554077,-0.2910773,-0.7287621999999999,273.43557999999996,-53.51645,-6.019645,SDL
130042000000000.0,1.2961920499801636,-2.042487859725952,7.642218112945557,3.8328003883361816,-0.32261741161346436,-0.32192600000000005,-0.74097955,274.42065,-53.348175,-6.0841055,SDL
130042005000000.0,1.301190733909607,-2.0109572410583496,7.607205390930176,3.8117666244506836,-0.3124072253704071,-0.3454443,-0.7877107,275.38202,-53.189285,-6.1356964000000005,SDL
130042010000000.0,1.3061894178390503,-1.9701337814331055,7.573523044586182,3.7760632038116455,-0.30285510420799255,-0.31581733,-0.84329945,276.33856000000003,-53.032669999999996,-6.1945120000000005,SDL
130042020000000.0,1.3111881017684937,-1.9227150678634644,7.5466628074646,3.72688627243042,-0.2930470108985901,-0.36163223,-0.8790351000000001,277.25006,-52.90674,-6.2268386,SDL
130042030000000.0,1.3161869049072266,-1.8701122999191284,7.528944969177246,3.6651487350463867,-0.28491729497909546,-0.3903429,-0.9126327,278.15778,-52.770542000000006,-6.2777305,SDL
130042040000000.0,1.32118558883667,-1.8158860206604004,7.522208213806152,3.5903306007385254,-0.27683019638061523,-0.47372600000000004,-0.92149025,278.96066,-52.722515,-6.3119054000000006,SDL
130042050000000.0,1.326184868812561,-1.7627346515655518,7.527757167816162,3.5021281242370605,-0.2697763442993164,-0.52931476,-0.9431759,279.77112,-52.662342,-6.3550835,SDL
130042055000000.0,1.3311853408813477,-1.7118124961853027,7.547817230224609,3.4008302688598633,-0.26431921124458313,-0.52778757,-0.95905846,280.4635,-52.6949,-6.3976235,SDL
130042060000000.0,1.3362237215042114,-1.6638894081115723,7.5859222412109375,3.284390449523926,-0.26053646206855774,-0.4605924,-0.9608909999999999,281.15472,-52.723465000000004,-6.4428144,SDL
130042070000000.0,1.3412203788757324,-1.6251899003982544,7.63675594329834,3.159008026123047,-0.25693902373313904,-0.42485678,-0.95478237,281.76276,-52.845665000000004,-6.502977,SDL
130042080000000.0,1.3462193012237549,-1.6008507013320923,7.702700138092041,3.0224881172180176,-0.2529636025428772,-0.30543262,-0.93859446,282.33398,-52.963074,-6.5859985,SDL
130042090000000.0,1.3512165546417236,-1.5930975675582886,7.780684471130371,2.8811416625976562,-0.24763742089271545,-0.16676621,-0.9434814,282.82477,-53.185764,-6.7006817,SDL
130042100000000.0,1.3562134504318237,-1.6043519973754883,7.868075847625732,2.74076509475708,-0.24020232260227203,-0.0842994,-0.97005403,283.30017000000004,-53.412724,-6.8260646,SDL
130042105000000.0,1.3612087965011597,-1.6353267431259155,7.963283061981201,2.603231906890869,-0.2288174033164978,0.01038471,-0.9783006999999999,283.6882,-53.745014000000005,-7.0363503,SDL
130042110000000.0,1.3662101030349731,-1.6955630779266357,8.060528755187988,2.4787728786468506,-0.21387222409248352,0.064751714,-0.9767735000000001,284.0655,-54.081676,-7.254662,SDL
130042120000000.0,1.3712049722671509,-1.7798672914505005,8.15561580657959,2.3715100288391113,-0.19436825811862946,0.046731193,-1.0094548,284.41522000000003,-54.477814,-7.579592699999999,SDL
130042130000000.0,1.3762022256851196,-1.8809645175933838,8.237273216247559,2.2963173389434814,-0.17351093888282776,-0.0125227375,-1.0601566,284.75916,-54.867957999999994,-7.9055634,SDL
130042140000000.0,1.3812010288238525,-1.9929829835891724,8.30398178100586,2.2501728534698486,-0.15190955996513367,-0.036957346,-1.0708468,285.09082,-55.24163000000001,-8.347505,SDL
130042150000000.0,1.3862017393112183,-2.0987887382507324,8.348915100097656,2.227379560470581,-0.1303362399339676,-0.06688975,-1.0467176,285.4349,-55.608036,-8.774514,SDL
130042156000000.0,1.3911981582641602,-2.196049928665161,8.371798515319824,2.224625825881958,-0.11002656072378159,-0.14385876,-1.0332786,285.84644,-55.835021999999995,-9.266617,SDL
130042160000000.0,1.3962013721466064,-2.262082576751709,8.357051849365234,2.227865695953369,-0.09413609653711319,-0.24251351,-1.0900891000000001,286.2746,-56.033356000000005,-9.751896,SDL
130042170000000.0,1.4012004137039185,-2.3035006523132324,8.307120323181152,2.215904712677002,-0.09243990480899811,-0.17623462,-1.273654,286.7688,-56.04274,-10.260968,SDL
130042180000000.0,1.4061989784240723,-2.343942403793335,8.217757225036621,2.0706701278686523,-0.1112784594297409,0.35491269999999997,-1.4718798,287.18286,-55.98279599999999,-10.834693,SDL
130042190000000.0,1.4112005233764648,-2.387000560760498,8.101134300231934,1.801450490951538,-0.13845625519752502,0.9682214,-1.4144584999999998,287.60867,-55.845592,-11.315506,SDL
130042200000000.0,1.4161969423294067,-2.468538284301758,8.0685453414917,1.4590630531311035,-0.15943267941474915,1.1728611999999998,-1.314582,288.0293,-55.658221999999995,-11.843405,SDL
130042210000000.0,1.4211982488632202,-2.5923850536346436,8.126253128051758,1.0516514778137207,-0.1745545119047165,1.4285084,-1.0393872,287.9113,-55.791847,-12.561057,SDL
130042214000000.0,1.4261959791183472,-2.8099253177642822,8.36573600769043,0.6805145740509033,-0.18209907412528992,1.5577063999999998,-0.6762278,287.73044,-55.969030000000004,-13.2389,SDL
130042220000000.0,1.4312267303466797,-3.1242809295654297,8.79713249206543,0.34732699394226074,-0.19864986836910248,1.7159204,-0.16126843,287.2569,-56.472675,-14.006053,SDL
130042230000000.0,1.436224102973938,-3.3797130584716797,9.237763404846191,0.0806308463215828,-0.2461082935333252,1.7705929,-0.021685716,286.75516,-56.870833999999995,-14.759673000000001,SDL
130042240000000.0,1.4412174224853516,-3.5743813514709473,9.690942764282227,-0.11736170202493668,-0.29904597997665405,1.8417587,0.21044308,285.9916,-57.5172,-15.556937,SDL
130042250000000.0,1.4462159872055054,-3.7164788246154785,10.145719528198242,-0.27113497257232666,-0.35562458634376526,1.8362609,0.42760566,285.21313,-57.977256999999994,-16.261187,SDL
130042250000000.0,1.4512115716934204,-3.813455820083618,10.595268249511719,-0.3958273231983185,-0.39986103773117065,1.8924606,0.593761,284.37445,-58.449169999999995,-16.885338,SDL
130042260000000.0,1.4562087059020996,-3.8756654262542725,11.036124229431152,-0.5002974271774292,-0.4186912775039673,2.2629502,0.5830709,283.5589,-58.970290000000006,-17.20874,SDL
130042260000000.0,1.461205244064331,-3.9135539531707764,11.464670181274414,-0.5931984186172485,-0.40570497512817383,2.7528641,0.4447099,282.69833,-59.534335999999996,-17.519693,SDL
130042265000000.0,1.466202974319458,-3.9646241664886475,11.86186695098877,-0.7112178802490234,-0.3664066195487976,3.0311133999999997,0.34238997,281.8681,-60.221540000000005,-17.638084,SDL
130042270000000.0,1.471200942993164,-4.048551082611084,12.218302726745605,-0.873221755027771,-0.3170108497142792,3.1410692000000004,0.34636059999999996,280.96155,-60.931231999999994,-17.786528,SDL
130042270000000.0,1.4762134552001953,-4.184316635131836,12.54316520690918,-1.0194424390792847,-0.27444708347320557,3.454443,0.25320363,279.96585,-61.65165,-17.949991,SDL
130042280000000.0,1.4812119007110596,-4.371588706970215,12.84282112121582,-1.125829815864563,-0.24012544751167297,3.8304305,-0.010079277,278.94254,-62.34085,-18.158160000000002,SDL
130042280000000.0,1.4862091541290283,-4.644601345062256,13.133504867553711,-1.1621625423431396,-0.21743187308311462,4.1410556000000005,-0.5271766999999999,277.77722,-62.868919999999996,-18.617115,SDL
130042290000000.0,1.4912066459655762,-5.024631500244141,13.427042961120605,-1.1089913845062256,-0.21450388431549072,4.5075746,-1.3469579,276.5403,-63.181231999999994,-19.239481,SDL
130042300000000.0,1.4962023496627808,-5.475437641143799,13.719274520874023,-1.0033164024353027,-0.2268698662519455,4.6514334999999996,-2.2186625,275.2703,-63.10479,-20.189116000000002,SDL
130042300000000.0,1.5012010335922241,-5.96251916885376,14.006300926208496,-0.881445050239563,-0.23287975788116455,3.6343427000000004,-2.6429085999999997,274.25574,-62.92095,-21.126917000000002,SDL
130042310000000.0,1.506198525428772,-6.425599098205566,14.284912109375,-0.8658478856086731,-0.21117457747459412,1.7773124,-2.3328943,273.43494,-62.349274,-22.296286,SDL
130042310000000.0,1.5111963748931885,-6.827004909515381,14.553330421447754,-1.033609390258789,-0.1461726874113083,0.9334021,-1.7373008,272.6435,-61.813219999999994,-23.439536999999998,SDL
130042315000000.0,1.5161945819854736,-7.097159385681152,14.762796401977539,-1.2849375009536743,-0.03793521225452423,0.02076942,-1.4999796,272.40963999999997,-61.22935,-24.509897,SDL
130042320000000.0,1.5211929082870483,-7.1734724044799805,14.869343757629395,-1.5292259454727173,0.08343199640512466,0.086132,-1.1863003,272.10208,-60.852474,-25.355875,SDL
130042320000000.0,1.5261905193328857,-7.076836109161377,14.855133056640625,-1.718827724456787,0.21732687950134277,0.42516220000000005,-1.0522153,271.76453,-60.811530000000005,-26.063715,SDL
130042330000000.0,1.5311901569366455,-6.824916362762451,14.701873779296875,-1.8081767559051514,0.3333105146884918,0.7828238000000001,-0.97310835,271.3945,-60.762463000000004,-26.672327000000003,SDL
130042330000000.0,1.5361882448196411,-6.470295429229736,14.441873550415039,-1.8020707368850708,0.41422078013420105,1.2812898000000001,-0.906524,270.9983,-60.945488,-26.981102000000003,SDL
130042340000000.0,1.541186809539795,-6.062539577484131,14.104570388793945,-1.7031430006027222,0.4617314636707306,1.9566013999999998,-0.7623598,270.41776,-61.1068,-27.259870000000003,SDL
130042350000000.0,1.546183705329895,-5.638815402984619,13.724376678466797,-1.5149283409118652,0.4900747239589691,2.565634,-0.47403142,269.914,-61.383503000000005,-27.27417,SDL
130042350000000.0,1.5511829853057861,-5.246015548706055,13.343474388122559,-1.2377533912658691,0.5108360648155212,2.8661797000000004,-0.03268129,269.2715,-61.696438,-27.210312,SDL
130042360000000.0,1.556179404258728,-4.893797397613525,12.96292495727539,-0.8841460347175598,0.5278702974319458,2.8420506000000003,0.47647488,268.72046,-62.078136,-26.9735,SDL
130042360000000.0,1.5611778497695923,-4.653700351715088,12.586319923400879,-0.49415093660354614,0.5417504906654358,2.6059509999999997,0.8518515999999999,268.12552,-62.535076000000004,-26.644803999999997,SDL
130042365000000.0,1.566175103187561,-4.520817756652832,12.21505069732666,-0.08135353773832321,0.5532469153404236,2.3548856,0.9202684999999999,267.81927,-62.910343000000005,-26.310685999999997,SDL
130042370000000.0,1.5711745023727417,-4.502549171447754,11.85632610321045,0.2936440706253052,0.5647166967391968,2.3176227000000003,0.752586,267.50903,-63.319862,-25.937313,SDL
130042370000000.0,1.5761734247207642,-4.591719627380371,11.50954818725586,0.633013129234314,0.5791236758232117,2.4077252999999996,0.48136179999999995,267.441,-63.39934,-25.852465,SDL
130042380000000.0,1.581174373626709,-4.764150142669678,11.180571556091309,0.9516468048095703,0.5962461829185486,2.4043655,0.18753563,267.4203,-63.417797,-25.82405,SDL
130042380000000.0,1.5861719846725464,-5.0094523429870605,10.869882583618164,1.2535513639450073,0.6149954795837402,2.1786508999999996,-0.06261369,267.45117,-63.368731999999994,-25.861353,SDL
130042390000000.0,1.5912084579467773,-5.253262519836426,10.572869300842285,1.5254483222961426,0.6340640187263489,1.8484782,-0.2510656,267.39813,-62.950325,-26.291569,SDL
130042400000000.0,1.5962029695510864,-5.480353355407715,10.288993835449219,1.770434856414795,0.6505048871040344,1.5662584,-0.410196,267.42242000000005,-62.468132,-26.779463,SDL
130042400000000.0,1.601200819015503,-5.642741680145264,10.024182319641113,1.960425853729248,0.6646046042442322,1.3848315,-0.5497787,267.48206,-61.738234999999996,-27.518316,SDL
130042410000000.0,1.6061952114105225,-5.726349353790283,9.780113220214844,2.088780403137207,0.6772041916847229,1.3677273,-0.6356053,267.59866,-60.98437,-28.276564,SDL
130042410000000.0,1.6111931800842285,-5.73305082321167,9.580423355102539,2.16139817237854,0.6896368861198425,1.3588698000000001,-0.68752885,267.73703,-60.22945,-29.04089,SDL
130042420000000.0,1.6161903142929077,-5.667903900146484,9.43087100982666,2.1834018230438232,0.7033277153968811,1.2229522,-0.69974613,267.93942000000004,-59.46859,-29.806486,SDL
130042424000000.0,1.621188759803772,-5.5927886962890625,9.380768775939941,2.145660877227783,0.7221975922584534,0.96883225,-0.7147123000000001,267.9937,-58.952490000000004,-30.36018,SDL
130042424000000.0,1.626189112663269,-5.5322465896606445,9.446244239807129,2.046510696411133,0.7485423684120178,0.70096785,-0.71593404,268.10852,-58.441309999999994,-30.905921999999997,SDL
130042430000000.0,1.6311919689178467,-5.532008171081543,9.579219818115234,1.927524209022522,0.785170316696167,0.5833763000000001,-0.6872234,268.06696,-58.252109999999995,-31.162739000000002,SDL
130042430000000.0,1.6361932754516602,-5.620672225952148,9.745512962341309,1.8170826435089111,0.8336982727050781,0.6087272,-0.6227771,268.0699,-58.080394999999996,-31.402975,SDL
130042440000000.0,1.6411917209625244,-5.79225492477417,9.918911933898926,1.726375937461853,0.8954778909683228,0.66339964,-0.5558874,267.90735,-58.127853,-31.467737,SDL
130042440000000.0,1.6461901664733887,-6.04245138168335,10.075286865234375,1.6659985780715942,0.9705354571342468,0.78038037,-0.51068336,267.7167,-58.185925,-31.518990000000002,SDL
130042450000000.0,1.6511869430541992,-6.320056438446045,10.196473121643066,1.6298516988754272,1.0566983222961426,0.9447030999999999,-0.52870387,267.48900000000003,-58.07048399999999,-31.737409999999997,SDL
130042460000000.0,1.6561834812164307,-6.592208385467529,10.271242141723633,1.6137944459915161,1.1494845151901245,1.1267409,-0.5662721,267.2223,-57.952119999999994,-31.942282000000002,SDL
130042460000000.0,1.6612204313278198,-6.827785968780518,10.287217140197754,1.6148033142089844,1.2456434965133667,1.3014483000000001,-0.60231316,266.9693,-57.591544999999996,-32.363758000000004,SDL
130042470000000.0,1.6662150621414185,-7.022950172424316,10.258837699890137,1.6260448694229126,1.3413496017456055,1.4465289,-0.6230826,266.67535,-57.215934999999995,-32.775387,SDL
130042470000000.0,1.6712127923965454,-7.160721778869629,10.187047004699707,1.6455066204071045,1.4318901300430298,1.5598444,-0.67347896,266.39935,-123.281204,-33.280809999999995,SDL
130042475000000.0,1.676210880279541,-7.235845565795898,10.078927993774414,1.670497179031372,1.5137476921081543,1.6377298,-0.7293731,266.09564,-123.79373000000001,-33.776146000000004,SDL
130042480000000.0,1.6812090873718262,-7.243983745574951,9.950570106506348,1.7059489488601685,1.5860503911972046,1.6707164,-0.79198676,265.8169,-124.34107,-34.28441,SDL
130042480000000.0,1.6862082481384277,-7.183235168457031,9.812633514404297,1.7549195289611816,1.6487051248550415,1.6490307,-0.8698720999999999,265.53778,-124.91507,-34.800488,SDL
130042490000000.0,1.691206693649292,-7.060259819030762,9.678698539733887,1.815786361694336,1.7020307779312134,1.4975361999999999,-0.95111716,265.31232,-125.45213000000001,-35.26812,SDL
130042490000000.0,1.696204423904419,-6.880300998687744,9.558354377746582,1.8873083591461182,1.7474685907363892,1.2345587,-1.0164796999999999,265.13977,-126.01102,-35.74972,SDL
130042500000000.0,1.7012015581130981,-6.657593250274658,9.456806182861328,1.9593552350997925,1.7847552299499512,0.91324353,-1.0946705,265.06757000000005,-126.45873999999999,-36.125015000000005,SDL
130042510000000.0,1.7062077522277832,-6.403547286987305,9.379326820373535,2.0226526260375977,1.8146995306015015,0.56779927,-1.1780536,265.10193,-126.92607,-36.525368,SDL
130042510000000.0,1.7111998796463013,-6.129086494445801,9.326876640319824,2.070584774017334,1.839727520942688,0.40378192,-1.2137892,265.184,-127.220146,-36.760796,SDL
130042520000000.0,1.7161937952041626,-5.8438262939453125,9.30636215209961,2.089393377304077,1.862168312072754,0.10079276599999999,-1.2605205,265.44174,-127.53673,-37.03555,SDL
130042520000000.0,1.721187710762024,-5.567697048187256,9.302855491638184,2.079580068588257,1.882290005683899,-0.09896017,-1.2547172,265.6609,-127.6874,-37.143112,SDL
130042525000000.0,1.7261914014816284,-5.315989017486572,9.305154800415039,2.0406622886657715,1.9021207094192505,-0.13561209,-1.1597277,265.9368,-127.82381399999998,-37.2405,SDL
130042530000000.0,1.7311921119689941,-5.102003574371338,9.299070358276367,1.9766714572906494,1.9243615865707397,-0.027794369,-1.039998,266.13632,-127.84239,-37.203465,SDL
130042530000000.0,1.7361924648284912,-4.9381914138793945,9.272048950195312,1.8898276090621948,1.9491772651672363,0.19914207,-0.9398162,266.31244,-127.839874,-37.13957,SDL
130042540000000.0,1.7411898374557495,-4.822239875793457,9.222270011901855,1.781111717224121,1.9765281677246094,0.47891834,-0.90010995,266.34735,-127.84431000000001,-37.049255,SDL
130042540000000.0,1.7461868524551392,-4.752777099609375,9.147102355957031,1.6508991718292236,2.005546808242798,0.75136423,-0.91538155,266.30847,-127.84225500000001,-36.934895000000004,SDL
130042550000000.0,1.7511838674545288,-4.715323448181152,9.054610252380371,1.4984468221664429,2.035395383834839,0.9282097,-0.98532563,266.15402,-128.00856000000002,-36.950874,SDL
130042560000000.0,1.7561826705932617,-4.691862106323242,8.954811096191406,1.3222088813781738,2.0684876441955566,0.9999863999999999,-1.0937542,265.93973,-128.20203999999998,-36.969955,SDL
130042560000000.0,1.7611799240112305,-4.674330234527588,8.854268074035645,1.126834750175476,2.1048948764801025,1.0021244,-1.2067643,265.6328,-128.60805,-37.157715,SDL
130042570000000.0,1.7661997079849243,-4.643215179443359,8.76895523071289,0.9189344048500061,2.145465850830078,0.90133166,-1.2889256000000002,265.33307,-129.04973999999999,-37.361847,SDL
130042570000000.0,1.7711941003799438,-4.605988025665283,8.700491905212402,0.7082890272140503,2.1900763511657715,0.7501425,-1.35551,264.94192999999996,-129.61234,-37.62872,SDL
130042575000000.0,1.7761919498443604,-4.569210052490234,8.65588092803955,0.5022201538085938,2.2361345291137695,0.6056729000000001,-1.3909402,264.57886,-130.20178,-37.906033,SDL
130042580000000.0,1.7811923027038574,-4.54554557800293,8.6342134475708,0.29996177554130554,2.280959129333496,0.51893,-1.4080443,264.16022000000004,-130.7735,-38.11851,SDL
130042580000000.0,1.7861924171447754,-4.5556416511535645,8.634757041931152,0.10047189146280289,2.3198626041412354,0.5290093000000001,-1.4333953000000001,263.75314,-131.36183,-38.335217,SDL
130042590000000.0,1.7911889553070068,-4.601799964904785,8.656816482543945,-0.09852360188961029,2.349205255508423,0.63713247,-1.4532483999999999,263.32193,-131.90495,-38.48731,SDL
130042590000000.0,1.796187162399292,-4.713028430938721,8.7047119140625,-0.3121754229068756,2.3680479526519775,0.84299403,-1.4367551,262.85626,-132.43933,-38.615524,SDL
130042600000000.0,1.801184892654419,-4.8869500160217285,8.775725364685059,-0.5394951701164246,2.376412868499756,1.0473284999999999,-1.3848315,262.378,-132.9989,-38.768833,SDL
130042610000000.0,1.8061833381652832,-5.1385345458984375,8.855944633483887,-0.7796807885169983,2.375363349914551,1.1087204,-1.3387111,261.8849,-133.53758,-38.902854999999995,SDL
130042610000000.0,1.811191439628601,-5.464093208312988,8.945124626159668,-1.0332432985305786,2.367647171020508,1.1301007,-1.3127494,261.34963999999997,-134.17574,-39.12425,SDL
130042620000000.0,1.816190242767334,-5.823034286499023,9.039525032043457,-1.302127718925476,2.3546125888824463,0.96974856,-1.3051136,260.86728,-134.78198,-39.339825,SDL
130042620000000.0,1.8211851119995117,-6.214522838592529,9.139053344726562,-1.5860542058944702,2.3407914638519287,0.66706485,-1.2592987,260.47485,-135.55342,-39.749992,SDL
130042626000000.0,1.8261828422546387,-6.602696895599365,9.247599601745605,-1.89031982421875,2.3272509574890137,0.29260445,-1.1102476000000001,260.1825,-136.26593,-40.139396999999995,SDL
130042630000000.0,1.8311831951141357,-6.975950717926025,9.365978240966797,-2.2156107425689697,2.3177852630615234,-0.09896017,-0.86437434,260.02533,-136.92935,-40.51379,SDL
130042630000000.0,1.8361867666244507,-7.324611186981201,9.47130012512207,-2.541348934173584,2.313739776611328,-0.45081854,-0.5934556,259.98367,-137.65067,-40.968456,SDL
130042640000000.0,1.8411846160888672,-7.644120216369629,9.551609992980957,-2.855696678161621,2.316974401473999,-0.7275404999999999,-0.34422258,260.08807,-138.3045,-41.385048,SDL
130042640000000.0,1.846182107925415,-7.935828685760498,9.607868194580078,-3.1593756675720215,2.327524185180664,-0.8784242,-0.17073683,260.20342999999997,-138.89948,-41.699635,SDL
130042650000000.0,1.8511812686920166,-8.201138496398926,9.641209602355957,-3.4529993534088135,2.344771385192871,-0.9645562,-0.1255328,260.4176,-139.46373,-41.999553999999996,SDL
130042660000000.0,1.8561800718307495,-8.44018268585205,9.62431526184082,-3.7123231887817383,2.365640878677368,-0.9599747,-0.1423316,260.67883,-139.99598999999998,-42.26835,SDL
130042660000000.0,1.861177921295166,-8.653483390808105,9.540750503540039,-3.9226393699645996,2.3863909244537354,-0.91965765,-0.18509217,260.96634,-140.51955,-42.530803999999996,SDL
130042670000000.0,1.8661770820617676,-8.83169174194336,9.381004333496094,-4.072783946990967,2.401982069015503,-0.9269879999999999,-0.24801129,261.17868,-141.10278,-42.809757,SDL
130042670000000.0,1.8711762428283691,-8.969759941101074,9.141190528869629,-4.157245635986328,2.4088478088378906,-0.9981538000000001,-0.32009340000000003,261.39465,-141.67903,-43.09837,SDL
130042680000000.0,1.876175880432129,-9.065077781677246,8.82390308380127,-4.180866718292236,2.406574249267578,-1.1603385,-0.41630468,261.65607,-142.35582,-43.543205,SDL
130042684000000.0,1.8811779022216797,-9.116775512695312,8.431639671325684,-4.147331714630127,2.396852970123291,-1.3552046,-0.5390885999999999,261.93045,-143.02536,-44.018898,SDL
130042684000000.0,1.886179804801941,-9.121282577514648,7.978904724121094,-4.069157600402832,2.384573221206665,-1.5635096000000002,-0.66950834,262.3073,-143.8075,-44.6958,SDL
130042690000000.0,1.8911789655685425,-9.077709197998047,7.475795269012451,-3.9547841548919678,2.3747873306274414,-1.8368717,-0.8011498,262.73624,-144.60017,-45.434628000000004,SDL
130042690000000.0,1.896177053451538,-8.98709774017334,6.9354023933410645,-3.8070244789123535,2.367980718612671,-2.1704042,-0.94714653,263.3371,-145.5445,-46.43367,SDL
130042700000000.0,1.9011768102645874,-8.850543022155762,6.367168426513672,-3.628103494644165,2.363050699234009,-2.4459044999999997,-1.0574077,263.97482,-146.50313,-47.48302,SDL
130042700000000.0,1.906175136566162,-8.66047477722168,5.780994415283203,-3.449575662612915,2.358025312423706,-2.5387560000000002,-1.0983357,264.6031,-147.5415,-48.639194,SDL
130042710000000.0,1.9111744165420532,-8.410974502563477,5.18348503112793,-3.294288158416748,2.3519980907440186,-2.5937338,-1.151481,265.26822000000004,-148.60394,-49.85998,SDL
130042720000000.0,1.9161781072616577,-8.123332977294922,4.593989372253418,-3.1707112789154053,2.3421902656555176,-2.4352142999999997,-1.2000448000000001,265.78836,-149.68585,-51.082755999999996,SDL
130042720000000.0,1.9211772680282593,-7.832103252410889,4.044134616851807,-3.091829299926758,2.327094078063965,-2.0922134,-1.2626585,266.2237,-150.77612,-52.3012,SDL
130042730000000.0,1.9261754751205444,-7.5435004234313965,3.5349113941192627,-3.0527021884918213,2.3040614128112793,-1.5745052,-1.3234396000000002,266.3938,-151.90103,-53.429676,SDL
130042730000000.0,1.9311766624450684,-7.262810707092285,3.06701397895813,-3.049014091491699,2.272327184677124,-0.9211848,-1.3655893,266.32172,-153.02512,-54.485874,SDL
130042735000000.0,1.936179280281067,-6.994195938110352,2.63797664642334,-3.07330322265625,2.228985548019409,-0.20341812,-1.4025466,265.7882,-154.11292,-55.32454,SDL
130042740000000.0,1.941178321838379,-6.742099761962891,2.2452688217163086,-3.1175971031188965,2.173955202102661,0.52015173,-1.4352279,264.92676,-155.19371,-56.042106999999994,SDL
130042740000000.0,1.9461760520935059,-6.5083394050598145,1.8866868019104004,-3.1746461391448975,2.1058080196380615,1.2113458000000001,-1.459357,263.54904,-156.21254,-56.47695,SDL
130042750000000.0,1.9512053728103638,-6.297088146209717,1.5614042282104492,-3.234862804412842,2.0240061283111572,1.7907515,-1.4844025,261.88605,-157.21327,-56.77339,SDL
130042750000000.0,1.9562021493911743,-6.108526706695557,1.2654086351394653,-3.293612241744995,1.9286748170852661,2.2220223,-1.493871,259.92154,-158.15294,-56.844475,SDL
130042760000000.0,1.961199164390564,-5.946446895599365,0.9994452595710754,-3.3480224609375,1.8216420412063599,2.4193318,-1.473407,257.8376,-159.05798000000001,-56.803955,SDL
130042770000000.0,1.966193675994873,-5.813991069793701,0.767820417881012,-3.401646614074707,1.7053219079971313,2.3414464,-1.4388931,255.74976,-159.89813,-56.67045600000001,SDL
130042770000000.0,1.9711921215057373,-5.71908712387085,0.5807265043258667,-3.460883378982544,1.5856784582138062,1.9984456000000002,-1.3637567,253.73566,-160.69617,-56.50686999999999,SDL
130042780000000.0,1.9761879444122314,-5.6612629890441895,0.4401358366012573,-3.527744770050049,1.4693835973739624,1.4266758,-1.2666291,251.96108999999998,-161.42596,-56.39431,SDL
130042780000000.0,1.9811867475509644,-5.647541522979736,0.3633412718772888,-3.611419439315796,1.3648532629013062,0.77763146,-1.1878275,250.35254,-162.13914,-56.34946,SDL
130042785000000.0,1.9861866235733032,-5.672018051147461,0.34435948729515076,-3.707364797592163,1.2795666456222534,0.081855945,-1.1475104,249.11942000000002,-162.76707,-56.421806000000004,SDL
130042790000000.0,1.9911872148513794,-5.725001811981201,0.37489649653434753,-3.8067867755889893,1.218374252319336,-0.6252206,-1.135293,248.08865,-163.41061000000002,-56.63405600000001,SDL
130042790000000.0,1.9961844682693481,-5.8045172691345215,0.448448121547699,-3.911712884902954,1.1805617809295654,-1.2730431999999998,-1.176221,247.43568,-163.94298,-56.934048,SDL
130042800000000.0,2.0011844635009766,-5.909710884094238,0.555019199848175,-4.028476238250732,1.160504698753357,-1.5500705,-1.2452488000000002,246.85433999999998,-164.51314,-57.307713,SDL
130042800000000.0,2.0061819553375244,-6.039541721343994,0.6878995895385742,-4.159174919128418,1.1511363983154297,-1.9877555,-1.2886202,246.70247999999998,-164.96753999999999,-57.83096999999999,SDL
130042810000000.0,2.0111796855926514,-6.195138931274414,0.8354886174201965,-4.310751438140869,1.1443670988082886,-2.2797492000000004,-1.3888022,246.51582000000002,-165.46546999999998,-58.391490000000005,SDL
130042820000000.0,2.016176700592041,-6.377978324890137,0.994829535484314,-4.483065605163574,1.1393258571624756,-2.361605,-1.4993688,246.49442000000002,-165.88652,-58.947745999999995,SDL
130042820000000.0,2.021209716796875,-6.607069969177246,1.156935691833496,-4.684586048126221,1.131623387336731,-1.9578232,-1.6560557,246.34293,-166.32849,-59.458369999999995,SDL
130042830000000.0,2.026207685470581,-6.871574878692627,1.3167564868927002,-4.901585578918457,1.113295316696167,-1.7092009999999997,-1.7189748,246.25872999999999,-166.706,-59.958859999999994,SDL
130042830000000.0,2.031205177307129,-7.195584774017334,1.4651061296463013,-5.122036457061768,1.0904422998428345,-1.0958921999999998,-1.8527542000000001,245.85352000000003,-167.1383,-60.28175,SDL
130042835000000.0,2.0362019538879395,-7.5753631591796875,1.6003469228744507,-5.341590404510498,1.0564851760864258,-0.40744713,-2.0204368,245.34804,-167.5311,-60.496959999999994,SDL
130042840000000.0,2.041200876235962,-8.004720687866211,1.7041065692901611,-5.525420665740967,1.0125529766082764,0.21105394,-2.2314909,244.62079,-167.94867,-60.588733999999995,SDL
130042840000000.0,2.046204090118408,-8.478813171386719,1.7770717144012451,-5.672567844390869,0.9619606137275696,0.5882632,-2.4953845,243.81316,-168.41122,-60.692905,SDL
130042850000000.0,2.0512022972106934,-8.959404945373535,1.8121141195297241,-5.753561019897461,0.9094091653823853,0.5671884,-2.7910432999999997,41.392635,-168.90784,-60.76376,SDL
130042850000000.0,2.056196451187134,-9.446253776550293,1.8111438751220703,-5.771735668182373,0.8620022535324097,0.17073683,-3.0430252999999996,41.330784,-169.59326000000001,-61.077305,SDL
130042860000000.0,2.0611939430236816,-9.927505493164062,1.7766715288162231,-5.762378692626953,0.8241861462593079,-0.39950588,-3.1914654,41.246807000000004,-170.30861000000002,-61.43759,SDL
130042870000000.0,2.0661890506744385,-10.400652885437012,1.7114572525024414,-5.733973026275635,0.798184335231781,-0.8570439000000001,-3.2171217999999997,41.1724,-171.04997,-61.857882999999994,SDL
130042870000000.0,2.071187734603882,-10.858209609985352,1.637327790260315,-5.755403995513916,0.7846856713294983,-1.0540479999999999,-3.0949487999999996,41.112274,-171.92803999999998,-62.583427,SDL
130042880000000.0,2.076186180114746,-11.299081802368164,1.5594491958618164,-5.838170051574707,0.7796869874000549,-0.7516696999999999,-2.7553077,41.100838,-172.74867,-63.229330000000004,SDL
130042880000000.0,2.081190586090088,-11.702980995178223,1.4623761177062988,-5.9914960861206055,0.7785682678222656,0.056505035999999995,-2.278833,41.15273,-173.59564,-63.817665000000005,SDL
130042886000000.0,2.086193799972534,-12.053176879882812,1.3339345455169678,-6.2195515632629395,0.7785183191299438,0.73853606,-2.064419,41.234818,-174.41087,-64.30088,SDL
130042890000000.0,2.091212749481201,-12.280619621276855,1.176527976989746,-6.444488525390625,0.7765503525733948,0.77366084,-2.1594086,41.329834000000005,-175.1848,-64.52691999999999,SDL
130042890000000.0,2.0962085723876953,-12.377974510192871,0.9977407455444336,-6.6336669921875,0.7646278142929077,0.22143865,-2.3930645,41.388465999999994,-175.90355,-64.696304,SDL
130042900000000.0,2.101206064224243,-12.293952941894531,0.7879985570907593,-6.825279235839844,0.7365099191665649,-0.17287487,-2.5732698,41.401516,-176.65984,-64.578804,SDL
130042900000000.0,2.10620379447937,-11.999515533447266,0.5425482392311096,-7.052002906799316,0.7008077502250671,-0.90469146,-2.5970936,41.3865,-177.40839,-64.69669,SDL
130042910000000.0,2.111201286315918,-11.540741920471191,0.25772765278816223,-7.345248699188232,0.6499495506286621,-1.2544118,-2.5448647,41.23561,-178.155,-64.68751999999999,SDL
130042920000000.0,2.116199493408203,-10.950738906860352,-0.06859084963798523,-7.725760459899902,0.5900006890296936,-1.0659598,-2.4755312999999997,41.057526,-178.87741,-64.707634,SDL
130042920000000.0,2.121197462081909,-10.268134117126465,-0.43301114439964294,-8.164340019226074,0.5289331674575806,-0.5497787,-2.452013,40.69604,-179.69827,-64.37304,SDL
130042930000000.0,2.1261961460113525,-9.531185150146484,-0.8326468467712402,-8.631896018981934,0.47357794642448425,0.024740042,-2.490803,40.292374,179.50583,-63.937940000000005,SDL
130042930000000.0,2.1311981678009033,-8.767484664916992,-1.251111626625061,-9.074278831481934,0.4293602705001831,0.5030475000000001,-2.538145,39.729465000000005,178.53851,-62.937675,SDL
130042940000000.0,2.136202573776245,-8.006815910339355,-1.670723795890808,-9.434215545654297,0.39721664786338806,0.84635377,-2.5754080000000004,39.150433,177.57236,-61.789623,SDL
130042940000000.0,2.1411967277526855,-7.2584428787231445,-2.0671613216400146,-9.618310928344727,0.37580370903015137,0.9605855999999999,-2.5515842,38.54514,176.47285,-60.33745,SDL
130042944000000.0,2.146193265914917,-6.5323662757873535,-2.4056122303009033,-9.472665786743164,0.3623684048652649,0.8866709,-2.4767532,37.939487,175.38446000000002,-58.837227,SDL
130042950000000.0,2.1511893272399902,-5.831813335418701,-2.690497398376465,-9.068979263305664,0.3516349494457245,0.6704246,-2.3451116,37.34458,174.24851999999998,-57.410297,SDL
130042950000000.0,2.1561877727508545,-5.167552471160889,-2.9270524978637695,-8.565473556518555,0.33859241008758545,0.32589662,-2.1646009999999998,36.743233000000004,173.15964,-56.03646,SDL
130042960000000.0,2.16119122505188,-4.537638187408447,-3.1174917221069336,-7.96614408493042,0.31988051533699036,-0.11698069400000001,-1.9388863,36.256935,172.09686000000002,-55.396152,SDL
130042960000000.0,2.1661884784698486,-3.9493303298950195,-3.258869171142578,-7.323493957519531,0.29279008507728577,-0.5928446999999999,-1.6756034,35.76307,171.09589,-54.83835,SDL
130042970000000.0,2.1711835861206055,-3.4026455879211426,-3.3516294956207275,-6.648590087890625,0.25832104682922363,-1.0375546,-1.3875803999999998,35.272304999999996,170.16382,-54.3794,SDL
130042980000000.0,2.1761820316314697,-2.9080493450164795,-3.3900907039642334,-5.997620105743408,0.21864086389541626,-1.3417655000000002,-1.0827586999999999,34.89032,169.3503,-54.335330000000006,SDL
130042980000000.0,2.181183099746704,-2.4655086994171143,-3.3755831718444824,-5.381817817687988,0.17690834403038025,-1.4101825000000001,-0.713796,34.544205,168.62468,-54.356956000000004,SDL
130042990000000.0,2.186187505722046,-2.1252071857452393,-3.307889461517334,-4.814901351928711,0.13554425537586212,-1.2626585,-0.28741209999999995,197.87192,168.07207,-54.604206000000005,SDL
130042990000000.0,2.1911861896514893,-1.9039732217788696,-3.190169095993042,-4.301054000854492,0.09812624752521515,-0.81214535,0.04550946,196.8557,167.57625,-54.806953,SDL
130042995000000.0,2.196183204650879,-1.7948635816574097,-3.0264182090759277,-3.8555426597595215,0.07341284304857254,-0.5131268,0.3304781,196.20837,167.30847,-55.126225,SDL
130043000000000.0,2.2011823654174805,-1.791003704071045,-2.820847988128662,-3.4975779056549072,0.07015156000852585,0.10903945,0.50610185,195.79506,167.05671999999998,-55.265373,SDL
130043000000000.0,2.2061808109283447,-1.9141502380371094,-2.5638277530670166,-3.2479350566864014,0.07963019609451294,0.62858033,0.9025534,196.067,167.20288,-55.607696999999995,SDL
130043010000000.0,2.211179494857788,-2.1778228282928467,-2.2492270469665527,-3.119394540786743,0.11477766931056976,0.90010995,1.4165965,196.5509,167.32591000000002,-55.889603,SDL
130043010000000.0,2.2161803245544434,-2.5799810886383057,-1.8755301237106323,-3.063262939453125,0.16498048603534698,0.21044308,2.0518963,197.85707,167.91824,-56.44619399999999,SDL
130043020000000.0,2.221179485321045,-3.114407777786255,-1.443870186805725,-3.0419938564300537,0.21398909389972687,-1.5149458999999998,2.7107146,36.70592,168.61613,-57.254974,SDL
130043030000000.0,2.226177930831909,-3.727020502090454,-0.9949458837509155,-3.085095167160034,0.2516775131225586,-3.200323,3.4077116999999997,37.834087,169.83601000000002,-58.326269999999994,SDL
130043030000000.0,2.2311863899230957,-4.383249759674072,-0.5556623935699463,-3.214406728744507,0.26417845487594604,-4.2012258000000005,4.042706,38.96482,171.23641999999998,-59.681187,SDL
130043040000000.0,2.2361888885498047,-5.058228969573975,-0.18227937817573547,-3.4671618938446045,0.244516521692276,-4.238794,4.442823000000001,40.108779999999996,173.11393999999999,-61.39735400000001,SDL
130043040000000.0,2.241194009780884,-5.7365617752075195,0.07787308841943741,-3.882361888885498,0.18913190066814423,-3.3405166,4.431522,41.038296,175.07768000000002,-63.00139,SDL
130043045000000.0,2.2461907863616943,-6.405034065246582,0.21436797082424164,-4.383137226104736,0.09781229496002197,-1.9156734,4.030489,41.68405,177.18213,-64.16935,SDL
130043050000000.0,2.251187562942505,-7.055610179901123,0.2138184905052185,-4.918209552764893,-0.019518766552209854,-0.56321776,3.3344080000000003,42.0356,179.18216,-64.91383,SDL
130043050000000.0,2.2561862468719482,-7.686212539672852,0.07374598830938339,-5.450300216674805,-0.146955668926239,0.44165558,2.4523184,42.088856,-179.20503,-64.82283000000001,SDL
130043060000000.0,2.261183977127075,-8.292806625366211,-0.21139270067214966,-5.9226460456848145,-0.2698962092399597,1.1575897,1.561677,41.9627,-177.82062,-64.38965,SDL
130043060000000.0,2.2661802768707275,-8.849726676940918,-0.6184548735618591,-6.3134765625,-0.3802785575389862,1.5717562,0.81183994,41.725388,-177.05618,-63.713768,SDL
130043070000000.0,2.2711799144744873,-9.321577072143555,-1.121884822845459,-6.591162204742432,-0.47432827949523926,1.6578883000000002,0.36865717,41.458504,-176.47018,-62.980022,SDL
130043080000000.0,2.2762088775634766,-9.684632301330566,-1.692509412765503,-6.77673864364624,-0.5498231053352356,1.5057828000000002,0.14966199,41.184096999999994,-176.46544,-62.40596,SDL
130043080000000.0,2.2812066078186035,-9.943180084228516,-2.2794241905212402,-6.909845352172852,-0.6075076460838318,1.3723087,0.1151481,40.94611,-176.53128,-61.82719399999999,SDL
130043090000000.0,2.286203145980835,-10.098973274230957,-2.8637466430664062,-7.002853870391846,-0.6469801068305969,1.3405437,0.17745635,40.7605,-176.92378,-61.42058000000001,SDL
130043090000000.0,2.291200876235962,-10.164313316345215,-3.4179399013519287,-7.074980735778809,-0.6698132753372192,1.3494013999999999,0.24037547,40.638615,-177.32985,-61.03406999999999,SDL
130043095000000.0,2.2961974143981934,-10.156760215759277,-3.937039852142334,-7.116141319274902,-0.6762265563011169,1.3408492,0.22540927,40.625725,-177.84492,-60.63975500000001,SDL
130043100000000.0,2.3011958599090576,-10.095304489135742,-4.414130687713623,-7.112586498260498,-0.6755266785621643,1.2519683000000001,0.1572978,40.645286999999996,-178.35455,-60.256009999999996,SDL
130043100000000.0,2.306190013885498,-9.992962837219238,-4.833431720733643,-7.064732074737549,-0.6653093099594116,1.0656544,-0.105068825,40.807514000000005,-178.90024,-59.81746999999999,SDL
130043110000000.0,2.3111960887908936,-9.862168312072754,-5.169302463531494,-6.967920303344727,-0.6492068767547607,0.8374963,-0.4596761,40.963158,-179.48641999999998,-59.40863,SDL
130043110000000.0,2.316190481185913,-9.707097053527832,-5.414013385772705,-6.8296074867248535,-0.6289491653442383,0.59650993,-0.7788531999999999,41.15984,179.91484,-59.056087,SDL
130043120000000.0,2.321190118789673,-9.526754379272461,-5.536886692047119,-6.650027751922607,-0.6012580394744873,0.36254853,-0.981355,41.363640000000004,179.23537,-58.753184999999995,SDL
130043130000000.0,2.3261895179748535,-9.321680068969727,-5.545315742492676,-6.4370880126953125,-0.5643158555030823,0.1386664,-1.044885,41.499905,178.59555,-58.569095999999995,SDL
130043130000000.0,2.3311967849731445,-9.08934497833252,-5.439929962158203,-6.200669765472412,-0.5184528827667236,-0.03359759,-1.0024298,41.658302,177.90985,-58.42128,SDL
130043140000000.0,2.336198091506958,-8.833346366882324,-5.232845306396484,-5.94928503036499,-0.4674651026725769,-0.13988814,-0.88361657,41.76513,177.3972,-58.38523000000001,SDL
130043140000000.0,2.3411972522735596,-8.555858612060547,-4.930650234222412,-5.71104621887207,-0.41808775067329407,-0.15668693,-0.74464476,41.902256,176.88711999999998,-58.36531,SDL
130043146000000.0,2.346233367919922,-8.258145332336426,-4.5157060623168945,-5.507274150848389,-0.3749391436576843,-0.07238753,-0.5687156,41.996371999999994,176.62833,-58.401295,SDL
130043150000000.0,2.351231813430786,-7.962173938751221,-4.0087409019470215,-5.3824992179870605,-0.340242862701416,0.089491755,-0.38423425,42.110034999999996,176.41086,-58.423325,SDL
130043150000000.0,2.356224298477173,-7.666013717651367,-3.3998043537139893,-5.341379165649414,-0.3159249722957611,0.34208453,-0.19425514,42.62912,176.73747,-58.31199300000001,SDL
130043160000000.0,2.361222743988037,-7.408236980438232,-2.7666993141174316,-5.3507771492004395,-0.3015463352203369,0.6258314,-0.0027488936,43.140266,177.1279,-58.147690000000004,SDL
130043160000000.0,2.3662161827087402,-7.194605827331543,-2.130251407623291,-5.398982524871826,-0.29649585485458374,0.8784242,0.21930063,43.637836,177.59488000000002,-57.922084999999996,SDL
130043170000000.0,2.371215343475342,-7.0542311668396,-1.5335259437561035,-5.457776069641113,-0.30011364817619324,1.0720684999999999,0.5039638,43.722446000000005,178.28583999999998,-57.49211,SDL
130043180000000.0,2.376211166381836,-6.988931655883789,-0.9856216907501221,-5.519028663635254,-0.31105878949165344,1.1090258,0.79259765,43.800713,179.05771000000001,-57.02482,SDL
130043180000000.0,2.381216287612915,-7.01698637008667,-0.5272179841995239,-5.570364475250244,-0.32451331615448,0.99265605,0.98563105,43.891006,179.99704,-56.484390000000005,SDL
130043190000000.0,2.3862123489379883,-7.134150981903076,-0.16425864398479462,-5.608434677124023,-0.33529752492904663,0.8151997,1.0299188,43.97882,-179.02702,-55.933082999999996,SDL
130043190000000.0,2.3912105560302734,-7.3305134773254395,0.09600090235471725,-5.6239013671875,-0.34212133288383484,0.6365215999999999,0.91904676,44.101883,-178.05356,-55.490269999999995,SDL
130043200000000.0,2.3962056636810303,-7.596607685089111,0.2568815350532532,-5.6145100593566895,-0.34291696548461914,0.55833083,0.8258898000000001,44.237034,-177.09013000000002,-55.05469,SDL
130043204000000.0,2.4012043476104736,-7.8967204093933105,0.3361058533191681,-5.583069801330566,-0.34051239490509033,0.41386122,0.61758476,44.608513,-176.2207,-54.830273,SDL
130043204000000.0,2.406198740005493,-8.214380264282227,0.345803827047348,-5.532214641571045,-0.33052051067352295,0.28160888,0.42821655,44.988014,-175.42542,-54.621081999999994,SDL
130043210000000.0,2.4111955165863037,-8.513104438781738,0.3043402135372162,-5.475793838500977,-0.31407812237739563,0.15118915,0.30329459999999997,45.09819,-175.08109,-54.722515,SDL
130043210000000.0,2.416219711303711,-8.779162406921387,0.2161748707294464,-5.418658256530762,-0.29110580682754517,0.04428773,0.2321288,45.22387,-174.80086,-54.853446999999996,SDL
130043220000000.0,2.4212167263031006,-8.99704360961914,0.10480265319347382,-5.375487804412842,-0.2650116980075836,-0.003970624,0.17318029999999998,45.328148,-174.7648,-55.13759,SDL
130043220000000.0,2.426215648651123,-9.155508995056152,-0.02572484500706196,-5.353634357452393,-0.23885953426361084,0.034208454,0.09682214,45.442009999999996,-174.76398999999998,-55.421413,SDL
130043230000000.0,2.4312119483947754,-9.25026798248291,-0.15583495795726776,-5.355156421661377,-0.21481728553771973,0.15668693,0.02687807,45.581455,-174.90775,-55.68337,SDL
130043240000000.0,2.4362096786499023,-9.280023574829102,-0.27720996737480164,-5.380784511566162,-0.19422121345996857,0.30726522,-0.01038471,45.716003,-175.05902,-55.920055000000005,SDL
130043240000000.0,2.4412074089050293,-9.254056930541992,-0.3785487115383148,-5.428724765777588,-0.17739224433898926,0.42271876,-0.00061086525,45.88916,-175.26367,-56.0108,SDL
130043250000000.0,2.4462034702301025,-9.178062438964844,-0.4557250738143921,-5.497501850128174,-0.1646830439567566,0.49480084,0.040011674,46.04955,-175.45888,-56.068172,SDL
130043250000000.0,2.451200008392334,-9.061868667602539,-0.5074008703231812,-5.581761837005615,-0.15562991797924042,0.5363397,0.08216137400000001,46.268085,-175.60867,-55.933353000000004,SDL
130043255000000.0,2.4561972618103027,-8.912561416625977,-0.5332632660865784,-5.6777777671813965,-0.14754757285118103,0.5510005,0.11728613,46.489384,-175.74794,-55.785731999999996,SDL
130043260000000.0,2.4611964225769043,-8.743291854858398,-0.5341124534606934,-5.772792339324951,-0.1395052969455719,0.5320636,0.13347405,46.820023,-175.75263999999999,-55.448437,SDL
130043260000000.0,2.466193914413452,-8.56153678894043,-0.511385440826416,-5.860466003417969,-0.13195672631263733,0.49235737,0.16126843,47.154625,-175.74713,-55.116512,SDL
130043270000000.0,2.471191883087158,-8.37881088256836,-0.46601295471191406,-5.932124614715576,-0.12401285767555237,0.42913285,0.16982053,47.58436,-175.63173,-54.665348,SDL
130043270000000.0,2.476194381713867,-8.201013565063477,-0.39876121282577515,-5.983512878417969,-0.1152389794588089,0.36193767,0.17806722,48.018917,-175.51892,-54.23379499999999,SDL
130043280000000.0,2.4811947345733643,-8.035016059875488,-0.3102010190486908,-6.016645908355713,-0.10436086356639862,0.29779682,0.16371189,48.346848,-175.41451999999998,-53.820827,SDL
130043290000000.0,2.486204147338867,-7.8848772048950195,-0.19961076974868774,-6.03217077255249,-0.09144182503223419,0.24617869,0.14446963,48.68124,-175.31786,-53.42896700000001,SDL
130043290000000.0,2.4912002086639404,-7.753300189971924,-0.06886711716651917,-6.0356764793396,-0.07606974989175797,0.21899518,0.12461651,235.67662,-175.16393,-53.080418,SDL
130043300000000.0,2.4961979389190674,-7.642917156219482,0.08352600783109665,-6.029625415802002,-0.05853813886642456,0.17684549,0.11728613,236.13248,-175.02342,-52.75524,SDL
130043300000000.0,2.5011982917785645,-7.55079984664917,0.2519274950027466,-6.017148017883301,-0.04058981314301491,0.13652839,0.09896017,236.68457,-174.80865,-52.48113299999999,SDL
130043305000000.0,2.5061986446380615,-7.474327087402344,0.43145889043807983,-6.000845909118652,-0.021693555638194084,0.08857546,0.10781772,237.23741,-174.60523999999998,-52.2237,SDL
130043310000000.0,2.5111968517303467,-7.412585735321045,0.6213781833648682,-5.980956554412842,-0.0022254285868257284,0.04795292,0.11056661,237.91391000000002,-174.31198,-52.014626,SDL
130043310000000.0,2.5161945819854736,-7.366218566894531,0.8227314352989197,-5.954514503479004,0.016921391710639,0.032986722999999996,0.15302174,238.59805,-174.01683,-51.81172,SDL
130043320000000.0,2.5211997032165527,-7.334427833557129,1.0341250896453857,-5.9216413497924805,0.03379447013139725,0.006414085,0.19883664,239.27316000000002,-173.72466,-51.62512,SDL
130043320000000.0,2.5261993408203125,-7.310307502746582,1.2349425554275513,-5.886153221130371,0.04820571094751358,-0.016798794,0.2501493,240.06392999999997,-173.34184,-51.47159,SDL
130043330000000.0,2.5311992168426514,-7.29357385635376,1.4257619380950928,-5.848097324371338,0.05945616587996483,-0.023823743999999997,0.3023783,240.93117999999998,-172.88217,-51.34709,SDL
130043340000000.0,2.5361974239349365,-7.280287265777588,1.5881320238113403,-5.8117547035217285,0.06831654161214828,-0.025961772999999997,0.32711834,241.78671,-172.42365,-51.225014,SDL
130043340000000.0,2.541192054748535,-7.269760608673096,1.7210733890533447,-5.7776055335998535,0.07523976266384125,-0.046120327,0.3484986,242.64243,-171.95721,-51.10561,SDL
130043350000000.0,2.5461888313293457,-7.261320114135742,1.8187878131866455,-5.744649410247803,0.081110380589962,-0.062002823,0.34177909999999995,243.52317999999997,-171.48035,-51.000393,SDL
130043350000000.0,2.5511841773986816,-7.254770755767822,1.8827069997787476,-5.712728500366211,0.08694484829902649,-0.098043874,0.33322698,244.38972,-171.00885,-50.903335999999996,SDL
130043355000000.0,2.556182861328125,-7.252079010009766,1.9140464067459106,-5.682951927185059,0.09188240021467209,-0.15699236,0.31826079999999995,245.22117999999998,-170.59396,-50.822357000000004,SDL
130043360000000.0,2.5611798763275146,-7.2535176277160645,1.9150617122650146,-5.6555094718933105,0.09561272710561752,-0.22113322,0.30115658,246.02545,-170.19246,-50.75257,SDL
130043360000000.0,2.566180467605591,-7.260554313659668,1.8909693956375122,-5.630105018615723,0.09870477020740509,-0.25778514,0.28680122,246.62252999999998,-169.92888,-50.728671999999996,SDL
130043370000000.0,2.571176052093506,-7.273210048675537,1.8451849222183228,-5.60655403137207,0.10156691819429398,-0.27855456,0.26511553,247.20105,-169.67485,-50.71819,SDL
130043370000000.0,2.5761775970458984,-7.291244983673096,1.7844340801239014,-5.584949493408203,0.10290923714637756,-0.30268374,0.2415972,247.5971,-169.54494,-50.756336,SDL
130043380000000.0,2.5811779499053955,-7.3141560554504395,1.7120845317840576,-5.565226078033447,0.10403352230787277,-0.31642818,0.22388211,247.98132,-169.4251,-50.79661,SDL
130043390000000.0,2.586179494857788,-7.344003200531006,1.6351426839828491,-5.547684669494629,0.10390964895486832,-0.32253686,0.20708331,248.23555,-169.39847,-50.87797,SDL
130043390000000.0,2.591176986694336,-7.381328582763672,1.5571191310882568,-5.532373905181885,0.10289712250232697,-0.31642818,0.19456059,248.48092999999997,-169.37622,-50.958397,SDL
130043400000000.0,2.5961780548095703,-7.4256911277771,1.4909824132919312,-5.523520469665527,0.10151534527540207,-0.31734450000000003,0.18906279,248.64798,-169.41408,-51.06329,SDL
130043400000000.0,2.6012136936187744,-7.477624416351318,1.4424879550933838,-5.523243427276611,0.09984910488128662,-0.30818152,0.18081611,248.80441000000002,-169.45253,-51.162357,SDL
130043406000000.0,2.606210470199585,-7.529221534729004,1.4072743654251099,-5.525562286376953,0.09745779633522034,-0.28893927,0.17715092,248.9309,-169.51025,-51.273438,SDL
130043410000000.0,2.6112091541290283,-7.576986789703369,1.38638174533844,-5.5280280113220215,0.09481954574584961,-0.28160888,0.17195857,249.05222999999998,-169.56989,-51.383217,SDL
130043410000000.0,2.616208791732788,-7.619215488433838,1.376212239265442,-5.529328346252441,0.09167079627513885,-0.28130344,0.18051068,249.2268,-169.58061,-51.474743,SDL
130043420000000.0,2.6212074756622314,-7.655104160308838,1.374508261680603,-5.5287699699401855,0.08885262906551361,-0.2764165,0.18448131,249.39366,-169.5951,-51.561275,SDL
130043420000000.0,2.626206874847412,-7.687121868133545,1.3775089979171753,-5.526644229888916,0.08569633215665817,-0.28527406,0.18692477,249.61562999999998,-169.56042,-51.635185,SDL
130043430000000.0,2.631211996078491,-7.716678142547607,1.3831192255020142,-5.523121356964111,0.0834895521402359,-0.28099802,0.18906279,249.83377000000002,-169.53061,-51.7017,SDL
130043440000000.0,2.636223316192627,-7.7487287521362305,1.3875948190689087,-5.518210411071777,0.0813841000199318,-0.27366763,0.20525073,250.09601,-169.46155,-51.754414000000004,SDL
130043440000000.0,2.6412229537963867,-7.785882472991943,1.3888046741485596,-5.51204776763916,0.0795210748910904,-0.2660318,0.21685717,250.35251,-169.39774,-51.80421,SDL
130043450000000.0,2.6462204456329346,-7.830977916717529,1.3854519128799438,-5.503566265106201,0.07772477716207504,-0.25992316,0.22296582,250.62897,-169.31978,-51.849113,SDL
130043450000000.0,2.6512184143066406,-7.885366916656494,1.3769381046295166,-5.492231369018555,0.07651253044605255,-0.23732115,0.23060162,250.90327000000002,-169.24295,-51.884665999999996,SDL
130043460000000.0,2.6562159061431885,-7.9458136558532715,1.3629642724990845,-5.47915506362915,0.07508817315101624,-0.2302962,0.22937989,251.15216,-169.18303999999998,-51.945858,SDL
130043464000000.0,2.66121506690979,-8.010380744934082,1.343405842781067,-5.465003490447998,0.07401643693447113,-0.21563543,0.2284636,251.39645,-169.12627,-51.996315,SDL
130043464000000.0,2.666212320327759,-8.074175834655762,1.3201669454574585,-5.451470851898193,0.07347386330366135,-0.20677789,0.21135938,251.60247999999999,-169.10127,-52.088478,SDL
130043470000000.0,2.671247959136963,-8.134007453918457,1.2939391136169434,-5.439786911010742,0.07240677624940872,-0.21746802,0.20128010000000002,251.80907000000002,-169.07336,-52.17896,SDL
130043470000000.0,2.676245927810669,-8.182576179504395,1.2687910795211792,-5.429462432861328,0.07102217525243759,-0.2321288,0.18112154,251.96896,-169.08215,-52.295956,SDL
130043480000000.0,2.6812429428100586,-8.21357250213623,1.2467610836029053,-5.420450210571289,0.0688323900103569,-0.25045475,0.17043139999999998,252.12881000000002,-169.0878,-52.413902,SDL
130043480000000.0,2.686239719390869,-8.227639198303223,1.227818489074707,-5.41188907623291,0.06651514023542404,-0.26053402,0.16340645,252.27745,-169.10881,-52.53069,SDL
130043490000000.0,2.6912381649017334,-8.22531795501709,1.2119362354278564,-5.40301513671875,0.0647934302687645,-0.25534168,0.15515977,252.4196,-169.13185,-52.64626,LYI
130043500000000.0,2.696234941482544,-8.211581230163574,1.19877290725708,-5.391300678253174,0.06322858482599258,-0.22082779,0.15607607,252.57645,-169.13551,-52.714890000000004,LYI
130043500000000.0,2.701230764389038,-8.190625190734863,1.1880505084991455,-5.374495506286621,0.06190990284085274,-0.16737708,0.15790866,252.72449,-169.14287,-52.775517,LYI
130043510000000.0,2.706230878829956,-8.165694236755371,1.1784874200820923,-5.353536605834961,0.06101959943771362,-0.101098195,0.15241088,252.90204,-169.12888,-52.782787,LYI
130043510000000.0,2.7112293243408203,-8.14040470123291,1.1687108278274536,-5.329596519470215,0.05990003049373627,-0.057726767000000005,0.15699236,253.07762000000002,-169.11162,-52.780106,LYI
130043515000000.0,2.7162249088287354,-8.117415428161621,1.1588114500045776,-5.303406715393066,0.05895406752824783,-0.03359759,0.14782938,253.25015,-169.08908,-52.762966000000006,LYI
130043520000000.0,2.721223831176758,-8.101377487182617,1.1489189863204956,-5.276009559631348,0.058091070502996445,-0.024129177,0.1432479,253.41967999999997,-169.06454,-52.737442,LYI
130043520000000.0,2.726222038269043,-8.093586921691895,1.1391422748565674,-5.247823715209961,0.05683457851409912,-0.019242255,0.14691310000000002,253.58026,-169.04192,-52.717464,LYI
130043530000000.0,2.7312257289886475,-8.096636772155762,1.1296322345733643,-5.2193603515625,0.054880011826753616,-0.049480084,0.14630222,253.73825,-169.02148,-52.705490000000005,LYI
130043530000000.0,2.736222505569458,-8.110154151916504,1.1202998161315918,-5.19171142578125,0.052736617624759674,-0.07238753,0.13164146,253.89227000000002,-169.01131999999998,-52.719715,LYI
130043540000000.0,2.74125075340271,-8.136662483215332,1.1108934879302979,-5.166964054107666,0.04982847347855568,-0.106901415,0.109650314,254.0466,-168.9996,-52.745525,LYI
130043550000000.0,2.746243476867676,-8.171751022338867,1.1010571718215942,-5.145294666290283,0.046863704919815063,-0.1337795,0.09560041,254.17699,-169.00142,-52.805164000000005,LYI
130043550000000.0,2.751241445541382,-8.215227127075195,1.089693546295166,-5.128113746643066,0.044545259326696396,-0.14782938,0.07696902,254.2972,-169.00912,-52.87163,LYI
130043560000000.0,2.756235122680664,-8.265416145324707,1.076757788658142,-5.115685939788818,0.04272475093603134,-0.14935656,0.05161811400000001,254.40117999999998,-169.03123,-52.968430000000005,LYI
130043560000000.0,2.7612318992614746,-8.320143699645996,1.061806559562683,-5.109330177307129,0.04199418053030968,-0.13713925,0.027183502999999998,254.49612000000002,-169.06078,-53.064552,LYI
130043565000000.0,2.7662441730499268,-8.379119873046875,1.0447059869766235,-5.108977317810059,0.04183969646692276,-0.11942416,0.002443461,57.98355,-169.11147,-53.17641999999999,LYI
130043570000000.0,2.7712419033050537,-8.437058448791504,1.0245391130447388,-5.113790988922119,0.0429956316947937,-0.09865474,-0.01282817,58.077164,-169.17023999999998,-53.28265,LYI
130043570000000.0,2.7762625217437744,-8.494100570678711,1.0008487701416016,-5.1241655349731445,0.04490383341908455,-0.06872234,-0.026267206,58.178265,-169.25108,-53.383762,LYI
130043580000000.0,2.7812626361846924,-8.54537582397461,0.9735968708992004,-5.137342929840088,0.04745909944176674,-0.036957346,-0.035124752999999995,58.28462,-169.33669,-53.476859999999995,LYI
130043580000000.0,2.7862589359283447,-8.591018676757812,0.9426673054695129,-5.15338659286499,0.050464171916246414,-0.03023783,-0.04642576,58.407030000000006,-169.4447,-53.559597,LYI
130043590000000.0,2.7912557125091553,-8.627190589904785,0.9088340401649475,-5.170365333557129,0.05314632132649422,-0.011301007,-0.05131268,58.52879,-169.55121,-53.628265,LYI
130043600000000.0,2.7962486743927,-8.652795791625977,0.8726080060005188,-5.187426567077637,0.055978525429964066,-0.01160644,-0.059864793,58.654167,-169.66232,-53.699431999999995,LYI
130043600000000.0,2.8012452125549316,-8.664874076843262,0.8350732326507568,-5.20235538482666,0.05905044823884964,-0.00030543262000000003,-0.05467244,58.797028000000005,-169.78908,-53.744526,LYI
130043610000000.0,2.806239604949951,-8.66269588470459,0.7969209551811218,-5.214132308959961,0.06132384389638901,-0.0036651915999999997,-0.047647487,58.934837,-169.9127,-53.792533999999996,LYI
130043610000000.0,2.8112411499023438,-8.651341438293457,0.7603473663330078,-5.221229553222656,0.06324820220470428,0.010690141499999998,-0.028099801,59.092415,-170.04256999999998,-53.809715000000004,LYI
130043615000000.0,2.816236734390259,-8.633432388305664,0.7260932326316833,-5.223504543304443,0.06407708674669266,0.019242255,-0.015271631,59.242022999999996,-170.16582,-53.828247,LYI
130043620000000.0,2.8212344646453857,-8.609099388122559,0.6940461993217468,-5.221078395843506,0.06290851533412933,0.031154128,-0.0027488936,59.396698,-170.27942,-53.817963,LYI
130043620000000.0,2.8262312412261963,-8.578775405883789,0.6640840172767639,-5.214258670806885,0.059767551720142365,0.038789943,0.024740042,59.547615,-170.38158,-53.803913,LYI
130043630000000.0,2.831234931945801,-8.546049118041992,0.6371626853942871,-5.203715801239014,0.05438493192195892,0.040011674,0.040317107000000005,59.686016,-170.47496,-53.788140000000006,LYI
130043630000000.0,2.8362369537353516,-8.512680053710938,0.6135323643684387,-5.1900224685668945,0.04764515534043312,0.027488936000000002,0.05009095,59.819317000000005,-170.55815,-53.772296999999995,LYI
130043640000000.0,2.8412346839904785,-8.480775833129883,0.5953729152679443,-5.1764655113220215,0.03893689811229706,0.019242255,0.04917465,59.943034999999995,-170.61508,-53.749542000000005,LYI
130043650000000.0,2.846234083175659,-8.450819969177246,0.5831453800201416,-5.16387939453125,0.02935798466205597,-0.002443461,0.048258353,60.063927,-170.66738999999998,-53.73334499999999,LYI
130043650000000.0,2.8512322902679443,-8.423205375671387,0.5775399208068848,-5.153382301330566,0.019280362874269485,-0.0125227375,0.05222898,60.163166000000004,-170.70381,-53.718086,LYI
130043660000000.0,2.856229782104492,-8.398012161254883,0.5786445140838623,-5.145344257354736,0.009218930266797543,-0.026572637000000003,0.049785517,60.25723299999999,-170.73924,-53.710483999999994,LYI
130043660000000.0,2.8612277507781982,-8.376587867736816,0.5868138670921326,-5.140004634857178,-0.001152722747065127,-0.034513887,0.044593163,60.335933999999995,-170.7514,-53.69923000000001,LYI
130043666000000.0,2.866227626800537,-8.359896659851074,0.6022455096244812,-5.137515544891357,-0.010987919755280018,-0.03573562,0.03481932,60.415397999999996,-170.76641999999998,-53.690569999999994,LYI
130043670000000.0,2.871222972869873,-8.351365089416504,0.6238464713096619,-5.138307094573975,-0.019924592226743698,-0.036651913,0.021380282999999996,60.488136,-170.75572,-53.673717,LYI
130043670000000.0,2.8762264251708984,-8.354011535644531,0.6511896848678589,-5.142886161804199,-0.027896683663129807,-0.036651913,0.014049901000000002,60.560706999999994,-170.74684,-53.65749399999999,LYI
130043680000000.0,2.8812203407287598,-8.362482070922852,0.6800873875617981,-5.1499152183532715,-0.034923046827316284,-0.037873644,0.0027488936,60.62290600000001,-170.7171,-53.636692000000004,LYI
130043680000000.0,2.88621187210083,-8.372492790222168,0.7070468664169312,-5.158427715301514,-0.04054948315024376,-0.03970624,-0.002443461,60.689617000000005,-170.69168,-53.616580000000006,LYI
130043690000000.0,2.8912041187286377,-8.383981704711914,0.73216712474823,-5.168365001678467,-0.044964537024497986,-0.040317107000000005,-0.02076942,60.73385,-170.6549,-53.602043,LYI
130043700000000.0,2.8961985111236572,-8.396882057189941,0.7555439472198486,-5.179661273956299,-0.0472886823117733,-0.03634648,-0.033292156,60.78785,-170.6252,-53.58704,LYI
130043700000000.0,2.9011917114257812,-8.410942077636719,0.7758376002311707,-5.192670822143555,-0.0475519634783268,-0.030848695,-0.035430185,60.845863,-170.60136,-53.57272,LYI
130043710000000.0,2.906184673309326,-8.426030158996582,0.7925095558166504,-5.207527160644531,-0.046368807554244995,-0.016493361,-0.04550946,60.908524,-170.58728,-53.556778,LYI
130043710000000.0,2.9111790657043457,-8.4431734085083,0.8066296577453613,-5.223093509674072,-0.04368608072400093,0.00061086525,-0.032986722999999996,60.96821,-170.5841,-53.533719999999995,LYI
130043720000000.0,2.916172742843628,-8.46277141571045,0.8187941312789917,-5.238792896270752,-0.04052778333425522,0.019242255,-0.04276056599999999,61.02714,-170.59027,-53.50931,LYI
130043720000000.0,2.9211668968200684,-8.483120918273926,0.8289328217506409,-5.253392696380615,-0.037456415593624115,0.04062254,-0.03023783,61.10114300000001,-170.60284,-53.475722999999995,LYI
130043724000000.0,2.9261691570281982,-8.50290584564209,0.8369712233543396,-5.2659149169921875,-0.03438595309853554,0.0693332,-0.02565634,61.1767,-170.62169,-53.43707,LYI
130043730000000.0,2.931166410446167,-8.519378662109375,0.8445850014686584,-5.276007175445557,-0.03027460165321827,0.094989546,-0.030543262,61.25541,-170.6511,-53.400259999999996,LYI
130043730000000.0,2.93615984916687,-8.53046989440918,0.8530101180076599,-5.283370494842529,-0.026707902550697327,0.11698069400000001,-0.03145956,61.32743000000001,-170.67408999999998,-53.35674,LYI
130043740000000.0,2.9411540031433105,-8.536392211914062,0.8622233867645264,-5.288114547729492,-0.02287551760673523,0.12889257,-0.029932396,61.409317,-170.7096,-53.316919999999996,LYI
130043740000000.0,2.9461495876312256,-8.537406921386719,0.8721867799758911,-5.290371894836426,-0.01919853873550892,0.13683382,-0.034208454,61.486380000000004,-170.74406000000002,-53.273575,LYI
130043750000000.0,2.951143741607666,-8.532076835632324,0.8834360837936401,-5.289778232574463,-0.016563937067985535,0.14355333,-0.03145956,61.561493000000006,-170.77481,-53.22759,LYI
130043760000000.0,2.956138849258423,-8.518013000488281,0.8968185186386108,-5.285663604736328,-0.013223319314420223,0.14721853,-0.02076942,61.64532,-170.80983,-53.180973,LYI
130043760000000.0,2.961136817932129,-8.496365547180176,0.9120005965232849,-5.278867721557617,-0.01118386909365654,0.14508049,-0.02107485,255.51201,-170.82411000000002,-53.126247,LYI
130043770000000.0,2.966132402420044,-8.468361854553223,0.9286265969276428,-5.270181179046631,-0.008895005099475384,0.14569137,-0.012217305,255.52649,-170.8411,-53.06952,LYI
130043770000000.0,2.971127986907959,-8.435606956481934,0.9452351331710815,-5.260461330413818,-0.006972281727939844,0.14569137,0.002443461,255.56017999999997,-170.83614,-53.001877,LYI
130043775000000.0,2.9761240482330322,-8.399639129638672,0.9604626893997192,-5.250515460968018,-0.0057054553180933,0.13683382,0.017715093,255.59887999999998,-170.82951,-52.93731999999999,LYI
130043780000000.0,2.98112154006958,-8.361443519592285,0.9733151793479919,-5.24045467376709,-0.004213149193674326,0.14019357,0.022907447,255.61774,-170.81482,-52.85683,LYI
130043780000000.0,2.9861185550689697,-8.322174072265625,0.9826325178146362,-5.230411529541016,-0.003077087225392461,0.13988814,0.028710667000000002,255.64493,-170.79349,-52.780327,LYI
130043790000000.0,2.991114854812622,-8.283509254455566,0.9896188378334045,-5.221356391906738,-0.0020504011772572994,0.11484267,0.040927973,255.68015,-170.77036999999999,-52.700435999999996,LYI
130043790000000.0,2.996117353439331,-8.247160911560059,0.9954661130905151,-5.214317321777344,-0.0009807659080252051,0.10293079,0.043066,255.7112,-170.7485,-52.61923,LYI
130043800000000.0,3.001113176345825,-8.214456558227539,1.0003730058670044,-5.209023475646973,-0.00017974012007471174,0.090713486,0.04337143,255.72986,-170.73349,-52.54145,LYI
130043810000000.0,3.006110668182373,-8.187108993530273,1.0045021772384644,-5.2053022384643555,0.0001879404007922858,0.07238753,0.04276056599999999,255.75095,-170.71846000000002,-52.470226000000004,LYI
130043810000000.0,3.0111067295074463,-8.166210174560547,1.008692979812622,-5.203826904296875,0.0004058074264321476,0.04917465,0.05161811400000001,255.7744,-170.70523,-52.40085,LYI
130043820000000.0,3.0161046981811523,-8.153220176696777,1.0139186382293701,-5.20544958114624,0.0008399466169066727,0.027794369,0.052839845,255.7958,-170.69429,-52.338158,LYI
130043820000000.0,3.0211000442504883,-8.148021697998047,1.0201054811477661,-5.209656238555908,0.0010230664629489183,0.018325957,0.055283304000000005,255.80292000000003,-170.68683000000001,-52.286587,LYI
130043825000000.0,3.0261037349700928,-8.151138305664062,1.027259111404419,-5.215972423553467,0.0010499311611056328,0.017715093,0.04550946,255.80649,-170.68315,-52.240345,LYI
130043830000000.0,3.031104326248169,-8.160112380981445,1.0347298383712769,-5.224437236785889,0.0007335398113355041,0.005192355,0.03848451,255.8159,-170.67696999999998,-52.20712,LYI
130043830000000.0,3.0361039638519287,-8.172101974487305,1.0416775941848755,-5.235321044921875,0.00023868167772889137,-0.0076358155,0.031154128,255.8208,-170.67331000000001,-52.175724,LYI
130043840000000.0,3.0411009788513184,-8.186924934387207,1.0481311082839966,-5.248476505279541,-0.0004902416840195656,-0.0036651915999999997,0.021380282999999996,255.82067999999998,-170.672,-52.158627,LYI
130043840000000.0,3.0461015701293945,-8.204510688781738,1.0541138648986816,-5.263849258422852,-0.0007082755910232663,0.008246681,0.01985312,255.82152999999997,-170.67227,-52.143112,LYI
130043850000000.0,3.0510990619659424,-8.22271728515625,1.059767723083496,-5.28051233291626,-0.00019848647934850305,-0.00061086525,0.011911871999999999,255.83292999999998,-170.67403000000002,-52.133125,LYI
130043860000000.0,3.056098699569702,-8.237247467041016,1.065366268157959,-5.296779632568359,8.880635141395032e-05,-0.00061086525,0.010690141499999998,255.84392999999997,-170.67326,-52.117385999999996,LYI
130043860000000.0,3.0610971450805664,-8.247550010681152,1.0706268548965454,-5.312100887298584,0.0009304956765845418,0.008857545999999999,0.01740966,255.8484,-170.68376,-52.101284,LYI
130043870000000.0,3.066114902496338,-8.2506103515625,1.0744916200637817,-5.324374675750732,0.0014831689186394215,0.014660766,0.021991148999999998,255.85196000000002,-170.69165,-52.08672,LYI
130043870000000.0,3.071113109588623,-8.248028755187988,1.0765461921691895,-5.334016799926758,0.002331935800611973,0.044898596,0.022907447,255.87967000000003,-170.69879,-52.058537,LYI
130043875000000.0,3.0761208534240723,-8.240416526794434,1.074873924255371,-5.340819358825684,0.0029238639399409294,0.031154128,0.03023783,255.91653,-170.70102,-52.040585,LYI
130043880000000.0,3.081134796142578,-8.228690147399902,1.0700877904891968,-5.34512186050415,0.0036144652403891087,0.03359759,0.027794369,255.94305,-170.70746,-52.00297,LYI
130043880000000.0,3.086136817932129,-8.214883804321289,1.0635279417037964,-5.347617149353027,0.004919356666505337,0.03970624,0.03634648,255.97852000000003,-170.7109,-51.96759,LYI
130043890000000.0,3.091142177581787,-8.198908805847168,1.0551347732543945,-5.3484578132629395,0.005633831489831209,0.036651913,0.03268129,255.99716,-170.72486999999998,-51.933567,LYI
130043890000000.0,3.096144437789917,-8.180418968200684,1.0445992946624756,-5.349512577056885,0.006570667494088411,0.03176499,0.032070424,256.0203,-170.74084,-51.898340000000005,LYI
130043900000000.0,3.101144313812256,-8.159720420837402,1.0322582721710205,-5.350636005401611,0.006952979136258364,0.030543262,0.029321532999999997,256.03375,-170.76074,-51.864185,LYI
130043910000000.0,3.106144905090332,-8.138382911682129,1.0200772285461426,-5.350703716278076,0.007054478861391544,0.013744468000000001,0.030848695,256.0513,-170.78131000000002,-51.836113,LYI
130043910000000.0,3.111152410507202,-8.116769790649414,1.0081112384796143,-5.3498640060424805,0.007557502947747707,0.009773844,0.029932396,256.05728,-170.81172,-51.79937,LYI
130043920000000.0,3.116154193878174,-8.099201202392578,0.9972280263900757,-5.349514484405518,0.007529121823608875,-0.0009162978999999999,0.033292156,256.06882,-170.83678,-51.76935,LYI
130043920000000.0,3.1211512088775635,-8.085468292236328,0.9873708486557007,-5.3496294021606445,0.007160428911447525,0.00030543262000000003,0.03268129,256.09268,-170.86415,-51.73915,LYI
130043926000000.0,3.126155376434326,-8.079261779785156,0.9779335260391235,-5.351028919219971,0.005346423014998436,-0.0018325957999999999,0.044898596,256.12518,-170.88237,-51.71217,LYI
130043930000000.0,3.1311614513397217,-8.080988883972168,0.9687538743019104,-5.353825569152832,0.003563981270417571,-0.0076358155,0.04550946,256.15227999999996,-170.9067,-51.687267,LYI
130043930000000.0,3.1361820697784424,-8.091667175292969,0.960216760635376,-5.358838081359863,0.0010952180018648505,-0.011301007,0.049480084,256.18585,-170.92041,-51.668304,LYI
130043940000000.0,3.141181468963623,-8.110016822814941,0.9523921012878418,-5.365900993347168,-0.0012094232952222228,-0.004276057,0.036651913,256.21117999999996,-170.9402,-51.649506,LYI
130043940000000.0,3.14618182182312,-8.131406784057617,0.945647120475769,-5.373730659484863,-0.004335330333560705,-0.0125227375,0.032070424,256.2696,-170.95273,-51.64885,LYI
130043950000000.0,3.1511788368225098,-8.15494155883789,0.9399656057357788,-5.382081508636475,-0.006529613863676786,-0.016493361,0.025045475,256.31903,-170.97438,-51.646190000000004,LYI
130043960000000.0,3.1561789512634277,-8.17740535736084,0.9371989965438843,-5.391366004943848,-0.008476738817989826,-0.009773844,0.019242255,256.3776,-170.99281000000002,-51.653766999999995,LYI
130043960000000.0,3.161177635192871,-8.197664260864258,0.9378551244735718,-5.401667594909668,-0.010873526334762573,0.0018325957999999999,0.0030543262,256.4274,-171.0153,-51.661938,LYI
