timestamp,rel_time,acc_x,acc_y,acc_z,gyro_x,gyro_y,gyro_z,azimuth,pitch,roll,label
0.0,0.0,0.0,0.0,0.0,0.0,0.008857545999999999,0.021991148999999998,122.0661,-83.15942,6.5003796,STD
141887440000.0,1.510169568064157e-05,0.0041763028129935265,0.02933335490524769,-0.0009204429807141423,-4.019651532871649e-05,0.005497787,0.024740042,122.07255,-83.18297,6.4933424,STD
423550500000.0,7.439254113705829e-05,0.01244132686406374,0.08756621927022934,-0.0027270165737718344,-0.000190930615644902,0.009773844,0.026572637000000003,122.07773999999999,-83.20495600000001,6.4849987,STD
840841700000.0,0.00020690567907877266,0.024647429585456848,0.17384390532970428,-0.005372088402509689,-0.00035460558137856424,0.014966198,0.03176499,122.08338,-83.22695,6.478613,STD
1387725000000.0,0.000439030904090032,0.040593504905700684,0.28692108392715454,-0.00879749283194542,-0.0005798648344352841,0.02321288,0.024740042,122.08684,-83.24940500000001,6.4693629999999995,STD
2056484800000.0,0.000795557105448097,0.06003023311495781,0.4252050220966339,-0.01293516717851162,-0.0007488692062906921,0.02076942,0.023823743999999997,122.09161,-83.26929,6.4635253,STD
2837982500000.0,0.0013124963734298944,0.08265656232833862,0.5868099331855774,-0.017699820920825005,-0.0010462995851412416,0.023518313,0.016798794,122.09252,-83.29095500000001,6.453974,STD
3721947000000.0,0.0019802998285740614,0.10817750543355942,0.7696115970611572,-0.02303077094256878,-0.0012132254196330905,0.024129177,0.020158553,122.09451000000001,-83.31099,6.4473453,STD
4697282000000.0,0.0028285726439207792,0.13623973727226257,0.9713188409805298,-0.028834382072091103,-0.0014791787834838033,0.03023783,0.018325957,122.09407,-83.3323,6.437353599999999,STD
5752372600000.0,0.0038689742796123028,0.16649022698402405,1.189531683921814,-0.03502624109387398,-0.0017517999513074756,0.025350908,0.023518313,122.0964,-83.35101,6.4306083,STD
6875382000000.0,0.005112773738801479,0.19856968522071838,1.4218041896820068,-0.041520748287439346,-0.002000828506425023,0.015882496,0.010995574,122.09832,-83.374275,6.418424,STD
8054520700000.0,0.00656205415725708,0.23212821781635284,1.6656994819641113,-0.0482390820980072,-0.0022001517936587334,0.01282817,0.01863139,122.09945,-83.38996,6.41364,STD
9278286000000.0,0.008221426978707314,0.2668221890926361,1.918839931488037,-0.05510251224040985,-0.002264656824991107,0.027794369,0.019242255,122.098076,-83.41065,6.403418,STD
10535661000000.0,0.01009468361735344,0.30232301354408264,2.178948402404785,-0.06203608214855194,-0.0022302919533103704,0.023823743999999997,0.0125227375,122.10282,-83.43066400000001,6.393633400000001,STD
11816272000000.0,0.01217284519225359,0.3383322060108185,2.4438796043395996,-0.06897803395986557,-0.0024920753203332424,0.037873644,0.020158553,122.0978,-83.44544,6.3880343,STD
13110510000000.0,0.014454858377575874,0.3745669424533844,2.7116470336914062,-0.07586605846881866,-0.0027566442731767893,0.0290161,0.016798794,122.09877636636601,-83.4549633273273,6.38331855059059,STD
14409610000000.0,0.016934210434556007,0.4107740521430969,2.980437755584717,-0.08264720439910889,-0.0029990889597684145,0.03145956,0.01985312,122.09975,-83.46446,6.378616,STD
15705692000000.0,0.01960558257997036,0.4467255473136902,3.2486226558685303,-0.08927351981401443,-0.002869413932785392,0.04550946,0.023518313,122.09158000000001,-83.47969,6.372414599999999,STD
16991783000000.0,0.02245730720460415,0.482225626707077,3.514759063720703,-0.09570745378732681,-0.0028273919597268105,0.040317107000000005,0.026572637000000003,122.0907,-83.49398000000001,6.366272,STD
18261805000000.0,0.025482594966888428,0.5171006917953491,3.7775895595550537,-0.10191388428211212,-0.0026712280232459307,0.0421497,0.023518313,122.083694,-83.5093,6.359382,STD
19510541000000.0,0.028695445507764816,0.5511845946311951,4.036037445068359,-0.10784874111413956,-0.002400028519332409,0.032070424,0.028405233999999998,122.08146,-83.520935,6.3558364,STD
20733596000000.0,0.03203531354665756,0.5845223665237427,4.28917121887207,-0.11351826786994934,-0.002642702544108033,0.038179077,0.022296581,122.074036,-83.535416,6.348246,STD
21927341000000.0,0.03551860898733139,0.6170932054519653,4.536227703094482,-0.11888092011213303,-0.0029751360416412354,0.034513887,0.025045475,122.07213600000001,-83.546265,6.3447733,STD
23088847000000.0,0.03914254158735275,0.6488181352615356,4.7766008377075195,-0.12391914427280426,-0.0031734330113977194,0.027183502999999998,0.017715093,122.05585500000001,-83.59336,6.2976294,STD
24215823000000.0,0.042883869260549545,0.6796321868896484,5.009817600250244,-0.12863531708717346,-0.003592022927477956,0.034208454,0.025350908,122.0366,-83.63419,6.2562485,STD
25306550000000.0,0.04674082249403,0.7094889283180237,5.235520839691162,-0.13301920890808105,-0.0037102277856320143,0.03756821,0.026572637000000003,122.02078,-83.67884000000001,6.211774299999999,STD
26359808000000.0,0.05070171877741814,0.738353967666626,5.453459739685059,-0.13707159459590912,-0.003766228212043643,0.03268129,0.028405233999999998,122.00546999999999,-83.719925,6.170396299999999,STD
27374823000000.0,0.054760683327913284,0.7662056684494019,5.663474082946777,-0.14079174399375916,-0.0036436975933611393,0.02565634,0.03573562,121.98998,-83.75883499999999,6.1316648,STD
28351203000000.0,0.05890725553035736,0.7930319309234619,5.865482807159424,-0.14418502151966095,-0.004090665839612484,0.024740042,0.026572637000000003,121.97442,-83.80038499999999,6.089470400000001,STD
29288881000000.0,0.0631348043680191,0.8188300728797913,6.05947208404541,-0.1472560614347458,-0.004399876110255718,0.030848695,0.019242255,121.95898000000001,-83.83961,6.0505886,STD
30188069000000.0,0.06743832677602768,0.8436049818992615,6.245486736297607,-0.1500101089477539,-0.004363476298749447,0.032070424,0.03481932,121.945274,-83.87382,6.0164385000000005,STD
31049208000000.0,0.07180885225534439,0.8673672676086426,6.423618316650391,-0.15245699882507324,-0.004740304779261351,0.038789943,0.031154128,121.92856599999999,-83.91405999999999,5.975391,STD
31872930000000.0,0.07623907923698425,0.8901329040527344,6.593997955322266,-0.15460658073425293,-0.004870486445724964,0.025350908,0.028099801,121.91738000000001,-83.95013,5.9397755,STD
32660022000000.0,0.08073157072067261,0.9119234085083008,6.756788730621338,-0.1564621776342392,-0.004840427078306675,0.01863139,0.025045475,121.90255,-83.98601500000001,5.903728500000001,STD
33411398000000.0,0.08529424667358398,0.9327644109725952,6.912178993225098,-0.158023864030838,-0.00481173163279891,0.017104227,0.02687807,121.89022,-84.02076,5.868967,STD
34128062000000.0,0.08987922221422195,0.952675998210907,7.0603790283203125,-0.15933503210544586,-0.005018447060137987,0.029932396,0.026267206,121.87585,-84.05624399999999,5.833317,STD
34811090000000.0,0.0945020541548729,0.9716894030570984,7.2016119956970215,-0.16039103269577026,-0.005826749838888645,0.038789943,0.02321288,121.86314399999999,-84.09079,5.798236,STD
35461610000000.0,0.09916418045759201,0.9898351430892944,7.336111068725586,-0.16119836270809174,-0.006281871814280748,0.022602014,0.028099801,121.85407,-84.12331999999999,5.766028400000001,STD
36080790000000.0,0.10385879129171371,1.007143497467041,7.464117527008057,-0.1617700457572937,-0.006636110134422779,0.01863139,0.024129177,121.83918999999999,-84.157616,5.7310047,STD
36669810000000.0,0.10858357697725296,1.0236458778381348,7.58587646484375,-0.16211581230163574,-0.0070206159725785255,0.031154128,0.020158553,121.8243,-84.19006,5.698057700000001,STD
37229860000000.0,0.11333805322647095,1.0393742322921753,7.701633930206299,-0.1622440218925476,-0.006957299076020718,0.034208454,0.025045475,121.813354,-84.22105400000001,5.6672864,STD
37762124000000.0,0.11811590939760208,1.0543594360351562,7.811636447906494,-0.162167489528656,-0.007008603774011135,0.028099801,0.027794369,121.80163,-84.25245,5.635452,STD
38267780000000.0,0.12291485071182251,1.0686328411102295,7.9161272048950195,-0.16189588606357574,-0.007424468174576759,0.026267206,0.025350908,121.78793999999999,-84.28348000000001,5.604145,STD
38747987000000.0,0.12773622572422028,1.0822256803512573,8.015345573425293,-0.16143594682216644,-0.00716363126412034,0.02076942,0.022296581,121.77717,-84.31425,5.574153,STD
39203874000000.0,0.13257433474063873,1.095167636871338,8.109527587890625,-0.16079966723918915,-0.007028167601674795,0.028405233999999998,0.01985312,121.763275,-84.3437,5.54421,STD
39636550000000.0,0.13742968440055847,1.1074883937835693,8.198901176452637,-0.15999408066272736,-0.007284793071448803,0.023823743999999997,0.016493361,121.754585,-84.37402,5.513888,STD
40047093000000.0,0.14229807257652283,1.1192163228988647,8.283690452575684,-0.15902966260910034,-0.007512216456234455,0.028710667000000002,0.021991148999999998,121.74105,-84.40222,5.4859643,STD
40436540000000.0,0.14718230068683624,1.1303797960281372,8.364109992980957,-0.1579112559556961,-0.007293410133570433,0.03023783,0.018020526000000002,121.72996,-84.4334,5.455088,STD
40805897000000.0,0.152085080742836,1.141006350517273,8.44036865234375,-0.1566435694694519,-0.007214794866740704,0.03268129,0.022602014,121.71725,-84.45944,5.428825,STD
41156140000000.0,0.15699060261249542,1.1511197090148926,8.512667655944824,-0.15524521470069885,-0.0074628503061831,0.030543262,0.018936822,121.70558999999999,-84.488556,5.3997116,STD
41488197000000.0,0.16190896928310394,1.1607463359832764,8.58120059967041,-0.15371474623680115,-0.007358976174145937,0.027183502999999998,0.03268129,121.69357,-84.51149000000001,5.377487,STD
41802970000000.0,0.16683200001716614,1.1699092388153076,8.646153450012207,-0.15206444263458252,-0.007826073095202446,0.030543262,0.018936822,121.68053400000001,-84.54125,5.346925,STD
42101316000000.0,0.17176136374473572,1.1786316633224487,8.707703590393066,-0.1502988338470459,-0.007444062270224094,0.022602014,0.02443461,121.67161999999999,-84.56313,5.326403,STD
42384060000000.0,0.17670893669128418,1.1869375705718994,8.766021728515625,-0.14841434359550476,-0.0073571284301579,0.02076942,0.026572637000000003,121.66022,-84.58745,5.301515599999999,STD
42651982000000.0,0.18165302276611328,1.1948448419570923,8.821270942687988,-0.14643287658691406,-0.007469054777175188,0.02687807,0.02107485,121.64888,-84.61281,5.2765617,STD
42905842000000.0,0.18660610914230347,1.2023755311965942,8.873607635498047,-0.14434993267059326,-0.007704711984843016,0.030543262,0.024740042,121.63878999999999,-84.63425,5.255391599999999,STD
43146356000000.0,0.19156061112880707,1.2095478773117065,8.923179626464844,-0.14217615127563477,-0.00753896776586771,0.014355333500000001,0.01282817,121.63285,-84.66143000000001,5.228804599999999,STD
43374204000000.0,0.19652235507965088,1.2163810729980469,8.970129013061523,-0.13991165161132812,-0.007771132048219442,0.01160644,0.010995574,121.62203999999998,-84.68328000000001,5.2065735,STD
43590043000000.0,0.20148606598377228,1.2228918075561523,9.0145902633667,-0.13756488263607025,-0.007780167274177074,0.018325957,0.01985312,121.61318999999999,-84.70598000000001,5.1846156,STD
43794490000000.0,0.20645290613174438,1.2290968894958496,9.056692123413086,-0.1351390928030014,-0.0074966223910450935,0.02076942,0.018936822,121.60646000000001,-84.73102,5.159962,STD
43988132000000.0,0.2114240974187851,1.235012412071228,9.096556663513184,-0.13263733685016632,-0.007163125555962324,0.014049901000000002,0.020158553,121.600426,-84.75245,5.138989,STD
44171537000000.0,0.2163970023393631,1.240563154220581,9.134332656860352,-0.13010387122631073,-0.007334393914788961,0.02321288,0.021380282999999996,121.58919499999999,-84.77335,5.118157,STD
44345235000000.0,0.22137047350406647,1.2456812858581543,9.170160293579102,-0.12757819890975952,-0.007447873242199421,0.028710667000000002,0.025045475,121.58093999999998,-84.7934,5.098924,STD
44509736000000.0,0.22634930908679962,1.2503868341445923,9.204141616821289,-0.1250576227903366,-0.0072954148054122925,0.023518313,0.02321288,121.56363999999999,-84.809784,5.078814,STD
44665517000000.0,0.2313319891691208,1.2547019720077515,9.236373901367188,-0.12254247069358826,-0.007476011756807566,0.021380282999999996,0.025961772999999997,121.54392,-84.822975,5.061283,STD
44813040000000.0,0.23631532490253448,1.2586488723754883,9.266947746276855,-0.1200338751077652,-0.007159479893743992,0.032070424,0.027488936000000002,121.5221,-84.83795,5.043115599999999,STD
44952734000000.0,0.24130067229270935,1.262246012687683,9.295949935913086,-0.11753083020448685,-0.00684348726645112,0.03359759,0.019547688,121.50363,-84.853645,5.023345,STD
45085014000000.0,0.246287003159523,1.2655123472213745,9.323463439941406,-0.11503349244594574,-0.00683688884600997,0.01863139,0.01740966,121.486916,-84.867226,5.0059657,STD
45210273000000.0,0.2512747645378113,1.2684650421142578,9.349567413330078,-0.1125413179397583,-0.0063591329380869865,0.024129177,0.021685716,121.46399,-84.88189,4.988310299999999,STD
45328875000000.0,0.25626125931739807,1.2711220979690552,9.374335289001465,-0.11005528271198273,-0.0064108408987522125,0.01038471,0.024129177,121.45098999999999,-84.89582,4.9700394,STD
45441178000000.0,0.26125389337539673,1.273495078086853,9.397838592529297,-0.1075715571641922,-0.006150813307613134,0.01740966,0.027794369,121.4305,-84.90951,4.9534726,STD
45547510000000.0,0.26628831028938293,1.2755801677703857,9.420151710510254,-0.10507280379533768,-0.005611854139715433,0.02076942,0.021685716,121.41512,-84.92434,4.935196400000001,STD
45648190000000.0,0.271279513835907,1.2774362564086914,9.44132137298584,-0.10259944945573807,-0.005182878114283085,0.024740042,0.025961772999999997,121.397545,-84.93494,4.921146,STD
45743516000000.0,0.2762742340564728,1.2790520191192627,9.461416244506836,-0.10012886673212051,-0.004955649375915527,0.01160644,0.032986722999999996,121.384026,-84.94645,4.90651,STD
45833770000000.0,0.2812659442424774,1.2804434299468994,9.48049259185791,-0.09766394644975662,-0.004236205946654081,0.011911871999999999,0.02565634,121.36566,-84.9613,4.88914,STD
45919220000000.0,0.2862584590911865,1.2816205024719238,9.498605728149414,-0.09520263969898224,-0.0038966841530054808,0.014049901000000002,0.02565634,121.350525,-84.97066,4.8761625,STD
46000123000000.0,0.29125189781188965,1.2825945615768433,9.5158052444458,-0.09274466335773468,-0.003477611346170306,0.014049901000000002,0.022296581,121.33606,-84.98396,4.8604093,STD
46076724000000.0,0.2962452471256256,1.283376932144165,9.532140731811523,-0.09029032289981842,-0.002543916692957282,0.0070249503,0.024740042,121.32303,-84.99556,4.846607700000001,STD
46149247000000.0,0.30123841762542725,1.283977746963501,9.54765796661377,-0.08783946186304092,-0.0022131416480988264,-0.0061086523,0.027183502999999998,121.31187,-85.006516,4.832162,STD
46217910000000.0,0.306230753660202,1.2844070196151733,9.562399864196777,-0.08539220690727234,-0.001899975468404591,0.004581489,0.026572637000000003,121.307941418892,-85.0110356855321,4.82692083005181,STD
46282916000000.0,0.31122902035713196,1.284670352935791,9.576408386230469,-0.08294516801834106,-0.0016034826403483748,-0.0125227375,0.027183502999999998,121.30391332004801,-85.015669862495,4.82154689222798,STD
46344463000000.0,0.31622645258903503,1.2847799062728882,9.5897216796875,-0.08050139993429184,-0.001404141541570425,-0.009468411,0.021380282999999996,121.29998,-85.020195,4.816299400000001,STD
46402730000000.0,0.321220338344574,1.2847453355789185,9.602376937866211,-0.07806205749511719,-0.0014269694220274687,-0.014355333500000001,0.02687807,121.29227,-85.02891,4.80472,STD
46457898000000.0,0.32621634006500244,1.2845715284347534,9.614409446716309,-0.07562429457902908,-0.0012044748291373253,-0.01282817,0.014660766,121.28383000000001,-85.04439,4.786678299999999,STD
46510125000000.0,0.3312106430530548,1.2842676639556885,9.62585163116455,-0.07318978756666183,-0.0015796998050063848,-0.018936822,0.020463986,121.27886000000001,-85.05168,4.7757062999999995,STD
46559570000000.0,0.3362371027469635,1.283823013305664,9.636741638183594,-0.07074219733476639,-0.001414155587553978,-0.021685716,0.023823743999999997,121.2726,-85.06461999999999,4.7608294,STD
46606385000000.0,0.34123149514198303,1.283277988433838,9.647096633911133,-0.0683121532201767,-0.0010784066980704665,-0.01740966,0.023823743999999997,121.26605,-85.07534,4.746935400000001,STD
46650706000000.0,0.34622782468795776,1.2826207876205444,9.656950950622559,-0.06588326394557953,-0.0015742953401058912,-0.025961772999999997,0.021685716,121.26397,-85.084785,4.733761299999999,STD
46692666000000.0,0.3512229323387146,1.2818591594696045,9.66633129119873,-0.06345692276954651,-0.0016857108566910028,-0.023823743999999997,0.027488936000000002,121.25753,-85.09376,4.723024,STD
46732390000000.0,0.3562171757221222,1.2809983491897583,9.675262451171875,-0.06103285029530525,-0.0015145073411986232,-0.02321288,0.024740042,121.25406000000001,-85.10415,4.7095637,STD
46769996000000.0,0.36121681332588196,1.2800405025482178,9.683770179748535,-0.05860796570777893,-0.0013524247333407402,-0.032375857,0.032375857,121.253633426378,-85.10604419001099,4.70648063914864,STD
46805600000000.0,0.3662131428718567,1.2789950370788574,9.691874504089355,-0.05618632212281227,-0.0010362188331782818,-0.034513887,0.040927973,121.25322,-85.10788000000001,4.7034926,STD
46839310000000.0,0.3712082803249359,1.2778657674789429,9.69959831237793,-0.053766828030347824,-0.00028113144799135625,-0.03726278,0.03390302,121.2499,-85.11939,4.6901684,STD
46871220000000.0,0.3762167692184448,1.2766494750976562,9.706963539123535,-0.0513424351811409,-0.00010338867286918685,-0.03940081,0.043066,121.24940500000001,-85.12064000000001,4.6863339999999996,STD
46901433000000.0,0.3812137842178345,1.275363564491272,9.713985443115234,-0.04892496392130852,0.0007810400566086173,-0.04337143,0.04886922,121.25023999999999,-85.12714,4.6797385,STD
46930034000000.0,0.3862115144729614,1.2740055322647095,9.720684051513672,-0.046508483588695526,0.0016834494890645146,-0.037873644,0.04886922,121.24888600000001,-85.13084,4.6741839999999995,STD
46957112000000.0,0.39120790362358093,1.2725802659988403,9.727076530456543,-0.044093914330005646,0.002000650856643915,-0.03970624,0.051923547,121.25065,-85.13219000000001,4.6713260000000005,STD
46982750000000.0,0.39620545506477356,1.2710901498794556,9.733180046081543,-0.0416799820959568,0.0027729712892323732,-0.045814894,0.052839845,121.25202,-85.13568000000001,4.6679277,STD
47007020000000.0,0.401201993227005,1.269539713859558,9.739008903503418,-0.03926767408847809,0.0037645644042640924,-0.047036625,0.05222898,121.25246000000001,-85.13757,4.6650186,STD
47029997000000.0,0.40620115399360657,1.2679303884506226,9.74457836151123,-0.036855194717645645,0.0048172567039728165,-0.05375614,0.054367005999999996,121.25613,-85.13891,4.6632915,STD
47051750000000.0,0.4111998379230499,1.2662667036056519,9.749902725219727,-0.03444395959377289,0.005667362827807665,-0.055283304000000005,0.044593163,121.25865,-85.14362,4.6580095,STD
47072342000000.0,0.4162015914916992,1.2646616697311401,9.754915237426758,-0.03196636214852333,0.006960474420338869,-0.059253927000000005,0.04428773,121.26365,-85.14624,4.6561656,STD
47091840000000.0,0.421198308467865,1.2632173299789429,9.759560585021973,-0.029370341449975967,0.008184678852558136,-0.061391957000000004,0.044898596,121.26848999999999,-85.150215,4.651888400000001,STD
47110300000000.0,0.42619723081588745,1.2619271278381348,9.763855934143066,-0.026655524969100952,0.009229707531630993,-0.047647487,0.047647487,121.26307,-85.16096,4.637843,STD
47127774000000.0,0.43119555711746216,1.26078200340271,9.767820358276367,-0.023830844089388847,0.010219047777354717,-0.050701816,0.04642576,121.26295,-85.172585,4.623183,STD
47144317000000.0,0.4361943006515503,1.2597745656967163,9.77147102355957,-0.020901184529066086,0.011188221164047718,-0.05497787,0.04062254,121.259125,-85.18441,4.6080885,STD
47159980000000.0,0.4411916136741638,1.2588969469070435,9.774826049804688,-0.01787387765944004,0.012154579162597656,-0.04795292,0.03481932,121.25283,-85.1964,4.5927854,STD
47174805000000.0,0.44619062542915344,1.2581430673599243,9.777899742126465,-0.014751216396689415,0.012613680213689804,-0.036957346,0.028099801,121.24654,-85.20926999999999,4.5757856,STD
47188843000000.0,0.45118841528892517,1.2575056552886963,9.780708312988281,-0.011540989391505718,0.012543724849820137,-0.03848451,0.021991148999999998,121.241745,-85.22327,4.557611,STD
47202135000000.0,0.4561876654624939,1.2569791078567505,9.78326416015625,-0.008245361968874931,0.013486680574715137,-0.029626964,0.025045475,121.23073000000001,-85.23803000000001,4.540278400000001,STD
47214720000000.0,0.4611884653568268,1.256557583808899,9.785581588745117,-0.004868732765316963,0.013158597983419895,-0.022907447,0.02076942,121.22077,-85.25171999999999,4.519451999999999,STD
47226630000000.0,0.466189980506897,1.2562353610992432,9.787672996520996,-0.0014161329017952085,0.013466532342135906,-0.013133603,0.019547688,121.20728000000001,-85.26809,4.500593,STD
47237910000000.0,0.4711897075176239,1.2560063600540161,9.789551734924316,0.0021060407161712646,0.013416235335171223,-0.007941248,0.022602014,121.19313000000001,-85.28056,4.4820495000000005,STD
47248587000000.0,0.47621864080429077,1.255874514579773,9.791216850280762,0.005723683163523674,0.013677885755896568,-0.014966198,0.027794369,121.17966000000001,-85.29459,4.4641137,STD
47258695000000.0,0.481219083070755,1.255818486213684,9.792701721191406,0.009377910755574703,0.013713988475501537,-0.010995574,0.027183502999999998,121.16153,-85.30763,4.4455867,STD
47268267000000.0,0.48622366786003113,1.255843162536621,9.7940034866333,0.013096580281853676,0.013813275843858719,-0.018020526000000002,0.029932396,121.14850600000001,-85.31911,4.4299145,STD
47277326000000.0,0.49121958017349243,1.2559406757354736,9.795136451721191,0.016864212229847908,0.014330481179058552,-0.028405233999999998,0.029932396,121.13531,-85.331505,4.4135594000000005,STD
47285904000000.0,0.4962165653705597,1.2561098337173462,9.796107292175293,0.020687077194452286,0.015145668759942055,-0.022602014,0.025961772999999997,121.11946999999999,-85.34396,4.3970366,STD
47294024000000.0,0.5012132525444031,1.256346344947815,9.796924591064453,0.0245609562844038,0.016080185770988464,-0.03145956,0.028405233999999998,121.11073,-85.35491999999999,4.382807,STD
47301712000000.0,0.5062099099159241,1.256646752357483,9.797595977783203,0.02848338522017002,0.016297532245516777,-0.034513887,0.03726278,121.09858999999999,-85.36406,4.3694654,STD
47308990000000.0,0.5112075209617615,1.2570079565048218,9.798129081726074,0.032452747225761414,0.01686139591038227,-0.03726278,0.03726278,121.08890500000001,-85.37682,4.354608,STD
47315880000000.0,0.5162073373794556,1.2574270963668823,9.798530578613281,0.036467764526605606,0.017964916303753853,-0.038789943,0.039095376,121.0796,-85.385735,4.3430305,STD
47322407000000.0,0.5212038159370422,1.257899522781372,9.798810005187988,0.0405208021402359,0.01915612258017063,-0.021991148999999998,0.03573562,121.0658,-85.395744,4.330058599999999,STD
47328585000000.0,0.526201069355011,1.2584234476089478,9.798972129821777,0.04461360722780228,0.020462896674871445,-0.027488936000000002,0.040317107000000005,121.05871,-85.40406,4.320251,STD
47334430000000.0,0.5311992764472961,1.2589962482452393,9.799023628234863,0.048744264990091324,0.02170003019273281,-0.03390302,0.04337143,121.04705,-85.41345,4.3091288,STD
47339970000000.0,0.5361959934234619,1.2596145868301392,9.798971176147461,0.052908457815647125,0.022431746125221252,-0.035430185,0.036957346,121.03555,-85.42352,4.296781,STD
47345210000000.0,0.5411925315856934,1.260276436805725,9.798819541931152,0.05710557475686073,0.02382439188659191,-0.032070424,0.040011674,121.02435,-85.4322,4.288180400000001,STD
47350173000000.0,0.5461918115615845,1.2609803676605225,9.798572540283203,0.06133672222495079,0.025126542896032333,-0.03145956,0.04428773,121.01436000000001,-85.439964,4.2783226999999995,STD
47354870000000.0,0.5511894822120667,1.2617229223251343,9.798237800598145,0.06559599936008453,0.02629419043660164,-0.03970624,0.040927973,121.00594,-85.45002,4.2673597,STD
47359320000000.0,0.556186854839325,1.2625023126602173,9.797818183898926,0.0698830857872963,0.027220560237765312,-0.043982297000000004,0.049785517,120.99601000000001,-85.45527,4.261232,STD
47363530000000.0,0.5611872673034668,1.263317584991455,9.797318458557129,0.07419966161251068,0.02803245186805725,-0.04337143,0.04886922,120.98709,-85.46399,4.2515264,STD
47367520000000.0,0.5661853551864624,1.2641652822494507,9.796744346618652,0.07853920012712479,0.0288824625313282,-0.04886922,0.044593163,120.98105,-85.47108,4.243583,STD
47371296000000.0,0.5711843967437744,1.2650445699691772,9.796097755432129,0.08290349692106247,0.029377903789281845,-0.059864793,0.04795292,120.97627,-85.47541,4.237712,STD
47374870000000.0,0.5761865973472595,1.2659544944763184,9.795382499694824,0.08729337155818939,0.030221320688724518,-0.070249505,0.049785517,120.97288999999999,-85.48261,4.230358,STD
47378254000000.0,0.5811846852302551,1.266891360282898,9.794605255126953,0.09170067310333252,0.03069424256682396,-0.059253927000000005,0.05222898,120.966385,-85.48675,4.2241807,STD
47381460000000.0,0.5861837863922119,1.2678550481796265,9.793766975402832,0.0961291640996933,0.03135356679558754,-0.05589417,0.048563786,120.96497,-85.493645,4.217023999999999,STD
47384490000000.0,0.5911812782287598,1.2688435316085815,9.792871475219727,0.1005752682685852,0.031994033604860306,-0.06688975,0.05131268,120.96436000000001,-85.49710999999999,4.2125254,STD
47387364000000.0,0.596180260181427,1.2698562145233154,9.791921615600586,0.10504096001386642,0.03282824903726578,-0.07391469,0.05100725,120.96162,-85.50308000000001,4.206151,STD
47390080000000.0,0.6011778116226196,1.2708910703659058,9.79092025756836,0.10952243208885193,0.03312968835234642,-0.08032878,0.054367005999999996,120.96168999999999,-85.50591999999999,4.201787,STD
47392657000000.0,0.6061751842498779,1.2719472646713257,9.789870262145996,0.114019975066185,0.03398476913571358,-0.081855945,0.05467244,120.96226999999999,-85.512,4.196575,STD
47395094000000.0,0.6111757755279541,1.273024559020996,9.788773536682129,0.11853599548339844,0.03495705500245094,-0.08674286,0.049785517,120.965546,-85.51680999999999,4.190991,STD
47397400000000.0,0.6161727905273438,1.2740947008132935,9.78775405883789,0.12248841673135757,0.036137960851192474,-0.08674286,0.05161811400000001,120.96767,-85.52091999999999,4.187465,STD
47399586000000.0,0.6211714148521423,1.275133490562439,9.786930084228516,0.1253199577331543,0.037109438329935074,-0.0888809,0.049480084,120.97171000000002,-85.526825,4.181556,STD
47401654000000.0,0.6261730790138245,1.2761427164077759,9.78629207611084,0.1270851045846939,0.03806169703602791,-0.08582657,0.052839845,120.97401,-85.51914000000001,4.1828356,STD
47403613000000.0,0.6311721801757812,1.2771234512329102,9.785826683044434,0.12785933911800385,0.03909342736005783,-0.093462385,0.055588737,120.979836,-85.51218,4.1833863,STD
47405467000000.0,0.636174201965332,1.2780777215957642,9.785528182983398,0.12767718732357025,0.03989112004637718,-0.08979719,0.05955936,120.9813,-85.503555,4.1850595,STD
47407224000000.0,0.6411736607551575,1.2790063619613647,9.785384178161621,0.1266077160835266,0.04058119282126427,-0.09101892,0.06078109,120.98617,-85.49551,4.186743700000001,STD
47408885000000.0,0.6461717486381531,1.279910922050476,9.785387992858887,0.1246945932507515,0.04141354188323021,-0.086132,0.05375614,120.98807,-85.48886,4.187037,STD
47410458000000.0,0.6511697769165039,1.2807927131652832,9.785531044006348,0.12197861820459366,0.042592186480760574,-0.08796459400000001,0.051923547,120.99200400000001,-85.48093399999999,4.189133999999999,STD
47411950000000.0,0.65616774559021,1.2816530466079712,9.785806655883789,0.11850257217884064,0.04387079179286957,-0.07269296,0.056199603,120.98945,-85.47324,4.19073,STD
47413365000000.0,0.6612001657485962,1.2824963331222534,9.786226272583008,0.11418981105089188,0.045032426714897156,-0.08246681,0.046731193,120.99457,-85.47012,4.188058,STD
47414703000000.0,0.6661971807479858,1.2833168506622314,9.78674602508545,0.10931597650051117,0.04626237228512764,-0.08124508,0.04276056599999999,120.991905,-85.46522,4.187883,STD
47415970000000.0,0.6711944937705994,1.2841192483901978,9.787378311157227,0.10379598289728165,0.0471012257039547,-0.07880162,0.048563786,120.99152,-85.45923,4.1878586,STD
47417170000000.0,0.6762005686759949,1.284905195236206,9.788122177124023,0.09763547778129578,0.048399969935417175,-0.073303826,0.046120327,120.98985,-85.45849,4.1843129999999995,STD
47418305000000.0,0.6811989545822144,1.285673975944519,9.788962364196777,0.09092291444540024,0.04959694668650627,-0.08032878,0.044898596,120.99085,-85.454155,4.182853,STD
47419380000000.0,0.6861984729766846,1.2864274978637695,9.789898872375488,0.08365929126739502,0.05090918391942978,-0.076052725,0.03848451,120.98697,-85.453384,4.1790447,STU
47420400000000.0,0.6911951303482056,1.2871659994125366,9.790924072265625,0.07588718831539154,0.05161433666944504,-0.07819075,0.031154128,120.9868,-85.451614,4.1747510000000005,STU
47421363000000.0,0.6961916089057922,1.2878906726837158,9.792035102844238,0.0676250159740448,0.05288417264819145,-0.08093964,0.029626964,120.98543500000001,-85.452805,4.170287999999999,STU
47422277000000.0,0.7011883854866028,1.2886022329330444,9.793227195739746,0.05889744311571121,0.05395611375570297,-0.08093964,0.03481932,120.98376,-85.45141,4.1657424,STU
47423140000000.0,0.7061861157417297,1.2893013954162598,9.794495582580566,0.049727097153663635,0.05518253520131111,-0.09254608,0.025350908,120.98391043504401,-85.45395360586059,4.15890337219722,STU
47423960000000.0,0.7117160558700562,1.2900397777557373,9.796116828918457,0.03833230212330818,0.05631104111671448,-0.08643743400000001,0.0290161,120.98436000000001,-85.461555,4.1384654,STU
47424735000000.0,0.7172183990478516,1.290764331817627,9.797792434692383,0.0266372412443161,0.05749334767460823,-0.09468412,0.027488936000000002,120.98843400000001,-85.46321,4.132917,STU
47425470000000.0,0.7227171063423157,1.2914780378341675,9.799530982971191,0.014581323601305485,0.05918235331773758,-0.08643743400000001,0.027488936000000002,120.98588600000001,-85.46634,4.1268053,STU
47426166000000.0,0.7281668186187744,1.2921770811080933,9.801305770874023,0.00233877613209188,0.06024419516324997,-0.09437868,0.028405233999999998,120.99018999999998,-85.46734000000001,4.1208634,STU
47426824000000.0,0.7335927486419678,1.2928643226623535,9.803126335144043,-0.010157228447496891,0.0619005411863327,-0.08979719,0.03023783,120.98838,-85.47196,4.1150746,STU
47427450000000.0,0.7389944791793823,1.293540358543396,9.804988861083984,-0.022887568920850754,0.06346862018108368,-0.08307768,0.023823743999999997,120.98813,-85.47577,4.1073303,STU
47428040000000.0,0.744376003742218,1.294205904006958,9.806893348693848,-0.03584899380803108,0.06503451615571976,-0.08460484,0.028099801,120.98865500000001,-85.477905,4.1032863,STU
47428600000000.0,0.7497363090515137,1.2948614358901978,9.808835983276367,-0.049021944403648376,0.06633791327476501,-0.094989546,0.03359759,120.9897,-85.48071,4.0978856,STU
47429127000000.0,0.7550846338272095,1.2955082654953003,9.810819625854492,-0.062422849237918854,0.06783228367567062,-0.08704830000000001,0.03573562,120.98576000000001,-85.48439,4.092670399999999,STU
47429630000000.0,0.760407567024231,1.2961454391479492,9.812833786010742,-0.07599175721406937,0.06963767111301422,-0.08521569999999999,0.038179077,120.98633600000001,-85.48643,4.0893292,STU
47430104000000.0,0.7657116055488586,1.2967740297317505,9.81488037109375,-0.08973710238933563,0.0708259716629982,-0.092240654,0.033292156,120.987076,-85.48829,4.0845475,STU
47430553000000.0,0.77101069688797,1.2973957061767578,9.816964149475098,-0.10369347780942917,0.07265086472034454,-0.09773844,0.029932396,120.98666000000001,-85.492775,4.080888,STU
47430980000000.0,0.7762861251831055,1.2980090379714966,9.819072723388672,-0.11778517812490463,0.07442733645439148,-0.10048734,0.028710667000000002,120.98733500000002,-85.49526,4.0765414,STU
47431383000000.0,0.7815439701080322,1.2986148595809937,9.821208000183105,-0.1320214718580246,0.0768253430724144,-0.098043874,0.03176499,120.98791999999999,-85.50056,4.072522,STU
47431765000000.0,0.7867892384529114,1.2992140054702759,9.823369979858398,-0.14640840888023376,0.07914438098669052,-0.10079276599999999,0.03268129,120.99063999999998,-85.50522,4.0676947,STU
47432130000000.0,0.7920223474502563,1.299806833267212,9.825557708740234,-0.16093705594539642,0.08150260895490646,-0.0983493,0.025350908,120.99103999999998,-85.51302,4.0613637,STU
47432474000000.0,0.7972518801689148,1.3003944158554077,9.827774047851562,-0.17562684416770935,0.08472807705402374,-0.093462385,0.02687807,120.99125,-85.52020999999999,4.057872,STU
47432800000000.0,0.8024605512619019,1.3009753227233887,9.830007553100586,-0.1904097944498062,0.08748865872621536,-0.10048734,0.030543262,120.994026,-85.52605,4.053076,STU
47433110000000.0,0.807657778263092,1.3015507459640503,9.83226203918457,-0.2053091824054718,0.09060671925544739,-0.09193522,0.028099801,120.99078999999999,-85.53697,4.0468497,STU
47433405000000.0,0.8128405213356018,1.3017650842666626,9.834698677062988,-0.2197718471288681,0.09386787563562393,-0.09132435,0.02321288,120.99165,-85.54633000000001,4.0411589999999995,STU
47433680000000.0,0.818016529083252,1.3012183904647827,9.837505340576172,-0.2332139015197754,0.09752494841814041,-0.09621128,0.02565634,120.9914,-85.55597,4.0369053,STU
47433946000000.0,0.8231837749481201,1.2996330261230469,9.84066390991211,-0.2455836534500122,0.1010359525680542,-0.09285152,0.023823743999999997,120.97641000000002,-85.59532,4.0306535000000006,STU
47434193000000.0,0.8283424973487854,1.2965984344482422,9.844165802001953,-0.2567829489707947,0.10403430461883545,-0.10079276599999999,0.013744468000000001,120.965775,-85.63481,4.0228605,STU
47434430000000.0,0.8334880471229553,1.292623519897461,9.847577095031738,-0.266576886177063,0.10723096877336502,-0.096516706,0.016187929,120.94734,-85.67484,4.012932,STU
47434650000000.0,0.8386295437812805,1.288338303565979,9.850284576416016,-0.2745436131954193,0.11046887934207916,-0.099571034,0.018020526000000002,120.93303,-85.714966,4.0002227,STU
47434865000000.0,0.8437598943710327,1.2831507921218872,9.85192584991455,-0.28176596760749817,0.11390861123800278,-0.10354166,0.009468411,120.91188999999999,-85.76453000000001,3.9746504000000002,STU
47435066000000.0,0.8488883972167969,1.2761796712875366,9.851934432983398,-0.28963345289230347,0.11732780188322067,-0.10293079,0.004276057,120.8899,-85.811104,3.9508612000000003,STU
47435255000000.0,0.8540086150169373,1.268585205078125,9.85047435760498,-0.29873424768447876,0.12089031934738159,-0.10598512,-0.004276057,120.863625,-85.86725600000001,3.9125202000000003,STU
47435435000000.0,0.8591249585151672,1.2618731260299683,9.847660064697266,-0.3099767863750458,0.12449086457490921,-0.1133155,-0.012217305,120.837975,-85.923386,3.8734229,STU
47435607000000.0,0.8642326593399048,1.255996823310852,9.844134330749512,-0.323377400636673,0.12791579961776733,-0.106901415,-0.018325957,120.799995,-85.99828000000001,3.8120098,STU
47435770000000.0,0.8693397641181946,1.250954508781433,9.841577529907227,-0.3394486904144287,0.13073500990867615,-0.10812314599999999,-0.026267206,120.76581999999999,-86.07406999999999,3.7487733,STU
47435926000000.0,0.8744436502456665,1.2467652559280396,9.839927673339844,-0.35807371139526367,0.13423411548137665,-0.10659598599999999,-0.028710667000000002,120.70875,-86.170654,3.6627237999999998,STU
47436072000000.0,0.8795369267463684,1.2435418367385864,9.83910846710205,-0.3791710436344147,0.13746535778045654,-0.093462385,-0.029626964,120.64791000000001,-86.26538000000001,3.5760127999999995,STU
47436210000000.0,0.8846228718757629,1.2413992881774902,9.839131355285645,-0.4034419655799866,0.1406383365392685,-0.08277224,-0.027794369,120.55282,-86.396935,3.4458227,STU
47436340000000.0,0.88970547914505,1.2408277988433838,9.840124130249023,-0.4334609806537628,0.14387010037899017,-0.07452556,-0.03359759,120.45348,-86.52888,3.3150269999999997,STU
47436467000000.0,0.8947826027870178,1.2415053844451904,9.842021942138672,-0.4678697884082794,0.1473040133714676,-0.063224554,-0.03634648,120.29076,-86.71856,3.1090682000000003,STU
47436584000000.0,0.89985591173172,1.2416861057281494,9.84473991394043,-0.4990626871585846,0.1514664590358734,-0.05955936,-0.035430185,120.12603,-86.905365,2.9056191000000005,STU
47436697000000.0,0.904924750328064,1.2413979768753052,9.848231315612793,-0.5272157788276672,0.15592795610427856,-0.0571159,-0.03390302,119.84983000000001,-87.1942,2.5546607999999997,STU
47436802000000.0,0.9099918007850647,1.2400920391082764,9.85335636138916,-0.5527423024177551,0.16104693710803986,-0.070249505,-0.038789943,119.57438,-87.465416,2.2078652,STU
47436903000000.0,0.915067732334137,1.2377161979675293,9.860036849975586,-0.5758876204490662,0.16657675802707672,-0.06963864,-0.056505035999999995,119.29158000000001,-87.71413000000001,1.863278,STU
47437000000000.0,0.9201257824897766,1.234441876411438,9.866156578063965,-0.5982095003128052,0.17226764559745789,-0.07086037,-0.057421334000000004,118.82446000000002,-87.97801,1.2605431999999999,STU
47437090000000.0,0.9251812100410461,1.230258822441101,9.871733665466309,-0.6197750568389893,0.17887605726718903,-0.08399397,-0.06017022599999999,117.96245,-87.82682,0.119193695,STU
47437180000000.0,0.9302327632904053,1.2254215478897095,9.877805709838867,-0.6415442824363708,0.18610893189907074,-0.096516706,-0.06352998,117.11506000000001,-87.10092,-0.99768835,STU
47437264000000.0,0.9352811574935913,1.2200636863708496,9.884851455688477,-0.6639696955680847,0.19424225389957428,-0.111177474,-0.07880162,116.28527,-86.14871,-2.0940473,STU
47437343000000.0,0.9403275847434998,1.2153160572052002,9.891725540161133,-0.6872377395629883,0.20270715653896332,-0.12614368,-0.0842994,115.47447,-85.131065,-3.1619822999999996,STU
47437420000000.0,0.9453722238540649,1.2116199731826782,9.897967338562012,-0.7113952040672302,0.21153481304645538,-0.13286320000000001,-0.103847094,114.67609399999999,-84.094826,-4.214626,STU
47437490000000.0,0.9504140019416809,1.2088780403137207,9.904013633728027,-0.7366734147071838,0.22070588171482086,-0.13836098,-0.11545353400000001,113.83927,-83.00905,-5.296851599999999,STU
47437557000000.0,0.9554557204246521,1.2070358991622925,9.909988403320312,-0.763116717338562,0.22968119382858276,-0.15760323,-0.12889257,113.018425,-81.93611,-6.359426999999999,STU
47437620000000.0,0.960494339466095,1.2062098979949951,9.91589069366455,-0.7902452349662781,0.23930132389068604,-0.16584991,-0.15332718,112.17570500000001,-80.84657,-7.4411179999999995,STU
47437680000000.0,0.9655330777168274,1.2064177989959717,9.921725273132324,-0.8179078698158264,0.24853898584842682,-0.17409660000000002,-0.17043139999999998,111.346954,-79.77885400000001,-8.498435,STU
47437738000000.0,0.9705656170845032,1.2072532176971436,9.928264617919922,-0.8475521802902222,0.2579842805862427,-0.18295415,-0.19272798,110.4937,-78.6899,-9.583749000000001,STU
47437792000000.0,0.9755982160568237,1.208525538444519,9.93589973449707,-0.8799488544464111,0.2683911621570587,-0.19211712,-0.21533000000000002,109.65061000000001,-77.628204,-10.647257000000002,STU
47437842000000.0,0.9806278347969055,1.2102445363998413,9.944385528564453,-0.9162523746490479,0.2783573865890503,-0.19853121,-0.2443461,108.78115,-76.52548,-11.751669,STU
47437893000000.0,0.9856789112091064,1.2124727964401245,9.953619956970215,-0.9581308364868164,0.28984344005584717,-0.20189096,-0.27091873,107.92078000000001,-75.45837,-12.833178,STU
47437940000000.0,0.9907045364379883,1.2136940956115723,9.962970733642578,-1.0026828050613403,0.3018242120742798,-0.20128010000000002,-0.30085114,106.99694,-74.339355,-13.967756,STU
47437985000000.0,0.9957300424575806,1.213325023651123,9.972331047058105,-1.0496902465820312,0.315087229013443,-0.20036379999999998,-0.32650748,106.080894,-73.25641999999999,-15.077452,STU
47438027000000.0,1.0007548332214355,1.210776925086975,9.980186462402344,-1.0995279550552368,0.3292711675167084,-0.21197024,-0.36193767,105.22998,-72.321434,-16.061872,STU
47438070000000.0,1.0057753324508667,1.2058546543121338,9.985865592956543,-1.1522315740585327,0.344326913356781,-0.21930063,-0.3933972,104.37881,-71.41118,-17.027044,STU
47438107000000.0,1.0107992887496948,1.1980592012405396,9.989863395690918,-1.2079861164093018,0.3604847490787506,-0.226631,-0.43371433,103.54902,-70.5419,-17.965239,STU
47438144000000.0,1.0158214569091797,1.1873056888580322,9.992524147033691,-1.2666168212890625,0.37631866335868835,-0.22327125,-0.48136179999999995,102.71784,-69.68609000000001,-18.889984,STU
47438180000000.0,1.0208383798599243,1.172993779182434,9.9938383102417,-1.3280739784240723,0.392724871635437,-0.22479841,-0.49877146,101.91369,-68.91455,-19.744759,STU
47438210000000.0,1.0258578062057495,1.1538563966751099,9.993685722351074,-1.3926823139190674,0.40897294878959656,-0.23426682,-0.5348125,101.10941,-68.143684,-20.596226,STU
47438245000000.0,1.03087317943573,1.1298867464065552,9.991887092590332,-1.4590636491775513,0.4258688986301422,-0.26450464,-0.59315014,100.30829,-67.390854,-21.439129,STU
47438274000000.0,1.035888433456421,1.1009094715118408,9.988250732421875,-1.5262585878372192,0.4434596002101898,-0.301462,-0.65026605,99.50804000000001,-66.646935,-22.269747,STU
47438304000000.0,1.0409018993377686,1.0671144723892212,9.9839448928833,-1.593599557876587,0.46276605129241943,-0.3436117,-0.7153232,98.724266,-65.93141999999999,-23.078966,STU
47438333000000.0,1.0459153652191162,1.0285491943359375,9.980525970458984,-1.6602431535720825,0.48397353291511536,-0.3817908,-0.77579886,97.9465,-65.218956,-23.881294,STU
47438360000000.0,1.0509282350540161,0.9854795336723328,9.977945327758789,-1.7262213230133057,0.5073225498199463,-0.410196,-0.8381071,97.17702,-64.49649000000001,-24.696653,STU
47438384000000.0,1.055985927581787,0.9370326399803162,9.976268768310547,-1.792059302330017,0.5323083400726318,-0.4465425,-0.895223,96.41755,-63.776019999999995,-25.505014000000003,STU
47438410000000.0,1.06099534034729,0.8885034918785095,9.97475814819336,-1.8551552295684814,0.5572322010993958,-0.5009095,-0.9392053,95.66829,-63.058240000000005,-26.304503999999998,STU
47438434000000.0,1.0660039186477661,0.8413459658622742,9.973085403442383,-1.9146456718444824,0.5829113125801086,-0.5839871999999999,-0.9764681000000001,94.93566,-62.345036,-27.09494,STU
47438455000000.0,1.071010947227478,0.791255533695221,9.97057056427002,-1.9761601686477661,0.608833372592926,-0.625526,-1.010982,94.16646999999999,-61.5742,-27.940367,STU
47438476000000.0,1.0760228633880615,0.7322510480880737,9.966259002685547,-2.0474278926849365,0.6336994767189026,-0.552833,-1.0833694999999999,93.3839,-60.799713,-28.78412,STU
47438497000000.0,1.081030011177063,0.6678827404975891,9.962362289428711,-2.1250998973846436,0.6574195027351379,-0.41263947,-1.1441506000000001,92.57979,-59.951145,-29.696625,STU
47438518000000.0,1.0860363245010376,0.6056773662567139,9.964503288269043,-2.20243501663208,0.680493950843811,-0.28221974,-1.1676688999999998,91.74925,-59.114502,-30.592606,STU
47438540000000.0,1.091041922569275,0.5456984043121338,9.973772048950195,-2.2775797843933105,0.7025177478790283,-0.2312125,-1.1841623,90.90807,-58.318165,-31.451044,STU
47438556000000.0,1.0960465669631958,0.48835957050323486,9.993950843811035,-2.3451039791107178,0.7252234220504761,-0.22571471,-1.1936307,90.0281,-57.535816000000004,-32.289665,STU
47438572000000.0,1.1010478734970093,0.4339565634727478,10.024693489074707,-2.4061079025268555,0.7484281659126282,-0.23151793,-1.2107350000000001,89.11789,-56.78343,-33.091675,STU
47438590000000.0,1.1060562133789062,0.3829672932624817,10.066401481628418,-2.4618029594421387,0.7726262807846069,-0.20769419,-1.2125676,88.18397,-56.05052,-33.86652,STU
47438606000000.0,1.1110615730285645,0.33318063616752625,10.11721420288086,-2.511216878890991,0.7968695759773254,-0.20311269,-1.2183707000000001,87.20152,-55.267986,-34.680553,STU
47438623000000.0,1.1160691976547241,0.28130945563316345,10.175542831420898,-2.55251145362854,0.8214160203933716,-0.20158553,-1.2318097,86.201195,-54.505325,-35.467587,STU
47438640000000.0,1.1210682392120361,0.2288329005241394,10.239742279052734,-2.586298942565918,0.8456146717071533,-0.21013765,-1.2379183999999999,85.15714,-53.660940000000004,-36.32821,STU
47438650000000.0,1.1260960102081299,0.17831134796142578,10.308655738830566,-2.6121139526367188,0.8708676695823669,-0.24709499,-1.2431108,84.11152,-52.84171,-37.156414,STU
47438665000000.0,1.131094217300415,0.1294884979724884,10.378717422485352,-2.636035919189453,0.8988604545593262,-0.3155119,-1.2412782,83.17705,-127.82765,-37.827354,STU
47438677000000.0,1.1360968351364136,0.08137938380241394,10.446304321289062,-2.6688790321350098,0.9268915057182312,-0.33994650000000004,-1.2238685,82.23033000000001,-128.4747,-38.468727,STU
47438690000000.0,1.1411006450653076,0.0339675135910511,10.511533737182617,-2.7100517749786377,0.9564725756645203,-0.31673363,-1.2073752,81.408745,-128.9982,-38.978703,STU
47438702000000.0,1.1461029052734375,-0.012766438536345959,10.574519157409668,-2.7590136528015137,0.9879605770111084,-0.24007004,-1.1792753999999999,80.56827,-129.50204,-39.460876,STU
47438715000000.0,1.1511048078536987,-0.05965423956513405,10.634834289550781,-2.8163394927978516,1.0214817523956299,-0.15485434,-1.1670581,79.73378000000001,-129.98819,-39.91596,STU
47438727000000.0,1.1561065912246704,-0.11027555167675018,10.690116882324219,-2.8859312534332275,1.0574973821640015,-0.07696902,-1.1746938,78.86553,-130.46331999999998,-40.349445,STU
47438740000000.0,1.161110520362854,-0.16399721801280975,10.739588737487793,-2.9651737213134766,1.0961024761199951,-0.0015271631,-1.181108,77.794106,-131.0472,-40.873615,STU
47438753000000.0,1.1661162376403809,-0.21894721686840057,10.779925346374512,-3.0462095737457275,1.136426568031311,0.07360926,-1.1936307,76.6839,-131.62209,-41.373714,STU
47438765000000.0,1.1711184978485107,-0.274122953414917,10.81069278717041,-3.1286356449127197,1.1780362129211426,0.17654006,-1.2024882,75.385,-132.29543999999999,-41.94945,STU
47438778000000.0,1.1761236190795898,-0.3198789954185486,10.820382118225098,-3.210340738296509,1.2183724641799927,0.27305678,-1.1976013,74.05139,-132.94899999999998,-42.487907,STU
47438786000000.0,1.1811250448226929,-0.3568711280822754,10.810579299926758,-3.291275978088379,1.2562659978866577,0.37201694,-1.1649200000000002,72.69085,-133.60594,-43.0024,STU
47438795000000.0,1.1861257553100586,-0.38856184482574463,10.79215145111084,-3.3676717281341553,1.2911797761917114,0.46639562,-1.1111639,71.28838,-134.23761000000002,-43.471000000000004,STU
47438803000000.0,1.1911293268203735,-0.41658174991607666,10.769998550415039,-3.438014268875122,1.3238584995269775,0.56779927,-1.0476339,69.84118000000001,-134.83995,-43.88823,STU
47438810000000.0,1.1961491107940674,-0.4457313120365143,10.745365142822266,-3.4946677684783936,1.3547468185424805,0.6563747,-0.9972375,68.46045,-135.3391,-44.170296,STU
47438820000000.0,1.201151967048645,-0.4780139625072479,10.719440460205078,-3.5355443954467773,1.3840378522872925,0.69058317,-0.97035944,67.06241,-135.81833,-44.411713,STU
47438830000000.0,1.2061518430709839,-0.5133835077285767,10.692063331604004,-3.5673134326934814,1.4093263149261475,0.6899723000000001,-0.9651671000000001,65.63302,-136.32147,-44.659306,STU
47438837000000.0,1.2111538648605347,-0.5517311096191406,10.663227081298828,-3.592283248901367,1.4297674894332886,0.67256266,-0.9822713,64.19716,-136.81104,-44.876816,STU
47438845000000.0,1.2161542177200317,-0.591880202293396,10.630061149597168,-3.6163599491119385,1.446905493736267,0.63713247,-0.98746365,62.783276,-137.35544,-45.151752,STU
47438853000000.0,1.2211544513702393,-0.6332480907440186,10.591170310974121,-3.642512083053589,1.4587353467941284,0.61178154,-0.9996809999999999,61.36946,-137.88269,-45.40553,STU
47438860000000.0,1.2261549234390259,-0.6724808812141418,10.552425384521484,-3.6733131408691406,1.4670536518096924,0.6188064999999999,-1.0348058,60.027843000000004,-138.38805,-45.63142,STU
47438870000000.0,1.2311540842056274,-0.7081141471862793,10.516499519348145,-3.7097647190093994,1.4732846021652222,0.64934975,-1.0503827,58.688526,-138.87273000000002,-45.831264000000004,STU
47438880000000.0,1.236154317855835,-0.7397821545600891,10.484289169311523,-3.750605344772339,1.4797369241714478,0.729984,-1.0497718999999999,57.273582,-139.4161,-46.068886,STU
47438887000000.0,1.2411547899246216,-0.7674106359481812,10.456147193908691,-3.795042037963867,1.4865942001342773,0.83291477,-1.0479393,55.838122999999996,-139.94458,-46.27823,STU
47438895000000.0,1.2461565732955933,-0.7914659380912781,10.431680679321289,-3.8428468704223633,1.4954462051391602,0.9410379000000001,-1.0418307,54.301219999999994,-140.5122,-46.486603,STU
47438904000000.0,1.25115966796875,-0.8128435015678406,10.41019344329834,-3.8936870098114014,1.505307674407959,1.0580186000000003,-1.0329732,52.72760400000001,-141.06007,-46.651203,STU
47438910000000.0,1.256158709526062,-0.8320872783660889,10.390360832214355,-3.9456892013549805,1.5157016515731812,1.1609493,-1.0192287,51.113716,-141.57071000000002,-46.738758000000004,STU
47438920000000.0,1.2611581087112427,-0.8498002886772156,10.370574951171875,-3.9966883659362793,1.5271369218826294,1.2788464,-1.0067059,49.46363,-142.06653,-46.77863,STU
47438930000000.0,1.266157865524292,-0.8653256297111511,10.350297927856445,-4.046863555908203,1.5375069379806519,1.3616186000000001,-0.9941832,47.794746,-142.55633999999998,-46.773590000000006,STU
47438937000000.0,1.2711514234542847,-0.8777409195899963,10.328819274902344,-4.096393585205078,1.5477476119995117,1.4196507999999999,-0.9764681000000001,46.112759999999994,-143.03076000000001,-46.722429999999996,STU
47438946000000.0,1.2761448621749878,-0.8878116011619568,10.304393768310547,-4.145129203796387,1.5569379329681396,1.4825698999999999,-0.97433007,44.395462,-143.52203,-46.652634,STU
47438954000000.0,1.2811399698257446,-0.8965801000595093,10.274636268615723,-4.192798614501953,1.5646129846572876,1.5143349,-0.9786060999999999,42.6932,-143.99344,-46.54679,STU
47438960000000.0,1.286131739616394,-0.9031497836112976,10.241073608398438,-4.239716529846191,1.572546362876892,1.536937,-0.9831876,41.01381,-144.45131999999998,-46.38882,STU
47438962000000.0,1.2911264896392822,-0.9060870409011841,10.205513000488281,-4.286406517028809,1.5806918144226074,1.5344934,-0.99387777,39.355267,-144.89452,-46.206306,STU
47438967000000.0,1.2961194515228271,-0.9038180112838745,10.168012619018555,-4.331231117248535,1.5893146991729736,1.5384641000000001,-0.990518,37.712856,-145.35045,-46.001247,STU
47438970000000.0,1.3011155128479004,-0.8931950330734253,10.128401756286621,-4.3713555335998535,1.5976732969284058,1.5183055,-0.9779953000000001,36.106544,-145.79195,-45.776996999999994,STU
47438975000000.0,1.3061093091964722,-0.8748385906219482,10.08484935760498,-4.409282207489014,1.607230544090271,1.5152513,-0.9660834,34.53607,-146.22852,-45.508297,STU
47438983000000.0,1.3111337423324585,-0.8481599688529968,10.03262710571289,-4.449697017669678,1.6163923740386963,1.5234979,-0.9593639000000002,32.998962,-146.64667,-45.219078,STU
47438988000000.0,1.3161295652389526,-0.8164622187614441,9.974803924560547,-4.489732265472412,1.6248705387115479,1.5839735000000001,-0.9434814,31.510082,-147.04262,-44.87107,STU
47438990000000.0,1.321130394935608,-0.7810850143432617,9.911425590515137,-4.526233673095703,1.632636547088623,1.6536123,-0.91904676,30.049159999999997,-147.42383,-44.499386,STU
47438996000000.0,1.326130747795105,-0.7428468465805054,9.842947959899902,-4.559445858001709,1.6403142213821411,1.6942346999999998,-0.87995136,28.656462,-147.77557,-44.04703,STU
47439000000000.0,1.331131935119629,-0.7052604556083679,9.769572257995605,-4.589733123779297,1.6460363864898682,1.6676620999999998,-0.82344633,27.304234,-148.10278,-43.57274,STU
47439010000000.0,1.3361601829528809,-0.6681694388389587,9.690688133239746,-4.6171417236328125,1.6497607231140137,1.5952746000000002,-0.7831292,25.991970000000002,-148.4316,-43.078114,STU
47439013000000.0,1.3411589860916138,-0.632404625415802,9.607118606567383,-4.6422224044799805,1.6523098945617676,1.4987578000000001,-0.7489208,24.735813,-148.73843,-42.57342,STU
47439017000000.0,1.3461573123931885,-0.5978204011917114,9.518088340759277,-4.664999008178711,1.6531769037246704,1.3585643,-0.69974613,23.543326999999998,-149.05336,-42.087246,STU
47439020000000.0,1.3511567115783691,-0.5642138123512268,9.424275398254395,-4.687102794647217,1.6540954113006592,1.2376129999999999,-0.6603453,22.402332,-149.35745,-41.604896999999994,STU
47439025000000.0,1.3561557531356812,-0.5315051674842834,9.326085090637207,-4.708921432495117,1.6543952226638794,1.1374311000000001,-0.6246096999999999,21.327123999999998,-149.63652,-41.13279,STU
47439034000000.0,1.3611565828323364,-0.49806296825408936,9.22443962097168,-4.728972434997559,1.6544349193572998,1.0442741,-0.58062744,20.296625,-149.93939,-40.689766,STU
47439038000000.0,1.3661562204360962,-0.4625767469406128,9.120285034179688,-4.746041774749756,1.653918981552124,0.9615019,-0.56291234,19.309599,-150.22945,-40.259823,STU
47439040000000.0,1.3711549043655396,-0.42823097109794617,9.010329246520996,-4.765678882598877,1.6519981622695923,0.9221011,-0.5412266,18.360039,-150.53258,-39.831738,STU
47439046000000.0,1.3761568069458008,-0.39649438858032227,8.892993927001953,-4.790499687194824,1.648486852645874,0.91507614,-0.5375614000000001,17.438633,-150.82545,-39.411434,STU
47439055000000.0,1.3812012672424316,-0.3703918755054474,8.771269798278809,-4.81673002243042,1.6431280374526978,0.9089674999999999,-0.5320636,16.553978,-151.11621,-38.987103000000005,STU
47439060000000.0,1.386197566986084,-0.34928786754608154,8.649619102478027,-4.8423638343811035,1.6354016065597534,0.8897252,-0.52015173,15.690935000000001,-151.38924,-38.56321,STU
47439063000000.0,1.3911943435668945,-0.3347172439098358,8.529499053955078,-4.86690092086792,1.625515103340149,0.86101454,-0.49754974,14.84169,-151.6837,-38.133404,STU
47439067000000.0,1.3961944580078125,-0.3271900415420532,8.412907600402832,-4.889869689941406,1.6128674745559692,0.8521569999999999,-0.48166725,14.007202,-151.95755,-37.701103,STU
47439070000000.0,1.4011915922164917,-0.32372087240219116,8.29891586303711,-4.911889553070068,1.5985499620437622,0.8216136999999999,-0.48258355,13.162284,-152.2754,-37.314254999999996,STU
47439076000000.0,1.4061896800994873,-0.32247787714004517,8.186788558959961,-4.933373928070068,1.5830421447753906,0.8008443000000001,-0.46150870000000005,12.340318,-152.56701999999999,-36.919277,STU
47439084000000.0,1.4111881256103516,-0.3233383595943451,8.076435089111328,-4.954349994659424,1.5664401054382324,0.7724390999999999,-0.45478916,11.464125,-152.91808999999998,-36.592873,STU
47439090000000.0,1.4161888360977173,-0.3262052536010742,7.967729568481445,-4.974849700927734,1.5494205951690674,0.73731434,-0.44837508,10.6113825,-153.2502,-36.266735,STU
47439092000000.0,1.421186089515686,-0.33053866028785706,7.858225345611572,-4.996628284454346,1.531501293182373,0.6957755,-0.40561453,9.747902,-153.59593,-35.957607,STU
47439097000000.0,1.4261846542358398,-0.33601054549217224,7.74611234664917,-5.02089786529541,1.5122581720352173,0.6646214,-0.36835176,8.901039,-153.92375,-35.65112,STU
47439100000000.0,1.431182622909546,-0.3424423933029175,7.631524562835693,-5.0475921630859375,1.4920059442520142,0.6417139000000001,-0.34238997,8.027942999999999,-154.30193,-35.383796999999994,STU
47439110000000.0,1.4361801147460938,-0.34957200288772583,7.514458656311035,-5.076766014099121,1.4703099727630615,0.63713247,-0.31856623,7.179174400000001,-154.65063,-35.110405,STU
47439113000000.0,1.4411771297454834,-0.3563958406448364,7.396064281463623,-5.1088361740112305,1.447165846824646,0.6221663000000001,-0.30024028,6.3507576,-155.01251000000002,-34.837276,STU
47439118000000.0,1.4461745023727417,-0.36131736636161804,7.27808141708374,-5.144582748413086,1.4226995706558228,0.6007859999999999,-0.29168814,5.539022,-155.35072,-34.562053999999996,STU
47439120000000.0,1.451191782951355,-0.3647843301296234,7.160065174102783,-5.182963848114014,1.3966072797775269,0.5852089,-0.27397305,4.7249637,-155.70673,-34.28804,STU
47439126000000.0,1.4561904668807983,-0.36756840348243713,7.042859077453613,-5.221789836883545,1.3692359924316406,0.552833,-0.25167647,3.9317976999999997,-156.03992,-34.01921,STU
47439130000000.0,1.4611891508102417,-0.36956483125686646,6.926912307739258,-5.260299205780029,1.3400191068649292,0.5152648,-0.23915374,3.1629357000000002,-156.36244,-33.729126,STU
47439140000000.0,1.4661895036697388,-0.370695561170578,6.8130950927734375,-5.297515869140625,1.3098362684249878,0.47036624,-0.21044308,2.4213543,-156.6607,-33.442603999999996,STU
47439143000000.0,1.4711837768554688,-0.3716745674610138,6.70208740234375,-5.33465051651001,1.2778762578964233,0.42577308,-0.19333886,1.6694529999999999,-156.97111999999998,-33.166385999999996,STU
47439147000000.0,1.4761842489242554,-0.37335529923439026,6.594482421875,-5.373324394226074,1.2441524267196655,0.40561453,-0.17134771,0.9395363000000001,-157.25517,-32.889866,STU
47439150000000.0,1.481177806854248,-0.37667420506477356,6.490916728973389,-5.412835597991943,1.2092634439468384,0.38331795,-0.15118915,0.2144617,-157.5455,-32.622170000000004,STU
47439155000000.0,1.4861751794815063,-0.38345369696617126,6.392385482788086,-5.452423572540283,1.1731247901916504,0.36010507,-0.13500121,359.5058,-157.8081,-32.356678,STU
47439164000000.0,1.4911705255508423,-0.3938388228416443,6.299043655395508,-5.492342948913574,1.1355751752853394,0.36468655,-0.12675454,358.78963999999996,-158.07338000000001,-32.087395,STU
47439168000000.0,1.4961695671081543,-0.40911492705345154,6.212037086486816,-5.5336737632751465,1.097113013267517,0.3304781,-0.12186762,358.09396,-158.31598,-31.831734,STU
47439170000000.0,1.5011636018753052,-0.4283064007759094,6.131185531616211,-5.574710845947266,1.0581125020980835,0.31001409999999996,-0.10567969,357.34357,-158.59364,-31.598373,STU
47439176000000.0,1.5061622858047485,-0.45022833347320557,6.056644439697266,-5.61230993270874,1.020148754119873,0.28893927,-0.109650314,356.60196,-158.85736,-31.373802,STU
47439180000000.0,1.5111603736877441,-0.4739031493663788,5.987457275390625,-5.647067546844482,0.9823362827301025,0.2593123,-0.12705997,355.80426,-159.15268,-31.187191,STU
47439190000000.0,1.5161631107330322,-0.4971097707748413,5.921692848205566,-5.680237293243408,0.9445530772209167,0.22571471,-0.12980886,355.02335,-159.4287,-31.001982,STU
47439193000000.0,1.5211721658706665,-0.5189319849014282,5.858914375305176,-5.711902141571045,0.905951201915741,0.1957823,-0.12950343,354.14224,-159.76451,-30.869422999999998,STU
47439197000000.0,1.5261727571487427,-0.5376461744308472,5.798509120941162,-5.742122650146484,0.8670951128005981,0.17837265,-0.14355333,353.27255,-160.08008,-30.736805,STU
47439200000000.0,1.531171202659607,-0.5530040860176086,5.739692211151123,-5.772526264190674,0.8286332488059998,0.15913039999999998,-0.14569137,352.41544,-160.3754,-30.6091,STU
47439206000000.0,1.5361695289611816,-0.5641478896141052,5.680614471435547,-5.807373046875,0.7896004319190979,0.15760323,-0.16279559,351.56268,-160.64526,-30.477235999999998,STU
47439214000000.0,1.5411677360534668,-0.571567177772522,5.6211090087890625,-5.846743106842041,0.7503689527511597,0.16462818,-0.17043139999999998,350.67383,-160.95197,-30.337374,STU
47439220000000.0,1.546167254447937,-0.576824963092804,5.560233116149902,-5.892088413238525,0.7106238603591919,0.16401732,-0.18020524,349.79523,-161.23138,-30.194042,STU
47439222000000.0,1.5511668920516968,-0.5803443193435669,5.497972011566162,-5.942628383636475,0.670750617980957,0.16646078,-0.18203785,348.98596000000003,-161.4659,-29.997488,STU
47439227000000.0,1.5561665296554565,-0.5841585397720337,5.433722019195557,-5.995299339294434,0.6305119395256042,0.16493362,-0.18051068,348.18646,-161.67548,-29.798513,STU
47439230000000.0,1.5611777305603027,-0.5881979465484619,5.367575645446777,-6.0498528480529785,0.5901713967323303,0.13897185,-0.18325958,347.4516,-161.84131000000002,-29.569649,STU
47439240000000.0,1.5661760568618774,-0.5913247466087341,5.303210735321045,-6.100801467895508,0.5501576662063599,0.10079276599999999,-0.17684549,346.7301,-161.98639,-29.341928000000003,STU
47439243000000.0,1.5711696147918701,-0.5935676097869873,5.240482807159424,-6.148317813873291,0.5095417499542236,0.048563786,-0.16249016,346.04214,-162.11113,-29.114573999999998,STU
47439248000000.0,1.5761734247207642,-0.5949328541755676,5.179202556610107,-6.1925435066223145,0.4692673087120056,-0.007330383,-0.15088372,345.36737,-162.22305,-28.897558,STU
47439250000000.0,1.581167459487915,-0.5955209732055664,5.11942720413208,-6.233708381652832,0.4301137328147888,-0.055283304000000005,-0.14110987,344.7082,-162.31677,-28.690590000000004,STU
47439256000000.0,1.5861690044403076,-0.591700553894043,5.065110206604004,-6.2719340324401855,0.3914841413497925,-0.09560041,-0.13561209,344.00802999999996,-162.44269,-28.497884999999997,STU
47439260000000.0,1.5911680459976196,-0.5830585360527039,5.016798496246338,-6.307404518127441,0.3548969626426697,-0.11881329,-0.11881329,343.3257,-162.55927,-28.309687,STU
47439270000000.0,1.5961683988571167,-0.5711902976036072,4.978470325469971,-6.3444952964782715,0.3195922374725342,-0.13988814,-0.10903945,342.64133,-162.68097,-28.128729999999997,STU
47439273000000.0,1.6011629104614258,-0.5569125413894653,4.951057434082031,-6.384679317474365,0.2862991988658905,-0.14355333,-0.10323623,341.96967,-162.79576,-27.946281,STU
47439277000000.0,1.6061627864837646,-0.5438269972801208,4.9334516525268555,-6.429821014404297,0.2553664445877075,-0.13561209,-0.10079276599999999,341.35107,-162.85808,-27.7366,STU
47439280000000.0,1.6111633777618408,-0.5331637263298035,4.92466926574707,-6.48019552230835,0.22650538384914398,-0.13103059,-0.109650314,340.73758,-162.91475,-27.528978000000002,STU
47439285000000.0,1.6161640882492065,-0.528088390827179,4.925962924957275,-6.5353569984436035,0.1993451863527298,-0.13011430000000002,-0.111177474,340.1249,-162.94914,-27.29099,STU
47439294000000.0,1.621163010597229,-0.5298647880554199,4.937565803527832,-6.594919204711914,0.1745927929878235,-0.124005646,-0.12064589,339.51212000000004,-162.98557,-27.052507000000002,STU
47439300000000.0,1.6261650323867798,-0.5420075058937073,4.959628582000732,-6.660011291503906,0.15155017375946045,-0.13439035,-0.13958271,338.86816,-163.0233,-26.810440000000003,STU
47439302000000.0,1.6311649084091187,-0.5656191110610962,4.991642475128174,-6.730782985687256,0.1291658580303192,-0.17654006,-0.15668693,338.23193,-163.05493,-26.576790000000003,STU
47439306000000.0,1.6361634731292725,-0.6014106273651123,5.034380912780762,-6.808825492858887,0.10760008543729782,-0.22571471,-0.17256944,337.53098,-163.10818,-26.363174,STU
47439310000000.0,1.6411622762680054,-0.6496195793151855,5.088143348693848,-6.8949875831604,0.08702083677053452,-0.26419923,-0.16707164,336.845,-163.14978,-26.15689,STU
47439320000000.0,1.6461633443832397,-0.7052348256111145,5.14878511428833,-6.985750198364258,0.06744065135717392,-0.28741209999999995,-0.14935656,336.01813,-163.26532,-25.993895000000002,STU
47439323000000.0,1.651162028312683,-0.7650084495544434,5.213571548461914,-7.078797817230225,0.0494573749601841,-0.31673363,-0.13041973,335.21674,-163.36613,-25.837477,STU
47439327000000.0,1.6561598777770996,-0.8256937265396118,5.274676322937012,-7.16845703125,0.03223714977502823,-0.35246924,-0.12339478,334.55035,-163.3667,-25.693232000000002,STU
47439330000000.0,1.6611577272415161,-0.8854202032089233,5.327721118927002,-7.25156831741333,0.014909164980053902,-0.39492437,-0.116675265,333.90335,-163.35532,-25.554712,STU
47439336000000.0,1.6661566495895386,-0.93808513879776,5.367419719696045,-7.311992168426514,-0.00369280599988997,-0.44348818,-0.122478485,333.3268,-163.28795,-25.429054,STU
47439344000000.0,1.6711549758911133,-0.9801235795021057,5.390876293182373,-7.3404388427734375,-0.02488444186747074,-0.5158757,-0.119729586,332.76782000000003,-163.203,-25.318545999999998,STU
47439350000000.0,1.676154375076294,-1.007451057434082,5.409461975097656,-7.353848934173584,-0.04960203915834427,-0.61636305,-0.12736541,332.2309,-163.10916,-25.241203,STU
47439352000000.0,1.681153655052185,-1.0177185535430908,5.430783271789551,-7.363749980926514,-0.07764141261577606,-0.72509706,-0.103847094,331.71765,-162.99133,-25.180418,STU
47439357000000.0,1.6861519813537598,-1.0107144117355347,5.4632463455200195,-7.380866527557373,-0.10853254050016403,-0.8219192,-0.064751714,331.21555,-162.86987,-25.165007,STU
47439360000000.0,1.69115149974823,-0.9854325652122498,5.519376277923584,-7.4208807945251465,-0.1416676789522171,-0.8949176,0.003970624,330.74286,-162.72011,-25.163006,STU
47439365000000.0,1.696149468421936,-0.9430328011512756,5.597659111022949,-7.482335090637207,-0.17420892417430878,-0.8909469999999999,0.08796459400000001,330.12784,-162.60756,-25.112164,STU
47439373000000.0,1.7011489868164062,-0.8842194080352783,5.697197437286377,-7.564352512359619,-0.2044299691915512,-0.8549059000000001,0.16615535,329.54715,-162.4724,-25.06056,STU
47439378000000.0,1.7061951160430908,-0.8235885500907898,5.823329448699951,-7.660217761993408,-0.23234052956104279,-0.6759224,0.23396139,329.16885,-162.14177,-24.859535,STU
47439380000000.0,1.7111972570419312,-0.770817220211029,5.9667229652404785,-7.759389400482178,-0.2540595233440399,-0.6007859999999999,0.24740042,328.80515,-161.83643,-24.676077,STU
47439386000000.0,1.7161970138549805,-0.7346614003181458,6.128057956695557,-7.850963592529297,-0.2726026475429535,-0.47036624,0.24953845,328.50293,-161.39618000000002,-24.327438,STU
47439390000000.0,1.7211887836456299,-0.7223559021949768,6.30322790145874,-7.923127174377441,-0.2858440577983856,-0.44226643,0.21533000000000002,328.19516,-161.004,-23.996988,STU
47439400000000.0,1.726182222366333,-0.7285211682319641,6.486866474151611,-7.982748031616211,-0.294505774974823,-0.5137377000000001,0.14141529999999997,327.83907999999997,-160.58476000000002,-23.655051999999998,STU
47439403000000.0,1.731175184249878,-0.7475298047065735,6.673383712768555,-8.036405563354492,-0.2997596859931946,-0.61483586,0.06750060599999999,327.4724,-160.19786000000002,-23.327116,STU
47439407000000.0,1.7361680269241333,-0.7689268589019775,6.853881359100342,-8.089418411254883,-0.30393603444099426,-0.64934975,0.023518313,326.9848,-159.83556000000002,-23.0868,STU
47439410000000.0,1.7411609888076782,-0.7831467390060425,7.020232200622559,-8.146648406982422,-0.3101523518562317,-0.6105598000000001,0.023823743999999997,326.4958,-159.48328999999998,-22.859526000000002,STU
47439415000000.0,1.7461543083190918,-0.7878397107124329,7.164716720581055,-8.200942993164062,-0.3190487027168274,-0.50426924,0.07696902,325.93622,-159.1464,-22.66104,STU
47439424000000.0,1.7511545419692993,-0.7802862524986267,7.278812408447266,-8.244781494140625,-0.3313937783241272,-0.41935900000000004,0.15424347,325.38947,-158.79543,-22.454560999999998,STU
47439430000000.0,1.7561472654342651,-0.7643312811851501,7.363006114959717,-8.273855209350586,-0.3476874530315399,-0.38912117,0.24556783,324.93414,-158.39082,-22.216283999999998,STU
47439432000000.0,1.761144995689392,-0.7428693771362305,7.415249824523926,-8.282562255859375,-0.3693144619464874,-0.37690386,0.31581733,324.4893,-157.96031000000002,-21.957546,STU
47439436000000.0,1.7661381959915161,-0.7185618877410889,7.440310478210449,-8.271098136901855,-0.3977322280406952,-0.39645153,0.36621370000000003,324.14313,-157.49857,-21.689657,STU
47439440000000.0,1.7711374759674072,-0.6942703723907471,7.441517353057861,-8.237727165222168,-0.43414151668548584,-0.48197266,0.40591997,323.81982,-157.00063,-21.433477,STU
47439450000000.0,1.7761427164077759,-0.6711670160293579,7.4282989501953125,-8.187597274780273,-0.4781326949596405,-0.5910121,0.43768495,323.54318,-156.50351,-21.204546,STU
47439453000000.0,1.7811434268951416,-0.6507065296173096,7.4124908447265625,-8.127433776855469,-0.5280157923698425,-0.7464773,0.47036624,323.29337000000004,-155.96974,-21.007324,STU
47439457000000.0,1.7861384153366089,-0.6318233013153076,7.3987627029418945,-8.056289672851562,-0.5805143713951111,-0.9279043,0.5180137,323.07662999999997,-155.44318,-20.869753,STU
47439460000000.0,1.791138768196106,-0.6118772625923157,7.39973258972168,-7.9697980880737305,-0.6335194706916809,-1.1172725000000001,0.5458081,322.8835,-154.89293999999998,-20.771494,STU
47439466000000.0,1.7961347103118896,-0.5905902981758118,7.416976451873779,-7.872137546539307,-0.685653030872345,-1.219287,0.56169057,322.73523,-154.30605,-20.720167,STU
47439474000000.0,1.8011354207992554,-0.5667625069618225,7.458503246307373,-7.771280765533447,-0.736001193523407,-1.3723087,0.5671884,322.62273999999996,-153.71622,-20.723451999999998,STU
47439480000000.0,1.8061347007751465,-0.5418096780776978,7.523306369781494,-7.669322490692139,-0.7854078412055969,-1.4358387,0.58062744,322.53638,-153.0527,-20.728647,STU
47439482000000.0,1.8111358880996704,-0.5186976790428162,7.612507343292236,-7.570497989654541,-0.8339719772338867,-1.464244,0.5833763000000001,322.46268,-152.39685,-20.75737,STU
47439487000000.0,1.8161364793777466,-0.49882280826568604,7.724254131317139,-7.47381067276001,-0.8807293176651001,-1.4483615,0.5849035,322.40332,-151.6717,-20.76225,STU
47439490000000.0,1.821136236190796,-0.4857604503631592,7.856561183929443,-7.377023220062256,-0.9262807369232178,-1.4223998,0.5766568,322.34125,-150.95032,-20.765224,STU
47439500000000.0,1.8261371850967407,-0.4797847270965576,8.00520133972168,-7.279862880706787,-0.9704951643943787,-1.3839152,0.56077427,322.29407000000003,-150.15243999999998,-20.74841,STU
47439503000000.0,1.8311383724212646,-0.4822717308998108,8.159334182739258,-7.181652545928955,-1.0123533010482788,-1.3240504,0.54458636,322.2326,-149.3715,-20.713905,STU
47439508000000.0,1.8361393213272095,-0.49286964535713196,8.31631851196289,-7.08228063583374,-1.0514272451400757,-1.2647965,0.52564955,322.1402,-148.5418,-20.675564,STU
47439510000000.0,1.841139554977417,-0.5119398236274719,8.458869934082031,-6.980529308319092,-1.0869213342666626,-1.2046263000000001,0.5002986,322.0271,-147.73807,-20.61855,STU
47439516000000.0,1.8461405038833618,-0.5390797257423401,8.587725639343262,-6.87648344039917,-1.118342638015747,-1.1511755,0.47739118,321.83942,-146.95288,-20.562372,STU
47439520000000.0,1.8511401414871216,-0.5737922191619873,8.70366096496582,-6.770322799682617,-1.1469337940216064,-1.1194104999999999,0.4456262,321.63312,-146.19118,-20.4949,STU
47439530000000.0,1.8561599254608154,-0.6158981323242188,8.806490898132324,-6.661972522735596,-1.1731221675872803,-1.0968086000000001,0.42943826,321.4547,-145.42348,-20.429276,STU
47439533000000.0,1.861160159111023,-0.6582733392715454,8.89357852935791,-6.557301998138428,-1.1965150833129883,-1.0775663,0.41325033,321.26013,-144.68413,-20.355644,STU
47439537000000.0,1.8661551475524902,-0.7010379433631897,8.965213775634766,-6.456003189086914,-1.21761953830719,-1.0488556999999998,0.41233405,321.01395,-144.0024,-20.34236,STU
47439540000000.0,1.8711543083190918,-0.7436915040016174,9.020224571228027,-6.355227947235107,-1.2374365329742432,-1.0280862,0.408058,320.76025,-143.33809,-20.320591,STU
47439545000000.0,1.876155138015747,-0.786006510257721,9.059003829956055,-6.254019737243652,-1.2555463314056396,-0.9987647,0.4111123,320.50012000000004,-142.69217,-20.280779000000003,STU
47439554000000.0,1.8811640739440918,-0.8264564275741577,9.082296371459961,-6.151216506958008,-1.2733421325683594,-0.9627235999999999,0.41447207,320.26956,-142.05823,-20.254076,STU
47439560000000.0,1.8861626386642456,-0.8642436861991882,9.091925621032715,-6.0467939376831055,-1.2907429933547974,-0.93309665,0.42058071,320.03432999999995,-141.43782,-20.2135,STU
47439562000000.0,1.8911612033843994,-0.8990077972412109,9.093657493591309,-5.938497543334961,-1.3086326122283936,-0.9233228000000001,0.43493605,319.82443,-140.82532,-20.18766,STU
47439566000000.0,1.8961610794067383,-0.9306703805923462,9.090551376342773,-5.825482368469238,-1.3271151781082153,-0.9166033000000001,0.45845437,319.6108,-140.21724,-20.1459,STU
47439570000000.0,1.9011669158935547,-0.9593620300292969,9.0850248336792,-5.708690166473389,-1.3448244333267212,-0.8970556000000001,0.47861293,319.45412999999996,-139.60411000000002,-20.10803,STU
47439580000000.0,1.906166434288025,-0.9852903485298157,9.078557968139648,-5.589235782623291,-1.3624851703643799,-0.8790351000000001,0.50946164,319.30014,-138.98584,-20.055567,STU
47439583000000.0,1.9111671447753906,-1.0082653760910034,9.072396278381348,-5.467038154602051,-1.378748893737793,-0.8713993,0.56321776,319.19363,-138.35147,-19.99379,STU
47439587000000.0,1.9161661863327026,-1.0282660722732544,9.067313194274902,-5.342353343963623,-1.392762303352356,-0.8729264000000001,0.59712076,319.08234,-137.72583,-19.921570000000003,STU
47439590000000.0,1.921164631843567,-1.045451283454895,9.064249992370605,-5.216314792633057,-1.403050184249878,-0.88086766,0.6438520000000001,319.02304,-137.0774,-19.83679,STU
47439596000000.0,1.9261643886566162,-1.0599634647369385,9.063859939575195,-5.089713096618652,-1.4088343381881714,-0.91629785,0.68019843,318.96835,-136.4474,-19.746686999999998,STU
47439604000000.0,1.9311634302139282,-1.0723779201507568,9.065546035766602,-4.963555335998535,-1.4113802909851074,-0.95539325,0.71776664,318.92896,-135.80809,-19.6423,STU
47439610000000.0,1.9361621141433716,-1.0831753015518188,9.068814277648926,-4.838626861572266,-1.4106816053390503,-0.98746365,0.7501425,318.89505,-135.19392,-19.531277,STU
47439612000000.0,1.9411600828170776,-1.0926105976104736,9.074588775634766,-4.714632987976074,-1.4076762199401855,-1.0125091,0.7651087,318.86862,-134.57565,-19.413555,STU
47439617000000.0,1.9461599588394165,-1.1010093688964844,9.084325790405273,-4.591109752655029,-1.4024544954299927,-1.0351112,0.7696901999999999,318.84573,-133.97863999999998,-19.291662,STU
47439620000000.0,1.9511598348617554,-1.107951045036316,9.102594375610352,-4.4727959632873535,-1.3961926698684692,-1.0485502,0.782213,318.8758,-133.34218,-19.184015,STU
47439625000000.0,1.9561588764190674,-1.1129881143569946,9.1342134475708,-4.3646240234375,-1.3895646333694458,-1.0326678,0.79137594,318.89617999999996,-132.72446000000002,-19.068514,STU
47439633000000.0,1.961158275604248,-1.1176722049713135,9.174783706665039,-4.264326572418213,-1.382882833480835,-1.0167851,0.8032878000000001,318.94846,-132.08115,-18.951833999999998,STU
47439638000000.0,1.9661579132080078,-1.123580813407898,9.219825744628906,-4.169620037078857,-1.3763129711151123,-0.98868537,0.81306165,318.9863,-131.45047,-18.822418,STU
47439640000000.0,1.9711534976959229,-1.1313204765319824,9.268852233886719,-4.081376552581787,-1.3699305057525635,-0.95081174,0.82436264,319.02002000000005,-130.79861,-18.669983,STU
47439646000000.0,1.9761546850204468,-1.141969919204712,9.3216552734375,-4.001158237457275,-1.3632044792175293,-0.93187493,0.8509353000000001,319.04672,-130.1589,-18.50489,STU
47439650000000.0,1.9811497926712036,-1.1556837558746338,9.376994132995605,-3.9273412227630615,-1.3558602333068848,-0.90469146,0.8549059000000001,319.0589,-129.52078,-18.327679,STU
47439660000000.0,1.986149787902832,-1.1732803583145142,9.433511734008789,-3.857701063156128,-1.3479633331298828,-0.8875871999999999,0.8555168,319.0637,-128.89428999999998,-18.139767000000003,STU
47439663000000.0,1.9911473989486694,-1.1939657926559448,9.490558624267578,-3.7909510135650635,-1.3388757705688477,-0.8781188,0.8671232,319.1001,-128.25348,-17.963182,STU
47439667000000.0,1.9961844682693481,-1.2163194417953491,9.546719551086426,-3.722524881362915,-1.328742504119873,-0.87964594,0.8713993,319.12433,-127.63056,-17.782967000000003,STU
47439670000000.0,2.0011818408966064,-1.2402456998825073,9.599254608154297,-3.6546528339385986,-1.3183679580688477,-0.9056076999999999,0.86284715,319.20437999999996,-126.99797,-17.610733,STU
47439675000000.0,2.006180763244629,-1.2674647569656372,9.643914222717285,-3.5883677005767822,-1.306755781173706,-0.93279123,0.8668178,319.27756,-126.388016,-17.431406,STU
47439684000000.0,2.0111796855926514,-1.297272801399231,9.68076229095459,-3.5252597332000732,-1.294053316116333,-0.95417154,0.84482664,319.4071,-125.76423999999999,-17.262913,STU
47439690000000.0,2.0161783695220947,-1.3283891677856445,9.709369659423828,-3.4688947200775146,-1.2811487913131714,-0.97158116,0.82863873,319.53292999999996,-125.15701000000001,-17.092427999999998,STU
47439692000000.0,2.021174430847168,-1.3600819110870361,9.730060577392578,-3.4189491271972656,-1.2679879665374756,-0.99387777,0.78801614,319.69507000000004,-124.57125,-16.94825,STU
47439696000000.0,2.0261735916137695,-1.3895454406738281,9.742355346679688,-3.3754465579986572,-1.2542425394058228,-0.9801333000000001,0.763887,319.84167,-124.00375,-16.798239000000002,STU
47439700000000.0,2.031172037124634,-1.4155606031417847,9.74666690826416,-3.3357768058776855,-1.2406437397003174,-0.98746365,0.7516696999999999,320.0105,-123.46399,-16.675741,STU
47439710000000.0,2.036170482635498,-1.4349150657653809,9.743077278137207,-3.2941455841064453,-1.2262721061706543,-1.0067059,0.74372846,320.1661,-122.9489,-16.554743,STU
47439713000000.0,2.041167736053467,-1.4473813772201538,9.73183536529541,-3.2508223056793213,-1.2114619016647339,-1.0393872,0.73914695,320.33536000000004,-122.45645,-16.442444000000002,STU
47439717000000.0,2.0461692810058594,-1.4497448205947876,9.712016105651855,-3.2066617012023926,-1.1981245279312134,-1.1004738,0.7657196,320.51093,-121.969574,-16.327765,STU
47439720000000.0,2.0511674880981445,-1.4433284997940063,9.68455982208252,-3.162384033203125,-1.1857258081436157,-1.1716396,0.782213,320.71155,-121.48592,-16.214415,STU
47439726000000.0,2.056166648864746,-1.4308934211730957,9.650792121887207,-3.120701789855957,-1.173890233039856,-1.2198978999999999,0.78801614,320.91412,-121.00918600000001,-16.099042999999998,STU
47439734000000.0,2.0611796379089355,-1.4126592874526978,9.610801696777344,-3.081620216369629,-1.1641016006469727,-1.2742649,0.80970186,321.10654,-120.53177,-15.968357999999998,STU
47439740000000.0,2.0662178993225098,-1.3923596143722534,9.56686782836914,-3.0473825931549072,-1.1557135581970215,-1.2901474,0.84482664,321.2936,-120.064644,-15.831239000000002,STU
47439743000000.0,2.0712320804595947,-1.370841145515442,9.520390510559082,-3.01709246635437,-1.1494327783584595,-1.2513573999999998,0.88331115,321.5064,-119.57802,-15.679513,STU
47439747000000.0,2.076232433319092,-1.3529456853866577,9.475264549255371,-2.9868409633636475,-1.1443819999694824,-1.1823297,0.9138544,321.70633,-119.09798400000001,-15.516594,STU
47439750000000.0,2.081223249435425,-1.3385162353515625,9.431401252746582,-2.9566028118133545,-1.1394538879394531,-1.094976,0.93828905,321.91476,-118.61357,-15.338223000000001,STU
47439755000000.0,2.086219310760498,-1.3316885232925415,9.390868186950684,-2.9260199069976807,-1.1340396404266357,-0.98899084,0.9602801999999999,322.09055,-118.13463,-15.140904999999998,STU
47439763000000.0,2.091214895248413,-1.3329037427902222,9.353981018066406,-2.895085096359253,-1.1279698610305786,-0.9388999,0.97494096,322.2484,-117.66521499999999,-14.934970999999999,STU
47439768000000.0,2.0962119102478027,-1.3432049751281738,9.322043418884277,-2.859502077102661,-1.1217840909957886,-0.8338310999999999,0.97402465,322.3932,-117.19298,-14.713994,STU
47439770000000.0,2.1012113094329834,-1.362583041191101,9.295263290405273,-2.818164110183716,-1.1147234439849854,-0.7339545999999999,0.9718866,322.51617000000005,-116.7366,-14.485232,STU
47439776000000.0,2.106208324432373,-1.3901853561401367,9.274680137634277,-2.7703769207000732,-1.1082018613815308,-0.6273586,0.95478237,322.64108,-116.27861000000001,-14.264892000000001,STU
47439780000000.0,2.11120867729187,-1.4256706237792969,9.260696411132812,-2.715782403945923,-1.1029068231582642,-0.5403103,0.9242391,322.73215,-115.83519,-14.041262,STU
47439790000000.0,2.1162116527557373,-1.4672560691833496,9.251788139343262,-2.659256935119629,-1.099196195602417,-0.4569272,0.8912524,322.8257,-115.380974,-13.83032,STU
47439793000000.0,2.1212077140808105,-1.5140485763549805,9.247283935546875,-2.602032423019409,-1.0965784788131714,-0.37690386,0.86651236,322.88568,-114.93733,-13.617901999999999,STU
47439797000000.0,2.1262047290802,-1.5659267902374268,9.245081901550293,-2.5456202030181885,-1.094783902168274,-0.2968805,0.8405505999999999,322.98465,-114.46184,-13.417919,STU
47439800000000.0,2.131202220916748,-1.6225594282150269,9.243265151977539,-2.4914088249206543,-1.0940454006195068,-0.21685717,0.81122905,323.0508,-113.9953,-13.218660999999999,STU
47439805000000.0,2.1362075805664062,-1.6783381700515747,9.239352226257324,-2.4412591457366943,-1.093085765838623,-0.12736541,0.782213,323.1202,-113.53031000000001,-13.033372,STU
47439814000000.0,2.1412034034729004,-1.7301758527755737,9.232258796691895,-2.395960807800293,-1.0917378664016724,-0.031154128,0.7443393,323.1551,-113.07767,-12.851414,STU
47439820000000.0,2.146200656890869,-1.7751164436340332,9.221603393554688,-2.3544809818267822,-1.0888665914535522,0.074830994,0.7141015000000001,323.18314,-112.645676,-12.682636,STU
47439822000000.0,2.1511971950531006,-1.8113605976104736,9.207314491271973,-2.3159992694854736,-1.0839834213256836,0.1518,0.68936145,323.18417,-112.2323,-12.518013,STU
47439826000000.0,2.1561954021453857,-1.8388476371765137,9.188655853271484,-2.2817487716674805,-1.0772607326507568,0.19272798,0.6740898,323.1787,-111.83753,-12.353218,STU
47439830000000.0,2.161198616027832,-1.857692003250122,9.165299415588379,-2.252293586730957,-1.0693825483322144,0.20311269,0.64843345,323.15308,-111.46333999999999,-12.195571000000001,STU
47439840000000.0,2.1661999225616455,-1.8681541681289673,9.139522552490234,-2.2255208492279053,-1.060475468635559,0.21899518,0.6246096999999999,323.10427999999996,-111.10441000000002,-12.025222,STU
47439843000000.0,2.1711976528167725,-1.870444416999817,9.112909317016602,-2.1999292373657227,-1.0513757467269897,0.25076020000000004,0.6053675000000001,323.04303,-110.75903999999998,-11.8603525,STU
47439847000000.0,2.176196575164795,-1.8642466068267822,9.087257385253906,-2.1762402057647705,-1.041898250579834,0.32559118,0.5888741,322.9852,-110.41957,-11.680533,STU
47439850000000.0,2.1811959743499756,-1.8494247198104858,9.064289093017578,-2.155130386352539,-1.0311353206634521,0.38728857,0.5720753000000001,322.9172,-110.09697,-11.506665,STU
47439856000000.0,2.186192750930786,-1.8259048461914062,9.042571067810059,-2.136946439743042,-1.018390417098999,0.4334089,0.5494733,322.84783999999996,-109.768974,-11.311217999999998,STU
47439864000000.0,2.191190242767334,-1.793548583984375,9.021025657653809,-2.121946334838867,-1.0048598051071167,0.4538729,0.5393939999999999,322.7651,-109.45093999999999,-11.116566,STU
47439870000000.0,2.1961889266967773,-1.7525547742843628,8.999367713928223,-2.1097702980041504,-0.9910410642623901,0.4578435,0.5338961999999999,322.69208,-109.12603999999999,-10.895862,STU
47439873000000.0,2.2011866569519043,-1.7032004594802856,8.977320671081543,-2.100043535232544,-0.9762333631515503,0.42607849999999997,0.53023106,322.61947999999995,-108.81806,-10.681813,STU
47439877000000.0,2.2062032222747803,-1.6461381912231445,8.955099105834961,-2.0895543098449707,-0.9599359631538391,0.36621370000000003,0.5216789000000001,322.56964,-108.498856,-10.445565,STU
47439880000000.0,2.211207151412964,-1.5836420059204102,8.933093070983887,-2.0759918689727783,-0.9441652894020081,0.2883284,0.51893,322.52985,-108.184525,-10.216346000000001,STU
47439885000000.0,2.2162063121795654,-1.5170376300811768,8.910764694213867,-2.06105637550354,-0.9296257495880127,0.19181168,0.50854534,322.52985,-107.85961,-9.967511,STU
47439893000000.0,2.221203327178955,-1.4477304220199585,8.887625694274902,-2.0464165210723877,-0.9162842631340027,0.09773844,0.5006041,322.54535,-107.54271999999999,-9.728744,STU
47439898000000.0,2.226201057434082,-1.376822829246521,8.865360260009766,-2.0328869819641113,-0.9042234420776367,0.01038471,0.49693888,322.58867999999995,-107.19741,-9.472536,STU
47439900000000.0,2.231198310852051,-1.305592656135559,8.845819473266602,-2.021360158920288,-0.8928053975105286,-0.06291912,0.49877146,322.64716,-106.86067,-9.227159,STU
47439906000000.0,2.236199140548706,-1.2358918190002441,8.828368186950684,-2.0102624893188477,-0.8811820149421692,-0.13988814,0.48349985,322.73812999999996,-106.512474,-8.981439,STU
47439910000000.0,2.2411959171295166,-1.1696605682373047,8.812336921691895,-1.9980415105819702,-0.8704221844673157,-0.21930063,0.46395215,322.84204,-106.168015,-8.745883000000001,STU
47439920000000.0,2.2461907863616943,-1.1078839302062988,8.800117492675781,-1.9840450286865234,-0.8608380556106567,-0.30665436,0.43890667,322.95395,-105.83171999999999,-8.514239,STU
47439923000000.0,2.251188039779663,-1.0519827604293823,8.79500675201416,-1.9673501253128052,-0.8530343174934387,-0.38698313,0.41966440000000005,323.078,-105.50121999999999,-8.295156500000001,STU
47439927000000.0,2.256199598312378,-1.0021617412567139,8.796419143676758,-1.9488755464553833,-0.846964955329895,-0.46670106,0.40439278,323.2173,-105.17268,-8.089174,STU
47439930000000.0,2.2611992359161377,-0.9618449807167053,8.798489570617676,-1.938234567642212,-0.8423095941543579,-0.5140431,0.39858958,323.36163,-104.84905,-7.8924009999999996,STU
47439935000000.0,2.266200542449951,-0.9308213591575623,8.801407814025879,-1.9352366924285889,-0.8379999995231628,-0.5329799,0.408058,323.56772,-104.49537,-7.696967599999999,STU
47439944000000.0,2.27119779586792,-0.9075392484664917,8.808369636535645,-1.9372271299362183,-0.8332527279853821,-0.5421429,0.42027529999999996,323.7737,-104.15077,-7.5079899999999995,STU
47439950000000.0,2.276195526123047,-0.8916824460029602,8.819225311279297,-1.944016456604004,-0.8280259370803833,-0.5326744999999999,0.43463063,323.97964,-103.84778,-7.3438,STU
47439952000000.0,2.2811930179595947,-0.8848026394844055,8.835634231567383,-1.9528459310531616,-0.8218731880187988,-0.5109888,0.44929138,324.17606,-103.55696999999999,-7.179177799999999,STU
47439956000000.0,2.286190986633301,-0.8875325322151184,8.858357429504395,-1.9622318744659424,-0.8144206404685974,-0.4908302,0.464563,324.36217999999997,-103.277695,-7.0132710000000005,STU
47439960000000.0,2.2911884784698486,-0.8990071415901184,8.887450218200684,-1.9683254957199097,-0.8049399256706238,-0.48502702,0.4700608,324.58005,-103.02561999999999,-6.8681350000000005,STU
47439970000000.0,2.296186923980713,-0.9186351299285889,8.922835350036621,-1.9692506790161133,-0.7945971488952637,-0.462425,0.4728097,324.77948,-102.78219,-6.720915,STU
47439973000000.0,2.3011844158172607,-0.9444392323493958,8.963879585266113,-1.9647507667541504,-0.7823151350021362,-0.4343252,0.48563787,324.9818,-102.57016999999999,-6.5997577000000005,STU
47439977000000.0,2.306182384490967,-0.9741845726966858,9.010011672973633,-1.9543348550796509,-0.7675461173057556,-0.3839288,0.47891834,325.1628,-102.37689,-6.4839997,STU
47439980000000.0,2.311184883117676,-1.003490924835205,9.059391021728516,-1.9423660039901733,-0.7511876821517944,-0.3136793,0.48288897,325.34122,-102.18467,-6.385543,STU
47439986000000.0,2.316187620162964,-1.0297136306762695,9.11070442199707,-1.9315422773361206,-0.7339431047439575,-0.22602014,0.49021935,325.4935,-102.010796,-6.287121,STU
47439994000000.0,2.32118558883667,-1.052910327911377,9.161506652832031,-1.9226762056350708,-0.7158107757568359,-0.13683382,0.50335294,325.6198,-101.84209,-6.1937604,STU
47440000000000.0,2.326185941696167,-1.0731059312820435,9.210357666015625,-1.9162994623184204,-0.697782039642334,-0.048258353,0.50854534,325.71637000000004,-101.6826,-6.0985584,STU
47440003000000.0,2.3311843872070312,-1.0883591175079346,9.2552490234375,-1.908474087715149,-0.6800467371940613,0.022296581,0.5170974,325.81653,-101.51406,-5.9865932,STU
47440007000000.0,2.3361825942993164,-1.0971897840499878,9.29468822479248,-1.8962210416793823,-0.663110077381134,0.054367005999999996,0.52442783,325.89825,-101.35159,-5.8738856,STU
47440010000000.0,2.3411808013916016,-1.1006615161895752,9.325922012329102,-1.880911111831665,-0.6467505097389221,0.057726767000000005,0.52748215,325.9726,-101.19185999999999,-5.757333,STU
47440015000000.0,2.3461804389953613,-1.0996277332305908,9.346850395202637,-1.863621473312378,-0.6316371560096741,0.050396382999999996,0.50762904,326.03643999999997,-101.03654499999999,-5.647059,STU
47440024000000.0,2.3511786460876465,-1.093329668045044,9.359085083007812,-1.8439677953720093,-0.6160270571708679,0.040011674,0.48685959999999995,326.10013,-100.868095,-5.5181518,STU
47440028000000.0,2.3561806678771973,-1.0810118913650513,9.36380386352539,-1.821548342704773,-0.6004838347434998,0.01863139,0.45265114,326.16364,-100.70532,-5.4025644999999995,STU
47440030000000.0,2.3611831665039062,-1.0618982315063477,9.363611221313477,-1.7995710372924805,-0.5859968066215515,-0.020463986,0.41722095,326.2266,-100.54103,-5.286048,STU
47440036000000.0,2.3661856651306152,-1.0352349281311035,9.360810279846191,-1.7809070348739624,-0.5722655653953552,-0.05161811400000001,0.40500367,326.28943,-100.387436,-5.175962,STU
47440040000000.0,2.3711836338043213,-1.0030819177627563,9.357702255249023,-1.764965295791626,-0.5607962012290955,-0.08552113,0.41538838,326.37457,-100.20099,-5.053116999999999,STU
47440050000000.0,2.3761842250823975,-0.9683606624603271,9.35823917388916,-1.750943660736084,-0.5514029860496521,-0.12156218,0.40194935,326.4634,-100.02497,-4.9445505,STU
47440053000000.0,2.381182909011841,-0.9331876039505005,9.36466121673584,-1.7388794422149658,-0.5438451170921326,-0.16462818,0.38912117,326.5567,-99.8348,-4.809749,STU
47440057000000.0,2.386181354522705,-0.9001275897026062,9.380044937133789,-1.7288897037506104,-0.5389525890350342,-0.1872302,0.38759398,326.64977999999996,-99.639,-4.679187000000001,STU
47440060000000.0,2.391207218170166,-0.8695317506790161,9.406676292419434,-1.7207731008529663,-0.5344998240470886,-0.22052236,0.38759398,326.75977,-99.43843000000001,-4.544829,STU
47440065000000.0,2.3962059020996094,-0.841799795627594,9.44446849822998,-1.7138290405273438,-0.5309029221534729,-0.2452624,0.3820962,326.86847,-99.23210999999999,-4.415922599999999,STU
47440074000000.0,2.401198387145996,-0.8173486590385437,9.493757247924805,-1.706913709640503,-0.5276930332183838,-0.26450464,0.40347649999999996,326.99686,-99.024315,-4.275441000000001,STU
47440080000000.0,2.4061973094940186,-0.7967953681945801,9.554430961608887,-1.6982910633087158,-0.5240519642829895,-0.29932398,0.41325033,327.13068,-98.826035,-4.144534999999999,STU
47440082000000.0,2.41119384765625,-0.7797483205795288,9.625848770141602,-1.6874033212661743,-0.5198724269866943,-0.34605515,0.42424592,327.2683,-98.62442,-4.01585,STU
47440086000000.0,2.416198492050171,-0.7659547328948975,9.708573341369629,-1.673187494277954,-0.5144832134246826,-0.38056904,0.44379359999999995,327.4077,-98.43301,-3.8860282999999995,STU
47440090000000.0,2.4211909770965576,-0.7560831308364868,9.804322242736816,-1.656457543373108,-0.5083557367324829,-0.3979787,0.4392121,327.5597,-98.24075,-3.7628622000000003,STU
47440100000000.0,2.4261937141418457,-0.7519102096557617,9.919655799865723,-1.637680172920227,-0.5010247826576233,-0.39492437,0.43768495,327.71075,-98.06141,-3.6373875,STU
47440103000000.0,2.4311892986297607,-0.7528159618377686,10.052021026611328,-1.6171443462371826,-0.4933519959449768,-0.3652974,0.43585235,327.86118,-97.87236999999999,-3.5153093,STU
47440107000000.0,2.436187982559204,-0.7587153315544128,10.201395988464355,-1.5948381423950195,-0.48413485288619995,-0.31001409999999996,0.42363504,327.99744,-97.7047,-3.3991580000000003,STU
47440110000000.0,2.4411869049072266,-0.7692943215370178,10.366644859313965,-1.5708832740783691,-0.47202321887016296,-0.24007004,0.4098906,328.1252,-97.55261,-3.28156,STU
47440116000000.0,2.4461865425109863,-0.7844932675361633,10.531285285949707,-1.5457980632781982,-0.4569597542285919,-0.15974127,0.37965274,328.22852,-97.42029000000001,-3.1733384,STU
47440124000000.0,2.4511890411376953,-0.8041282296180725,10.693521499633789,-1.5196764469146729,-0.43862971663475037,-0.10476339,0.34788775,328.31453999999997,-97.313416,-3.0712366,STU
47440130000000.0,2.4561874866485596,-0.8278329968452454,10.853323936462402,-1.492632508277893,-0.417532742023468,-0.062002823,0.31215215,328.37665,-97.21136,-2.996875,STU
47440133000000.0,2.4612464904785156,-0.8566460609436035,11.012347221374512,-1.4641474485397339,-0.39370235800743103,-0.023518313,0.2724459,328.42084,-97.13792,-2.933251,STU
47440137000000.0,2.4662466049194336,-0.8826818466186523,11.1605863571167,-1.4360774755477905,-0.3674795627593994,0.022296581,0.24098633,328.44818,-97.087975,-2.877713,STU
47440140000000.0,2.47123646736145,-0.9057344794273376,11.29800033569336,-1.4081737995147705,-0.3393336832523346,0.070554934,0.20922135,328.4614,-97.0619,-2.8337789,STU
47440150000000.0,2.4762399196624756,-0.9185196161270142,11.423341751098633,-1.3867474794387817,-0.3097415566444397,0.11698069400000001,0.18570304,328.48645,-97.04898,-2.81617,STU
47440154000000.0,2.4812307357788086,-0.9216869473457336,11.537535667419434,-1.3716367483139038,-0.27918723225593567,0.13591751,0.15760323,328.50388,-97.05540500000001,-2.8086824,STU
47440158000000.0,2.486229419708252,-0.9134262800216675,11.6422700881958,-1.3674910068511963,-0.2491218000650406,0.17745635,0.13164146,328.50638,-97.06238,-2.8013209999999997,STU
47440160000000.0,2.491224765777588,-0.8944818377494812,11.738456726074219,-1.3741958141326904,-0.21855886280536652,0.21838433,0.11453723,328.50302,-97.08881,-2.7990859,STU
47440166000000.0,2.496222496032715,-0.8673155307769775,11.826654434204102,-1.3932067155838013,-0.18703661859035492,0.2742785,0.093767814,328.4778,-97.12665600000001,-2.7801473,STU
47440170000000.0,2.5012171268463135,-0.8330401182174683,11.90738296508789,-1.4240398406982422,-0.1549968272447586,0.33444872,0.05100725,328.4391,-97.17645,-2.7714665000000003,STU
47440180000000.0,2.506213665008545,-0.7929425835609436,11.982294082641602,-1.464226245880127,-0.1235576719045639,0.40256020000000003,0.0021380284,328.3966,-97.242065,-2.7358568,STU
47440183000000.0,2.5112178325653076,-0.7474425435066223,12.051996231079102,-1.512972116470337,-0.09234531223773956,0.43463063,-0.055588737,328.34653,-97.32386,-2.715261,STU
47440187000000.0,2.5162203311920166,-0.6965115666389465,12.117767333984375,-1.5689678192138672,-0.06121744215488434,0.45020768,-0.11178834,328.2854,-97.42888,-2.6911110000000003,STU
47440190000000.0,2.521216630935669,-0.6403231024742126,12.180274963378906,-1.6314003467559814,-0.031227586790919304,0.44868052,-0.16584991,328.21985,-97.53834,-2.682887,STU
47440195000000.0,2.526214361190796,-0.5791101455688477,12.237899780273438,-1.7039377689361572,-0.0019407188519835472,0.42913285,-0.21197024,328.1482,-97.68288000000001,-2.6680872000000004,STU
47440204000000.0,2.531221628189087,-0.5130143165588379,12.289545059204102,-1.7891905307769775,0.026452740654349327,0.41905355,-0.25534168,328.07434,-97.829865,-2.6676817,STU
47440210000000.0,2.536217451095581,-0.44685283303260803,12.333559036254883,-1.8848626613616943,0.055758360773324966,0.43371433,-0.28955013,327.9858,-98.00619,-2.6600354,STU
47440212000000.0,2.541213274002075,-0.3815130889415741,12.369573593139648,-1.9909238815307617,0.08498343825340271,0.41691554,-0.3304781,327.90906,-98.18146,-2.6678421,STU
47440216000000.0,2.546211004257202,-0.3206527531147003,12.396686553955078,-2.102924108505249,0.11587394773960114,0.37048978,-0.37415496,327.82693,-98.40903,-2.6723137,STU
47440220000000.0,2.5512073040008545,-0.2656486928462982,12.414889335632324,-2.218660354614258,0.14965960383415222,0.31123585,-0.4269948,327.75278,-98.65021,-2.6914472999999997,STU
47440230000000.0,2.556203842163086,-0.2162024825811386,12.424616813659668,-2.337984323501587,0.18722786009311676,0.24312437,-0.5015204000000001,327.6943,-98.95524,-2.7259915,STU
47440233000000.0,2.5612051486968994,-0.1720641702413559,12.426189422607422,-2.460876703262329,0.2300374060869217,0.1441642,-0.58184916,327.65942,-99.29037,-2.7795297999999997,STU
47440237000000.0,2.5662097930908203,-0.13569308817386627,12.417086601257324,-2.5800681114196777,0.27717411518096924,0.043066,-0.67103547,327.63842999999997,-99.64941999999999,-2.8605561,STU
47440240000000.0,2.571206569671631,-0.10797504335641861,12.396660804748535,-2.6917498111724854,0.32894453406333923,-0.07544186,-0.768163,327.64624,-100.04762,-2.9698756,STU
47440246000000.0,2.5762038230895996,-0.09113521873950958,12.363155364990234,-2.794098138809204,0.3849064111709595,-0.15577064,-0.8481864,327.66925,-100.543846,-3.1207056,STU
47440254000000.0,2.5812013149261475,-0.08736071735620499,12.315034866333008,-2.8851726055145264,0.44439685344696045,-0.16737708,-0.9410379000000001,327.69872999999995,-101.07341,-3.3013462999999996,STU
47440260000000.0,2.5861976146698,-0.09540941566228867,12.25430679321289,-2.958756923675537,0.5040374398231506,-0.2049453,-0.98563105,327.76007000000004,-101.62626999999999,-3.5151550000000005,STU
47440263000000.0,2.5911946296691895,-0.11431208997964859,12.182523727416992,-3.0098655223846436,0.5678244233131409,-0.26969699999999996,-1.0879510000000001,327.8214,-102.234634,-3.7692046,STU
47440267000000.0,2.5961925983428955,-0.14332959055900574,12.102203369140625,-3.036593437194824,0.6345276832580566,-0.32131509999999996,-1.1743883999999998,327.8966,-102.853165,-4.0634522,STU
47440270000000.0,2.601189613342285,-0.18166357278823853,12.0158052444458,-3.0373921394348145,0.7044963240623474,-0.3857614,-1.2883148000000002,327.98287999999997,-103.51189000000001,-4.3937488,STU
47440275000000.0,2.606187105178833,-0.22771072387695312,11.925274848937988,-3.01340913772583,0.7764983177185059,-0.46578476,-1.3826935,328.10452000000004,-104.15875,-4.775772,STU
47440284000000.0,2.611189603805542,-0.28001049160957336,11.832446098327637,-2.965376138687134,0.850392758846283,-0.55955255,-1.4767667,328.2384,-104.839836,-5.189435,STU
47440288000000.0,2.616194725036621,-0.33538076281547546,11.742469787597656,-2.897615671157837,0.925346314907074,-0.6789767,-1.5690073999999998,328.44156,-105.4782,-5.665966,STU
47440290000000.0,2.6211929321289062,-0.39119040966033936,11.659322738647461,-2.8142552375793457,0.9993817806243896,-0.768163,-1.6496416,328.65518,-106.13517,-6.164575,STU
47440296000000.0,2.6261913776397705,-0.4449111521244049,11.586369514465332,-2.7176027297973633,1.0713762044906616,-0.86559606,-1.7110336,328.92252,-106.75258999999998,-6.719258,STU
47440300000000.0,2.6311895847320557,-0.4911585748195648,11.530864715576172,-2.6125409603118896,1.1397128105163574,-0.9621128000000001,-1.7507398,329.20886,-107.37758999999998,-7.2905273,STU
47440310000000.0,2.6361868381500244,-0.5280465483665466,11.493439674377441,-2.5046920776367188,1.2031054496765137,-1.0512991000000003,-1.7696766,329.50925,-107.96896000000001,-7.8772974,STU
47440313000000.0,2.641185760498047,-0.5530202984809875,11.47535514831543,-2.4008052349090576,1.2595875263214111,-1.1261301000000001,-1.7620409,329.83044,-108.54784,-8.467029,STU
47440317000000.0,2.6461801528930664,-0.5654866695404053,11.475205421447754,-2.305372953414917,1.3077367544174194,-1.1597277,-1.7363845000000002,330.13068,-109.08436999999999,-9.027199000000001,STU
47440320000000.0,2.651177167892456,-0.5637437105178833,11.49251651763916,-2.2246642112731934,1.3469555377960205,-1.1301007,-1.6951511000000001,330.4353,-109.59183,-9.574405,STU
47440326000000.0,2.6561708450317383,-0.5488477349281311,11.522165298461914,-2.1588134765625,1.377133846282959,-1.0607674999999999,-1.6230688999999998,330.7243,-110.02906999999999,-10.056442,STU
47440334000000.0,2.6611688137054443,-0.5211504101753235,11.558794021606445,-2.1088085174560547,1.3977605104446411,-0.9596693000000001,-1.5552629,330.9981,-110.42341599999999,-10.515741,STU
47440340000000.0,2.666163444519043,-0.4828665554523468,11.598530769348145,-2.0707879066467285,1.4103050231933594,-0.82741696,-1.4932601,331.2149,-110.76359,-10.897121,STU
47440342000000.0,2.6711604595184326,-0.4362355172634125,11.635896682739258,-2.039860486984253,1.4165652990341187,-0.7104363,-1.4712688999999999,331.40878,-111.06705,-11.257049,STU
47440346000000.0,2.6761555671691895,-0.38260260224342346,11.666058540344238,-2.0122907161712646,1.4204246997833252,-0.659429,-1.4773777,331.55234,-111.34778,-11.550025,STU
47440350000000.0,2.6811602115631104,-0.32336753606796265,11.679487228393555,-1.9815754890441895,1.4233133792877197,-0.56382865,-1.484708,331.65247,-111.6031,-11.8184805,STU
47440360000000.0,2.6861584186553955,-0.25890156626701355,11.678422927856445,-1.9501396417617798,1.4259992837905884,-0.516792,-1.5109752,331.71805,-111.853874,-12.061556,STU
47440363000000.0,2.691157102584839,-0.1883174479007721,11.664449691772461,-1.9226537942886353,1.4295512437820435,-0.49785519999999994,-1.5314392,331.76572000000004,-112.10269,-12.295167,STU
47440367000000.0,2.696157455444336,-0.11220618337392807,11.638399124145508,-1.8998464345932007,1.4339067935943604,-0.46944994,-1.5512923,331.79202000000004,-112.343056,-12.511483,STU
47440370000000.0,2.701155185699463,-0.036105912178754807,11.604567527770996,-1.8963230848312378,1.4387953281402588,-0.37079520000000005,-1.5659530000000002,331.79355,-112.5851,-12.719911999999999,STU
47440376000000.0,2.7061543464660645,0.03953719139099121,11.56358814239502,-1.9111155271530151,1.4434070587158203,-0.21074851,-1.5656476000000001,331.75928,-112.82585,-12.894730000000001,STU
47440384000000.0,2.7111551761627197,0.11241407692432404,11.517455101013184,-1.9423235654830933,1.4485706090927124,-0.046731193,-1.5690073999999998,331.69723999999997,-113.07095,-13.061371000000001,STU
47440390000000.0,2.7161917686462402,0.18274253606796265,11.46666431427002,-1.9900023937225342,1.454012393951416,0.10567969,-1.564426,331.5629,-113.35761000000001,-13.194246,STU
47440393000000.0,2.721189022064209,0.2501363456249237,11.41573429107666,-2.0461204051971436,1.457699179649353,0.22143865,-1.5515976999999999,331.39825,-113.63049,-13.310542000000002,STU
47440397000000.0,2.7262094020843506,0.31423667073249817,11.363369941711426,-2.114236354827881,1.4615638256072998,0.2773328,-1.5238034,331.1869,-113.95313999999999,-13.404698999999999,STU
47440400000000.0,2.7312066555023193,0.36705470085144043,11.304132461547852,-2.2038941383361816,1.4674688577651978,0.32650748,-1.4972308,330.95187000000004,-114.26768,-13.481938000000001,STU
47440405000000.0,2.7361984252929688,0.4086688756942749,11.23774528503418,-2.3156185150146484,1.4756146669387817,0.39064834,-1.4822645,330.6834,-114.61107,-13.539979,STU
47440414000000.0,2.741194486618042,0.43833112716674805,11.172340393066406,-2.428131341934204,1.4861912727355957,0.46944994,-1.4831808000000002,330.4038,-114.95616000000001,-13.585582,STU
47440418000000.0,2.7461931705474854,0.45659682154655457,11.108871459960938,-2.538780927658081,1.4980922937393188,0.5699373000000001,-1.4810427,330.1081,-115.29739,-13.614633,STU
47440420000000.0,2.7511963844299316,0.4614013135433197,11.045129776000977,-2.634382486343384,1.5107264518737793,0.66614854,-1.4999796,329.70428,-115.77058999999998,-13.678668,STU
47440426000000.0,2.756192684173584,0.4537546932697296,10.98110294342041,-2.7149951457977295,1.5239732265472412,0.75900006,-1.5015068,329.28182999999996,-116.23964,-13.722698999999999,STU
47440430000000.0,2.76119327545166,0.42745596170425415,10.919126510620117,-2.775294542312622,1.5368558168411255,0.8481864,-1.5109752,328.83258,-116.73626999999999,-13.794959,STU
47440440000000.0,2.7661921977996826,0.3818284571170807,10.8599214553833,-2.8148393630981445,1.5484658479690552,0.945314,-1.5393803999999998,328.36032,-117.227066,-13.856359,STU
47440443000000.0,2.771188974380493,0.31761226058006287,10.802764892578125,-2.8391273021698,1.55807363986969,1.0665708,-1.5745052,327.88608,-117.70822,-13.96025,STU
47440447000000.0,2.7761902809143066,0.23521845042705536,10.74741268157959,-2.849458932876587,1.5648905038833618,1.1404854,-1.6136005,327.40292,-118.175354,-14.061264999999999,STU
47440450000000.0,2.7811880111694336,0.13761430978775024,10.691303253173828,-2.847205400466919,1.569260597229004,1.294118,-1.6404786,326.87122,-118.63243,-14.242344000000001,STU
47440460000000.0,2.78621506690979,0.02366619184613228,10.633147239685059,-2.8316409587860107,1.572844386100769,1.4410311000000002,-1.6719381999999998,326.3292,-119.07891000000001,-14.418809,STU
47440464000000.0,2.7912111282348633,-0.0985713005065918,10.571246147155762,-2.813385009765625,1.5770022869110107,1.4410311000000002,-1.6829338,325.8116,-119.52002,-14.699122000000001,STU
47440470000000.0,2.796203136444092,-0.22948525846004486,10.504382133483887,-2.7939701080322266,1.581312894821167,1.3909402,-1.6975945,325.28168,-119.948105,-14.965648000000002,STU
47440472000000.0,2.8011996746063232,-0.3603290915489197,10.432146072387695,-2.7867579460144043,1.5863866806030273,1.2782356000000001,-1.7085901000000001,324.7663,-120.40736399999999,-15.309710999999998,STU
47440477000000.0,2.8061952590942383,-0.48922204971313477,10.354911804199219,-2.7935616970062256,1.593045711517334,1.1652255,-1.7018706000000001,324.28168,-120.85911999999999,-15.646598000000001,STU
47440480000000.0,2.811194658279419,-0.6070596575737,10.270707130432129,-2.816347122192383,1.600831151008606,1.0998629,-1.6765196,323.81273999999996,-121.34923,-16.038355,STU
47440490000000.0,2.816190004348755,-0.7109844088554382,10.17940902709961,-2.8547632694244385,1.6091783046722412,1.1071932,-1.6502525000000001,323.37054,-121.83241000000001,-16.419276999999997,STU
47440493000000.0,2.821186065673828,-0.7942498922348022,10.080997467041016,-2.9006283283233643,1.618317723274231,1.1447614,-1.6059648000000002,322.90686,-122.379364,-16.80839,STU
47440497000000.0,2.8261842727661133,-0.8560416102409363,9.97573184967041,-2.9517030715942383,1.6272305250167847,1.2107350000000001,-1.5537357,322.4537,-122.90718999999999,-17.170324,STU
47440500000000.0,2.8311829566955566,-0.8969128727912903,9.862387657165527,-3.002493381500244,1.635538101196289,1.2742649,-1.4999796,321.95355,-123.4736,-17.49147,STU
47440506000000.0,2.8361806869506836,-0.917826771736145,9.740859985351562,-3.0510849952697754,1.6416287422180176,1.3564261999999998,-1.4355333000000001,321.45685,-124.00822,-17.773722,STU
47440510000000.0,2.8411779403686523,-0.9251843094825745,9.611024856567383,-3.0963523387908936,1.6448880434036255,1.4245378,-1.3649784,320.91033999999996,-124.5392,-17.975023,STU
47440520000000.0,2.8461766242980957,-0.9216911792755127,9.473029136657715,-3.137991189956665,1.6465086936950684,1.4902058,-1.2904528,320.37067,-125.04047,-18.139997,STU
47440523000000.0,2.851175308227539,-0.9105408787727356,9.327393531799316,-3.172393560409546,1.6462687253952026,1.5900823,-1.2257011,319.77176000000003,-125.52287,-18.195583,STU
47440527000000.0,2.856196641921997,-0.893194854259491,9.173282623291016,-3.1969919204711914,1.6454230546951294,1.6420058000000002,-1.1527027,319.1957,-125.97788,-18.223345000000002,STU
47440530000000.0,2.861194133758545,-0.8760665655136108,9.014740943908691,-3.2168638706207275,1.6442480087280273,1.6859881,-1.0943651,318.57166,-126.43294499999999,-18.188005,STU
47440535000000.0,2.8661956787109375,-0.8603417873382568,8.850909233093262,-3.2327327728271484,1.6428101062774658,1.7177529999999999,-1.0332786,317.96304,-126.862526,-18.124855,STU
47440544000000.0,2.871192693710327,-0.846717357635498,8.685750961303711,-3.2442405223846436,1.6408464908599854,1.7424932,-0.9816604,317.33838,-127.28806000000002,-18.03399,STU
47440548000000.0,2.876192808151245,-0.8355645537376404,8.520915985107422,-3.251145124435425,1.6389875411987305,1.7406605,-0.9184359000000001,316.73767000000004,-127.693634,-17.922514000000003,STU
47440550000000.0,2.881190299987793,-0.8271994590759277,8.356258392333984,-3.2575948238372803,1.636820673942566,1.7183639,-0.8924741,316.12253,-128.12148,-17.821047,STU
47440556000000.0,2.8861873149871826,-0.8218604922294617,8.191462516784668,-3.2665157318115234,1.633662462234497,1.6563611,-0.8222246,315.54913,-128.52043,-17.699266,STU
47440560000000.0,2.8911855220794678,-0.8173295855522156,8.024674415588379,-3.2797162532806396,1.6294842958450317,1.6334536,-0.7507534,314.966,-128.93016,-17.588307999999998,STU
47440570000000.0,2.896191120147705,-0.8103035092353821,7.852889060974121,-3.300119161605835,1.623852252960205,1.5882497,-0.67256266,314.4301,-129.31168,-17.472366,STU
47440573000000.0,2.9012856483459473,-0.8000952005386353,7.67221212387085,-3.329709529876709,1.616518259048462,1.4746287,-0.5320636,313.92157000000003,-129.70723,-17.35797,STU
47440577000000.0,2.906282901763916,-0.788688600063324,7.49232292175293,-3.3627564907073975,1.6060429811477661,1.4398094,-0.48899764,313.41388,-130.08093,-17.2426,STU
47440580000000.0,2.911278247833252,-0.775248110294342,7.308615684509277,-3.4016740322113037,1.5941238403320312,1.3839152,-0.3930918,312.98444,-130.41812,-17.106516,STU
47440586000000.0,2.9162724018096924,-0.7600405216217041,7.123339653015137,-3.443925619125366,1.580235481262207,1.3316863,-0.30726522,312.5484,-130.7406,-16.97186,STU
47440594000000.0,2.921266555786133,-0.7437267899513245,6.943720817565918,-3.4816253185272217,1.5642061233520508,1.2678508,-0.22693644,312.1553,-131.03268,-16.830307,STU
47440600000000.0,2.926265239715576,-0.7263308763504028,6.769381046295166,-3.5149741172790527,1.5461825132369995,1.1948524999999999,-0.15057829,311.76724,-131.42099,-16.635735,STU
47440602000000.0,2.9312589168548584,-0.7083241939544678,6.601095676422119,-3.5423505306243896,1.525391936302185,1.138042,-0.08827003,311.41016,-131.77886999999998,-16.436135999999998,STU
47440607000000.0,2.936253070831299,-0.6899718046188354,6.4391679763793945,-3.5625247955322266,1.5018028020858765,1.0842858999999998,-0.03604105,311.08875,-132.1101,-16.236174,STU
47440610000000.0,2.9412498474121094,-0.6722385883331299,6.2826972007751465,-3.581824541091919,1.4761826992034912,1.0549643,0.014966198,310.77304,-132.42975,-16.025154,STU
47440620000000.0,2.9462456703186035,-0.6556983590126038,6.131094455718994,-3.604062557220459,1.4484447240829468,1.0115929,0.048258353,310.48566,-132.72208,-15.821489000000001,STU
47440623000000.0,2.951240062713623,-0.6397587060928345,5.983964920043945,-3.6290693283081055,1.418717861175537,0.95630956,0.089491755,310.21088,-132.98935,-15.616298,STU
47440627000000.0,2.95623517036438,-0.6239663362503052,5.8409318923950195,-3.6567223072052,1.3868314027786255,0.87872964,0.11698069400000001,309.96013999999997,-133.233,-15.422235999999998,STU
47440630000000.0,2.961231231689453,-0.6080520749092102,5.701606273651123,-3.6875922679901123,1.3531771898269653,0.80481493,0.14599679999999998,309.7105,-133.48674,-15.232667999999999,STU
47440636000000.0,2.9662280082702637,-0.5915902256965637,5.565518856048584,-3.7226791381835938,1.317198395729065,0.73639804,0.17409660000000002,309.4869,-133.71323999999998,-15.054196,STU
47440640000000.0,2.9712185859680176,-0.5741463303565979,5.433834075927734,-3.7620956897735596,1.2797513008117676,0.7067711,0.18203785,309.2602,-133.95306000000002,-14.876635,STU
47440650000000.0,2.9762136936187744,-0.5552487373352051,5.307312965393066,-3.8062968254089355,1.2423954010009766,0.659429,0.20983220000000002,309.066,-134.1726,-14.708364499999998,STU
47440653000000.0,2.981205940246582,-0.5371055603027344,5.187646389007568,-3.857255697250366,1.2032865285873413,0.6346890000000001,0.23090707,308.85684,-134.39755,-14.536763,STU
47440657000000.0,2.986196756362915,-0.5212012529373169,5.075883388519287,-3.916437864303589,1.1626970767974854,0.6239988000000001,0.2519819,308.6642,-134.60925,-14.36873,STU
47440660000000.0,2.9911885261535645,-0.5104535818099976,4.9720377922058105,-3.9855828285217285,1.1198595762252808,0.61361414,0.25595254,308.4651,-134.82248,-14.193260999999998,STU
47440665000000.0,2.996180295944214,-0.5068477392196655,4.87600040435791,-4.065697193145752,1.0753984451293945,0.5919284,0.25289822,308.27686,-135.01761000000002,-14.022331,STU
47440674000000.0,3.001171350479126,-0.5145457983016968,4.789422988891602,-4.155581951141357,1.0293840169906616,0.5644395000000001,0.24984388,308.0796,-135.22318,-13.857353,STU
47440678000000.0,3.0061652660369873,-0.5368539094924927,4.713569164276123,-4.254424095153809,0.9823221564292908,0.52687126,0.23487769,307.8893,-135.41111999999998,-13.704888,STU
47440680000000.0,3.011162042617798,-0.5747256278991699,4.648589134216309,-4.3587646484375,0.9343663454055786,0.5039638,0.21746802,307.67487,-135.6373,-13.589085999999998,STU
47440686000000.0,3.0161542892456055,-0.6282864212989807,4.59430456161499,-4.465525150299072,0.885238766670227,0.4718934,0.172264,307.46506,-135.84552,-13.493673000000001,STU
47440690000000.0,3.021145820617676,-0.6971592307090759,4.55017614364624,-4.5696210861206055,0.8349529504776001,0.42241332,0.12950343,307.21695,-136.10435,-13.489849,STU
47440700000000.0,3.0261404514312744,-0.7809944748878479,4.515701770782471,-4.666406631469727,0.7829684019088745,0.35491269999999997,0.07727446,306.97283999999996,-136.34076000000002,-13.506716,STU
47440703000000.0,3.031132936477661,-0.8778465986251831,4.489612102508545,-4.756315231323242,0.7290175557136536,0.29749137,0.021380282999999996,306.6861,-136.60635,-13.650179000000001,STU
47440707000000.0,3.0361270904541016,-0.9863643050193787,4.470851898193359,-4.839700222015381,0.6727657318115234,0.20250183,-0.05497787,306.4131,-136.84573,-13.822624,STU
47440710000000.0,3.0411224365234375,-1.1025593280792236,4.458661079406738,-4.91696834564209,0.6144494414329529,0.118507855,-0.113926366,305.95248,-137.17773,-14.160034,STU
47440716000000.0,3.046117067337036,-1.2210040092468262,4.452132225036621,-4.988535404205322,0.553804337978363,0.03848451,-0.16523905,305.51917000000003,-137.4689,-14.504616,STU
47440724000000.0,3.0511109828948975,-1.3387892246246338,4.4494309425354,-5.056027889251709,0.4920288622379303,-0.037873644,-0.21807889999999996,305.09517999999997,-137.75009,-14.898987,STU
47440730000000.0,3.056105375289917,-1.452796220779419,4.448623180389404,-5.121172904968262,0.4301110506057739,-0.103847094,-0.2501493,304.6985,-137.99475,-15.286504,STU
47440732000000.0,3.061100482940674,-1.560968041419983,4.447884559631348,-5.184878349304199,0.3678794503211975,-0.16187929,-0.27824909999999997,304.32764,-138.20021,-15.694885999999999,STU
47440737000000.0,3.0660958290100098,-1.6605459451675415,4.444870471954346,-5.248275279998779,0.30557864904403687,-0.18967366,-0.3023783,303.97397,-138.37938,-16.089802,STU
47440740000000.0,3.0710885524749756,-1.7507271766662598,4.438651084899902,-5.307950019836426,0.244384303689003,-0.2837469,-0.30451632,303.62344,-138.56564,-16.460995,STU
47440750000000.0,3.0760879516601562,-1.8301434516906738,4.427840709686279,-5.359521865844727,0.18161679804325104,-0.3839288,-0.28527406,303.29422,-138.70914,-16.817291,STU
47440753000000.0,3.0810813903808594,-1.897613525390625,4.412984848022461,-5.401906967163086,0.11594385653734207,-0.5369505,-0.2501493,303.00916,-138.83176,-17.172985,STU
47440758000000.0,3.0860776901245117,-1.9507042169570923,4.394264221191406,-5.432965278625488,0.04576234519481659,-0.7254025,-0.18173242,302.77533,-138.90596000000002,-17.526757999999997,STU
47440760000000.0,3.091073513031006,-1.9867233037948608,4.373581409454346,-5.454738140106201,-0.028443286195397377,-0.9251554,-0.08399397,302.5737,-138.94481000000002,-17.869253,STU
47440766000000.0,3.0960705280303955,-1.9989181756973267,4.354510307312012,-5.470511436462402,-0.10522150993347168,-1.0968086000000001,0.062002823,302.439,-138.93079,-18.203876,STU
47440770000000.0,3.1010658740997314,-1.9813013076782227,4.339815139770508,-5.499489784240723,-0.18183085322380066,-1.1640037,0.24342979999999997,302.35794,-138.84941,-18.484018,STU
47440780000000.0,3.1060633659362793,-1.9182074069976807,4.335756778717041,-5.583711624145508,-0.2541133165359497,-1.0403035,0.43768495,302.3104,-138.73656,-18.713455,STU
47440783000000.0,3.1110613346099854,-1.810651421546936,4.349289894104004,-5.750765323638916,-0.3172209560871124,-0.6908886,0.63132924,302.2634,-138.56339,-18.796991000000002,STU
47440787000000.0,3.116060256958008,-1.6574594974517822,4.394744396209717,-6.058465003967285,-0.36238089203834534,-0.13500121,0.7831292,302.17926,-138.42006999999998,-18.77545,STU
47440790000000.0,3.1210625171661377,-1.4803597927093506,4.477248668670654,-6.478086948394775,-0.3804088532924652,0.4297437,0.8384125,302.19727,-138.28049,-18.49438,STU
47440795000000.0,3.126065731048584,-1.3222657442092896,4.608229160308838,-6.955410957336426,-0.37213221192359924,0.7147123000000001,0.7290677,302.15283,-138.22366,-18.1652,STU
47440804000000.0,3.131068229675293,-1.229508638381958,4.809707164764404,-7.385546684265137,-0.34845879673957825,0.43768495,0.49205196,302.09482,-138.40295,-17.628320000000002,STU
47440808000000.0,3.136068820953369,-1.3124208450317383,5.137533664703369,-7.5272088050842285,-0.32635629177093506,-0.5131268,0.19761491,302.08768,-138.64493000000002,-17.222378,STU
47440810000000.0,3.14107084274292,-1.5636341571807861,5.586575508117676,-7.392670154571533,-0.3213997483253479,-2.0027218,-0.083383106,302.1858,-138.93646,-17.003883,STU
47440816000000.0,3.1460764408111572,-1.8365452289581299,6.099836349487305,-7.1750288009643555,-0.3438091576099396,-3.4040464999999998,-0.3036,302.4103,-139.17946,-17.028848999999997,STU
47440820000000.0,3.151075601577759,-2.101837635040283,6.657215118408203,-6.918106555938721,-0.39862075448036194,-3.9785654999999998,-0.36285394,302.74036,-139.3072,-17.222069,STU
47440830000000.0,3.1560776233673096,-2.263514757156372,7.185116291046143,-6.760502815246582,-0.48607727885246277,-3.3347135000000003,-0.19181168,303.20153999999997,-138.50064,-17.957577,STU
47440833000000.0,3.1610829830169678,-2.326903820037842,7.685111045837402,-6.697110652923584,-0.5980420112609863,-1.7214183,0.18570304,303.65903,-137.32399999999998,-18.521236,STU
47440837000000.0,3.1660823822021484,-2.3054604530334473,8.11301040649414,-6.739404678344727,-0.7161176204681396,-0.8741482,0.48105640000000005,304.14943999999997,-136.11401,-19.0484,STU
47440840000000.0,3.171081066131592,-2.20322847366333,8.461954116821289,-6.887921333312988,-0.8266147375106812,0.47433686,0.54000485,304.18453999999997,-134.86807,-19.104729000000003,STU
47440846000000.0,3.1760871410369873,-2.084329605102539,8.720983505249023,-7.029922008514404,-0.9163945317268372,1.2507466,0.57848936,304.0027,-133.74403,-18.779204999999997,STU
47440854000000.0,3.181124448776245,-1.9629846811294556,8.885303497314453,-7.138805866241455,-0.972090482711792,1.3509285,0.59131753,303.65598,-132.72922,-18.333778,STU
47440860000000.0,3.1861250400543213,-1.876900553703308,8.96935749053955,-7.161282539367676,-0.994021475315094,0.8145888000000001,0.5839871999999999,303.35727,-131.96829,-17.715086,STU
47440862000000.0,3.191127300262451,-1.840051293373108,8.963472366333008,-7.0699849128723145,-0.9961786866188049,-0.070249505,0.5131268,303.1085,-131.32156,-17.179903,STU
47440867000000.0,3.1961288452148438,-1.8298627138137817,8.903814315795898,-6.912798881530762,-0.9945422410964966,-0.979217,0.40439278,303.01022,-130.86223,-16.816025,STU
47440870000000.0,3.2011301517486572,-1.8404741287231445,8.800154685974121,-6.702449321746826,-1.0029873847961426,-1.5842791,0.27091873,303.03064,-130.4497,-16.58631,STU
47440880000000.0,3.2061314582824707,-1.825919270515442,8.70090389251709,-6.501659393310547,-1.027324914932251,-1.7809776000000002,0.17012598,303.01166,-130.10858000000002,-16.647894,STU
47440883000000.0,3.2111332416534424,-1.777637004852295,8.61594295501709,-6.323071002960205,-1.0667078495025635,-1.6227635,0.1572978,303.0402,-129.73138,-16.755484,STU
47440888000000.0,3.216135025024414,-1.689949870109558,8.553543090820312,-6.180976867675781,-1.1150931119918823,-1.2904528,0.20708331,303.14575,-129.27069,-16.981888,STU
