acc_x,acc_y,acc_z,gyro_x,gyro_y,gyro_z,label
0.0,0.0,0.0,0.0,0.743423,0.03359759,1
6.390492735680598e-12,2.1714063880295958e-10,2.3669675594528702e-11,-2.6056795610074343e-11,0.7825184000000001,0.03359759,1
3.1346674145282805e-09,1.0449542742207996e-07,1.1435793645375725e-08,-1.2714697739113491e-08,0.7602218000000001,0.06078109,1
1.3914849716911704e-07,4.440358679858036e-06,4.922083576275328e-07,-5.464559080792242e-07,0.6945538,0.08735373,1
1.940272795764031e-06,6.0176673287060105e-05,6.785569439671235e-06,-7.462231678800889e-06,0.47158796,0.07788532,1
1.3600330021290574e-05,0.00041551457252353435,4.742643068311736e-05,-5.146041803527624e-05,-0.003970624,-0.0125227375,1
6.118667079135777e-05,0.0018442362779751422,0.00021200878836680206,-0.0002244311035610736,-0.00030543262000000003,-0.003970624,1
0.00020216914708726108,0.006018371321260929,0.0006950466777198018,-0.0007049420382827519,-0.012217305,-0.0061086523,1
0.0005324951489455998,0.015717329457402233,0.0018217213219031687,-0.0017406922997906804,-0.024740042,0.011911871999999999,1
0.001182076754048467,0.03475338965654373,0.004042274784296751,-0.0035944480914622545,-0.03359759,0.01282817,1
0.0023007660638540983,0.06764452904462814,0.00789865478873253,-0.0064834454096853724,-0.032375857,-0.003970624,1
0.0040385271422564975,0.11915113031864165,0.013974303379654884,-0.01053574588149786,-0.03756821,-0.00580322,1
0.006523726508021355,0.19379885494709012,0.022836625576019287,-0.015770986676216125,-0.04184427,-0.002443461,1
0.00984460674226284,0.2954717874526977,0.03498126193881035,-0.02210223488509655,-0.03634648,-0.0030543262,1
0.014039020054042341,0.4271165430545807,0.0507894791662693,-0.029352314770221714,-0.015271631,-0.01740966,1
0.019094062969088558,0.5905685424804688,0.07050410658121109,-0.03727828711271286,-0.016493361,-0.02687807,1
0.024953747168183327,0.786490261554718,0.0942232981324196,-0.04559886083006859,-0.029932396,-0.016187929,1
0.031533114612102515,1.0144027471542358,0.12190859019756314,-0.0540209636092186,-0.016798794,-0.0036651915999999997,1
0.038734864443540566,1.2727868556976318,0.15340250730514526,-0.06226295605301858,-0.016798794,-0.0125227375,1
0.04646174237132072,1.5592329502105713,0.18844231963157654,-0.07007241249084473,-0.019242255,-0.013439035,1
0.05462094396352768,1.8706185817718504,0.2266695201396942,-0.07723759859800339,-0.007330383,-0.02076942,1
0.06312326341867447,2.2032945156097408,0.2676451802253723,-0.08359308540821075,-0.0125227375,-0.01160644,1
0.07188253104686737,2.5532681941986084,0.3108666837215424,-0.08902063220739365,-0.02321288,-0.007941248,1
0.08081793040037155,2.9163713455200195,0.3557861745357513,-0.09344704449176787,-0.032986722999999996,0.0015271631,1
0.08985739201307298,3.288414001464844,0.4018383324146271,-0.09684029221534728,-0.03023783,-0.00580322,1
0.0989379808306694,3.665316104888916,0.4484727680683136,-0.09920479357242584,-0.038789943,-0.012217305,0
0.10800164192914964,4.043213844299316,0.4951832592487335,-0.10057590156793594,-0.03940081,-0.0125227375,0
0.11698807030916215,4.418543815612793,0.5415294766426086,-0.10101404041051863,-0.032986722999999996,-0.019242255,0
0.12582890689373016,4.78810453414917,0.5871496796607971,-0.10059910267591476,-0.010995574,-0.03359759,0
0.13444876670837402,5.149088382720947,0.6317613124847412,-0.09942550212144853,-0.00580322,-0.035124752999999995,0
0.14277274906635284,5.499099254608153,0.6751511096954346,-0.09759803861379623,-0.007941248,-0.052839845,0
0.1507353037595749,5.836150169372559,0.7171585559844971,-0.09522831439971924,0.0070249503,-0.06963864,0
0.15828488767147064,6.15865421295166,0.7576572299003601,-0.09243163466453552,-0.0033597588,-0.08857546,0
0.16538207232952118,6.4654083251953125,0.7965362668037415,-0.08932530134916307,-0.06047566,-0.13041973,0
0.17199480533599856,6.755572319030763,0.833689272403717,-0.08602821081876755,-0.10445796,-0.15515977,0
0.17809772491455078,7.0286407470703125,0.8690140247344971,-0.08266082406044006,-0.09773844,-0.19486602,0
0.1836763471364975,7.2844038009643555,0.90241676568985,-0.0793449878692627,-0.12370021,-0.2574797,0
0.18872997164726255,7.5229129791259775,0.9338152408599854,-0.07620479166507721,-0.0711658,-0.29565877,0
0.1932707130908966,7.744434833526611,0.963138997554779,-0.07337001711130142,-0.12125675400000001,-0.32192600000000005,0
0.1973228454589844,7.949410915374756,0.9903295040130616,-0.07098198682069777,-0.16279559,-0.34086279999999997,0
0.2009219527244568,8.138408660888674,1.0153431892395022,-0.06920121610164642,-0.20891592,-0.30879238,0
0.2041139453649521,8.312073707580566,1.0381535291671753,-0.06821433454751967,-0.22204952,-0.36774087,0
0.20695500075817108,8.471084594726562,1.0587528944015503,-0.06823738664388658,-0.23426682,-0.47525316,0
0.20950838923454285,8.616095542907715,1.077159404754639,-0.06951642781496048,-0.39675698,-0.47983465,0
0.2118375152349472,8.747675895690918,1.0934245586395264,-0.07232891768217088,-0.43860126,-0.5222898,0
0.21399849653244016,8.866288185119629,1.107636332511902,-0.07698322832584381,-0.46761733,-0.5946773,0
0.21603822708129886,8.972288131713867,1.119915008544922,-0.08381161838769913,-0.49968776,-0.743423,0
0.21799997985363007,9.065937995910645,1.1304038763046265,-0.09315504133701323,-0.46853364,-0.8078693,0
0.21993239223957065,9.14743423461914,1.1392629146575928,-0.10534009337425232,-0.5103779,-1.0146471,0
0.22189006209373474,9.216926574707033,1.146680474281311,-0.1206461787223816,-0.3820962,-1.1545353,0
0.2239080518484116,9.274560928344727,1.1529327630996704,-0.13926716148853302,-0.09987647,-1.2464706,0
0.22595420479774475,9.320531845092773,1.1584702730178833,-0.16128358244895935,-0.01160644,-1.2492193999999999,0
0.2278773933649063,9.35511589050293,1.1639844179153442,-0.1866564154624939,-0.10934488,-1.239751,0
0.2293720990419388,9.378668785095217,1.170430302619934,-0.21524319052696228,-0.15210545,-1.104139,0
0.2299855649471283,9.391566276550293,1.1789997816085815,-0.24683119356632235,-0.02687807,-1.028697,0
0.22917552292346954,9.394102096557617,1.1910501718521118,-0.28117790818214417,-0.17470746,-0.9114109,0
0.22638729214668274,9.38636302947998,1.2079832553863523,-0.3180420994758606,-0.36621370000000003,-0.8344419,0
0.22111932933330536,9.368118286132812,1.2310773134231567,-0.3571969270706177,0.45020768,-1.1643091,0
0.2129494845867157,9.338736534118652,1.261318564414978,-0.3984293043613434,0.64843345,-1.4581354,0
0.2014872133731842,9.297170639038086,1.299346923828125,-0.44153955578804016,-0.25473082,-1.4013248999999999,0
0.18627405166625974,9.242161750793457,1.3455852270126345,-0.4863561093807221,-0.45631635,-1.4691309,0
0.16667954623699188,9.172611236572266,1.4004408121109009,-0.5327569246292114,-0.45906523,-1.6013832000000001,0
0.14180876314640045,9.087904930114746,1.4644225835800169,-0.5806776881217957,-0.37568212,-1.6743816000000002,0
0.11048392951488496,8.988097190856934,1.5381505489349363,-0.630102276802063,0.07269296,-1.6591099999999999,0
0.0713656097650528,8.873942375183105,1.6223044395446775,-0.6810395121574402,0.20250183,-1.525636,0
0.023168552666902542,8.746826171875,1.7175658941268919,-0.7334882020950317,0.3203988,-1.4819591,0
-0.035134781152009964,8.608669281005861,1.8245810270309448,-0.7874012589454651,0.2764165,-1.493871,0
-0.10419777780771257,8.461795806884767,1.9439268112182615,-0.8426615595817566,0.24556783,-1.5280794,0
-0.18428656458854675,8.308791160583496,2.0760648250579834,-0.8990717530250549,0.21044308,-1.5076154,0
-0.2753403186798096,8.152318954467772,2.221308469772339,-0.9563567638397216,0.06352998,-1.3857478,0
-0.377059131860733,7.994931697845459,2.379825592041016,-1.0141761302947998,-0.053450707,-1.310306,0
-0.4889878034591675,7.838916778564452,2.5516605377197266,-1.0721406936645508,0.02107485,-1.2253957,0
-0.6105843186378479,7.68618631362915,2.7367584705352783,-1.12983238697052,-0.03268129,-1.1114693000000002,0
-0.7412598729133606,7.538218975067139,2.9349668025970463,-1.1868224143981934,-0.0015271631,-1.0366384,0
-0.8803852796554565,7.39602518081665,3.1460094451904297,-1.2426855564117432,-0.009468411,-0.9673050999999999,0
-1.027281641960144,7.2601261138916025,3.3694384098052983,-1.2970118522644043,-0.10598512,-0.8756753,0
-1.1812094449996948,7.130561351776122,3.6045868396759033,-1.349416971206665,-0.13255776,-0.84971356,0
-1.3413465023040771,7.00693416595459,3.8505229949951167,-1.399553656578064,-0.03023783,-0.8145888000000001,0
-1.506754994392395,6.888485431671143,4.105999946594238,-1.4471224546432495,-0.015577064,-0.7690793,0
-1.6763479709625244,6.77418851852417,4.369406223297118,-1.4918802976608276,0.019242255,-0.7312057,0
-1.848867654800415,6.662840366363525,4.6387434005737305,-1.5336462259292605,0.00030543262000000003,-0.6420194,0
-2.02288031578064,6.553142547607423,4.911632537841797,-1.5723038911819458,0.06352998,-0.5665775,0
-2.196773767471313,6.443776607513428,5.185332298278809,-1.607801079750061,0.16187929,-0.37965274,0
-2.3687477111816406,6.333481788635254,5.456773281097412,-1.6401454210281372,0.20250183,0.005497787,0
-2.5367910861968994,6.221110820770264,5.7225914001464835,-1.6693944931030271,0.34300083,0.32650748,0
-2.698638439178467,6.105638980865479,5.97914981842041,-1.6956418752670288,0.6230826,0.5531385,0
-2.8517396450042725,5.986118793487549,6.222545146942139,-1.718994140625,0.95905846,0.58032197,0
-2.9932978153228764,5.86160945892334,6.448627471923827,-1.7395371198654177,1.3365731,0.42852196,0
-3.1204254627227783,5.731112003326416,6.653071880340576,-1.7572917938232422,1.7073683999999998,0.3304781,0
-3.2304112911224365,5.593523025512695,6.831544876098633,-1.77216374874115,1.8640553,0.26725355,0
-3.3210315704345703,5.447618007659912,6.97999906539917,-1.783897042274475,1.629483,0.45173484,0
-3.3908159732818604,5.2920684814453125,7.09508752822876,-1.7920469045639038,0.9334021,1.2373075,0
-3.439259529113769,5.125518321990967,7.174705505371094,-1.795989990234375,0.73273283,2.0189096999999996,0
-3.4671602249145512,4.946599960327148,7.218637943267822,-1.7949560880661009,-2.1090124,1.7959439,0
-3.4771454334259038,4.753603935241699,7.229134559631348,-1.788032293319702,1.7437148,0.16615535,0
-3.474007129669189,4.543947219848633,7.210928916931152,-1.7741862535476685,2.3964243,0.21807889999999996,0
-3.4642834663391118,4.31404972076416,7.170422077178955,-1.752391695976257,0.32803464,0.35216382,0
-3.4550135135650635,4.0601091384887695,7.114508628845215,-1.7217609882354736,1.1081096000000001,-0.33139440000000003,0
-3.4524130821228027,3.779630422592163,7.049714088439941,-1.6816706657409668,-0.79504114,-0.7538077,0
-3.4611194133758545,3.4727442264556885,6.9816837310791025,-1.631914734840393,-0.44073927,-0.5873469,0
-3.484102487564087,3.1425380706787114,6.914958953857423,-1.5728132724761963,-0.063224554,-1.2733486,0
-3.523085355758667,2.794440269470215,6.853127956390381,-1.5052402019500732,0.52412236,-1.2968669,0
-3.5790960788726807,2.4351072311401367,6.799100399017334,-1.4306012392044067,0.20097467,-0.9077458,0
-3.6526618003845215,2.071338176727295,6.75511646270752,-1.3507684469223022,0.27091873,-0.36377025,0
-3.743608236312866,1.7093031406402588,6.722496032714844,-1.2679523229599,0.17287487,-0.23609942,0
-3.850864171981812,1.3540788888931274,6.701468467712402,-1.1845240592956543,-0.15913039999999998,-0.5369505,0
-3.972564220428467,1.0094262361526491,6.691266536712647,-1.102836012840271,0.22632557,-1.0048733,0
-4.106403827667236,0.6777724623680115,6.690317153930664,-1.0250848531723022,0.29901853,-0.97585726,0
-4.249975681304932,0.3603687584400177,6.696408748626709,-0.9532148838043212,-0.063224554,-0.66889745,0
-4.400908946990967,0.057567920535802834,6.706862449645996,-0.888846218585968,-0.40622538,-0.18967366,0
-4.556777477264403,-0.23089396953582764,6.7186832427978525,-0.8332201838493347,-0.44165558,0.14660765,0
-4.714916706085205,-0.5057146549224854,6.72868537902832,-0.7871628403663635,-0.17989981,0.14782938,0
-4.872329711914063,-0.7679466009140015,6.733628749847412,-0.7510702013969421,-0.014966198,-0.0421497,0
-5.025766372680664,-1.0189650058746338,6.730392932891847,-0.7249153852462769,-0.50671273,-0.25717425,0
-5.1719279289245605,-1.2604211568832395,6.716195106506348,-0.7082726359367371,-1.0271700000000001,-0.0693332,0
-5.307701587677002,-1.4941550493240356,6.6888489723205575,-0.700356125831604,-1.142318,0.18509217,0
-5.430365085601807,-1.7220821380615234,6.646963596343994,-0.7000718116760254,-0.9263771000000001,0.35369098,0
-5.53776741027832,-1.9460673332214355,6.58997917175293,-0.7060807943344116,-0.70829827,0.40133846,0
-5.6284523010253915,-2.1677982807159424,6.518036842346191,-0.7168636918067932,-0.40958515,0.5137377000000001,0
-5.701694011688232,-2.3886730670928955,6.4317827224731445,-0.7307810187339783,-0.18173242,0.6600399,0
-5.757433891296388,-2.6097090244293213,6.33223295211792,-0.74612957239151,0.064446285,0.732122,0
-5.796149253845215,-2.831464529037476,6.220715999603272,-0.7611990571022034,0.21930063,0.72509706,0
-5.818721294403076,-3.053978443145752,6.098857402801514,-0.7743263244628906,0.32742378,0.7467828000000001,0
-5.82632303237915,-3.2767450809478764,5.9685540199279785,-0.7839469909667969,0.410196,0.79443026,0
-5.820365905761719,-3.49873423576355,5.831930160522461,-0.7886477112770081,0.46334129999999996,0.73548174,0
-5.802497863769531,-3.718461990356445,5.691288471221924,-0.787215530872345,0.38759398,0.6563747,0
-5.77463960647583,-3.934104681015015,5.549055099487305,-0.7786767482757568,0.17959438,0.5757405,0
-5.739004611968994,-4.143622875213623,5.407750129699707,-0.7623200416564941,0.043676864,0.49021935,0
-5.6980934143066415,-4.344871520996094,5.26997709274292,-0.7377049922943115,-0.11453723,0.48655418,0
-5.654634952545166,-4.535667419433594,5.138401508331299,-0.704655110836029,0.12003502,0.33658674,0
-5.6114702224731445,-4.713785648345947,5.015699863433838,-0.663237988948822,-0.0021380284,0.27855456,0
-5.571393489837647,-4.876897811889648,4.904453754425049,-0.6137496829032898,-0.28130344,0.2284636,0
-5.5369529724121085,-5.022587776184082,4.807023048400879,-0.5566999912261963,-0.34238997,0.17684549,0
-5.510263919830322,-5.148491382598877,4.725466251373291,-0.4927996397018433,-0.3378085,0.09407325,0
-5.492959022521973,-5.2524614334106445,4.661491394042969,-0.42295196652412415,-0.41691554,0.18112154,0
-5.486259460449219,-5.332660675048828,4.616382598876953,-0.3482380509376526,-0.7122689,0.2611449,0
-5.491034030914307,-5.387587547302246,4.590893268585205,-0.2698861062526703,-0.9691377,0.29901853,0
-5.50777006149292,-5.41610860824585,4.58518123626709,-0.1892310231924057,-0.97249746,0.3222314000000001,0
-5.53649377822876,-5.417534828186035,4.598827362060547,-0.1076718419790268,-0.87995136,0.33017266,0
-5.57671594619751,-5.391716480255127,4.630930423736572,-0.02663133479654789,-0.7470882,0.27152961,0
-5.62742805480957,-5.339130878448486,4.680214881896973,0.052486546337604516,-0.7290677,0.31948254,0
-5.687132358551025,-5.260929584503174,4.745123863220215,0.12835027277469635,-0.7339545999999999,0.29046643,0
-5.753896236419678,-5.158915996551514,4.823912143707275,0.19976140558719635,-0.4914411,0.21410827,0
-5.825436115264893,-5.035439491271973,4.91472864151001,0.2657058835029602,-0.301462,0.15454891,0
-5.8992228507995605,-4.893248558044434,5.015677452087402,0.32538658380508423,-0.3378085,0.13775012,0
-5.972567081451416,-4.73533821105957,5.124879360198975,0.3782401978969574,-0.21563543,0.19181168,0
-6.042703628540039,-4.564822196960449,5.240539073944092,0.42394205927848816,-0.012217305,0.14996742,0
-6.106894016265869,-4.3848090171813965,5.361003398895264,0.462398111820221,0.22999077,0.084910266,0
-6.162554740905763,-4.198296070098877,5.484800338745117,0.493721216917038,0.37568212,0.02443461,0
-6.207389831542969,-4.008072853088379,5.61065673828125,0.5181964039802551,0.4578435,0.029626964,0
-6.239501476287843,-3.816646099090576,5.73748779296875,0.5362412929534912,0.52687126,0.08002335,0
-6.257466793060303,-3.626198530197144,5.86436939239502,0.5483651757240295,0.56291234,0.13958271,0
-6.260398864746094,-3.4385907649993896,5.990495681762695,0.5551301836967468,0.56169057,0.14721853,0
-6.248000144958496,-3.255397319793701,6.1151466369628915,0.5571168065071106,0.5186246,0.10140363,0
-6.2206153869628915,-3.077939748764038,6.237685203552246,0.5548931956291199,0.5674938,0.018325957,0
-6.179258346557617,-2.9073071479797363,6.357558727264403,0.548988938331604,0.6835581999999999,-0.076052725,0
-6.125591278076173,-2.7443630695343018,6.474283695220947,0.5398725271224976,0.74097955,-0.09590584,0
-6.061835765838622,-2.5897505283355717,6.587403297424316,0.5279373526573181,0.6386596,-0.032986722999999996,0
-5.990611553192139,-2.4439072608947754,6.696442604064941,0.5134979486465454,0.5143485,0.10629055,0
-5.914734840393066,-2.307096004486084,6.8008809089660645,0.4967958331108093,0.43951756,0.23671028,0
-5.8370118141174325,-2.1794443130493164,6.900132656097412,0.4780138731002808,0.39492437,0.3268129,0
-5.7600669860839835,-2.0609819889068604,6.993546009063722,0.4572957754135132,0.3378085,0.34208453,0
-5.686234951019287,-1.9516688585281368,7.080413818359375,0.43476930260658253,0.28496864,0.33292156,0
-5.617515563964844,-1.8514074087142944,7.160002708435059,0.410571962594986,0.2134974,0.32528573,0
-5.555581092834473,-1.7600477933883667,7.231603145599365,0.3848755657672882,0.14049901,0.3051272,0
-5.501804828643799,-1.6773871183395386,7.294593811035156,0.35790425539016724,0.07971791,0.28191432,0
-5.457299709320068,-1.6031696796417236,7.348501205444336,0.3299412131309509,0.062002823,0.22327125,0
-5.422954082489014,-1.5370864868164062,7.393051624298097,0.3013223707675934,0.055283304000000005,0.16432275,0
-5.399466037750244,-1.478770136833191,7.428197383880615,0.27241870760917664,0.010995574,0.1160644,0
-5.387359619140625,-1.4277808666229248,7.454120635986327,0.2436114698648453,-0.050396382999999996,0.10170906,0
-5.38698148727417,-1.3835885524749756,7.471214771270753,0.21526676416397092,-0.1160644,0.09407325,0
-5.398477077484131,-1.345561146736145,7.48004674911499,0.1877148598432541,-0.18325958,0.0888809,0
-5.421753883361816,-1.3129737377166748,7.481307029724121,0.16123773157596588,-0.22937989,0.06658431,0
-5.4564595222473145,-1.285038948059082,7.475761890411378,0.13606469333171844,-0.28985557,0.04062254,0
-5.501970291137695,-1.2609539031982422,7.464216232299805,0.11237505078315736,-0.32528573,0.014355333500000001,0
-5.557401657104492,-1.239951491355896,7.447486400604247,0.09030494838953018,-0.34116822,-0.016798794,0
-5.621638774871826,-1.2213425636291504,7.426386833190918,0.0699559822678566,-0.31490102,-0.053450707,0
-5.693373680114746,-1.2045403718948364,7.401720523834228,0.05140320211648941,-0.2611449,-0.07971791,0
-5.7711548805236825,-1.189066767692566,7.374280452728271,0.034700676798820496,-0.23151793,-0.084910266,0
-5.853426933288574,-1.1745445728302002,7.344849586486816,0.019883425906300545,-0.22510384,-0.08796459400000001,0
-5.938570499420166,-1.1606861352920532,7.314198017120361,0.0069661526940763,-0.22510384,-0.08093964,0
-6.024930000305176,-1.1472820043563845,7.283076286315918,-0.004059714265167713,-0.21074851,-0.08002335,0
-6.1108503341674805,-1.1341944932937622,7.252201557159424,-0.013228407129645348,-0.19394971,-0.076052725,0
-6.194710731506348,-1.1213507652282717,7.2222418785095215,-0.02059984765946865,-0.16737708,-0.07819075,0
-6.274965286254883,-1.1087350845336914,7.1937923431396475,-0.026257013902068138,-0.12522738,-0.0571159,0
-6.3501834869384775,-1.0963808298110962,7.167360305786133,-0.03030160814523697,-0.101098195,-0.034208454,0
-6.41909122467041,-1.0843595266342163,7.1433587074279785,-0.032849248498678214,-0.0693332,-0.017715093,0
-6.480606555938722,-1.0727683305740356,7.122105121612549,-0.034025508910417564,-0.04276056599999999,0.0036651915999999997,0
-6.533864498138428,-1.0617176294326782,7.10382604598999,-0.03396337106823921,-0.023518313,0.01985312,0
-6.57823657989502,-1.0513169765472412,7.088663101196289,-0.032801937311887734,0.005497787,0.024740042,0
-6.613339900970459,-1.0416593551635742,7.076681613922119,-0.03068558499217033,0.03359759,0.029932396,0
-6.639033794403076,-1.0328081846237185,7.0678791999816895,-0.027763113379478455,0.052534412999999995,0.026267206,10
-6.655413627624513,-1.0247873067855835,7.062197208404541,-0.02418672479689121,0.06811147,0.035124752999999995,10
-6.662795066833496,-1.017579436302185,7.059530735015869,-0.0201106034219265,0.079107046,0.03756821,10
-6.661692142486572,-1.0111305713653564,7.059731960296631,-0.015688898041844368,0.09101892,0.04520403,10
-6.652790546417236,-1.0053580999374392,7.062614440917969,-0.011072885245084764,0.08368854,0.05497787,10
-6.636917591094972,-1.0001611709594729,7.067953586578369,-0.006407486274838448,0.07880162,0.05161811400000002,10
-6.615015983581543,-0.9954299330711364,7.075484275817871,-0.001827474683523178,0.08063421400000001,0.04520403,10
-6.588113307952881,-0.9910553097724916,7.084907054901122,0.0025463069323450327,0.0693332,0.03940081,10
-6.557295799255371,-0.9869373440742492,7.095894813537598,0.006610196549445391,0.06780604,0.047036625,10
-6.5236759185791025,-0.9829909801483154,7.1080989837646475,0.010280104354023932,0.05100725,0.036957346,10
-6.488364219665527,-0.97914856672287,7.121166706085205,0.013492842204868792,0.053145275,0.023823743999999997,10
-6.45244026184082,-0.9753591418266296,7.134753704071045,0.01620637252926826,0.036957346,0.015882496,10
-6.416923999786378,-0.9715883135795592,7.1485352516174325,0.01839905045926571,0.024740042,0.0012217305,10
-6.382750511169434,-0.9678176641464232,7.162216663360597,0.0200679711997509,-0.0027488936,0.007330383,10
-6.35074520111084,-0.9640418887138368,7.175534248352051,0.021226897835731503,-0.013744468000000001,0.0027488936,10
-6.3215999603271475,-0.9602654576301576,7.188258171081543,0.021904274821281437,-0.032070424,0.0067195175,10
-6.295860767364503,-0.9564979672431946,7.200193405151367,0.022141024470329285,-0.05222898,0.0033597588,10
-6.2739129066467285,-0.9527486562728882,7.211182594299316,0.02198772132396698,-0.06414085,-0.004276057,10
-6.255984306335449,-0.9490208625793456,7.2211055755615225,0.021501556038856503,-0.06414085,-0.014660766,10
-6.242144584655763,-0.9453112483024596,7.22988224029541,0.02074354887008667,-0.054367005999999996,-0.018020526000000002,10
-6.232317924499513,-0.9416143894195556,7.237472057342528,0.019775938242673874,-0.05925392700000001,-0.014966198,10
-6.2262935638427725,-0.9379293322563172,7.243869304656982,0.018659748136997226,-0.048258353,-0.0018325957999999999,10
-6.223742961883545,-0.9342647194862366,7.249104976654053,0.01745276339352131,-0.03970624,-0.00061086525,10
-6.224242687225343,-0.9306418895721436,7.253243446350098,0.016207784414291382,-0.035124752999999995,0.004886922,10
-6.227294921875,-0.927094578742981,7.256373882293701,0.014971035532653332,-0.03390302,0.008552114,10
-6.232354164123535,-0.9236667156219482,7.258607864379883,0.01378098130226135,-0.03176499,0.008552114,10
-6.2388553619384775,-0.9204076528549194,7.260071277618407,0.012667798437178137,-0.022602014,0.01985312,10
-6.246242046356201,-0.9173681735992432,7.26090145111084,0.0116534186527133,-0.010079277,0.01863139,10
-6.25399112701416,-0.91459721326828,7.26124095916748,0.01075197383761406,0.00030543262000000003,0.025045475,10
-6.2616329193115225,-0.9121385216712952,7.261233806610107,0.009970648214221,0.00061086525,0.022296581,10
-6.268765926361084,-0.9100281000137328,7.261017322540282,0.009310674853622913,0.014049901000000002,0.025961772999999997,10
-6.275068759918213,-0.9082932472229004,7.2607173919677725,0.008768375031650066,0.021685716,0.016798794,10
-6.280303478240968,-0.9069504141807556,7.2604432106018075,0.008336137980222702,0.024740042,0.021380282999999996,10
-6.284313201904298,-0.906001627445221,7.260283470153809,0.008003429509699345,0.015882496,0.011911871999999999,10
-6.287017822265625,-0.9054307341575624,7.26030683517456,0.007757856976240873,0.013439035,0.006414085,10
-6.288404941558838,-0.9052022099494934,7.260557651519775,0.007586101070046425,0.014966198,0.002443461,10
-6.288525104522705,-0.9052631855010986,7.261059284210205,0.00747450441122055,0.01740966,0.007330383,10
-6.287477493286133,-0.9055482149124146,7.26181697845459,0.00740936305373907,0.004276057,0.0030543262,10
-6.285405158996582,-0.9059846997261048,7.262818813323975,0.007377208210527897,0.004886922,0.010690141499999998,10
-6.282482147216798,-0.9064993262290956,7.264041423797607,0.0073652793653309345,0.0030543262,0.007941248,10
-6.278903484344482,-0.9070246815681458,7.265451431274414,0.00736217712983489,-0.0015271631,0.0030543262,10
-6.274870872497559,-0.9075046181678772,7.2670044898986825,0.007358369417488575,0.008246681,0.008246681,10
-6.270585536956787,-0.9078983664512634,7.268653392791747,0.007346384227275848,0.0061086523,0.013744468000000001,10
-6.266238212585449,-0.9081817269325256,7.270347118377685,0.007320767268538475,-0.005192355,0.016187929,10
-6.262000560760497,-0.9083464741706848,7.272035121917725,0.007278029806911945,-0.003970624,0.01863139,10
-6.25801944732666,-0.9083983898162842,7.27366828918457,0.007216679863631725,-0.0018325957999999999,0.018020526000000002,10
-6.254407405853272,-0.908354640007019,7.275202751159668,0.0071372813545167455,-0.0070249503,0.022907447,10
-6.25124454498291,-0.9082390069961548,7.2766032218933105,0.00704246712848544,-0.004276057,0.01863139,10
-6.248575687408447,-0.908074676990509,7.277845859527588,0.006936812773346901,-0.01038471,0.024740042,10
-6.246415138244629,-0.9078794121742249,7.2789201736450195,0.006826417054980993,-0.0033597588,0.008246681,10
-6.244752407073975,-0.9076638221740724,7.27982759475708,0.006718285847455263,-0.005192355,0.016187929,10
-6.243560314178468,-0.907430112361908,7.280577659606934,0.006619533523917197,-0.010079277,0.011911871999999999,10
-6.242804527282715,-0.9071715474128724,7.281187534332275,0.006536699831485747,-0.0061086523,0.003970624,10
-6.242448329925537,-0.9068731665611268,7.281676769256593,0.006475235801190138,-0.0015271631,0.0009162978999999999,10
-6.24245548248291,-0.9065152406692504,7.282062530517577,0.006438993848860264,-0.009468411,0.005192355,10
-6.242789268493652,-0.906078040599823,7.282360553741455,0.006429766770452261,-0.0061086523,0.0018325957999999999,10
-6.243405818939209,-0.9055457711219788,7.282581329345702,0.0064471024088561535,-0.005192355,0.008246681,10
-6.244255542755128,-0.9049091339111328,7.282732963562013,0.006488424725830555,-0.011911871999999999,0.0033597588,10
-6.245283126831055,-0.9041659832000732,7.2828192710876465,0.0065494803711771965,-0.020158553,0.0061086523,10
-6.2464280128479,-0.903321385383606,7.282844066619872,0.006625078152865171,-0.013439035,0.0070249503,10
-6.247628688812256,-0.9023866653442384,7.282809734344482,0.006709860637784004,-0.008246681,0.007941248,10
-6.248822212219237,-0.901377022266388,7.282713890075684,0.0067989001981914035,-0.0018325957999999999,0.005497787,10
-6.249949932098389,-0.9003095030784607,7.282553195953369,0.0068880924955010405,0.0015271631,0.010995574,10
-6.250955581665039,-0.8992013335227966,7.282325267791747,0.006974289193749428,0.004886922,0.01160644,10
-6.251789569854736,-0.8980700373649597,7.282031536102295,0.007055108435451984,0.00580322,0.01282817,10
-6.252411842346191,-0.8969358801841736,7.281682014465332,0.007128641940653323,0.005192355,0.016493361,10
-6.2527947425842285,-0.8958238959312439,7.281289577484131,0.007193393073976041,0.002443461,0.01160644,10
-6.252926349639893,-0.8947629928588867,7.28087043762207,0.007248495705425739,0.008246681,0.013133603,10
-6.252805709838867,-0.8937813043594359,7.280441761016847,0.007293864618986845,0.004886922,0.020158553,10
-6.252442359924316,-0.8929014801979065,7.280018806457519,0.007329987362027169,0.007330383,0.0018325957999999999,10
-6.251853466033936,-0.8921369314193726,7.279615879058838,0.007357486523687838,0.01740966,0.011301007,10
-6.251064777374268,-0.8914919495582581,7.279244899749756,0.007376531604677439,0.011301007,0.007330383,10
-6.250112533569336,-0.890964150428772,7.278915405273437,0.007386448793113232,0.0021380284,0.004886922,10
-6.249046802520753,-0.890546977519989,7.278633117675781,0.00738578988239169,0.0125227375,0.00580322,10
-6.247927188873291,-0.8902300000190735,7.278395175933838,0.0073726293630898,0.009162978,-0.009162978,10
-6.24682092666626,-0.889999508857727,7.278191566467285,0.007344941608607769,-0.002443461,0.0012217305,10
-6.245792865753174,-0.8898391723632812,7.277998924255371,0.007300991564989091,-0.005192355,0.00061086525,10
-6.244902610778809,-0.8897330164909363,7.277785301208496,0.007240089587867259,-0.014049901000000002,-0.0012217305,10
-6.244198799133301,-0.8896682262420654,7.277513027191162,0.007163417991250753,-0.022296581,0.009468411,10
-6.243715286254883,-0.8896347284317017,7.277147769927978,0.007074099499732256,-0.016798794,0.011911871999999999,10
-6.243472099304199,-0.8896210789680481,7.276668071746826,0.006976403761655092,-0.009162978,0.010690141499999998,10
-6.243478775024414,-0.8896116018295288,7.2760677337646475,0.006874830927699804,-0.0061086523,-0.004886922,10
-6.243730545043945,-0.8895879983901978,7.275352954864503,0.006773674860596657,-0.01038471,-0.0027488936,10
-6.244200229644775,-0.8895352482795715,7.274535179138184,0.006677230354398489,-0.006414085,-0.002443461,10
-6.244835376739503,-0.8894491195678711,7.273630142211914,0.006590382661670446,-0.0018325957999999999,0.009468411,10
-6.245555877685548,-0.8893420100212097,7.272655963897705,0.006519039161503315,0.005192355,0.02107485,10
-6.246263027191162,-0.8892423510551453,7.271634101867676,0.006469829007983208,0.013744468000000001,0.016798794,10
-6.246856689453125,-0.8891881704330444,7.2705936431884775,0.006449006497859955,0.008246681,0.028710667000000002,10
-6.247252464294434,-0.8892137408256531,7.269566059112549,0.006461125332862139,0.0018325957999999999,0.021991148999999998,10
-6.247393608093263,-0.8893355131149292,7.268582344055176,0.006508121266961098,-0.009468411,0.010995574,10
-6.247255325317383,-0.8895447850227356,7.267671585083008,0.006589046679437161,-0.008552114,-0.0015271631,10
-6.2468438148498535,-0.8898109197616577,7.266860485076903,0.00670011667534709,0.0030543262,-0.0036651915999999997,10
-6.246190071105957,-0.8900905847549438,7.266170978546143,0.006834927946329117,0.0015271631,-0.00030543262000000003,10
-6.245343208312987,-0.8903384804725647,7.265617370605469,0.006985224783420564,0.005497787,-0.0030543262,10
-6.244363784790039,-0.8905156254768372,7.26520824432373,0.007141977548599244,0.003970624,0.01038471,10
-6.243317604064941,-0.8905969858169556,7.2649431228637695,0.0072963647544384,0.0021380284,0.010995574,10
-6.242271900177003,-0.8905767202377319,7.264816761016847,0.007440698798745871,-0.007941248,0.014660766,10
-6.241286277770996,-0.8904693722724915,7.264819145202638,0.007569130975753069,-0.013744468000000001,0.012217305,10
-6.240410804748535,-0.8903064131736755,7.264937877655028,0.007677959278225899,-0.011911871999999999,0.01740966,10
-6.239682197570801,-0.890127956867218,7.265159606933594,0.0077656316570937625,-0.004886922,0.025350908,10
-6.2391228675842285,-0.8899741768836975,7.265471458435059,0.007832441478967667,-0.011911871999999999,0.027488936000000002,10
-6.238743305206299,-0.8898782730102539,7.265861988067628,0.007879959419369698,-0.015271631,0.017104227,10
-6.238546371459961,-0.8898607492446899,7.266322612762451,0.007910392247140408,-0.0067195175,0.01282817,10
-6.238524436950684,-0.8899260163307191,7.266849994659424,0.007926026359200478,-0.010995574,0.00580322,10
-6.238659858703612,-0.890061616897583,7.267442226409912,0.007928725332021713,-0.011911871999999999,0.006414085,10
-6.238925457000732,-0.8902427554130554,7.2680983543396,0.007919707335531713,-0.007330383,0.002443461,10
-6.2392897605896,-0.8904404640197754,7.268815517425537,0.007899808697402477,0.0067195175,-0.0009162978999999999,10
-6.239717960357666,-0.8906275629997253,7.2695884704589835,0.007869984023272991,0.0076358155,0.0018325957999999999,10
-6.240174770355225,-0.8907819390296936,7.270408153533935,0.00783162098377943,0.004581489,0.006414085,10
-6.240626811981201,-0.8908888697624207,7.27126407623291,0.00778663344681263,-0.0018325957999999999,0.008552114,10
-6.241039276123048,-0.8909411430358887,7.272145271301269,0.007737340871244669,-0.004276057,0.017104227,10
-6.2413859367370605,-0.8909380435943604,7.273042678833008,0.0076863099820911876,-0.011301007,0.0070249503,10
-6.2416443824768075,-0.8908833265304565,7.273951053619385,0.007636057678610086,-0.010079277,0.01038471,10
-6.241800785064697,-0.890783965587616,7.274866580963135,0.007588739041239023,-0.008246681,0.01160644,10
-6.241849422454834,-0.8906499147415161,7.275786399841309,0.007545862812548877,-0.010995574,0.011911871999999999,10
-6.2417893409729,-0.8904930949211121,7.27670431137085,0.007508142851293088,-0.003970624,0.01282817,10
-6.24162483215332,-0.8903252482414246,7.277611255645753,0.007475584279745817,0.007941248,0.016493361,10
-6.241364479064941,-0.8901550769805908,7.278495788574219,0.007447891402989627,0.0015271631,0.005497787,10
-6.241016864776611,-0.8899860382080078,7.279345035552978,0.007424938958138227,-0.002443461,0.008246681,10
-6.24059009552002,-0.8898162245750427,7.280144691467285,0.007406969554722309,-0.008857545999999999,0.017104227,10
-6.240089416503906,-0.8896399140357971,7.280877113342285,0.0073947599157691,-0.011301007,0.009468411,10
-6.239518165588379,-0.8894508481025696,7.281525135040282,0.007389768026769161,-0.007941248,0.016187929,10
-6.23887825012207,-0.8892444372177124,7.282071113586426,0.007394027430564166,-0.01282817,0.010995574,10
-6.23817253112793,-0.8890184164047241,7.282501697540282,0.00740972813218832,-0.0036651915999999997,0.010079277,10
-6.23740291595459,-0.8887706995010376,7.2828102111816415,0.007438735570758581,0.0027488936,0.010079277,10
-6.236570835113525,-0.8884972333908081,7.2829952239990225,0.007482228800654411,0.00030543262000000003,0.013744468000000001,10
-6.235674381256104,-0.8881910443305969,7.283063888549805,0.007540429476648569,-0.0027488936,0.009773844,10
-6.234711647033691,-0.8878430128097534,7.283031940460205,0.007612441666424274,-0.004276057,0.0125227375,10
-6.233680725097656,-0.8874424695968628,7.2829222679138175,0.007696258369833231,-0.0012217305,0.0015271631,10
-6.232583522796631,-0.8869783878326416,7.282762050628662,0.0077889859676361075,-0.00030543262000000003,0.0061086523,10
-6.231424331665039,-0.8864411711692809,7.282584190368652,0.00788723025470972,-0.0018325957999999999,0.013439035,10
-6.230210304260254,-0.88582444190979,7.282419681549072,0.007987545803189278,0.0067195175,0.01282817,10
-6.2289557456970215,-0.8851271271705627,7.282297134399414,0.008086799643933773,-0.004581489,0.0067195175,10
-6.227678298950195,-0.8843556046485901,7.282238483428955,0.008182482793927194,-0.0015271631,0.023518313,10
-6.226398468017577,-0.8835240006446838,7.282260417938232,0.008272884413599968,-0.005497787,0.01740966,10
-6.2251386642456055,-0.8826522231101991,7.28237247467041,0.008357065729796886,0.0033597588,0.01740966,10
-6.223919868469237,-0.881763756275177,7.282578468322754,0.00843469612300396,-0.0015271631,0.01740966,10
-6.222763538360597,-0.8808833360671997,7.2828779220581055,0.008505627512931824,0.004581489,0.006414085,10
-6.221687316894531,-0.8800362944602966,7.283265590667725,0.008569479919970036,0.0036651915999999997,0.0027488936,10
-6.220709800720215,-0.8792468905448914,7.283734321594237,0.00862563494592905,0.015882496,0.004276057,10
-6.219847679138184,-0.8785356283187866,7.284273624420166,0.008673525415360928,-0.003970624,0.00580322,10
-6.219114303588867,-0.8779167532920837,7.284867763519287,0.00871299859136343,-0.0030543262,0.007941248,10
-6.218520641326903,-0.8773987293243408,7.2854957580566415,0.008744674734771252,0.0015271631,0.0036651915999999997,10
-6.2180724143981925,-0.8769869804382324,7.286136150360107,0.008770221844315529,-0.015577064,-0.0018325957999999999,10
-6.217772960662843,-0.8766875863075256,7.28676700592041,0.008792364969849586,-0.014966198,0.014049901000000002,10
-6.217623233795166,-0.8765091300010681,7.287365436553955,0.008814896456897259,-0.013744468000000001,-0.0012217305,10
-6.217623233795166,-0.8764615654945374,7.287910461425781,0.008842764422297478,-0.015882496,0.01038471,10
-6.2177677154541025,-0.8765525221824646,7.2883849143981925,0.008882101625204086,-0.005192355,0.00580322,10
-6.21804141998291,-0.8767824769020081,7.288777828216553,0.008940029889345169,-0.0076358155,0.006414085,10
-6.218419075012207,-0.8771429657936096,7.289087772369385,0.00902403239160776,-0.00580322,0.009773844,10
-6.218867301940918,-0.877615749835968,7.289322376251222,0.009140847250819206,-0.0067195175,0.008246681,10
-6.219350337982178,-0.8781740069389343,7.289497852325439,0.009295160882174969,-0.0027488936,0.00030543262000000003,10
-6.219832897186278,-0.8787844777107239,7.289637088775635,0.009488482028245926,0.0033597588,0.01160644,10
-6.22028398513794,-0.8794121146202087,7.289766788482666,0.009718474932014942,-0.006414085,0.01038471,10
-6.220675945281982,-0.8800243139266968,7.289908409118652,0.009978897869586945,-0.0027488936,0.0125227375,10
-6.220987796783447,-0.8805943727493286,7.2900776863098145,0.010260285809636116,-0.0009162978999999999,0.018020526000000002,10
-6.221200942993164,-0.8811015486717224,7.290285587310791,0.010551237501204014,-0.002443461,0.015882496,10
-6.221302509307861,-0.8815293908119202,7.290536403656006,0.010839728638529778,-0.002443461,0.0061086523,10
-6.221282958984375,-0.8818635940551758,7.290832042694093,0.011114126071333885,0.0036651915999999997,0.014049901000000002,10
-6.221137046813965,-0.882091224193573,7.29117488861084,0.011363913305103779,0.0061086523,0.017715093,10
-6.220865249633789,-0.8822021484375,7.291564464569093,0.011580230668187141,0.009468411,0.014049901000000002,10
-6.2204766273498535,-0.8821902275085449,7.292005062103271,0.011756345629692078,0.009773844,0.014966198,10
-6.219985961914063,-0.8820524811744691,7.292502403259277,0.01188792288303375,-0.004276057,0.0030543262,10
-6.2194132804870605,-0.881790041923523,7.293061256408691,0.01197285670787096,-0.004886922,0.015577064,10
-6.218780517578125,-0.8814092874526978,7.293679714202881,0.01201100554317236,-0.004581489,0.017715093,10
-6.218109130859375,-0.8809236288070679,7.294350624084473,0.012003947980701923,-0.010079277,0.017715093,10
-6.217421531677246,-0.8803515434265137,7.295061111450195,0.011954696848988531,0.0030543262,0.019242255,10
-6.216742515563965,-0.879713237285614,7.29579496383667,0.011867490597069263,-0.0076358155,0.014355333500000001,10
-6.2160964012146,-0.8790267705917358,7.296534538269043,0.01174759678542614,-0.004276057,0.015882496,10
-6.215503692626952,-0.8783053159713745,7.297263622283935,0.011600961908698082,-0.004886922,0.017715093,10
-6.214980125427246,-0.8775557875633241,7.297966957092285,0.011433776468038559,-0.007941248,0.012217305,10
-6.21453332901001,-0.8767799735069275,7.298628807067871,0.0112519646063447,-0.003970624,0.010690141499999998,10
-6.214165210723878,-0.8759775161743164,7.299239158630371,0.01106072124093771,-0.005497787,0.009773844,10
-6.2138733863830575,-0.8751473426818848,7.299792289733888,0.010864255018532276,0.0027488936,0.01160644,10
-6.213654518127441,-0.8742896318435669,7.300288200378418,0.010665714740753174,0.003970624,0.015577064,10
-6.2135071754455575,-0.8734079003334045,7.300731658935548,0.010467350482940674,0.003970624,0.007941248,10
-6.213432788848878,-0.8725115060806274,7.301133632659912,0.010270795784890652,0.0012217305,0.013133603,10
-6.213435649871826,-0.8716154098510742,7.301506519317628,0.01007732283324003,0.0027488936,0.0125227375,10
-6.213522434234619,-0.8707369565963745,7.301863193511963,0.009887998923659323,-0.008246681,0.007941248,10
-6.213700771331787,-0.8698915839195251,7.302212238311768,0.009703782387077808,0.01160644,0.022602014,10
-6.213974952697754,-0.8690891265869141,7.3025550842285165,0.009525478817522526,-0.002443461,0.0125227375,10
-6.214344501495361,-0.8683331608772278,7.3028883934021,0.009353747591376305,-0.005497787,0.014049901000000002,10
-6.2148027420043945,-0.8676232099533081,7.3032026290893555,0.009189009666442871,-0.0018325957999999999,0.013439035,10
-6.21533727645874,-0.8669572472572327,7.303487300872803,0.00903134886175394,0.004581489,0.008857545999999999,10
-6.215933322906494,-0.8663333654403687,7.303732395172119,0.00888071209192276,0.0027488936,0.010079277,10
-6.21657657623291,-0.8657500743865967,7.3039307594299325,0.008737330324947834,-0.00580322,0.013744468000000001,10
-6.217255592346191,-0.8652077913284302,7.304079055786133,0.008601981215178967,-0.008857545999999999,0.015271631,10
-6.2179603576660165,-0.8647096157073975,7.304178237915039,0.0084758959710598,-0.006414085,0.010079277,10
-6.21868371963501,-0.8642615675926208,7.304234504699707,0.008360478095710278,-0.0125227375,0.00580322,10
-6.219417095184326,-0.8638702034950256,7.304257869720459,0.008257042616605759,-0.007330383,0.011911871999999999,10
-6.220153331756593,-0.8635403513908386,7.304259777069093,0.008166678249835968,-0.0030543262,0.016798794,10
-6.220885753631593,-0.8632737398147583,7.3042497634887695,0.008090258575975895,0.00030543262000000003,0.011911871999999999,10
-6.221606254577638,-0.8630691170692444,7.304238796234131,0.008028424344956875,-0.004276057,0.004886922,10
-6.222303867340088,-0.8629234433174133,7.304234504699707,0.007981495000422001,-0.0067195175,0.017715093,10
-6.222968578338622,-0.8628323078155518,7.304241180419923,0.007949347607791424,0.0012217305,0.015271631,10
-6.223589897155763,-0.8627911806106567,7.304259300231934,0.007931362837553024,0.0061086523,0.008552114,10
-6.22415828704834,-0.8627960085868835,7.304288387298584,0.007926561869680882,0.00061086525,0.011301007,10
-6.224667549133301,-0.8628438711166382,7.304324626922607,0.00793371256440878,0.005497787,0.009773844,10
-6.225114822387695,-0.8629325032234192,7.304362773895264,0.007951227948069572,0.004276057,0.0125227375,10
-6.225497722625732,-0.8630602955818176,7.304398536682129,0.007977016270160675,0.0061086523,0.015882496,10
-6.225812911987305,-0.8632274866104126,7.304425239562987,0.008008617907762526,0.013133603,0.024129177,10
-6.226057052612305,-0.8634370565414429,7.304436683654785,0.008043576031923294,0.007330383,0.019547688,10
-6.226227760314941,-0.8636957406997681,7.304425716400146,0.008079816587269306,0.002443461,0.024129177,10
-6.226323127746582,-0.8640119433403015,7.304385185241699,0.008115716278553009,-0.010995574,0.01282817,10
-6.22634220123291,-0.864391565322876,7.304311275482178,0.008150103501975536,-0.011911871999999999,0.01160644,10
-6.226285934448242,-0.8648312091827393,7.304209232330322,0.008182194083929062,0.0036651915999999997,0.007330383,10
-6.226162433624268,-0.8653128147125244,7.304092884063722,0.008211306296288967,0.013744468000000001,-0.00030543262000000003,10
-6.2259864807128915,-0.8658039569854736,7.303986072540282,0.008236578665673733,0.008857545999999999,0.0018325957999999999,10
-6.225780963897705,-0.86626797914505,7.303914070129394,0.00825691968202591,0.004886922,0.016493361,10
-6.225574493408202,-0.8666779398918152,7.303898334503174,0.008271272294223309,-0.004581489,0.014049901000000002,10
-6.225401401519775,-0.8670263290405273,7.3039469718933105,0.008279174566268921,-0.018325957,0.019547688,10
-6.225296497344972,-0.8673218488693237,7.304054737091064,0.008281263522803783,-0.015271631,0.014355333500000001,10
-6.225290298461914,-0.8675770759582521,7.304211616516112,0.008279282599687576,-0.0030543262,0.0027488936,10
-6.225405216217041,-0.8677946329116821,7.304403781890869,0.008275623433291912,0.005192355,0.006414085,10
-6.225651264190674,-0.8679611086845398,7.30462121963501,0.008272696286439896,0.0030543262,0.017715093,10
-6.22602653503418,-0.8680527210235596,7.304855823516847,0.008272236213088036,-0.005192355,0.010690141499999998,10
-6.226516246795653,-0.8680480718612671,7.305102825164795,0.008274830877780914,-0.0027488936,0.01740966,10
-6.227100372314452,-0.8679400682449341,7.305359363555907,0.008279962465167046,-0.0076358155,0.015882496,10
-6.227752685546875,-0.8677365183830261,7.305621147155763,0.008286644704639912,-0.010690141499999998,0.004581489,10
-6.228447914123535,-0.8674510717391968,7.30588436126709,0.00829405803233385,0.0027488936,0.009162978,10
-6.2291646003723145,-0.8670925498008728,7.306143760681152,0.008301718160510063,-0.008246681,0.011911871999999999,10
-6.229884147644043,-0.866659939289093,7.3063907623291025,0.008309424854815006,-0.0036651915999999997,0.00580322,10
-6.230592727661133,-0.8661462664604187,7.306614875793457,0.008317053318023682,-0.004581489,0.016493361,10
-6.2312774658203125,-0.8655489683151245,7.306808471679687,0.00832440797239542,-0.01160644,0.01740966,10
-6.2319273948669425,-0.8648771643638611,7.306967258453369,0.00833130069077015,-0.003970624,0.015577064,10
-6.232532501220702,-0.8641506433486938,7.307088375091553,0.008337769657373428,-0.015577064,0.014355333500000001,10
-6.233084201812744,-0.8633931279182434,7.307169914245605,0.008344185538589954,-0.0076358155,0.008857545999999999,10
-6.2335753440856925,-0.8626263737678528,7.307206153869629,0.008351292461156845,-0.002443461,0.009468411,10
-6.233998775482178,-0.8618672490119934,7.3071937561035165,0.008360074833035469,0.003970624,0.010690141499999998,10
-6.234346389770508,-0.8611279129981995,7.307136058807372,0.00837138295173645,-0.008857545999999999,0.0076358155,10
-6.23460578918457,-0.8604177236557007,7.307046413421631,0.00838565081357956,-0.002443461,0.0070249503,10
-6.234763622283936,-0.8597469329833984,7.306942939758301,0.008402852341532705,0.0027488936,0.010995574,10
-6.234804630279541,-0.8591281771659851,7.3068461418151855,0.008422723971307278,-0.0036651915999999997,0.004886922,10
-6.234714031219482,-0.858575165271759,7.306774139404298,0.00844499561935663,-0.0030543262,0.018020526000000002,10
-6.234480857849121,-0.8580998778343201,7.306741237640381,0.008469447493553163,-0.006414085,0.010690141499999998,10
-6.234097480773926,-0.8577101230621338,7.306759834289551,0.008495869114995003,-0.007941248,0.011911871999999999,10
-6.233561992645264,-0.8574088811874391,7.306838989257812,0.008523928932845592,-0.0018325957999999999,0.012217305,10
-6.232878684997559,-0.857194721698761,7.306984901428223,0.008552991785109043,-0.0021380284,0.015271631,10
-6.232059955596924,-0.8570616245269775,7.307199001312256,0.008582168258726597,-0.00061086525,0.008857545999999999,10
-6.231126308441162,-0.8569998741149902,7.3074774742126465,0.008610556833446026,-0.007330383,0.007941248,10
-6.230104923248291,-0.8569977879524231,7.307812690734862,0.008637543767690659,-0.002443461,0.005497787,10
-6.229030132293701,-0.8570420145988464,7.308193683624268,0.00866283755749464,-0.008857545999999999,0.010995574,10
-6.227940082550049,-0.8571173548698425,7.308609485626222,0.008686313405632973,-0.004276057,0.011301007,10
-6.22687578201294,-0.8572070598602295,7.309049606323242,0.008707843720912933,-0.01160644,0.009773844,10
-6.2258782386779785,-0.8572940826416016,7.30950403213501,0.008727224543690681,-0.0030543262,0.013133603,10
-6.2249836921691895,-0.8573628664016724,7.309965133666992,0.008744118735194206,-0.01038471,0.011301007,10
-6.224220275878906,-0.8574017286300659,7.3104248046875,0.00875823013484478,-0.0076358155,0.007941248,10
-6.223605155944824,-0.8574039936065674,7.310877799987793,0.008769538253545761,-0.008246681,0.010690141499999998,10
-6.223143100738525,-0.8573682308197021,7.311323165893555,0.0087782833725214,-0.0012217305,0.01160644,10
-6.222825527191162,-0.8572971820831299,7.311760902404785,0.008784830570220947,-0.004276057,0.017104227,10
-6.2226319313049325,-0.8571975231170654,7.312195777893066,0.00878965761512518,-0.0036651915999999997,0.01160644,10
-6.222533702850343,-0.8570798635482788,7.312633514404298,0.008793367072939873,-0.00061086525,0.015271631,10
-6.222496032714844,-0.8569574952125549,7.313080310821532,0.008796579204499722,0.003970624,0.0076358155,10
-6.222482681274414,-0.8568437099456787,7.313539981842041,0.008799755014479159,0.0021380284,-0.0018325957999999999,10
-6.2224602699279785,-0.8567490577697754,7.314016819000244,0.008802993223071098,-0.006414085,0.02107485,10
-6.222400188446045,-0.8566798567771912,7.3145079612731925,0.008805840276181698,-0.005497787,0.011301007,10
-6.222282409667969,-0.8566396236419678,7.31500768661499,0.008807322941720486,-0.0076358155,0.012217305,10
-6.2220964431762695,-0.8566302061080933,7.31550407409668,0.008806245401501656,-0.0015271631,0.01282817,10
-6.221841812133789,-0.8566507697105408,7.315980911254883,0.008801566436886787,-0.0067195175,0.008552114,10
-6.221525192260742,-0.8566960096359253,7.316420555114746,0.008792749606072903,-0.0030543262,0.013744468000000001,10
-6.221160888671875,-0.8567560315132141,7.316802501678468,0.008779935538768768,-0.002443461,0.0125227375,10
-6.220765590667725,-0.856816828250885,7.317110061645508,0.008763901889324188,-0.014660766,0.008246681,10
-6.2203569412231445,-0.8568627834320068,7.317330837249756,0.008745814673602581,-0.0067195175,0.011301007,10
-6.21995210647583,-0.8568800091743469,7.317459583282472,0.008726933039724827,-0.006414085,0.012217305,10
-6.219562530517577,-0.8568586707115173,7.31749963760376,0.00870833545923233,-0.0070249503,0.008246681,10
-6.219200134277344,-0.8567933440208435,7.317462921142577,0.00869067758321762,-0.008246681,0.010690141499999998,10
-6.2188682556152335,-0.856683075428009,7.317363739013673,0.008674080483615398,0.008857545999999999,0.014966198,10
-6.21856689453125,-0.8565317392349243,7.317220211029053,0.008658304810523987,0.010995574,0.01038471,10
-6.218291282653809,-0.8563481569290161,7.317049026489258,0.008643025532364845,0.0036651915999999997,0.013439035,10
-6.2180352210998535,-0.8561453819274902,7.316868782043457,0.008627928793430328,-0.0015271631,0.009773844,10
-6.217784881591798,-0.8559398651123047,7.316698551177978,0.008612656965851784,-0.0036651915999999997,0.025045475,10
-6.217526435852051,-0.8557493090629578,7.3165602684021,0.00859670341014862,-0.013133603,0.0036651915999999997,10
-6.2172465324401855,-0.8555905222892761,7.316476345062256,0.008579473942518234,-0.0061086523,0.0125227375,10
-6.2169342041015625,-0.8554751873016357,7.316465377807617,0.008560316637158394,-0.008552114,0.0033597588,10
-6.216584205627441,-0.8554051518440247,7.316543102264403,0.00853839423507452,0.00580322,-0.002443461,10
-6.2161970138549805,-0.855371356010437,7.3167176246643075,0.008512620814144611,0.0036651915999999997,0.01038471,10
-6.21577787399292,-0.8553585410118103,7.316990852355957,0.008481676690280437,0.009468411,0.005192355,10
-6.215334892272949,-0.8553529977798462,7.317355155944824,0.008444043807685375,0.012217305,0.016187929,10
-6.214875221252441,-0.8553492426872253,7.317796230316162,0.008398179896175861,-0.004581489,0.018020526000000002,10
-6.214405059814452,-0.8553513288497925,7.31829309463501,0.008342761546373367,-0.010995574,0.018325957,10
-6.213927745819093,-0.8553691506385803,7.318822383880615,0.008277034386992455,0.002443461,0.015271631,10
-6.21344518661499,-0.8554125428199768,7.3193602561950675,0.008201133459806442,0.0030543262,0.013133603,10
-6.21295976638794,-0.8554871678352356,7.319883346557617,0.008116079494357109,-0.0027488936,0.013133603,10
-6.212471961975098,-0.8555929660797119,7.320372104644775,0.008023468777537346,-0.007941248,0.010690141499999998,10
-6.211983680725098,-0.8557238578796387,7.320807933807372,0.007925187237560749,-0.010079277,0.0067195175,10
-6.21149492263794,-0.8558682203292847,7.321175098419189,0.007823241874575615,-0.0021380284,-0.0009162978999999999,10
-6.21100378036499,-0.8560113906860352,7.321460723876952,0.007719740737229586,-0.0030543262,0.0070249503,10
-6.210507869720459,-0.8561375737190247,7.321657180786133,0.0076168910600245,0.00061086525,0.009468411,10
-6.210006713867188,-0.8562319874763489,7.321761608123778,0.007516954559832811,-0.0012217305,0.0070249503,10
-6.209500789642334,-0.8562821745872498,7.321776390075684,0.007422114722430706,-0.010690141499999998,0.014355333500000001,10
-6.2089900970458975,-0.8562790155410767,7.321708679199219,0.007334331050515175,-0.004581489,0.0067195175,10
-6.208475112915039,-0.8562176823616028,7.321570873260497,0.00725518213585019,-0.0012217305,0.009468411,10
-6.207953453063965,-0.8560976982116699,7.321378231048584,0.007185749709606171,-0.0036651915999999997,0.009162978,10
-6.207419395446777,-0.8559235334396362,7.321147918701173,0.007126569747924805,-0.0067195175,0.0027488936,10
-6.206864833831787,-0.8557031750679016,7.3208961486816415,0.007077628746628761,-0.0067195175,0.0033597588,10
-6.20628023147583,-0.8554457426071167,7.320632934570312,0.007038484327495098,0.004581489,0.008857545999999999,10
-6.205658435821532,-0.8551577925682068,7.32036828994751,0.007008456625044346,0.00580322,0.008246681,10
-6.204997539520264,-0.8548415303230286,7.320110321044923,0.006986668333411218,-0.0018325957999999999,0.009162978,10
-6.204303741455077,-0.8544954061508179,7.31986665725708,0.006971992086619139,-0.004886922,0.016493361,10
-6.2035889625549325,-0.8541173338890076,7.319645881652832,0.006963047664612532,-0.0070249503,0.01160644,10
-6.202872753143311,-0.8537079691886902,7.319454669952393,0.006958272773772478,0.0036651915999999997,0.011911871999999999,10
-6.20217752456665,-0.8532719612121582,7.3192996978759775,0.006956074852496386,0.005497787,0.008857545999999999,10
-6.201529026031494,-0.8528184294700623,7.319186210632324,0.006954985205084086,-0.0015271631,0.0070249503,10
-6.2009477615356445,-0.8523597717285156,7.319117546081543,0.0069537428207695475,-0.004276057,0.014660766,10
-6.200450420379639,-0.8519107103347778,7.319092273712157,0.006951294839382172,-0.005497787,0.01038471,10
-6.200045585632324,-0.8514861464500427,7.319106101989746,0.006946912966668607,-0.009162978,0.009162978,10
-6.199739933013916,-0.8510993123054504,7.319151401519775,0.0069403466768562785,-0.007941248,0.008552114,10
-6.199535846710205,-0.8507595062255859,7.3192195892333975,0.006931763608008622,0.0018325957999999999,0.01740966,10
