acc_x,acc_y,acc_z,gyro_x,gyro_y,gyro_z,label
0.0,0.0,0.0,0.0,0.010079277,0.005192355,1
-1.0530116778539875e-09,1.6822106374547733e-08,2.9461655337570386e-10,-9.879743724516832e-12,-0.0015271631,0.0018325958,1
-2.0810722389796863e-07,3.342184072607779e-06,5.345226483655097e-08,-2.076276039986169e-09,-0.010079277,0.005192355,1
-5.01260637975065e-06,8.091736526694149e-05,1.1749956456696964e-06,-4.9228685128355216e-08,-0.009773844,0.0027488936,1
-4.503049058257602e-05,0.0007305925828404725,9.559996215102727e-06,-4.424547626058484e-07,-0.009468411,0.0030543262,1
-0.00022657781664747745,0.003694393904879689,4.3144867959199466e-05,-2.36864730140951e-06,-0.008552114,0.003970624,1
-0.0007808244554325937,0.012794043868780136,0.000131741922814399,-8.703346793481613e-06,-0.0030543262,0.004276057,1
-0.00206934311427176,0.03407201915979385,0.00030439789406955237,-2.415495146124158e-05,-0.0027488936,0.009162978,1
-0.004535990301519632,0.07504887133836746,0.000568880932405591,-5.514222721103579e-05,-0.01038471,0.005497787,1
-0.008630970492959024,0.1434985250234604,0.0008935736841522158,-0.00011008944420609625,-0.0033597588,0.0027488936,1
-0.01473905984312296,0.24626079201698306,0.0011984612792730331,-0.0002000829845201224,0.005497787,0.0030543262,1
-0.02313059940934181,0.3884015381336212,0.0013573678443208337,-0.0003389363700989634,0.007941248,-0.0021380284,1
-0.03394035995006561,0.5727944374084473,0.0012191234854981305,-0.0005411158199422061,0.003970624,0.0021380284,1
-0.047170508652925484,0.8000612854957581,0.000649279507342726,-0.0008181542507372798,0.0018325958,0.010995574,1
-0.06270851939916611,1.0687624216079712,-0.0004266041505616158,-0.0011751835700124502,-0.0076358155,0.004886922,1
-0.08035202324390411,1.3757333755493164,-0.001992721576243639,-0.0016094024758785965,-0.008857545999999999,0.0033597588,1
-0.09983498603105544,1.7164871692657468,-0.003930260427296162,-0.0021098321303725247,-0.007941248,0.0067195175,1
-0.12085238099098206,2.0856258869171143,-0.006020172033458947,-0.0026587864849716425,-0.010079277,0.0012217305,1
-0.1430814266204834,2.4772253036499023,-0.007957237772643566,-0.003235180163756013,-0.004886922,0.008246681,1
-0.1661989539861679,2.8851706981658936,-0.00937133003026247,-0.0038179857656359673,-0.016493361,0.0033597588,1
-0.18989476561546328,3.303434133529663,-0.009851735085248949,-0.004389726091176272,-0.013744468,0.0027488936,1
-0.2138812243938446,3.726293563842773,-0.008972627110779284,-0.0049386522732675076,-0.016798794,0.0036651916,1
-0.23789812624454496,4.1484899520874015,-0.006327244453132153,-0.005458383355289698,-0.008857545999999999,0.005192355,1
-0.26171326637268066,4.565331935882568,-0.0015726083656772973,-0.0059473467990756035,0.004581489,0.010995574,1
-0.2851208746433258,4.972754955291748,0.0055308896116912365,-0.006408417597413063,0.0012217305,0.0067195175,1
-0.3079397678375244,5.367342948913574,0.01509519014507532,-0.006848764605820179,-0.0009162979,0.005497787,1
-0.33001166582107544,5.74632453918457,0.02709722332656384,-0.007277747150510549,-0.020158553,0.003970624,1
-0.3512001931667328,6.107542991638184,0.04138604924082756,-0.00770458672195673,-0.027488936,-0.002443461,1
-0.3713899850845337,6.44941520690918,0.05770037323236465,-0.008136197924613953,-0.024740042,0.0033597588,1
-0.3904862403869629,6.770876407623291,0.07569221407175064,-0.008575460873544216,-0.019547688,0.0036651916,1
-0.4084140062332153,7.071322441101074,0.09495311230421066,-0.009022103622555731,-0.019547688,0.00580322,1
-0.4251173138618469,7.350548267364503,0.1150396391749382,-0.009474769234657288,-0.015882496,0.004276057,1
-0.4405575692653656,7.6086883544921875,0.13549381494522095,-0.009932355023920536,-0.010995574,0.00061086525,1
-0.4547106027603149,7.8461670875549325,0.15585651993751526,-0.010394526645541193,-0.006414085,-0.005192355,1
-0.4675637483596802,8.063644409179688,0.17567698657512665,-0.010862819850444794,0.0021380284,0.004581489,1
-0.4791131615638733,8.261975288391112,0.19452127814292908,-0.011342402547597885,0.007941248,-0.01740966,1
-0.4893622696399689,8.442155838012695,0.21198037266731265,-0.01184132695198059,-0.0012217305,-0.027183503,1
-0.49832060933113104,8.605293273925781,0.227677583694458,-0.012367373332381248,-0.011911872,-0.024740042,1
-0.5060033202171326,8.752560615539549,0.2412748634815216,-0.012925905175507069,-0.028405234,-0.025350908,1
-0.5124306082725525,8.885164260864258,0.2524778842926025,-0.013521520420908928,-0.019242255,-0.03359759,1
-0.5176277756690979,9.004318237304688,0.26103949546813965,-0.014161038212478159,-0.027488936,-0.050396383,1
-0.5216248631477356,9.111218452453613,0.26676198840141296,-0.014856823720037937,-0.016798794,-0.054367006,0
-0.5244540572166443,9.20702075958252,0.26950165629386896,-0.015632033348083496,0.006414085,-0.069027774,0
-0.5261450409889221,9.292816162109377,0.2691774070262909,-0.01652481965720654,0.022296581,-0.08399397,0
-0.5267198085784912,9.369611740112305,0.2657783925533295,-0.017589502036571503,0.04886922,-0.089186326,0
-0.5261896848678589,9.43831729888916,0.25936591625213623,-0.01890093646943569,0.03573562,-0.07574729,0
-0.524554431438446,9.49974250793457,0.25006991624832153,-0.0205653328448534,0.061391957,-0.084910266,0
-0.5218031406402588,9.554595947265623,0.2380803525447845,-0.02272714488208294,0.040927973,-0.10415252,0
-0.5179170966148376,9.603494644165039,0.2236357182264328,-0.02556646429002285,0.10323623,-0.14080444,0
-0.5128724575042725,9.646970748901367,0.20700985193252566,-0.029283875599503517,0.16249016,-0.14538592,0
-0.5066439509391785,9.685483932495117,0.18849849700927732,-0.034077059477567666,0.0983493,-0.16310102,0
-0.4992076754570007,9.719430923461914,0.16840817034244535,-0.04011629149317741,0.027183503,-0.17318029999999998,0
-0.490542083978653,9.74916172027588,0.14705735445022586,-0.04752683639526367,-0.016187929,-0.2125811,0
-0.4806263148784638,9.774994850158693,0.12479400634765625,-0.05638546869158745,-0.1001819,-0.2144137,0
-0.4694379568099976,9.79723072052002,0.10201407223939896,-0.06672383099794388,-0.27183503,-0.18784106,0
-0.4569516181945801,9.816163063049316,0.07917066663503647,-0.07852865010499954,-0.32467487,-0.18142697,0
-0.4431393146514893,9.832085609436037,0.056771580129861825,-0.09174422174692154,-0.3555236,-0.23060162,0
-0.4279716610908508,9.845291137695312,0.03536739945411682,-0.10628128051757812,-0.22143865,-0.32314770000000004,0
-0.411419689655304,9.856074333190918,0.01553336903452873,-0.12203214317560195,-0.31795537,-0.3463606,0
-0.3934573531150818,9.864726066589355,-0.0021518762223422527,-0.13888412714004514,-0.43585235,-0.2415972,0
-0.37406352162361145,9.871530532836914,-0.01712751016020775,-0.15673695504665375,-0.5155702999999999,-0.16493362,0
-0.35322943329811096,9.87676239013672,-0.028870711103081707,-0.17553585767745972,-0.25595254,-0.24831672,0
-0.3310222923755646,9.880653381347656,-0.03693675249814987,-0.1953207105398178,0.10048734,-0.46120325,0
-0.30774012207984924,9.883267402648926,-0.04105734452605248,-0.21627524495124814,-0.071776666,-0.5332854,0
-0.2839981615543365,9.884239196777344,-0.04112311825156212,-0.23871928453445435,-0.47678033,-0.410196,0
-0.2606267631053925,9.882658004760742,-0.03690886497497559,-0.2630500793457031,-0.3903429,-0.27763826,0
-0.2385469377040863,9.877276420593262,-0.027831917628645897,-0.2897273898124695,0.2648101,-0.25259277,0
-0.2188301831483841,9.866943359375,-0.013067604042589664,-0.31930777430534363,0.5900958000000001,-0.30298916,0
-0.2027488201856613,9.850833892822266,0.008097581565380095,-0.35241979360580444,0.38240165,-0.33200526,0
-0.1914995014667511,9.828218460083008,0.036038491874933236,-0.3896484673023224,-0.00580322,-0.14110987,0
-0.18578727543354034,9.798089981079102,0.07103553414344788,-0.4314466714859009,0.49174652,0.2134974,0
-0.1857186108827591,9.75913143157959,0.11365392059087752,-0.478156715631485,1.3448198,0.07147124,0
-0.19114235043525696,9.710149765014648,0.16465550661087036,-0.5300731062889099,0.36987892,-0.441961,0
-0.2019721120595932,9.650531768798828,0.22459429502487185,-0.5874603390693665,0.43004912,-0.34788775,0
-0.217975452542305,9.580070495605467,0.2934935986995697,-0.6505745053291321,0.9117164,0.09010262,0
-0.23850882053375244,9.498202323913574,0.37075233459472656,-0.7196816205978394,0.6346890000000001,0.25289822,0
-0.26268327236175537,9.403376579284668,0.4553733468055725,-0.7950162291526794,0.59498274,0.3930918,0
-0.2896903157234192,9.293471336364746,0.5464534759521484,-0.8767486810684204,0.5540548000000001,0.66339964,0
-0.3188944458961487,9.166842460632324,0.643504798412323,-0.964981973171234,0.72295904,1.0852021,0
-0.3496342897415161,9.022798538208008,0.7464273571968079,-1.059703350067139,1.1814133999999998,1.310306,0
-0.3811240494251251,8.861522674560547,0.855317234992981,-1.1606789827346802,1.3545936,1.1774428,0
-0.412654310464859,8.683853149414062,0.9703776240348816,-1.2673381567001345,1.3261883999999995,0.89888823,0
-0.4438693225383759,8.49111270904541,1.0919760465621948,-1.378656029701233,1.3225232,0.6954701,0
-0.4750140011310578,8.285068511962889,1.220813870429993,-1.4930729866027832,1.3289373,0.34483343,0
-0.5071575641632079,8.067934989929201,1.3581626415252686,-1.6085370779037476,1.2654073,0.07513642,0
-0.5420371890068054,7.8422160148620605,1.5058333873748782,-1.722655177116394,1.2837333999999998,-0.037873644,0
-0.5815234780311584,7.6104416847229,1.6656312942504885,-1.8328493833541868,1.4355333,-0.1908954,0
-0.627240777015686,7.3748779296875,1.8386801481246948,-1.936477303504944,1.4388931,-0.38148534,0
-0.6806016564369202,7.1373229026794425,2.02508544921875,-2.0309522151947017,1.4071281,-0.54550266,0
-0.7429245710372925,6.899073600769043,2.224034786224365,-2.1138851642608643,1.5201381,-0.659429,0
-0.8154101967811584,6.660897254943848,2.43402361869812,-2.18323016166687,1.7373008,-0.6954701,0
-0.8989903926849365,6.42294979095459,2.652925729751587,-2.2373762130737305,1.9666806,-0.70524395,0
-0.9942637085914612,6.184793472290039,2.8780205249786377,-2.27518081665039,2.218968,-0.73884153,0
-1.101622223854065,5.945572376251222,3.1060640811920166,-2.2959535121917725,2.173764,-0.86437434,0
-1.2214318513870241,5.704282283782959,3.3335113525390625,-2.299414157867432,1.9242256,-1.1270463,0
-1.3541713953018188,5.459989070892334,3.5568857192993164,-2.2856807708740234,-1.3112222,-1.2525792,0
-1.500852108001709,5.211493968963623,3.7736988067626953,-2.2552292346954346,3.0579915,2.2116377000000003,0
-1.6642107963562012,4.956906795501709,3.98426365852356,-2.208594560623169,2.438574,-5.190827400000001,0
-1.8494119644165041,4.694327831268311,4.191874027252196,-2.1462748050689697,1.4450017,-7.5093665,0
-2.0624213218688965,4.422368049621582,4.4001736640930185,-2.0688238143920903,-4.8255300000000005,-6.6129217,0
-2.305657863616944,4.142331123352052,4.612156391143799,-1.97675883769989,-1.3100005,-2.6300802000000005,0
-2.5739614963531494,3.860995769500733,4.830581188201903,-1.8708059787750244,2.4788911,-0.013439035,0
-2.8540191650390625,3.5905919075012207,5.056647777557373,-1.7526305913925169,1.749518,0.3463606,0
-3.128199338912964,3.3446466922760014,5.287880897521973,-1.6250910758972168,2.8900034,-1.6615535,0
-3.3813750743865967,3.1319499015808105,5.519260883331299,-1.4916745424270632,1.3054191000000002,-1.9168952,0
-3.604563474655152,2.954320907592773,5.746678829193115,-1.3559976816177368,0.83016586,-1.7330247,0
-3.794255971908569,2.8086917400360107,5.967478275299072,-1.2217025756835938,1.1942415000000002,-2.360994,0
-3.9512765407562256,2.689183235168457,6.17931079864502,-1.0922802686691284,0.39064834,-2.2043072999999995,0
-4.0799560546875,2.587740659713745,6.379804611206055,-0.9708085060119628,1.0009027,-1.8432859,0
-4.187119960784912,2.4954636096954346,6.566518783569336,-0.8597221374511719,0.6151413,-1.3869696000000002,0
-4.280881881713866,2.404008388519287,6.736886978149414,-0.7607459425926208,0.38759398,-1.2202033,0
-4.3693904876708975,2.305737972259521,6.888334274291992,-0.6749525666236877,-0.49877146,-0.8753699,0
-4.4598565101623535,2.19348669052124,7.018635749816895,-0.602802038192749,-1.4627168,-0.60903263,0
-4.558185577392578,2.0608949661254883,7.126212120056152,-0.5441181659698486,-2.3976462000000005,-0.3943135,0
-4.668869972229004,1.903516411781311,7.210064888000487,-0.4981177449226379,-2.0039434,-0.10048734,0
-4.7945594787597665,1.719884157180786,7.269574642181396,-0.4635036587715149,-0.80573124,0.19150625,0
-4.935358047485352,1.5111932754516602,7.304360389709473,-0.4385914206504822,-0.35033122,0.07422013,0
-5.088471412658691,1.2800999879837036,7.314427375793457,-0.4214370846748352,0.34972036,0.12461651,0
-5.248410701751709,1.0300296545028689,7.300453662872314,-0.4099384844303131,0.65057147,0.10903945,0
-5.40736722946167,0.7652112245559692,7.2640037536621085,-0.4019854664802551,0.8365799999999999,0.10934488,0
-5.555949687957764,0.4908664226531982,7.207260608673097,-0.3957428932189941,0.956615,0.10293079,0
-5.684673309326173,0.21303968131542209,7.131940841674805,-0.3898584842681885,0.57757306,0.26389378,0
-5.785357475280763,-0.06180847436189652,7.038407325744629,-0.38347750902175903,0.020158553,0.4841107,0
-5.851797580718994,-0.32736051082611084,6.9257545471191415,-0.3761481046676636,0.1133155,0.67164636,0
-5.88002872467041,-0.5782122015953064,6.792313098907472,-0.3676950931549072,0.3576616,0.7134906,0
-5.868423461914063,-0.810754120349884,6.636091709136963,-0.3580761253833771,0.47891834,0.6160576,0
-5.817796230316162,-1.0240246057510376,6.455368995666504,-0.34724292159080505,0.17348573,1.3652838,0
-5.732114315032959,-1.2205525636672974,6.2501583099365225,-0.3350241184234619,-2.7574458,4.387845,0
-5.619861602783203,-1.4070149660110474,6.024620532989503,-0.3207714855670929,1.3732251,-0.03726278,0
-5.493926525115967,-1.5932985544204712,5.787373065948486,-0.3030975461006165,-2.025629,-0.63285637,0
-5.367405414581299,-1.7888875007629397,5.548992156982422,-0.2803097665309906,-0.675617,1.7330247,0
-5.247690677642822,-1.9977823495864868,5.320145606994629,-0.25098666548728943,1.2284501,1.4223998,0
-5.136256694793701,-2.217873334884644,5.110444068908691,-0.21459314227104187,0.70005155,1.0009027,0
-5.0331082344055185,-2.4449706077575684,4.92729377746582,-0.17171069979667666,-0.28252518,0.61819565,0
-4.939541816711426,-2.6758761405944824,4.775389671325684,-0.12363999336957933,0.056505036,0.4175264,0
-4.858199596405028,-2.908860206604004,4.656219005584717,-0.07182835787534714,-0.59589905,0.07269296,0
-4.7924232482910165,-3.1431548595428467,4.568068504333496,-0.01742430590093136,-0.6188064999999999,0.3839288,0
-4.745375156402588,-3.377289295196533,4.507388114929199,0.038927048444747925,0.31184670000000003,0.7690793,0
-4.718750476837158,-3.607164859771729,4.470610618591309,0.09695620089769363,-0.0036651916,0.3915646,0
-4.712586402893066,-3.8259906768798833,4.4553937911987305,0.15636196732521054,0.7809911999999999,-0.1255328,0
-4.726382255554199,-4.025496959686278,4.461328029632568,0.21640479564666748,1.3735305,-0.2302962,0
-4.759737491607666,-4.197488784790038,4.489062309265137,0.2756814658641815,0.37048978,0.22357668,0
-4.811675548553467,-4.3351707458496085,4.538384914398193,0.332283228635788,-0.2678644,0.3390302,0
-4.880129814147949,-4.433900833129883,4.607107639312744,0.3841941952705383,0.20586158,0.24678956,0
-4.962716579437256,-4.491497039794922,4.691295623779297,0.4296466112136841,0.0030543262,0.17684549,0
-5.057566165924072,-4.508028984069824,4.786067008972168,0.4673891365528106,-0.24098633,0.5204572000000001,0
-5.162947654724121,-4.4850807189941415,4.886221885681152,0.4968598186969757,0.01985312,0.68844515,0
-5.27647876739502,-4.424880504608153,4.986826419830322,0.5181817412376404,-0.09285152,0.6038403,0
-5.3953118324279785,-4.3297505378723145,5.084096908569336,0.5319516658782959,-0.09407325,0.4465425,0
-5.51709508895874,-4.20202112197876,5.176201820373535,0.538973331451416,0.0033597588,0.05131268,0
-5.640643119812013,-4.044359207153319,5.263147354125977,0.5400241613388062,-0.06505715,-0.1881465,0
-5.765705108642577,-3.860212802886963,5.345701217651367,0.5357093214988708,0.0125227375,-0.14782938,0
-5.892178535461426,-3.6539888381958012,5.4244585037231445,0.5264748930931091,-0.18509217,-0.010079277,0
-6.019302845001222,-3.430805206298828,5.499593734741211,0.5127184391021729,-0.31642818,0.096516706,0
-6.14532470703125,-3.196002960205078,5.570956230163574,0.4948849380016327,-0.040927973,0.19364429,0
-6.267859935760497,-2.9548430442810063,5.638087749481201,0.4734959602355957,-0.1001819,0.16065755,0
-6.384675979614258,-2.7125349044799805,5.700253963470459,0.4491402506828308,-0.26542094,0.093767814,0
-6.4943389892578125,-2.4741969108581543,5.756674289703369,0.4224589169025421,-0.33383787,0.054061573,0
-6.5963640213012695,-2.2444446086883545,5.8068480491638175,0.3941329121589661,-0.28680122,0.028405234,0
-6.691051483154298,-2.0269577503204346,5.850742816925049,0.3648568689823151,-0.40439278,-0.061086524,0
-6.7791810035705575,-1.8243856430053709,5.888798713684082,0.3352855145931244,-0.38331795,0.05161811400000002,0
-6.861557483673097,-1.6384435892105105,5.921784400939941,0.3059699833393097,-0.48838675,0.11209377,0
-6.938626766204834,-1.4700173139572144,5.950532913208008,0.2773256599903107,-0.7128797,0.20708331,0
-7.010354042053223,-1.3191953897476196,5.975791931152344,0.2496282756328583,-0.8258898000000001,0.33017266,0
-7.076377868652344,-1.1853139400482178,5.998202323913574,0.22302600741386414,-0.66553766,0.2855795,0
-7.136400699615479,-1.0672228336334229,6.018310546875,0.19757801294326785,-0.68539083,0.11636983,0
-7.190480709075928,-0.9635682702064514,6.036606788635254,0.1733090579509735,-0.4728097,0.010995574,0
-7.238924503326416,-0.8728111982345581,6.053595542907715,0.15026609599590302,-0.3753767,-0.013744468,0
-7.281887531280518,-0.7932038307189941,6.069836616516112,0.1285412758588791,-0.3475823,0.01038471,0
-7.3190245628356925,-0.7229680418968201,6.085967063903809,0.1082705706357956,-0.37965274,0.06505715,0
-7.34942102432251,-0.6605360507965088,6.102786064147949,0.08962441980838776,-0.33750305,0.094989546,0
-7.371837139129639,-0.6046496033668518,6.121251583099365,0.07277292013168335,-0.27122417,0.1001819,0
-7.38509464263916,-0.5543321371078491,6.142332077026367,0.057835862040519714,-0.20708331,0.07544186,0
-7.388388156890869,-0.5088281035423279,6.166799068450928,0.04484729841351509,-0.17165314,0.06994407,0
-7.381428241729736,-0.4675495326519013,6.1951026916503915,0.03375837951898575,-0.12583824,0.035430185,10
-7.364462375640869,-0.43003007769584656,6.227358341217041,0.02446519397199154,-0.069027774,0.00030543262000000003,10
-7.33821964263916,-0.3958672881126404,6.26341724395752,0.01683428324759006,-0.023518313,-0.009773844,10
-7.3037967681884775,-0.3646793961524963,6.302962303161621,0.010714790783822536,0.018020526,-0.005192355,10
-7.262482643127441,-0.33609044551849365,6.345595836639403,0.005941226612776518,0.05772676700000001,0.009773844,10
-7.2155699729919425,-0.30973243713378906,6.390882015228272,0.002335250843316317,0.08552113,0.0033597588,10
-7.164210319519043,-0.28527000546455383,6.438353538513184,-0.0002888218441512436,0.13836098,0.0009162979,10
-7.109344005584718,-0.26243269443511963,6.487505912780763,-0.00211364054121077,0.19456059,0.011301007,10
-7.051703929901122,-0.2410251200199127,6.5378098487854,-0.003309161635115743,0.23182335,0.020463986,10
-6.991887092590332,-0.22092241048812866,6.588742256164551,-0.004030771087855101,0.20525073,0.038179077,10
-6.9304728507995605,-0.2020649760961533,6.639790058135986,-0.004422300960868597,0.16493362,0.046120327,10
-6.868166923522949,-0.1844419687986374,6.6904258728027335,-0.004617675673216581,0.14660765,0.045814894,10
-6.805899620056152,-0.16807566583156586,6.740074157714844,-0.00473872572183609,0.14508049,0.0290161,10
-6.744837760925293,-0.15300574898719788,6.788101673126222,-0.004888840951025486,0.12767084,0.025045475,10
-6.686298370361327,-0.13926510512828827,6.8338565826416025,-0.005145261529833078,0.0842994,0.020463986,10
-6.631608009338379,-0.12685568630695346,6.876739978790282,-0.005553883034735918,0.03268129,0.033292156,10
-6.581973075866699,-0.11573265492916107,6.916274070739746,-0.006132027134299278,-0.007330383,0.031154128,10
-6.5383872985839835,-0.10580791532993317,6.952134609222412,-0.006877209525555372,-0.05772676700000001,0.040011674,10
-6.50156831741333,-0.09696909040212633,6.984144687652588,-0.0077754142694175235,-0.061391957,0.043066,10
-6.47192907333374,-0.08910717815160751,7.0122437477111825,-0.008805652149021627,-0.07696902,0.03023783,10
-6.449567794799805,-0.08212997019290924,7.036466121673584,-0.009940527379512787,-0.084910266,0.019242255,10
-6.434267044067383,-0.07594870775938034,7.056931495666504,-0.01114586926996708,-0.086132,0.005192355,10
-6.425516605377197,-0.07046857476234436,7.0738468170166025,-0.012382255867123604,-0.07391469,-0.0012217305,10
-6.422561168670653,-0.06559569388628006,7.087492942810059,-0.013606504537165163,-0.07269296,0.0070249503,10
-6.424452781677246,-0.06124749779701232,7.098217010498048,-0.0147732961922884,-0.053145275,0.0067195175,10
-6.430113315582275,-0.05735745653510094,7.1064186096191415,-0.015837552025914192,-0.03604105,0.0030543262,10
-6.4384074211120605,-0.05387737229466438,7.112536430358888,-0.01675870455801487,-0.025350908,0.002443461,10
-6.4482154846191415,-0.05077564343810082,7.117015838623048,-0.017505094408988953,-0.004276057,0.010690141499999998,10
-6.458494186401367,-0.04802551493048668,7.120277404785156,-0.01805774495005608,-0.0012217305,0.0070249503,10
-6.468337059020996,-0.04559528455138207,7.12270450592041,-0.018410349264740944,0.025350908,0.01160644,10
-6.477023601531982,-0.04344312846660614,7.124636650085449,-0.01856699213385582,0.020158553,0.009773844,10
-6.484032154083253,-0.04151803627610207,7.12635612487793,-0.018542630597949028,0.024740042,0.017715093,10
-6.48903226852417,-0.039767779409885406,7.128077030181885,-0.01836298033595085,0.02565634,0.016798794,10
-6.491866588592528,-0.038145337253808975,7.129937171936035,-0.018060998991131786,0.036651913,0.025961773,10
-6.492537021636963,-0.0366097204387188,7.131997108459473,-0.017673304304480553,0.026267206,0.021685716,10
-6.4911885261535645,-0.035122081637382514,7.134254455566406,-0.01723688654601574,0.03359759,0.020158553,10
-6.4880900382995605,-0.03364664688706398,7.136678218841553,-0.016786975786089897,0.025045475,0.016798794,10
-6.483609676361084,-0.03215755894780159,7.1392269134521475,-0.016355000436306003,0.009773844,0.01038471,10
-6.478168487548827,-0.030641568824648857,7.1418514251708975,-0.015965821221470833,0.00030543262000000003,0.015271631,10
-6.47219181060791,-0.029095381498336795,7.144489765167236,-0.015635646879673004,-0.005497787,0.014660766,10
-6.46607780456543,-0.02752501517534256,7.147073745727539,-0.015371778048574924,-0.007941248,0.0067195175,10
-6.4601802825927725,-0.025940710678696632,7.1495442390441895,-0.015172991901636125,-0.008246681,0.0012217305,10
-6.454800605773926,-0.02434908039867878,7.151853084564209,-0.015032608062028885,-0.0030543262,0.0021380284,10
-6.450170040130615,-0.02275196835398674,7.15395975112915,-0.014941348694264887,-0.005192355,0.0076358155,10
-6.446430683135986,-0.021154331043362614,7.155832290649414,-0.014888545498251915,-0.017104227,0.007330383,10
-6.443631172180176,-0.019569801166653637,7.157451152801514,-0.014863479882478712,-0.008552114,0.0076358155,10
-6.441723823547362,-0.018020316958427433,7.158815860748291,-0.014856552705168726,-0.005192355,0.01740966,10
-6.440577507019043,-0.016532832756638527,7.159955024719237,-0.014859071001410484,-0.009162978,0.005192355,10
-6.440012454986572,-0.015128901228308678,7.160920143127441,-0.014862430281937122,0.0027488936,0.009468411,10
-6.439841270446777,-0.013814049772918223,7.1617751121521,-0.014859267510473728,0.018936822,0.010079277,10
-6.439891815185548,-0.012579977512359621,7.16257905960083,-0.01484461221843958,0.0036651916,0.007941248,10
-6.440016269683838,-0.011414979584515095,7.1633806228637695,-0.014815503731369972,0.010690141499999998,0.011911872,10
-6.440101623535156,-0.010315404273569584,7.164201259613037,-0.014770882204174997,0.0015271631,0.005192355,10
-6.4400835037231445,-0.009291340596973896,7.16503381729126,-0.01471205707639456,-0.0018325958,0.007330383,10
-6.43993616104126,-0.008361254818737507,7.165847301483153,-0.014641840942204,-0.0015271631,-0.00061086525,10
-6.4396705627441415,-0.007541593164205551,7.166599750518799,-0.014562587253749369,0.018020526,0.0067195175,10
-6.439319610595702,-0.0068358462303876886,7.1672630310058585,-0.014475128613412382,0.013439035,0.0027488936,10
-6.43891191482544,-0.006232707295566797,7.167829990386963,-0.014379884116351603,0.018936822,0.014660766,10
-6.438459396362305,-0.005716289859265089,7.168313980102539,-0.014277436770498753,0.008857545999999999,0.015882496,10
-6.437953472137451,-0.005274072755128145,7.168746471405028,-0.014169069007039068,0.0070249503,0.005497787,10
-6.4373836517333975,-0.004896650090813637,7.1691651344299325,-0.014058249071240423,0.008552114,0.0076358155,10
-6.43674373626709,-0.004578486550599337,7.169605255126952,-0.01395075861364603,0.0033597588,0.004276057,10
-6.436038494110107,-0.0043191369622945786,7.170089244842528,-0.013852505944669248,-0.0061086523,0.0030543262,10
-6.435276985168457,-0.004123085644096136,7.170630931854247,-0.013767101801931858,0.00030543262000000003,0.016493361,10
-6.434476375579834,-0.0039984555914998055,7.171233654022218,-0.013694779947400091,-0.0033597588,0.005497787,10
-6.4336609840393075,-0.003955839201807976,7.171894550323486,-0.013632877729833126,-0.005497787,0.005192355,10
-6.432858943939209,-0.004007051698863506,7.1726036071777335,-0.013578470796346664,0.00580322,0.0033597588,10
-6.432102680206299,-0.004163128323853016,7.1733479499816895,-0.013529691845178604,0.011911872,0.018325957,10
-6.43142032623291,-0.004434650763869286,7.1741065979003915,-0.013485630042850971,-0.0027488936,0.003970624,10
-6.430826663970947,-0.004828255623579025,7.1748600006103525,-0.013445357792079449,0.0012217305,0.014049901000000002,10
-6.430323600769043,-0.005338178481906653,7.175595283508301,-0.013407853431999685,0.0070249503,0.011301007,10
-6.429900169372559,-0.005940134171396494,7.17630672454834,-0.0133724519982934,0.0070249503,0.010079277,10
-6.429532051086426,-0.006596986670047046,7.176985740661621,-0.013339116238057612,0.0067195175,0.0030543262,10
-6.429183483123778,-0.007266032509505749,7.177619934082031,-0.013308229856193066,-0.0030543262,0.0076358155,10
-6.428817272186278,-0.007904548197984695,7.178192138671875,-0.013280292972922323,0.0033597588,0.010995574,10
-6.428407669067383,-0.008478859439492227,7.178684711456299,-0.013256693258881569,0.0027488936,0.013133603,10
-6.4279441833496085,-0.008970916271209717,7.179081916809082,-0.013240180909633636,0.0076358155,-0.00061086525,10
-6.427432537078857,-0.009378562681376934,7.179363250732423,-0.01323362160474062,0.0036651916,0.010995574,10
-6.426893711090088,-0.009712336584925652,7.179505825042725,-0.013238687068223952,0.0021380284,0.01985312,10
-6.426358222961426,-0.00999210774898529,7.179494857788086,-0.013256295584142208,0.002443461,0.012217305,10
-6.4258670806884775,-0.010241454467177393,7.179335594177246,-0.013286096043884754,-0.004276057,0.0036651916,10
-6.425473213195801,-0.010478225536644459,7.179060459136963,-0.013326110318303108,0.0076358155,0.00030543262000000003,10
-6.4252281188964835,-0.010705367662012577,7.1787147521972665,-0.01337345875799656,0.00030543262000000003,0.009468411,10
-6.425157070159912,-0.010911975987255572,7.178338050842285,-0.01342569850385189,0.004581489,-0.004276057,10
-6.4252471923828125,-0.011083878576755524,7.177957057952881,-0.013479864224791529,0.0030543262,0.010690141499999998,10
-6.42544412612915,-0.011213133111596107,7.177592754364014,-0.01353217102587223,0.0125227375,0.007330383,10
-6.425673484802246,-0.011299580335617064,7.177266597747803,-0.01357882656157017,0.002443461,0.01282817,10
-6.425854682922362,-0.011347483843564987,7.176997661590576,-0.013616941869258879,0.009468411,0.015271631,10
-6.425917625427246,-0.011360514909029007,7.176796913146973,-0.01364433579146862,0.0018325958,0.014049901000000002,10
-6.425820350646973,-0.011338946409523487,7.176666736602782,-0.013659411109983921,0.003970624,0.006414085,10
-6.425549030303955,-0.011275237426161766,7.176609516143799,-0.01366168726235628,0.007941248,0.01038471,10
-6.425110816955566,-0.011151819489896296,7.1766319274902335,-0.013652351684868336,0.005497787,0.009468411,10
-6.424525260925293,-0.010945252142846584,7.176746368408202,-0.013634380884468555,0.0027488936,0.010690141499999998,10
-6.423820495605469,-0.010637023486196995,7.1769652366638175,-0.01361179631203413,0.0033597588,0.007330383,10
-6.42303466796875,-0.010220442898571493,7.17728328704834,-0.013588975183665752,0.007330383,0.011301007,10
-6.422210693359375,-0.00970393233001232,7.177673816680907,-0.013568739406764507,-0.0015271631,0.0061086523,10
-6.421395301818848,-0.009110675193369387,7.1781063079833975,-0.01355163287371397,0.012217305,0.010079277,10
-6.420632839202881,-0.008474394679069519,7.178571701049805,-0.01353612169623375,0.009162978,0.01160644,10
-6.4199562072753915,-0.00783400144428015,7.179077625274657,-0.013519623316824436,0.0033597588,0.009162978,10
-6.419375896453857,-0.00722987111657858,7.179638385772705,-0.01349914725869894,0.00030543262000000003,0.00580322,10
-6.418885707855225,-0.0066992505453526965,7.180259704589844,-0.013472137041389942,0.0125227375,0.01160644,10
-6.41847562789917,-0.006270932964980602,7.180936336517334,-0.013437659479677677,-0.0009162979,0.016187929,10
-6.418141841888428,-0.005964247975498438,7.18165397644043,-0.01339719258248806,0.010079277,0.0030543262,10
-6.417884826660156,-0.005789929069578648,7.182400226593018,-0.013353900983929634,-0.00061086525,0.0061086523,10
-6.417710781097412,-0.005752166733145714,7.1831536293029785,-0.01331085991114378,-0.00030543262000000003,0.010995574,10
-6.417632102966309,-0.005851750262081623,7.183883190155028,-0.013269802555441856,-0.004276057,0.006414085,10
-6.417654037475586,-0.006086371373385191,7.184556484222412,-0.013230562210083008,0.0027488936,0.015577064,10
-6.417763710021973,-0.006451709661632775,7.185145378112793,-0.013192011043429376,-0.004276057,0.003970624,10
-6.417931079864503,-0.006939161568880081,7.185636520385742,-0.01315212529152632,0.0027488936,0.012217305,10
-6.418113708496094,-0.007530053146183491,7.1860289573669425,-0.013108188286423685,0.015577064,0.002443461,10
-6.41826868057251,-0.008196838200092316,7.18633508682251,-0.01305798441171646,0.009162978,0.0070249503,10
-6.418356418609619,-0.008911761455237865,7.186583042144775,-0.013000617735087872,-0.0036651916,0.0061086523,10
-6.418346881866455,-0.00965235847979784,7.18680477142334,-0.012936874292790891,-0.00030543262000000003,-0.00061086525,10
-6.418216228485107,-0.01039936672896147,7.1870222091674805,-0.012868667021393776,0.0076358155,0.004581489,10
-6.417953014373778,-0.011132795363664629,7.187244892120361,-0.01279782596975565,0.004581489,0.010079277,10
-6.417552947998048,-0.011835710145533085,7.187479972839356,-0.012725712731480598,0.01038471,0.014660766,10
-6.4170265197753915,-0.012499228119850159,7.18773889541626,-0.01265429239720106,0.00580322,0.010690141499999998,10
-6.416400909423827,-0.013116521760821342,7.188029766082764,-0.0125855915248394,-0.0009162979,0.008552114,10
-6.415711402893066,-0.013668050058186054,7.188350200653076,-0.012522022239863873,-0.00580322,-0.0009162979,10
-6.414996147155763,-0.014124951325356959,7.1886839866638175,-0.012466703541576862,-0.0012217305,0.004886922,10
-6.414285659790039,-0.014456378296017647,7.18900203704834,-0.012422367930412292,0.002443461,0.004276057,10
-6.413597583770753,-0.014640796929597856,7.18927526473999,-0.012390241958200932,0.0009162979,0.0018325958,10
-6.412942886352539,-0.014678475446999071,7.189486980438232,-0.01236985344439745,0.0036651916,0.004581489,10
-6.412336826324463,-0.01459105499088764,7.189636707305907,-0.012359553948044777,-0.0021380284,0.003970624,10
-6.411797523498535,-0.01441257353872061,7.189732551574707,-0.01235658023506403,0.0012217305,0.0070249503,10
-6.411336421966553,-0.014182383194565771,7.189783573150635,-0.012357745319604874,0.002443461,0.011911872,10
-6.410951137542725,-0.013938217423856258,7.189796447753906,-0.01235997024923563,0.009162978,0.017104227,10
-6.410624027252197,-0.01371215283870697,7.189775466918945,-0.012360863387584686,0.004276057,0.00061086525,10
-6.4103331565856925,-0.013527992181479931,7.1897220611572275,-0.012360128574073316,0.010690141499999998,0.011911872,10
-6.410067558288574,-0.013402455486357212,7.1896300315856925,-0.012359305284917356,0.0067195175,0.003970624,10
-6.409836769104004,-0.013348373584449293,7.189486503601074,-0.012360138818621635,-0.0036651916,0.009773844,10
-6.4096622467041025,-0.013372624292969705,7.189274311065674,-0.012364345602691174,-0.008552114,0.0012217305,10
-6.4095726013183585,-0.013476992957293987,7.188984394073486,-0.012373773381114006,-0.004886922,0.007941248,10
-6.409592628479004,-0.013663402758538723,7.1886234283447275,-0.012389803305268288,0.013133603,0.007330383,10
-6.4097418785095215,-0.01393581461161375,7.188204288482666,-0.012413650751113892,0.003970624,0.007330383,10
-6.4100260734558105,-0.014295820146799088,7.1877498626708975,-0.012446321547031404,0.0070249503,0.009162978,10
-6.410445690155028,-0.01473666913807392,7.187302589416504,-0.012486707419157028,0.0067195175,0.014049901000000002,10
-6.410989284515381,-0.015235505998134613,7.186907768249513,-0.012531844899058342,0.010995574,0.010079277,10
-6.4116315841674805,-0.015755226835608482,7.18660306930542,-0.012579020112752914,-0.0036651916,0.004581489,10
-6.4123287200927725,-0.01625384390354156,7.186411380767822,-0.01262532453984022,0.010079277,0.0030543262,10
-6.41302490234375,-0.016695216298103333,7.186339855194093,-0.012667561881244184,0.0027488936,0.0012217305,10
-6.413661479949951,-0.017053667455911636,7.186379432678223,-0.012703074142336844,0.004886922,0.010690141499999998,10
-6.414182662963867,-0.017314687371253967,7.186506271362305,-0.012730740010738371,0.004276057,0.013439035,10
-6.414546012878418,-0.017475400120019913,7.186681270599365,-0.01275139767676592,-0.0018325958,0.002443461,10
-6.414724349975586,-0.017542349174618718,7.186856269836426,-0.012766349129378796,0.0061086523,0.01740966,10
-6.4147114753723145,-0.017523439601063732,7.186983585357666,-0.012776440940797329,-0.0027488936,0.009162978,10
-6.41452693939209,-0.017422132194042206,7.187027931213379,-0.012782733887434006,-0.0036651916,0.0009162979,10
-6.414203643798827,-0.017239972949028015,7.186980724334718,-0.01278627198189497,-0.007941248,0.01038471,10
-6.413780689239503,-0.016977030783891678,7.186858177185059,-0.01278746873140335,0.0036651916,0.007330383,10
-6.413296699523926,-0.0166312325745821,7.186692714691162,-0.01278645172715187,-0.004276057,0.008857545999999999,10
-6.412779331207275,-0.0162033848464489,7.186515331268311,-0.012783621437847614,0.008552114,0.013439035,10
-6.4122514724731445,-0.01570267230272293,7.186345100402832,-0.012780169956386091,0.013133603,0.01160644,10
-6.411736011505128,-0.01514620240777731,7.186180114746094,-0.012778341770172121,0.013133603,0.0143553335,10
-6.411248207092285,-0.014558945782482626,7.186000347137451,-0.01278068032115698,0.014049901000000002,0.012217305,10
-6.4107933044433585,-0.01397246215492487,7.185781002044678,-0.012787334620952606,0.0036651916,0.01282817,10
-6.410368919372559,-0.01341995969414711,7.185516357421875,-0.012796090915799141,-0.0015271631,-0.00030543262000000003,10
-6.409970283508301,-0.012927036732435226,7.185213565826416,-0.01280422043055296,-0.003970624,0.01038471,10
-6.409597396850586,-0.012504272162914276,7.184886932373048,-0.01280989218503237,-0.0009162979,0.010995574,10
-6.40925407409668,-0.012146858498454094,7.184550762176514,-0.01281252596527338,0.005497787,0.01282817,10
-6.408947467803955,-0.011839685961604118,7.184219837188722,-0.012812583707273006,0.004886922,0.003970624,10
-6.40869140625,-0.011564991436898708,7.183900356292725,-0.0128109659999609,0.005192355,0.0143553335,10
-6.4085001945495605,-0.011306745931506157,7.183588981628418,-0.012807532213628292,0.006414085,0.0030543262,10
-6.408388614654541,-0.011057295836508274,7.183277606964111,-0.01280069537460804,0.005192355,0.011911872,10
-6.408364772796631,-0.010821213945746422,7.182967662811278,-0.012788219377398493,-0.005497787,0.011301007,10
-6.40842866897583,-0.010615194216370584,7.182679176330566,-0.01276842411607504,-0.0015271631,0.0030543262,10
-6.4085693359375,-0.010459260083734991,7.182448387145996,-0.012739717960357666,0.010995574,0.009468411,10
-6.40876579284668,-0.01036090962588787,7.182314395904541,-0.01269980240613222,0.005497787,0.005192355,10
-6.408981800079347,-0.010314335115253924,7.1823058128356925,-0.012646577320992948,0.009162978,0.007941248,10
-6.409171581268311,-0.010308130644261835,7.182443618774414,-0.012578997761011124,0.0061086523,0.009773844,10
-6.409299373626709,-0.010328827425837515,7.182730197906494,-0.012497402727603912,0.011301007,0.010690141499999998,10
-6.409339904785156,-0.010364995338022707,7.183150768280028,-0.012402904219925405,0.0015271631,0.01160644,10
-6.409281253814697,-0.01041040662676096,7.183684349060059,-0.012297815643250942,0.0067195175,0.01038471,10
-6.409133434295653,-0.010468187741935251,7.184314250946045,-0.012186608277261255,0.0030543262,0.009162978,10
-6.408931255340576,-0.010547137819230556,7.185019016265869,-0.012074938975274565,-0.0067195175,0.0018325958,10
-6.408724308013916,-0.010652019642293451,7.1857643127441415,-0.011968377977609634,-0.005192355,0.0067195175,10
-6.408559799194336,-0.010780751705169678,7.1865057945251465,-0.011871599592268469,0.0009162979,0.011301007,10
-6.408474445343018,-0.010928069241344929,7.18720293045044,-0.011788057163357736,-0.0015271631,0.002443461,10
-6.408485412597656,-0.01108943112194538,7.187825679779053,-0.011719024740159513,-0.005497787,0.003970624,10
-6.408580780029298,-0.011262931860983372,7.1883544921875,-0.01166348997503519,0.00061086525,0.0009162979,10
-6.408720970153809,-0.011449387297034264,7.188771724700928,-0.011618327349424362,0.003970624,0.008552114,10
-6.408851623535156,-0.011650814674794674,7.189065933227539,-0.0115789957344532,0.0070249503,0.0125227375,10
-6.408917427062987,-0.011863043531775476,7.189229965209961,-0.01154073141515255,0.008857545999999999,0.013439035,10
-6.4088687896728525,-0.012071290053427221,7.1892619132995605,-0.011499748565256596,0.002443461,0.010995574,10
-6.4086737632751465,-0.012251729145646095,7.189165115356445,-0.011453610844910143,0.005192355,0.008552114,10
-6.408327102661133,-0.01237519085407257,7.1889519691467285,-0.011401514522731304,0.013744468,0.010995574,10
-6.4078569412231445,-0.012408611364662649,7.18863582611084,-0.01134487334638834,0.0012217305,0.008246681,10
-6.407317638397218,-0.012322960421442986,7.188221454620361,-0.0112865986302495,-0.00580322,0.003970624,10
-6.406776905059815,-0.012105565518140793,7.1877098083496085,-0.011229227297008038,0.00030543262000000003,0.011911872,10
-6.406302452087402,-0.011763990856707096,7.187101364135742,-0.01117453258484602,-0.004886922,0.00580322,10
-6.405956745147705,-0.011319369077682495,7.186396598815918,-0.01112348772585392,0.005497787,0.01160644,10
-6.405789852142334,-0.010796272195875643,7.185589790344237,-0.011076390743255615,0.003970624,0.01038471,10
-6.405827045440674,-0.010217298753559591,7.184681415557861,-0.011033163405954838,0.00030543262000000003,0.008246681,10
-6.40606164932251,-0.009607408195734024,7.183700084686278,-0.01099349744617939,-0.0015271631,0.005192355,10
-6.406463623046875,-0.008993200957775116,7.182701110839844,-0.010957902297377586,0.002443461,0.008246681,10
-6.4069862365722665,-0.008396448567509651,7.1817474365234375,-0.01092760544270277,0.00580322,0.007941248,10
-6.407577991485597,-0.007831758819520473,7.180894374847412,-0.010903425514698029,0.0012217305,0.0061086523,10
-6.4081878662109375,-0.007309873588383199,7.180182933807372,-0.010886619798839092,0.01160644,0.007330383,10
-6.408761978149414,-0.006844277493655682,7.179640293121338,-0.010878785513341429,-0.004581489,0.007941248,10
-6.409263610839844,-0.006449724081903696,7.179280757904053,-0.010880288667976856,0.003970624,0.0036651916,10
-6.409672737121582,-0.006132923997938633,7.179105758666992,-0.010889830067753792,-0.00030543262000000003,0.0061086523,10
-6.409976005554199,-0.005887324456125498,7.179102420806885,-0.010905425064265728,0.0030543262,0.009468411,10
-6.410155296325684,-0.005702242720872164,7.179248809814452,-0.010925083421170713,-0.005497787,0.009773844,10
-6.4101972579956055,-0.005574839189648628,7.179524898529053,-0.010947045870125294,0.004581489,0.008857545999999999,10
-6.410105705261231,-0.005511385854333639,7.179921627044678,-0.01096975151449442,0.0015271631,0.008246681,10
-6.409904479980469,-0.005521542858332396,7.180441856384277,-0.01099210511893034,-0.0009162979,0.007941248,10
-6.409627437591553,-0.005613823886960746,7.181089878082275,-0.0110128503292799,0.008857545999999999,0.002443461,10
-6.409310817718506,-0.005792723502963781,7.181864261627197,-0.0110304057598114,-0.004581489,0.0036651916,10
-6.408989429473878,-0.006054495461285114,7.182753086090088,-0.011043919250369072,-0.00580322,0.009162978,10
-6.408691883087157,-0.006389136891812086,7.1837406158447275,-0.01105362456291914,-0.0015271631,0.005497787,10
-6.408438682556152,-0.006786908488720656,7.184804916381836,-0.011061109602451323,0.016798794,0.00580322,10
-6.408235549926758,-0.007241787388920784,7.185914516448975,-0.01106856670230627,0.015882496,0.004886922,10
-6.408071041107178,-0.007748320233076811,7.187026023864746,-0.011077272705733776,0.005192355,0.009468411,10
-6.4079179763793945,-0.008298845030367373,7.188091278076173,-0.011087569408118723,0.002443461,0.009162978,10
-6.407743453979492,-0.008882477879524231,7.189070224761963,-0.011099668219685556,-0.0027488936,0.011301007,10
-6.407528877258301,-0.009487967006862164,7.18993616104126,-0.01111310813575983,0.010995574,0.013439035,10
-6.407276153564452,-0.010107208043336868,7.190673351287843,-0.01112736202776432,0.011301007,0.007941248,10
-6.407005786895753,-0.010732597671449184,7.191269397735597,-0.011142680421471596,0.0036651916,0.009468411,10
-6.406742572784424,-0.011356029659509659,7.191718101501465,-0.011159365065395832,0.003970624,0.0067195175,10
-6.406507968902588,-0.011970642022788523,7.192028522491455,-0.011176491156220436,0.0027488936,0.01160644,10
-6.406318187713622,-0.012570862658321856,7.192224979400635,-0.011192131787538528,-0.0036651916,0.0033597588,10
-6.4061808586120605,-0.01315137930214405,7.192333698272705,-0.011205054819583893,0.008552114,0.010079277,10
-6.406097888946532,-0.013707049190998077,7.19237756729126,-0.011215157806873322,0.0021380284,0.0015271631,10
-6.4060707092285165,-0.01423515845090151,7.192380428314209,-0.011223549023270607,-0.00061086525,0.007330383,10
-6.406101703643799,-0.014739055186510088,7.192364692687987,-0.011232180520892143,-0.0015271631,0.005497787,10
-6.40618896484375,-0.015227945521473885,7.19235372543335,-0.01124333031475544,-0.00030543262000000003,0.0125227375,10
-6.406325817108153,-0.015712177380919456,7.192371845245361,-0.011258958838880062,0.008246681,0.005497787,10
-6.406504154205322,-0.016200119629502296,7.192447185516357,-0.011280247010290623,0.010995574,0.008552114,10
-6.406722068786621,-0.016693249344825745,7.192611217498778,-0.011307706125080584,0.007330383,0.01282817,10
-6.406974792480469,-0.017182977870106697,7.1928911209106445,-0.011342357844114305,0.009468411,0.0030543262,10
-6.407243728637695,-0.017654290422797203,7.193301677703857,-0.011385940946638584,0.0027488936,0.0033597588,10
-6.407497882843018,-0.018086755648255348,7.1938347816467285,-0.0114396121352911,0.00580322,0.00580322,10
-6.407702445983888,-0.01845376566052437,7.1944499015808105,-0.011502879671752451,0.003970624,-0.0015271631,10
-6.407827854156494,-0.018725506961345676,7.195090293884277,-0.011573509313166142,0.0033597588,0.005497787,10
-6.407860279083253,-0.01887461356818676,7.1957035064697275,-0.011648440733551979,0.008552114,0.01038471,10
-6.4078102111816415,-0.01888288557529449,7.19625997543335,-0.011725012212991714,0.0027488936,0.009773844,10
-6.407699108123778,-0.0187413077801466,7.196747303009032,-0.011801646091043949,-0.004886922,0.009468411,10
-6.407541751861572,-0.01844619587063789,7.197160243988037,-0.011878504417836666,-0.0009162979,0.007330383,10
-6.407341480255128,-0.01799762062728405,7.197498798370361,-0.011957102455198765,0.00061086525,0.00061086525,10
-6.4070916175842285,-0.017400475218892097,7.197769641876222,-0.012037933804094791,-0.0018325958,0.010079277,10
-6.406782627105713,-0.01666753739118576,7.197984218597412,-0.012119841761887074,0.007330383,0.00580322,10
-6.406411647796631,-0.015816383063793182,7.198151588439941,-0.012200674042105676,0.005192355,0.005497787,10
-6.405977725982666,-0.014866637997329237,7.198281764984131,-0.01227845810353756,0.0036651916,0.0030543262,10
-6.4054789543151855,-0.013840525411069391,7.198383331298827,-0.012351872399449348,0.011301007,0.011301007,10
-6.404906272888184,-0.012765439227223395,7.198457717895508,-0.0124200489372015,0.008552114,0.0076358155,10
-6.404248237609862,-0.011677698232233523,7.198496341705322,-0.012482305988669395,0.018936822,0.011301007,10
-6.403503894805907,-0.010622154921293259,7.198489189147949,-0.012537307105958462,0.01160644,0.008857545999999999,10
-6.402691841125487,-0.009644539095461369,7.198427677154541,-0.0125829903408885,0.0027488936,0.008552114,10
-6.4018497467041025,-0.008778771385550499,7.1983137130737305,-0.012617315165698528,0.003970624,0.004886922,10
-6.401022911071777,-0.008039309643208979,7.198148250579834,-0.012639380060136318,-0.00030543262000000003,0.009773844,10
-6.400256156921388,-0.007425885181874038,7.197928428649902,-0.012650520540773869,-0.0061086523,0.003970624,10
-6.3995914459228525,-0.006932463496923447,7.197652816772461,-0.012653983198106287,0.00061086525,0.008552114,10
-6.399064540863037,-0.00655262777581811,7.197317123413086,-0.012652771547436714,0.002443461,0.003970624,10
-6.3987059593200675,-0.006277643144130707,7.196917533874513,-0.012647963128983973,0.007330383,0.008246681,10
-6.398538589477539,-0.0060906754806637755,7.196455955505371,-0.01263798587024212,0.008246681,0.007330383,10
-6.398574352264403,-0.005962390452623367,7.195940971374513,-0.012620008550584316,0.0076358155,0.01160644,10
-6.3988094329833975,-0.005857634823769331,7.1953864097595215,-0.01259281113743782,-0.0021380284,0.0076358155,10
-6.3992228507995605,-0.0057576089166104785,7.194807529449463,-0.012558252550661564,-0.0036651916,0.0070249503,10
-6.399773597717285,-0.005670716986060143,7.1942176818847665,-0.012520083226263523,0.0061086523,0.016798794,10
-6.4004106521606445,-0.005624091718345881,7.1936278343200675,-0.012482019141316414,0.004886922,0.015271631,10
-6.40108585357666,-0.005647467914968729,7.193061828613281,-0.012445245869457722,0.00061086525,0.009162978,10
-6.401764392852782,-0.005756104830652475,7.192561626434326,-0.012408033944666386,0.0018325958,0.004886922,10
-6.402417182922362,-0.005945377517491579,7.192179203033447,-0.01236820500344038,0.008552114,0.0018325958,10
-6.403013706207275,-0.0062016420997679225,7.19196891784668,-0.01232469268143177,-0.0027488936,0.005497787,10
-6.40352201461792,-0.006515930406749249,7.191971778869629,-0.012277742847800257,-0.00061086525,0.01038471,10
-6.4039082527160645,-0.006887586321681738,7.192206859588622,-0.01222794409841299,0.0027488936,0.01038471,10
-6.40415096282959,-0.007318854331970216,7.192668914794923,-0.012174727395176888,0.0018325958,0.013439035,10
-6.404244899749756,-0.007809561677277087,7.193340301513673,-0.01211649924516678,0.004276057,0.007941248,10
-6.4041996002197275,-0.00835422333329916,7.194196701049805,-0.012051756493747234,0.008246681,0.016493361,10
-6.404035568237305,-0.00893778633326292,7.195208549499513,-0.01198015920817852,0.0033597588,0.008552114,10
-6.403774738311768,-0.00953626912087202,7.196334838867188,-0.011903454549610615,-0.0012217305,0.007941248,10
-6.4034423828125,-0.0101229939609766,7.197524070739746,-0.011825132183730602,0.00061086525,0.005192355,10
-6.403067111968994,-0.010670858435332777,7.198714256286621,-0.01174857933074236,0.005497787,0.003970624,10
-6.402682304382324,-0.011154619045555592,7.199845314025879,-0.011675701476633549,-0.00061086525,0.006414085,10
-6.402320861816406,-0.011559191159904005,7.200861930847168,-0.01160714402794838,0.007941248,0.0061086523,10
-6.4020018577575675,-0.011885720305144787,7.20172929763794,-0.011543366126716135,0.0027488936,0.010079277,10
-6.401724815368652,-0.01214901078492403,7.202428340911865,-0.011485203169286251,0.011301007,0.015271631,10
-6.401463508605957,-0.012371019460260868,7.202946186065674,-0.01143407728523016,-0.0036651916,0.006414085,10
-6.401169776916504,-0.012575818225741386,7.203277111053468,-0.011391591280698776,0.013744468,0.0061086523,10
-6.400790214538574,-0.012785266153514385,7.203432559967041,-0.011358290910720823,0.01038471,0.015577064,10
-6.4002861976623535,-0.013015004806220531,7.203429222106934,-0.011333882808685304,0.00580322,0.008246681,10
-6.39964771270752,-0.013271953910589218,7.203280448913574,-0.01131799165159464,0.01282817,0.016798794,10
-6.398892402648926,-0.013551881536841393,7.2029900550842285,-0.01131102815270424,0.0012217305,0.0015271631,10
-6.398057460784912,-0.013838940300047398,7.2025508880615225,-0.011314569041132929,0.0070249503,0.011301007,10
-6.397191047668457,-0.014113947749137878,7.201950073242188,-0.011330383829772472,-0.0021380284,0.011911872,10
-6.39634370803833,-0.014365347102284431,7.201181888580322,-0.011359790340065956,-0.0027488936,0.0067195175,10
-6.395560264587402,-0.014589450322091581,7.200254917144775,-0.011403135024011135,0.008552114,0.005497787,10
-6.394871234893799,-0.014786077663302422,7.199195384979247,-0.011459747329354286,0.0061086523,0.00580322,10
-6.394291877746582,-0.014952553436160088,7.198050498962402,-0.011528369039297104,0.0070249503,0.0125227375,10
-6.39382266998291,-0.015079547651112081,7.196876049041747,-0.0116077633574605,0.004886922,0.015882496,10
-6.393454074859619,-0.015157482586801054,7.1957316398620605,-0.01169692538678646,0.01282817,0.010690141499999998,10
-6.393174648284912,-0.015188516117632387,7.194667339324951,-0.011794861406087877,-0.0076358155,0.010079277,10
-6.392975807189941,-0.015190673992037771,7.193718910217285,-0.011900478973984718,0.004886922,0.009162978,10
-6.392851829528809,-0.015187292359769344,7.192910671234131,-0.012012472376227379,0.011301007,0.01038471,10
-6.392806529998778,-0.015194205567240715,7.192257404327393,-0.01212766021490097,0.003970624,0.003970624,10
-6.392842769622803,-0.015213513746857643,7.191767692565918,-0.012241509743034841,0.008246681,0.010995574,10
-6.392953872680664,-0.01523913722485304,7.191446304321289,-0.012350688688457012,0.004581489,0.009468411,10
-6.393129348754883,-0.015265204012393953,7.191298007965088,-0.012453841045498848,0.01282817,0.00580322,10
-6.393354415893555,-0.015288923867046831,7.191317558288574,-0.01255094911903143,0.0030543262,0.004886922,10
-6.39362096786499,-0.015315549448132515,7.191483020782472,-0.012642821297049522,-0.002443461,0.01282817,10
-6.3939313888549805,-0.015359696932137012,7.191760540008545,-0.012730307877063751,0.0015271631,0.011301007,10
-6.3943047523498535,-0.01543555688112974,7.192110061645508,-0.012813838198781012,0.0012217305,0.009773844,10
-6.394771099090576,-0.015545987524092197,7.192488670349121,-0.012893953360617159,0.0018325958,0.0070249503,10
-6.395359992980957,-0.015680285170674324,7.1928534507751465,-0.012972317636013031,-0.0027488936,0.004886922,10
-6.3960862159729,-0.015823138877749443,7.193169116973878,-0.013051128946244715,0.0076358155,0.007941248,10
-6.3969459533691415,-0.01596145518124104,7.19341516494751,-0.013131456449627876,0.009162978,0.004886922,10
-6.397911071777344,-0.01608300767838955,7.193577289581299,-0.01321224682033062,0.009773844,0.0030543262,10
-6.398934841156006,-0.01617463119328022,7.19364595413208,-0.013290137983858584,0.0067195175,0.009468411,10
-6.399955749511719,-0.016221461817622185,7.193617820739746,-0.013360077515244484,0.0015271631,0.0021380284,10
-6.400909900665282,-0.016210105270147324,7.193502902984619,-0.013417298905551434,0.010079277,0.010079277,10
-6.401736736297607,-0.016138345003128052,7.1933183670043945,-0.013459144160151482,0.007941248,0.009162978,10
-6.40239143371582,-0.01601526327431202,7.193083763122559,-0.013484676368534563,0.015271631,0.02076942,10
-6.402851104736327,-0.015855198726058006,7.19281530380249,-0.01349466573446989,0.01160644,0.0030543262,10
-6.40311861038208,-0.015671446919441227,7.192524433135986,-0.0134916128590703,0.00580322,0.005497787,10
-6.403224468231201,-0.015467791818082331,7.192220211029053,-0.013478507287800312,0.0036651916,0.0067195175,10
-6.403220653533936,-0.015237932093441488,7.191917896270753,-0.01345859281718731,-0.0021380284,0.004886922,10
-6.403176784515381,-0.014974520541727545,7.191636085510254,-0.013435857370495794,0.0015271631,0.008246681,10
