timestamp,rel_time,acc_x,acc_y,acc_z,gyro_x,gyro_y,gyro_z,azimuth,pitch,roll,label
0.0,0.0,0.0,0.0,0.0,0.0,0.009468411,0.013744468000000001,179.11417,-73.86384,-2.0789614,STD
3741799000.0,1.542173595225904e-05,0.0007265263120643795,0.029449140653014183,-0.003252444788813591,-5.024564597988501e-05,0.015271631,0.004886922,178.7134,-73.42591999999999,-1.9459034,STD
11169734000.0,7.538362842751667e-05,0.0020965507719665766,0.0879572406411171,-0.00946820992976427,-0.00016454074648208916,0.022602014,-0.0033597588,178.3038,-73.014984,-1.8205818999999999,STD
22174458000.0,0.00020992053032387048,0.004241528455168009,0.17464402318000793,-0.01998765952885151,-0.00025525354431010783,0.020463986,0.003970624,177.89326,-72.61523000000001,-1.6992698,STD
36596820000.0,0.0004485124081838876,0.0072343358770012856,0.2882518768310547,-0.035742346197366714,-0.0003562142082955688,0.009773844,0.002443461,177.48311,-72.21838000000001,-1.5885106000000002,STD
54233362000.0,0.0008060627151280642,0.011086054146289825,0.42717793583869934,-0.05708746612071991,-0.0004353181866463274,0.002443461,0.003970624,177.08356,-71.841095,-1.4859655,STD
74843120000.0,0.0013167938450351357,0.01580064743757248,0.5895395874977112,-0.08379566669464111,-0.00018587225349619985,0.007330383,0.00580322,176.67722,-71.46425,-1.3885882,STD
98155240000.0,0.0019854437559843063,0.020409412682056427,0.7734609842300415,-0.09672055393457413,9.628001134842634e-05,-0.0012217305,0.004276057,176.486641529412,-71.2836830319918,-1.3434761041692502,STD
123877106000.0,0.002837015315890312,0.024587860330939293,0.9768047332763672,-0.09189609438180923,-5.5785982112865895e-05,-0.0021380284,0.011301007,176.2748,-71.08296999999999,-1.2933308000000001,STD
151702440000.0,0.003883873810991645,0.02809573896229267,1.198238492012024,-0.10129853338003159,-0.00031076569575816393,-0.007330383,0.011301007,175.81187,-70.667,-1.1934743,STD
181319090000.0,0.005127837881445885,0.030784428119659424,1.4354358911514282,-0.1264006644487381,-0.0007796405116096139,-0.017715093,0.020158553,175.50404,-70.36365500000001,-1.1180121,STD
212416170000.0,0.006579209119081497,0.035020750015974045,1.6845234632492065,-0.16368938982486725,-0.0012009193887934089,-0.015577064,0.014049901000000002,175.19302,-70.06574,-1.0505726,STD
244690300000.0,0.008241995237767696,0.04119693860411644,1.942911148071289,-0.21357505023479462,-0.0015622159698978066,-0.024129177,0.00580322,174.88446000000002,-69.76990500000001,-0.98262215,STD
277850980000.0,0.01011711172759533,0.047873806208372116,2.2074623107910156,-0.251893013715744,-0.0018831143388524652,-0.036957346,0.01038471,174.47908,-69.42846999999999,-0.9168644,STD
311624630000.0,0.01219862513244152,0.05379422381520271,2.475318670272827,-0.2581891715526581,-0.002390132984146476,-0.052534412999999995,0.009468411,174.07672,-69.09223,-0.85869277,STD
345757880000.0,0.014509531669318676,0.0576002299785614,2.7447874546051025,-0.26743483543395996,-0.0026473086327314377,-0.07574729,0.0009162978999999999,173.6052,-68.69993000000001,-0.7875803000000001,STD
380019470000.0,0.016992226243019104,0.059387803077697754,3.014486312866211,-0.2911006808280945,-0.0027436246164143085,-0.07971791,-0.0036651915999999997,173.13298,-68.31474,-0.7230270999999999,STD
414201700000.0,0.019663440063595772,0.06290366500616074,3.2815914154052734,-0.3311718702316284,-0.00337907369248569,-0.07147124,-0.010079277,172.81331,-68.043785,-0.6767865,STD
448120650000.0,0.022516954690217972,0.07007980346679688,3.544114589691162,-0.38781845569610596,-0.004182931501418352,-0.07513642,-0.02107485,172.49652,-67.78059,-0.63437,STD
481615970000.0,0.025544509291648865,0.08107829093933105,3.802142381668091,-0.4313561022281647,-0.0049640038050711155,-0.064446285,-0.0125227375,172.09682,-67.47168,-0.60286516,STD
514550100000.0,0.02873069979250431,0.09584352374076843,4.055253028869629,-0.44848203659057617,-0.006006509065628052,-0.03726278,-0.014966198,171.69481000000002,-67.16556,-0.582819,STD
546807150000.0,0.0320698544383049,0.11137616634368896,4.3028035163879395,-0.4539429247379303,-0.007348604034632444,-0.021991148999999998,-0.018936822,171.21991,-66.7983,-0.5490045,STD
578291400000.0,0.03555316850543022,0.12589550018310547,4.54420804977417,-0.45649492740631104,-0.008931607939302921,-0.014049901000000002,-0.01740966,170.73993000000002,-66.438354,-0.52279246,STD
608925600000.0,0.039172977209091187,0.13908453285694122,4.780414581298828,-0.46047037839889526,-0.01006857119500637,0.0076358155,-0.013133603,170.37943,-66.19251,-0.48928177,STD
638649300000.0,0.04291345179080963,0.15079708397388458,5.011767864227295,-0.4682314693927765,-0.011482742615044117,0.0125227375,-0.01160644,170.01946999999998,-65.94445999999999,-0.45871004,STD
667417100000.0,0.04676765576004982,0.16090387105941772,5.237468242645264,-0.47687476873397827,-0.012277583591639996,0.0018325957999999999,-0.0076358155,169.66089,-65.72,-0.4312135,STD
695197000000.0,0.05075345188379288,0.16919517517089844,5.457128524780273,-0.48448699712753296,-0.012609042227268219,-0.010995574,0.0018325957999999999,169.29869,-65.49659,-0.40573117,STD
721968370000.0,0.05480891466140747,0.17612360417842865,5.6697096824646,-0.4924392104148865,-0.012369555421173573,-0.03481932,-0.0015271631,168.92487,-65.2723,-0.38839868,STD
747721000000.0,0.058953918516635895,0.18167288601398468,5.874868392944336,-0.5016502737998962,-0.011618942022323608,-0.055283304000000005,0.008552114,168.54875,-65.0544,-0.36766905,STD
772453100000.0,0.06318104267120361,0.1855931133031845,6.072032928466797,-0.5137468576431274,-0.010703015141189098,-0.0693332,0.010690141499999998,168.17082,-64.8413,-0.35511917,STD
796170200000.0,0.06748088449239731,0.1876111626625061,6.260606288909912,-0.5305706858634949,-0.009491769596934319,-0.07666359,0.010079277,167.7936,-64.63595,-0.34266663,STD
818883900000.0,0.07184799015522003,0.18863429129123688,6.439300537109375,-0.5510881543159485,-0.008133557625114918,-0.079107046,0.008857545999999999,167.40376,-64.425255,-0.3364092,STD
840611000000.0,0.07627740502357483,0.1893787533044815,6.6071858406066895,-0.5744614005088806,-0.007018578238785267,-0.08063421400000001,0.003970624,167.01428,-64.21840999999999,-0.33419874,STD
861372200000.0,0.0807650238275528,0.19034671783447266,6.7661967277526855,-0.5998067855834961,-0.00586050795391202,-0.054367005999999996,0.0030543262,166.58739,-63.99715,-0.34450182,STD
881191550000.0,0.08530072867870331,0.19200634956359863,6.91823673248291,-0.6262087821960449,-0.004459927789866924,-0.025045475,0.008552114,166.15842,-63.780944999999996,-0.35869014,STD
900095500000.0,0.08988169580698013,0.1945672631263733,7.063243865966797,-0.6529439687728882,-0.0034049544483423233,0.0033597588,0.005192355,165.69849,-63.54485,-0.38391837,STD
918112440000.0,0.09450656175613403,0.19821228086948395,7.201204776763916,-0.6793878674507141,-0.0029010644648224115,0.03145956,0.005192355,165.22885,-63.315018,-0.41506094,STD
935272250000.0,0.09916644543409348,0.20307882130146027,7.332584857940674,-0.7057332396507263,-0.002830282086506486,0.04337143,-0.0027488936,164.74849,-63.082783,-0.45413679999999995,STD
951605500000.0,0.10386171191930771,0.2093680053949356,7.457871913909912,-0.7322296500205994,-0.0030155666172504425,0.06414085,0.0015271631,164.25599999999997,-62.854767,-0.49948004,STD
967143460000.0,0.10858950763940811,0.2168867141008377,7.577701091766357,-0.7580283880233765,-0.0034611201845109463,0.07086037,0.005192355,163.7634,-62.63046,-0.54772586,STD
981917430000.0,0.11336041986942291,0.2254289835691452,7.693029880523682,-0.7817221879959106,-0.0038847592659294605,0.064751714,0.010995574,163.26674,-62.412266,-0.59989655,STD
995958700000.0,0.11813689768314362,0.23437915742397308,7.803122520446777,-0.8044576644897461,-0.004239604342728853,0.044593163,0.018020526000000002,162.75865,-62.19814,-0.6475054,STD
1009298300000.0,0.12293678522109985,0.24337264895439148,7.907465934753418,-0.8272834420204163,-0.005438654217869043,0.02565634,0.026572637000000003,162.24983,-61.98510400000001,-0.6973435,STD
1021966750000.0,0.12775659561157227,0.251648873090744,8.006961822509766,-0.8506373763084412,-0.006577352061867714,-0.0070249503,0.03145956,161.75433,-61.790344,-0.741816,STD
1033993900000.0,0.13259421288967133,0.2582380175590515,8.102686882019043,-0.875091016292572,-0.007658385671675205,-0.03481932,0.029321532999999997,161.26115,-61.59652,-0.7886,STD
1045409000000.0,0.13744673132896423,0.26334986090660095,8.194458961486816,-0.9014362096786499,-0.00879672635346651,-0.062002823,0.030543262,160.7705,-61.410430000000005,-0.83139384,STD
1056240300000.0,0.14231732487678528,0.2671915292739868,8.2820405960083,-0.9307202696800232,-0.009539291262626648,-0.07269296,0.03268129,160.28195,-61.23216600000001,-0.8774421,STD
1066515370000.0,0.14719711244106293,0.2700681686401367,8.365303993225098,-0.9611066579818726,-0.010211513377726078,-0.06994407,0.031154128,159.78398,-61.050194,-0.9326054,STD
1076260700000.0,0.1520913541316986,0.27230849862098694,8.444028854370117,-0.9904136061668396,-0.010091745294630527,-0.059864793,0.03481932,159.2851,-60.87967,-0.98992217,STD
1085501870000.0,0.15699443221092224,0.27394235134124756,8.518094062805176,-1.0179309844970703,-0.009139412082731724,-0.05375614,0.03176499,158.76641999999998,-60.70146999999999,-1.0609323,STD
1094263600000.0,0.1619095355272293,0.27497223019599915,8.587017059326172,-1.0422027111053467,-0.007800597697496414,-0.029932396,0.024740042,158.2404,-60.531467000000006,-1.1404548,STD
1102569400000.0,0.16683079302310944,0.2749919593334198,8.651270866394043,-1.063083291053772,-0.006272938102483749,0.01160644,0.016187929,157.70949,-60.379253000000006,-1.2284473,STD
1110442000000.0,0.1717616468667984,0.2732503414154053,8.711417198181152,-1.0801079273223877,-0.004129641689360142,0.032986722999999996,0.013439035,157.17711,-60.237526,-1.3214471,STD
1117903100000.0,0.17669998109340668,0.27035677433013916,8.768267631530762,-1.0935603380203247,-0.0016615255735814571,0.057726767000000005,0.004581489,156.6408,-60.102430000000005,-1.4283139999999999,STD
1124973500000.0,0.18164348602294922,0.2673623263835907,8.823148727416992,-1.1037825345993042,0.0007096338085830212,0.07574729,-0.0009162978999999999,156.09956,-59.974304000000004,-1.5408868999999998,STD
1131673000000.0,0.18659289181232452,0.26377877593040466,8.876153945922852,-1.109965205192566,0.003636750625446439,0.086132,0.0009162978999999999,155.5498,-59.85943,-1.6599486,STD
1138020600000.0,0.1915498524904251,0.2586461901664734,8.92736530303955,-1.11036217212677,0.006507214158773422,0.093462385,-0.0033597588,154.99657,-59.74661,-1.7874279,STD
1144034200000.0,0.19650956988334656,0.2522657513618469,8.977277755737305,-1.1053872108459473,0.010167059488594532,0.096516706,-0.007330383,154.45456000000001,-59.656105000000004,-1.9167478,STD
1149731000000.0,0.20147347450256348,0.24520905315876007,9.027091026306152,-1.09535813331604,0.013341957703232765,0.10751228,-0.005497787,153.90665,-59.56419,-2.0509076,STD
1155127300000.0,0.20644257962703705,0.23725000023841858,9.076802253723145,-1.0811454057693481,0.01613832451403141,0.103847094,-0.00580322,153.37896999999998,-59.49508,-2.1855884,STD
1160238900000.0,0.21141952276229858,0.22770819067955017,9.126391410827637,-1.06467866897583,0.018397359177470207,0.09560041,-0.0125227375,152.84799999999998,-59.427288,-2.3248796,STD
1165080400000.0,0.2163986712694168,0.21692588925361633,9.175232887268066,-1.0463119745254517,0.019708814099431038,0.09193522,-0.01160644,152.3326,-59.37129,-2.4621542,STD
1169666000000.0,0.22137992084026337,0.2057700753211975,9.221253395080566,-1.0267930030822754,0.02057730220258236,0.08460484,-0.019547688,151.8198,-59.318817,-2.603702,STD
1174008900000.0,0.22636845707893372,0.194087952375412,9.264552116394043,-1.0061209201812744,0.02089618518948555,0.08032878,-0.015577064,151.31433,-59.2728,-2.7470092999999998,STD
1178121900000.0,0.23135341703891754,0.1801927536725998,9.304783821105957,-0.984227180480957,0.020759450271725655,0.0720821,-0.028405233999999998,150.8125,-59.22779,-2.8966147999999996,STD
1182017100000.0,0.23633816838264465,0.1642419695854187,9.34221363067627,-0.9611397981643677,0.020678721368312836,0.070249505,-0.032070424,150.31476,-59.186554,-3.0466029999999997,STD
1185705900000.0,0.24132752418518066,0.14690139889717102,9.377881050109863,-0.9368176460266113,0.020179662853479385,0.0720821,-0.03604105,149.81718,-59.143269999999994,-3.2007315,STD
1189199200000.0,0.24631546437740326,0.12829221785068512,9.411873817443848,-0.9113785624504089,0.019235646352171898,0.0693332,-0.054367005999999996,149.33267,-59.10501,-3.3656513999999995,STD
1192507300000.0,0.2513100206851959,0.10882792621850967,9.442076683044434,-0.883985161781311,0.017545072361826897,0.06750060599999999,-0.05467244,148.84238,-59.066177,-3.5287062999999996,STD
1195640000000.0,0.2563003897666931,0.08871643245220184,9.468273162841797,-0.8546846508979797,0.015098740346729755,0.070554934,-0.06414085,148.35254,-59.026665,-3.699907,STD
1198606400000.0,0.26129788160324097,0.06969619542360306,9.490936279296875,-0.824695885181427,0.011920489370822906,0.08155051,-0.06841691,147.86072,-58.983276000000004,-3.8769697999999995,STD
1201415400000.0,0.26629266142845154,0.05233365669846535,9.510455131530762,-0.7945766448974609,0.008016654290258884,0.07971791,-0.0711658,147.36937,-58.93806,-4.055358999999999,STD
1204075200000.0,0.2712879776954651,0.03599145635962486,9.527955055236816,-0.7652092576026917,0.0034257827792316675,0.07360926,-0.07513642,146.89055,-58.890446,-4.238151,STD
1206593900000.0,0.27628445625305176,0.019779197871685028,9.54501724243164,-0.7378964424133301,-0.002092138398438692,0.055588737,-0.087659165,146.41353999999998,-58.839073,-4.4222255,STD
1208978900000.0,0.28127843141555786,0.004013206344097853,9.561741828918457,-0.7133227586746216,-0.008504091762006283,0.037873644,-0.099571034,145.94826,-58.785175,-4.6023335,STD
1211237300000.0,0.28627389669418335,-0.010661589913070202,9.578333854675293,-0.6930851340293884,-0.014672516845166683,0.035430185,-0.11301007,145.48256999999998,-58.733256999999995,-4.78592,STD
1213375700000.0,0.29127082228660583,-0.023223038762807846,9.593354225158691,-0.6782342791557312,-0.020545240491628647,0.036957346,-0.11484267,145.01369,-58.677563,-4.971176,STD
1215400600000.0,0.29626762866973877,-0.03122100420296192,9.6034517288208,-0.6715055108070374,-0.02568238042294979,0.0421497,-0.11942416,144.5438,-58.62609499999999,-5.160806,STD
1217318100000.0,0.3012658357620239,-0.03499723970890045,9.609040260314941,-0.6720322370529175,-0.030578618869185448,0.04550946,-0.11942416,144.06063999999998,-58.57572,-5.353119,STD
1219133700000.0,0.3062621057033539,-0.036303311586380005,9.612566947937012,-0.673539400100708,-0.03418907895684242,0.052839845,-0.12095132,143.57312,-58.536076,-5.5484195,STD
1220852800000.0,0.31126338243484497,-0.03510952368378639,9.61435604095459,-0.6760445237159729,-0.03750967979431152,0.05009095,-0.12186762,143.07262,-58.493984,-5.740169,STD
1222480800000.0,0.3162608742713928,-0.030431373044848442,9.617602348327637,-0.6799684762954712,-0.04081619903445244,0.032070424,-0.12797627,142.57228,-58.459095,-5.9326625,STD
1224022300000.0,0.3212580978870392,-0.022408943623304367,9.622247695922852,-0.6852555871009827,-0.043979186564683914,0.008857545999999999,-0.13347405,142.0759,-58.430576,-6.1183825,STD
1225481900000.0,0.3262576162815094,-0.011436469852924347,9.625872611999512,-0.6934403777122498,-0.046241410076618195,-0.004581489,-0.13347405,141.57893,-58.40863,-6.3032894,STD
1226864100000.0,0.33125460147857666,0.002206585370004177,9.627947807312012,-0.7047154307365417,-0.04768335819244385,-0.024129177,-0.12980886,141.08678999999998,-58.38961,-6.484527,STD
1228173000000.0,0.33625298738479614,0.017919601872563362,9.628960609436035,-0.7182060480117798,-0.048364974558353424,-0.03848451,-0.12797627,140.59555,-58.38739399999999,-6.6533957,STD
1229412400000.0,0.34125056862831116,0.035532478243112564,9.629007339477539,-0.7337148785591125,-0.04870106279850006,-0.04276056599999999,-0.11911872,140.10248,-58.390553000000004,-6.818598,STD
1230586000000.0,0.34625017642974854,0.05205307528376579,9.628510475158691,-0.7503763437271118,-0.04831942170858383,-0.038179077,-0.10812314599999999,139.60236,-58.404033999999996,-6.977761699999999,STD
1231697300000.0,0.3512493669986725,0.06631367653608322,9.627663612365723,-0.7677810192108154,-0.04795811325311661,-0.044593163,-0.10323623,139.1032,-58.418587,-7.134479,STD
1232749900000.0,0.3562474250793457,0.07843822985887527,9.626486778259277,-0.7858850955963135,-0.04693248122930527,-0.036651913,-0.09682214,138.59021,-58.445927000000005,-7.2865649999999995,STD
1233746500000.0,0.361249178647995,0.08851587027311325,9.624990463256836,-0.804680347442627,-0.045717354863882065,-0.025350908,-0.10293079,138.07683,-58.473347,-7.440671400000001,STD
1234690400000.0,0.3662891387939453,0.09352071583271027,9.628515243530273,-0.8254742622375488,-0.04412751644849777,-0.02443461,-0.10995574,137.56223,-58.500404,-7.5990753,STD
1235584200000.0,0.3712886571884155,0.09390352666378021,9.637296676635742,-0.847773551940918,-0.042361967265605927,-0.0027488936,-0.109650314,137.03701999999998,-58.530840000000005,-7.762175599999999,STD
1236430600000.0,0.37628862261772156,0.09001510590314865,9.651947021484375,-0.8732368350028992,-0.04008826985955238,0.021380282999999996,-0.10079276599999999,136.48827,-58.553931999999996,-7.9452243000000005,STD
1237232300000.0,0.38128840923309326,0.08255023509263992,9.672122955322266,-0.9023882746696472,-0.0388471893966198,0.033292156,-0.08552113,135.93375,-58.574516,-8.127835000000001,STD
1237991400000.0,0.38628754019737244,0.07063980400562286,9.694028854370117,-0.9339596629142761,-0.038795311003923416,0.046120327,-0.06963864,135.34239,-58.600716000000006,-8.332839,STD
1238710400000.0,0.39128947257995605,0.05381159856915474,9.71549129486084,-0.9672285318374634,-0.03949491307139397,0.05131268,-0.05589417,134.74582,-58.628876,-8.534651,STD
1239391300000.0,0.39628875255584717,0.0338280126452446,9.735004425048828,-1.0005323886871338,-0.04015723988413811,0.056199603,-0.063224554,134.11058,-58.655342000000005,-8.762097,STD
1240036100000.0,0.4012882709503174,0.012258143164217472,9.751091957092285,-1.0323266983032227,-0.040475014597177505,0.040927973,-0.06078109,133.47394,-58.685734,-8.980686,STD
1240647000000.0,0.40628644824028015,-0.009573615156114101,9.763883590698242,-1.0636852979660034,-0.04111766815185547,0.022907447,-0.07147124,132.80685,-58.696587,-9.23445,STD
1241225500000.0,0.4112866520881653,-0.030700409784913063,9.773472785949707,-1.095435619354248,-0.04076574742794037,0.013439035,-0.083383106,132.1399,-58.72059,-9.485203,STD
1241773500000.0,0.416286438703537,-0.04915251210331917,9.779970169067383,-1.1275893449783325,-0.03942341357469559,0.015882496,-0.09010262,131.46829,-58.73285,-9.748527000000001,STD
1242292600000.0,0.42128562927246094,-0.06084570661187172,9.783370971679688,-1.1602299213409424,-0.03675279766321182,0.03359759,-0.093767814,130.79516999999998,-58.756040000000006,-10.012488000000001,STD
1242784200000.0,0.42628636956214905,-0.06590230017900467,9.785707473754883,-1.1923061609268188,-0.032743290066719055,0.06536258,-0.105068825,130.10696000000002,-58.77895,-10.288464999999999,STD
1243249900000.0,0.43128660321235657,-0.06450594961643219,9.789155960083008,-1.2226730585098267,-0.026424512267112732,0.10751228,-0.10079276599999999,129.40866,-58.820187,-10.562479,STD
1243691100000.0,0.4363233745098114,-0.05613945797085762,9.793829917907715,-1.2514218091964722,-0.018342720344662666,0.17562376,-0.10170906,128.70715,-58.876575,-10.833162,STD
1244109000000.0,0.44132426381111145,-0.04281335324048996,9.799336433410645,-1.278638482093811,-0.00833143200725317,0.2519819,-0.09468412,127.98928000000001,-58.9523,-11.104704,STD
1244504800000.0,0.4463164210319519,-0.025668980553746223,9.806076049804688,-1.302932620048523,0.0035228105261921883,0.3277292,-0.08521569999999999,127.25608999999999,-59.04148000000001,-11.383602999999999,STD
1244879900000.0,0.4513135850429535,-0.007667100988328457,9.814733505249023,-1.3213777542114258,0.017317119985818863,0.3930918,-0.07360926,126.502365,-59.148014,-11.665453,STD
1245235200000.0,0.45630744099617004,0.009816383011639118,9.824438095092773,-1.3336024284362793,0.03223191574215889,0.46303585,-0.05131268,125.74112,-59.297509999999996,-11.905161999999999,STD
1245572000000.0,0.4613056480884552,0.023523859679698944,9.833367347717285,-1.337677001953125,0.04727968946099281,0.52320606,-0.023518313,124.96031,-59.459835,-12.144636,STD
1245891000000.0,0.4662988781929016,0.032501544803380966,9.841014862060547,-1.3340835571289062,0.06222546845674515,0.55863625,-0.009162978,124.18868,-59.647728,-12.363984,STD
1246193300000.0,0.4712975323200226,0.03349211439490318,9.845924377441406,-1.322396159172058,0.07634221762418747,0.5729916,-0.0015271631,123.40086000000001,-59.840945999999995,-12.579767,STD
1246479600000.0,0.47629567980766296,0.026211706921458244,9.848145484924316,-1.3032139539718628,0.08897418528795242,0.5839871999999999,0.0061086523,122.62965,-60.03684200000001,-12.783926,STD
1246751100000.0,0.4812953770160675,0.008824320510029793,9.847432136535645,-1.2768628597259521,0.09958197176456451,0.58032197,0.023823743999999997,121.85288,-60.23321,-12.979909,STD
1247008400000.0,0.48629188537597656,-0.018054211512207985,9.844813346862793,-1.244053602218628,0.10856642574071884,0.56413406,0.028405233999999998,121.100075,-60.41157,-13.181212,STD
1247252200000.0,0.49129360914230347,-0.05452800542116165,9.842578887939453,-1.2053959369659424,0.11557457596063614,0.5467244000000001,0.040011674,120.34228,-60.585944999999995,-13.3718815,STD
1247483300000.0,0.496290922164917,-0.09941127896308899,9.840415954589844,-1.1616370677947998,0.12015831470489502,0.50518554,0.036957346,119.63571999999999,-60.728954,-13.578325,STD
1247702300000.0,0.5012903809547424,-0.15084272623062134,9.836721420288086,-1.1138581037521362,0.12368391454219818,0.46609017,0.026572637000000003,118.92953999999999,-60.872314,-13.778038,STD
1247909900000.0,0.5063021779060364,-0.20878858864307404,9.831494331359863,-1.0620852708816528,0.1253776252269745,0.41416663,0.011301007,118.25223500000001,-60.975735,-13.992521,STD
1248106800000.0,0.5113018155097961,-0.2706581950187683,9.824041366577148,-1.00981605052948,0.12538589537143707,0.35705075,-0.00061086525,117.58508,-61.075775,-14.199323999999999,STD
1248293400000.0,0.5163140296936035,-0.3369385004043579,9.814133644104004,-0.9572243094444275,0.12291957437992096,0.30818152,-0.011301007,116.94254,-61.134964000000004,-14.422251000000001,STD
1248470400000.0,0.5213124752044678,-0.4070637822151184,9.800848007202148,-0.9100390076637268,0.11903834342956543,0.24312437,-0.01863139,116.31868,-61.191456,-14.634236999999999,STD
1248638100000.0,0.5263088941574097,-0.4811519980430603,9.784193992614746,-0.868086040019989,0.11358972638845444,0.20097467,-0.031154128,115.70865,-61.208878000000006,-14.867117000000002,STD
1248797300000.0,0.5313080549240112,-0.5544278621673584,9.769168853759766,-0.8312258124351501,0.10813848674297333,0.16768251,-0.034208454,115.11178600000001,-61.228565,-15.088339999999999,STN
1248948100000.0,0.5363013744354248,-0.6255751252174377,9.756975173950195,-0.799121618270874,0.10229410976171494,0.14355333,-0.05100725,114.525566,-61.236731999999996,-15.308259,STN
1249091300000.0,0.5413022041320801,-0.6926684379577637,9.747708320617676,-0.7721967101097107,0.09646820276975632,0.11362094,-0.061391957000000004,113.9235,-61.21521800000001,-15.561601000000001,STN
1249226900000.0,0.5462962985038757,-0.7554547190666199,9.741129875183105,-0.7501202821731567,0.0907248929142952,0.07819075,-0.08155051,113.33191000000001,-61.189969999999995,-15.813073000000001,STN
1249355600000.0,0.5512954592704773,-0.8145190477371216,9.737616539001465,-0.732429027557373,0.08483189344406128,0.049480084,-0.08704830000000001,112.73227,-61.16482,-16.067238,STN
1249477800000.0,0.5562909245491028,-0.870185375213623,9.737044334411621,-0.7186846137046814,0.07886228710412979,0.014966198,-0.09315695,112.1458,-61.138966,-16.316366,STN
1249593700000.0,0.5612907409667969,-0.9210482239723206,9.738561630249023,-0.7099634408950806,0.07425256818532944,-0.021685716,-0.08307768,111.54918,-61.128574,-16.556504999999998,STN
1249703600000.0,0.5662850141525269,-0.9669499397277832,9.741748809814453,-0.7062079906463623,0.07094653695821762,-0.06811147,-0.07727446,110.96571000000002,-61.118126000000004,-16.788677,STN
1249808100000.0,0.5712847709655762,-1.0074204206466675,9.74502182006836,-0.7047178149223328,0.06838640570640564,-0.12980886,-0.08246681,110.38671000000001,-61.120335,-17.012455,STN
1249907200000.0,0.5762902498245239,-1.0425374507904053,9.74787425994873,-0.704536497592926,0.06563716381788254,-0.18142697,-0.101098195,109.81862,-61.124559999999995,-17.228801999999998,STN
1250001300000.0,0.5812942981719971,-1.073355793952942,9.749265670776367,-0.7084492444992065,0.061211369931697845,-0.21746802,-0.10445796,109.24305,-61.138577000000005,-17.432194,STN
1250090700000.0,0.586290180683136,-1.1004940271377563,9.748800277709961,-0.7175024747848511,0.05591458082199097,-0.22999077,-0.11881329,108.67913999999999,-61.151478000000004,-17.63513,STN
1250175500000.0,0.5912904143333435,-1.1234028339385986,9.744762420654297,-0.7309666872024536,0.05008620396256447,-0.23365596,-0.11759156,108.12741000000001,-61.171074,-17.82017,STN
1250256100000.0,0.5962883234024048,-1.142101764678955,9.736705780029297,-0.7481968402862549,0.044340554624795914,-0.22540927,-0.13561209,107.58006,-61.184765000000006,-18.009525,STN
1250332600000.0,0.6012884378433228,-1.1554383039474487,9.725648880004883,-0.766839325428009,0.038022130727767944,-0.20189096,-0.16401732,107.00828600000001,-61.19421,-18.205208,STN
1250405400000.0,0.60628741979599,-1.1631149053573608,9.712211608886719,-0.7857255935668945,0.03221948444843292,-0.1695151,-0.18417588,106.43348999999999,-61.207928,-18.40053,STN
1250474600000.0,0.6112874150276184,-1.164264440536499,9.697546005249023,-0.8026105761528015,0.02804454043507576,-0.15607607,-0.20738874,105.844894,-61.218452,-18.604698000000003,STN
1250540300000.0,0.6162875294685364,-1.158570647239685,9.682357788085938,-0.8162481188774109,0.02695690281689167,-0.15027285,-0.23762658,105.25335,-61.233869999999996,-18.813368,STN
1250602800000.0,0.6212873458862305,-1.1484267711639404,9.66637897491455,-0.8240453004837036,0.029654741287231445,-0.14844026,-0.24678956,104.67344,-61.270412,-19.007683,STN
1250662200000.0,0.6262910962104797,-1.1350163221359253,9.64947509765625,-0.8248278498649597,0.03412953391671181,-0.16737708,-0.26053402,104.101906,-61.306743999999995,-19.204294,STN
1250718600000.0,0.6312909722328186,-1.1190268993377686,9.63187026977539,-0.8191788792610168,0.03893555700778961,-0.19058995,-0.26572640000000003,103.55479,-61.372814,-19.367828,STN
1250772400000.0,0.6362908482551575,-1.1007860898971558,9.613652229309082,-0.8073652982711792,0.04364822804927826,-0.23151793,-0.27488935,103.019745,-61.44242,-19.527693,STN
1250823600000.0,0.6412928104400635,-1.0815976858139038,9.59536075592041,-0.7924209833145142,0.048321355134248734,-0.28069258,-0.28069258,102.53390999999999,-61.523697,-19.655104,STN
1250872400000.0,0.6462926864624023,-1.0621647834777832,9.57728385925293,-0.775992214679718,0.05152463540434837,-0.3381139,-0.29168814,102.06299999999999,-61.597813,-19.777893,STN
1250918800000.0,0.6512907147407532,-1.0448144674301147,9.557095527648926,-0.7589846253395081,0.05148078501224518,-0.39278635,-0.28252518,101.64128000000001,-61.67275,-19.870160000000002,STN
1250963000000.0,0.6562874913215637,-1.0306737422943115,9.53366756439209,-0.7418678402900696,0.048248909413814545,-0.4529566,-0.26908615,101.23734,-61.741769999999995,-19.955448,STN
1251005000000.0,0.6612863540649414,-1.0199733972549438,9.507760047912598,-0.7251430153846741,0.040729276835918427,-0.5155702999999999,-0.24892759999999997,100.86015,-61.799983999999995,-20.021269,STN
1251045100000.0,0.66628497838974,-1.012713074684143,9.47988510131836,-0.7090703248977661,0.029541049152612686,-0.5723807,-0.23762658,100.49727,-61.849532999999994,-20.0789,STN
1251083400000.0,0.671284556388855,-1.0081568956375122,9.452406883239746,-0.694401741027832,0.01767943985760212,-0.6249151,-0.23090707,100.152985,-61.881126,-20.137423000000002,STN
1251119900000.0,0.676283061504364,-1.0056227445602417,9.427409172058105,-0.6817857027053833,0.0076544927433133125,-0.65668017,-0.2275473,99.81761999999999,-61.909874,-20.189173,STN
1251154700000.0,0.6812816262245178,-1.0036978721618652,9.403587341308594,-0.6728037595748901,-0.0007456145831383765,-0.68630713,-0.23304509,99.49792,-61.921634999999995,-20.247239999999998,STN
1251187900000.0,0.6862810850143433,-1.0011159181594849,9.379768371582031,-0.6688584089279175,-0.008746889419853687,-0.6914994999999999,-0.22815818,99.17846,-61.937973,-20.299797,STN
1251219600000.0,0.6913267970085144,-0.9974435567855835,9.354551315307617,-0.6721523404121399,-0.01656591333448887,-0.6762278,-0.22052236,98.85226999999999,-61.955242000000005,-20.358334,STN
1251249900000.0,0.6963234543800354,-0.9929244518280029,9.328176498413086,-0.6811085939407349,-0.0267191119492054,-0.63071835,-0.21899518,98.51873,-61.964462,-20.418324,STN
1251278800000.0,0.7013210654258728,-0.9867895841598511,9.302160263061523,-0.6949247121810913,-0.0400424562394619,-0.5739079,-0.22693644,98.15623000000001,-61.971355,-20.487597,STN
1251306500000.0,0.706315815448761,-0.9785140156745911,9.27865219116211,-0.7113695740699768,-0.056074004620313644,-0.5164866,-0.23243423,97.78016,-61.9722,-20.55861,STN
1251333000000.0,0.7113077640533447,-0.9681817293167114,9.25843620300293,-0.7300243377685547,-0.07313936203718185,-0.45906523,-0.23365596,97.35407,-61.965088,-20.648264,STN
1251358300000.0,0.7163007855415344,-0.9557474851608276,9.244897842407227,-0.7497480511665344,-0.08996263146400452,-0.40286562,-0.23762658,96.913414,-61.951466,-20.743132,STN
1251382500000.0,0.7212921380996704,-0.9422339797019958,9.237915992736816,-0.7690433859825134,-0.10541729629039764,-0.36957347,-0.24190263,96.444855,-61.947323,-20.837425,STN
1251405700000.0,0.7262864112854004,-0.9286883473396301,9.23757553100586,-0.7863073348999023,-0.11964140832424164,-0.34941490000000003,-0.21899518,95.96268,-61.948997,-20.926847,STN
1251428000000.0,0.7312769889831543,-0.9167613983154297,9.243919372558594,-0.8016663193702698,-0.13250520825386047,-0.34422258,-0.18661933,95.46571999999999,-61.97295,-21.003982999999998,STN
1251449400000.0,0.7362707853317261,-0.9087812304496765,9.257566452026367,-0.815187931060791,-0.1435440480709076,-0.35613444,-0.1685988,94.96848,-62.00481800000001,-21.076624,STN
1251469800000.0,0.7412652373313904,-0.9052076935768127,9.276679039001465,-0.827275812625885,-0.1518622636795044,-0.3735441,-0.13836098,94.460945,-62.06264,-21.126585000000002,STN
1251489500000.0,0.7462599873542786,-0.9068843126296997,9.298821449279785,-0.8384665250778198,-0.15646544098854065,-0.36560285,-0.12797627,93.951546,-62.129833,-21.176292,STN
1251508400000.0,0.7512524724006653,-0.9131591320037842,9.321549415588379,-0.8471221327781677,-0.15592381358146667,-0.36071593,-0.11301007,93.443306,-62.222694,-21.212746,STN
1251526400000.0,0.756248950958252,-0.9233309626579285,9.340950012207031,-0.8503798246383667,-0.14994186162948608,-0.34605515,-0.10293079,92.93156,-62.330543999999996,-21.247425,STN
1251543900000.0,0.7612665891647339,-0.9366680383682251,9.355988502502441,-0.848294734954834,-0.13903740048408508,-0.3378085,-0.10323623,92.4153,-62.449806,-21.287506,STN
1251560700000.0,0.7662657499313354,-0.9503049254417419,9.364364624023438,-0.8420763611793518,-0.12484005838632584,-0.3191771,-0.1160644,91.89455,-62.581790000000005,-21.32797,STN
1251576800000.0,0.7712650895118713,-0.9642974734306335,9.366016387939453,-0.8316432237625122,-0.11034130305051804,-0.28955013,-0.12003502,91.39499,-62.70437,-21.373213,STN
1251592200000.0,0.7762649059295654,-0.9768076539039612,9.356671333312988,-0.8182554244995117,-0.09596413373947144,-0.20952678,-0.13500121,90.879616,-62.832043000000006,-21.427805,STN
1251607200000.0,0.7812819480895996,-0.9874345660209656,9.335236549377441,-0.8021982908248901,-0.0842413380742073,-0.10140363,-0.13775012,90.34879000000001,-62.95599,-21.481704999999998,STN
1251621600000.0,0.7862805128097534,-0.9954313635826111,9.303707122802734,-0.7867676019668579,-0.07758699357509613,-0.029626964,-0.13805555,89.8404,-63.052948,-21.542921,STN
1251635500000.0,0.7912794351577759,-1.000789761543274,9.26181411743164,-0.7719134092330933,-0.07465669512748718,0.1255328,-0.11453723,89.30546600000001,-63.14164399999999,-21.609932,STN
1251649000000.0,0.7962781190872192,-1.0019114017486572,9.21114730834961,-0.7496748566627502,-0.0802491158246994,0.2846632,-0.11301007,88.75165,-63.196845999999994,-21.685505,STN
1251662000000.0,0.8012751936912537,-0.9988450407981873,9.15234375,-0.7195908427238464,-0.09631910920143127,0.3830125,-0.112704635,88.16986999999999,-63.241257,-21.758667000000003,STN
1251674600000.0,0.8062729239463806,-0.9930864572525024,9.08891773223877,-0.679327130317688,-0.12201529741287231,0.39920044,-0.13408493,87.584564,-63.24783299999999,-21.84422,STN
1251686700000.0,0.8112708926200867,-0.9848886132240295,9.021382331848145,-0.6292260885238647,-0.15389475226402283,0.33078352,-0.16218472,86.99794,-63.232859999999995,-21.929054,STN
1251698500000.0,0.816269040107727,-0.9651932716369629,8.948019981384277,-0.5795053839683533,-0.187721386551857,0.20097467,-0.20280726,86.48769,-63.185177,-22.002691,STN
1251710000000.0,0.821269154548645,-0.933300256729126,8.868819236755371,-0.5314346551895142,-0.21792224049568176,0.07299839999999999,-0.2415972,86.00085,-63.129135,-22.076313,STN
1251721100000.0,0.8262691497802734,-0.8972193598747253,8.796332359313965,-0.4954095482826233,-0.24161413311958313,0.021685716,-0.258396,85.594696,-63.056164,-22.134498999999998,STN
1251731800000.0,0.8312801718711853,-0.8584413528442383,8.732841491699219,-0.4733676314353943,-0.25981131196022034,0.026267206,-0.26878070000000004,85.21315,-62.98250600000001,-22.194761,STN
1251742300000.0,0.8362782001495361,-0.8198814988136292,8.690313339233398,-0.4661100208759308,-0.2751505374908447,0.07971791,-0.28619036,84.85765,-62.936443000000004,-22.227448000000003,STN
1251752500000.0,0.8412775993347168,-0.7820796370506287,8.672100067138672,-0.4742841124534607,-0.2906489372253418,0.16249016,-0.28741209999999995,84.49135,-62.89863199999999,-22.260098,STN
1251762400000.0,0.8462762832641602,-0.7496184706687927,8.674195289611816,-0.4980587065219879,-0.30764904618263245,0.24404067,-0.27916542,84.04943,-62.895495999999994,-22.291603,STN
1251772000000.0,0.8512743711471558,-0.7234847545623779,8.69482421875,-0.5369129776954651,-0.32605454325675964,0.30298916,-0.24129178,83.58755500000001,-62.89951,-22.31814,STN
1251781400000.0,0.8562725186347961,-0.708759605884552,8.723166465759277,-0.5876352190971375,-0.34535107016563416,0.33169982,-0.1957823,83.01225,-62.955616000000006,-22.331623,STN
1251790600000.0,0.8612711429595947,-0.7063244581222534,8.756134033203125,-0.6489492654800415,-0.36402615904808044,0.33353242,-0.15882497,82.42708,-63.01923000000001,-22.337294,STN
1251799500000.0,0.8662698268890381,-0.7144705057144165,8.785233497619629,-0.7019851803779602,-0.37986665964126587,0.32223140000000006,-0.13225232,81.72522,-63.119186,-22.351269,STN
1251808100000.0,0.8712682127952576,-0.7323411107063293,8.808464050292969,-0.7422899603843689,-0.39001232385635376,0.33353242,-0.101098195,81.01782,-63.239143000000006,-22.352401999999998,STN
1251816600000.0,0.8762670159339905,-0.7594444155693054,8.826128005981445,-0.7705163359642029,-0.39338308572769165,0.33536503,-0.09285152,80.23048399999999,-63.34712,-22.404684,STN
1251825000000.0,0.8812662959098816,-0.7952924966812134,8.838520050048828,-0.7873039841651917,-0.3904702067375183,0.32528573,-0.09682214,79.45023,-63.475784,-22.445229,STN
1251833200000.0,0.8862648606300354,-0.8322696089744568,8.838987350463867,-0.7847687602043152,-0.3849453926086426,0.30421090000000006,-0.10415252,78.670815,-63.611107,-22.480992999999998,STN
1251841100000.0,0.8912655711174011,-0.8682698011398315,8.826014518737793,-0.7612519264221191,-0.3759061098098755,0.27030787,-0.12095132,77.90775,-63.764328000000006,-22.51184,STN
1251849000000.0,0.8962645530700684,-0.9009808301925659,8.80271053314209,-0.7239177227020264,-0.36476045846939087,0.2302962,-0.14630222,77.26393,-63.832264,-22.588274,STN
1251856700000.0,0.9012616276741028,-0.9296169281005859,8.77054500579834,-0.6758784651756287,-0.3553481996059418,0.1777618,-0.16676621,76.64143,-63.899727,-22.658317999999998,STN
1251864200000.0,0.906261682510376,-0.9555498957633972,8.73632526397705,-0.6238641738891602,-0.35127192735671997,0.11484267,-0.18387043,76.16741999999999,-63.924385,-22.71728,STN
1251871600000.0,0.911261260509491,-0.9793435335159302,8.702414512634277,-0.5703305602073669,-0.3526053726673126,0.043066,-0.17623462,75.71486,-63.948524,-22.767189000000002,STN
1251878800000.0,0.9162603616714478,-1.0011112689971924,8.672679901123047,-0.5220152139663696,-0.35836029052734375,-0.054061572999999995,-0.14752395,75.36284,-63.946598,-22.799522,STN
1251886000000.0,0.9212587475776672,-1.020961880683899,8.6483154296875,-0.4810698628425598,-0.3664942979812622,-0.16615535,-0.10323623,75.03709,-63.944313,-22.817768,STN
1251893000000.0,0.9262592196464539,-1.0389976501464844,8.625089645385742,-0.44871458411216736,-0.3734623193740845,-0.24923302,-0.06536258,74.73914,-63.936609999999995,-22.824537,STN
1251900000000.0,0.9312586188316345,-1.0553271770477295,8.601363182067871,-0.42503684759140015,-0.37960323691368103,-0.29138273,-0.03359759,74.46106999999999,-63.932919999999996,-22.81529,STN
1251906800000.0,0.9362577795982361,-1.0716710090637207,8.574114799499512,-0.4059082269668579,-0.3847169578075409,-0.26175576,-0.018936822,74.15899,-63.95138000000001,-22.796210000000002,STN
1251913500000.0,0.9412598609924316,-1.0888597965240479,8.54194450378418,-0.3892698884010315,-0.39022552967071533,-0.22052236,-0.009468411,73.865524,-63.97533000000001,-22.767554999999998,STN
1251920200000.0,0.9462608695030212,-1.1066073179244995,8.505646705627441,-0.3708353042602539,-0.3956358730792999,-0.17104226,-0.014355333500000001,73.51805999999999,-64.00513000000001,-22.75084,STN
1251926700000.0,0.951262354850769,-1.124728798866272,8.465740203857422,-0.3475760221481323,-0.40261349081993103,-0.118507855,-0.021991148999999998,73.158966,-64.032265,-22.734236,STN
1251933200000.0,0.9562601447105408,-1.1437771320343018,8.420921325683594,-0.3160685896873474,-0.4091704189777374,-0.09437868,-0.043982297000000004,72.78739,-64.041664,-22.742754,STN
1251939600000.0,0.9612615704536438,-1.16411292552948,8.370304107666016,-0.27421560883522034,-0.41501981019973755,-0.08032878,-0.07269296,72.40675999999999,-64.04593,-22.756283,STN
1251945900000.0,0.9662625789642334,-1.183321475982666,8.315104484558105,-0.22200173139572144,-0.41987383365631104,-0.07452556,-0.103847094,72.05944000000001,-64.03058,-22.780603,STN
1251952200000.0,0.9712651371955872,-1.199988842010498,8.256017684936523,-0.15941840410232544,-0.42176711559295654,-0.04520403,-0.13958271,71.70529,-64.01539,-22.814761999999998,STN
1251958300000.0,0.9762670993804932,-1.210089087486267,8.196389198303223,-0.08808820694684982,-0.42211082577705383,-0.0018325957999999999,-0.17318029999999998,71.40179,-63.95821,-22.865675,STN
1251964500000.0,0.981268048286438,-1.2110506296157837,8.138420104980469,-0.00917648896574974,-0.4234616756439209,0.015271631,-0.20463985,71.101395,-63.896027000000004,-22.924116,STN
1251970500000.0,0.9862684607505798,-1.2019580602645874,8.0853853225708,0.06582128256559372,-0.42682406306266785,0.016187929,-0.22235495,70.86425,-63.81123,-22.981417,STN
1251976500000.0,0.9912707209587097,-1.182206630706787,8.03958797454834,0.1286967545747757,-0.4367949068546295,-0.035124752999999995,-0.23518312,70.64038000000001,-63.708076,-23.042091,STN
1251982400000.0,0.9962717294692993,-1.151847243309021,8.00383472442627,0.17435716092586517,-0.4532661736011505,-0.11453723,-0.22266038,70.478645,-63.61212,-23.065145,STN
1251988300000.0,1.0012723207473755,-1.1102721691131592,7.983378887176514,0.19331201910972595,-0.47349870204925537,-0.15485434,-0.17501289,70.31869499999999,-63.512595999999995,-23.080173000000002,STN
1251994200000.0,1.006272792816162,-1.0622763633728027,7.9748663902282715,0.18903560936450958,-0.49343428015708923,-0.12492194,-0.10873401,70.102936,-63.4692,-23.046896,STN
1252000000000.0,1.011273741722107,-1.0119154453277588,7.9754228591918945,0.16455703973770142,-0.5093286633491516,-0.013133603,-0.03268129,69.8699,-63.439228,-23.000635,STN
1252005800000.0,1.0162744522094727,-0.9652107954025269,7.978634357452393,0.1297975778579712,-0.520209014415741,0.15790866,0.040317107000000005,69.48340999999999,-63.50925,-22.910104999999998,STN
1252011500000.0,1.021275520324707,-0.9290401339530945,7.9772629737854,0.09585248678922653,-0.5255774855613708,0.3744604,0.07544186,69.04788,-63.599532999999994,-22.820242,STN
1252017200000.0,1.0262748003005981,-0.9057874083518982,7.970151424407959,0.07194174826145172,-0.5275183320045471,0.5360342,0.08643743400000001,68.45586999999999,-63.760715000000005,-22.720110000000002,STN
1252022800000.0,1.0312755107879639,-0.8981485962867737,7.955983638763428,0.06764543056488037,-0.5293068885803223,0.6432411,0.06750060599999999,67.81914,-63.929237,-22.627747,STN
1252028400000.0,1.03627610206604,-0.9045318961143494,7.936774730682373,0.08380680531263351,-0.5328232049942017,0.64812803,0.024129177,67.15379,-64.06374,-22.576128,STN
1252034100000.0,1.0412774085998535,-0.92327481508255,7.91503381729126,0.12222062796354294,-0.5387890934944153,0.5497787,-0.027488936000000002,66.49542,-64.192245,-22.528473,STN
1252039600000.0,1.0462751388549805,-0.9537892937660217,7.899237632751465,0.17546090483665466,-0.5475134253501892,0.4269948,-0.09590584,65.956024,-64.22406,-22.531816,STN
1252045100000.0,1.051275610923767,-0.9961691498756409,7.902185440063477,0.23390690982341766,-0.5580191016197205,0.32436943,-0.18478674,65.449455,-64.23640999999999,-22.547445,STN
1252050600000.0,1.0562727451324463,-1.0472902059555054,7.931457996368408,0.28947713971138,-0.5687462091445923,0.31673363,-0.29535335,65.07516,-64.14869,-22.614174,STN
1252056100000.0,1.0612735748291016,-1.103669285774231,7.999831199645996,0.33086055517196655,-0.5789830088615417,0.36774087,-0.37598756,64.72025,-64.04575,-22.692575,STN
1252061500000.0,1.0662685632705688,-1.1644761562347412,8.107101440429688,0.3576773405075073,-0.5905136466026306,0.50946164,-0.44806966,64.35964,-63.886959999999995,-22.823431,STN
1252066900000.0,1.0712690353393555,-1.229205846786499,8.260124206542969,0.3668811321258545,-0.6026017069816589,0.7125743,-0.47647488,63.969925,-63.725616,-22.968248000000003,STN
1252072200000.0,1.0762664079666138,-1.2969567775726318,8.450098037719727,0.3675220310688019,-0.6154454350471497,0.8436049000000001,-0.49846604,63.464580000000005,-63.60906,-23.111345,STN
1252077600000.0,1.081267237663269,-1.36689031124115,8.667729377746582,0.3731663227081299,-0.6271001100540161,1.1166617,-0.516792,62.86148000000001,-63.49422,-23.277588,STN
1252083000000.0,1.0863014459609985,-1.4411847591400146,8.909632682800293,0.39218923449516296,-0.6392079591751099,1.3579534,-0.5522222,62.095074,-63.4462,-23.425623,STN
1252088300000.0,1.0913029909133911,-1.5198004245758057,9.159648895263672,0.4303949773311615,-0.6540399789810181,1.5176947,-0.6160576,61.285088,-63.386419999999994,-23.590189000000002,STN
1252093700000.0,1.096298098564148,-1.6038246154785156,9.42009449005127,0.49077364802360535,-0.67154860496521,1.6053538,-0.68508536,60.40815,-63.352196,-23.73722,STN
1252099000000.0,1.1012976169586182,-1.6987624168395996,9.698012351989746,0.5958189368247986,-0.6918028593063354,1.6218473,-0.7706065,59.52369300000001,-63.29214,-23.903625,STN
1252104200000.0,1.1062957048416138,-1.8026677370071411,9.992756843566895,0.7436235547065735,-0.7129472494125366,1.5641204,-0.8594874,58.728653,-63.18776999999999,-24.074347,STN
1252109500000.0,1.1112959384918213,-1.9123969078063965,10.306360244750977,0.9364898204803467,-0.7345762252807617,1.4190399999999999,-0.9477574000000001,57.972443000000005,-63.058069999999994,-24.258135,STN
1252114700000.0,1.1162937879562378,-2.0262513160705566,10.638153076171875,1.1702210903167725,-0.7584707736968994,1.1575897,-1.0125091,57.411964000000005,-62.84551,-24.4493,STN
1252120000000.0,1.1212931871414185,-2.136833906173706,10.993185997009277,1.4377561807632446,-0.7848682999610901,0.7965683000000001,-1.0283916,56.93551,-62.624373999999996,-24.631961999999998,STN
1252125200000.0,1.1262940168380737,-2.2425570487976074,11.366623878479004,1.7322075366973877,-0.8166140913963318,0.33017266,-0.9804386999999999,56.724625,-62.328716,-24.783503,STN
1252130400000.0,1.1312938928604126,-2.332237720489502,11.733868598937988,2.018836498260498,-0.8514862060546875,-0.17562376,-0.9245445999999999,56.63558199999999,-62.03224,-24.908974,STN
1252135700000.0,1.13629150390625,-2.408924102783203,12.09129810333252,2.2932112216949463,-0.8864043354988098,-0.61086524,-0.8924741,56.756866,-61.71679,-24.966555,STN
1252140900000.0,1.141302466392517,-2.4896252155303955,12.40955638885498,2.5184671878814697,-0.9210242033004761,-0.84788096,-0.9300423000000001,56.963135,-61.387962,-25.00723,STN
1252146000000.0,1.1463013887405396,-2.574388265609741,12.690923690795898,2.6997439861297607,-0.9558988213539124,-0.93767816,-1.0928379,57.245792,-61.054756000000005,-25.021137,STN
1252151100000.0,1.151300311088562,-2.6753456592559814,12.91707706451416,2.831622838973999,-0.993212103843689,-0.96944314,-1.3029754999999998,57.579482999999996,-60.68871,-25.046902,STN
1252156400000.0,1.1563318967819214,-2.7894835472106934,13.08836555480957,2.9101414680480957,-1.0327364206314087,-0.97005403,-1.4669929,57.844727,-60.295273,-25.13917,STN
1252161500000.0,1.1613236665725708,-2.8641226291656494,13.241628646850586,2.9317476749420166,-1.0734750032424927,-0.9621128000000001,-1.5338826,58.121635,-59.867886,-25.257994,STN
1252166600000.0,1.166313648223877,-2.8960936069488525,13.376423835754395,2.8911521434783936,-1.1130354404449463,-0.9193522,-1.5439618999999998,58.306824,-59.375374,-25.502254,STN
1252171700000.0,1.1713063716888428,-2.891453742980957,13.505921363830566,2.8389203548431396,-1.1518548727035522,-0.8918633,-1.5070046000000001,58.495630000000006,-58.87609499999999,-25.744347,STN
1252176800000.0,1.1762977838516235,-2.8530828952789307,13.631538391113281,2.7804112434387207,-1.1891263723373413,-0.86437434,-1.4770721000000002,58.673126,-58.3808,-25.988031,STN
1252181900000.0,1.181292176246643,-2.7864346504211426,13.743184089660645,2.724332571029663,-1.2240697145462036,-0.8775079,-1.3958270000000002,58.62631,-58.045196999999995,-26.159784,STN
1252187000000.0,1.1862825155258179,-2.6942503452301025,13.840676307678223,2.6714911460876465,-1.2550673484802246,-0.9263771000000001,-1.2855659,58.582092,-57.732018000000004,-26.311646000000003,STN
1252192200000.0,1.1912786960601807,-2.583089828491211,13.913129806518555,2.621950387954712,-1.2795461416244507,-1.0122037,-1.1658363,58.49418000000001,-57.52101,-26.37095,STN
1252197300000.0,1.19627046585083,-2.4556875228881836,13.961050033569336,2.575547933578491,-1.2976255416870117,-1.0977248,-1.0616838,58.41684,-57.341038,-26.400276,STN
1252202400000.0,1.201265811920166,-2.318329334259033,13.979710578918457,2.5228161811828613,-1.3120557069778442,-1.162782,-0.9587530000000001,58.344530000000006,-57.227486,-26.347145,STN
1252207500000.0,1.2062605619430542,-2.1727359294891357,13.970215797424316,2.46277117729187,-1.3240728378295898,-1.1939361000000002,-0.89552844,58.284424,-57.140865000000005,-26.274234999999997,STN
1252212600000.0,1.211262822151184,-2.0230653285980225,13.927785873413086,2.388317108154297,-1.3360843658447266,-1.1829406,-0.8542950999999999,58.237030000000004,-57.07578,-26.15782,STN
1252217700000.0,1.2162644863128662,-1.8707963228225708,13.853925704956055,2.299140691757202,-1.3478952646255493,-1.1264355,-0.83199847,58.18209,-57.02596,-26.034147,STN
1252222800000.0,1.2212650775909424,-1.7205754518508911,13.750507354736328,2.1954686641693115,-1.3586534261703491,-1.0112875,-0.8341365,58.077526,-56.976524,-25.922295000000002,STN
1252228000000.0,1.2262879610061646,-1.5732742547988892,13.616195678710938,2.07617449760437,-1.3670803308486938,-0.84391034,-0.88239485,57.945240000000005,-56.92547,-25.830229,STN
1252233000000.0,1.2312880754470825,-1.4285632371902466,13.464336395263672,1.9513802528381348,-1.370581865310669,-0.62858033,-0.9462303,57.71605699999999,-56.874230000000004,-25.791628,STN
1252238200000.0,1.2362875938415527,-1.2855279445648193,13.295900344848633,1.8224762678146362,-1.3689810037612915,-0.35796702,-1.003957,57.42959200000001,-56.824604,-25.786814,STN
1252243300000.0,1.2412899732589722,-1.1454930305480957,13.120772361755371,1.7068287134170532,-1.3626799583435059,-0.08582657,-1.0247264,56.996444999999994,-56.765377,-25.868246,STN
1252248400000.0,1.2462902069091797,-1.0088512897491455,12.942529678344727,1.6090742349624634,-1.3515710830688477,0.09193522,-1.0009027,56.521816,-56.72798,-25.964373000000002,STN
1252253400000.0,1.2512898445129395,-0.8794153332710266,12.76463508605957,1.5385963916778564,-1.3338596820831299,0.16768251,-0.9245445999999999,55.948803000000005,-56.709625,-26.090546,STN
1252258300000.0,1.2562867403030396,-0.7590371966362,12.589021682739258,1.4994723796844482,-1.3097835779190063,0.11209377,-0.81000733,55.36825,-56.731606000000006,-26.192722,STN
1252263300000.0,1.2612866163253784,-0.6475050449371338,12.414989471435547,1.483777403831482,-1.2809028625488281,0.013133603,-0.6908886,54.826736,-56.766487,-26.259375,STN
1252268300000.0,1.2662869691848755,-0.5445256233215332,12.242144584655762,1.4840505123138428,-1.2485966682434082,-0.064751714,-0.5702427,54.2916,-56.85555,-26.281366,STN
1252273300000.0,1.2712862491607666,-0.4504522681236267,12.072343826293945,1.4927302598953247,-1.2164983749389648,-0.07788532,-0.4728097,53.9064,-56.92926,-26.234488,STN
1252278400000.0,1.276288390159607,-0.3654773533344269,11.90674114227295,1.5045217275619507,-1.1857362985610962,-0.06383542,-0.4156938,53.5289,-57.03853,-26.15664,STN
1252283400000.0,1.2812880277633667,-0.28959643840789795,11.743247032165527,1.5126100778579712,-1.157069444656372,-0.01282817,-0.30848694,53.190690000000004,-57.149196999999994,-26.03634,STN
1252288400000.0,1.2862879037857056,-0.22281166911125183,11.580129623413086,1.5119311809539795,-1.1305975914001465,0.02687807,-0.23304509,52.849090000000004,-57.270134,-25.906675,STN
1252293300000.0,1.291288137435913,-0.16274172067642212,11.41568374633789,1.5043343305587769,-1.1053900718688965,0.05955936,-0.18936823,52.492874,-57.38946,-25.771282,STN
1252298500000.0,1.2962939739227295,-0.1074003055691719,11.248292922973633,1.4912879467010498,-1.0801911354064941,0.089186326,-0.14446963,52.117798,-57.531544,-25.616722,STN
1252303400000.0,1.301293134689331,-0.057174764573574066,11.076910972595215,1.474449872970581,-1.0532749891281128,0.10873401,-0.118507855,51.695457,-57.67381999999999,-25.484299,STN
1252308400000.0,1.3062925338745117,-0.012578644789755344,10.899652481079102,1.4550641775131226,-1.0243912935256958,0.0711658,-0.118202426,51.281684999999996,-57.829388,-25.341028,STN
1252313400000.0,1.311291217803955,0.026157617568969727,10.71553897857666,1.4297423362731934,-0.9930752515792847,0.018325957,-0.119729586,50.843740000000004,-57.988307999999996,-25.209938,STN
1252318400000.0,1.3162909746170044,0.05853923410177231,10.522884368896484,1.3936141729354858,-0.9579101204872131,-0.03176499,-0.112704635,50.418834999999994,-58.16859399999999,-25.069433,STN
1252323400000.0,1.3212896585464478,0.08476283401250839,10.324166297912598,1.3466399908065796,-0.9184824824333191,-0.007941248,-0.10751228,49.986458,-58.336690000000004,-24.954897,STN
1252328300000.0,1.3262913227081299,0.10458515584468842,10.124918937683105,1.2871580123901367,-0.8756054639816284,0.07452556,-0.09590584,49.55392,-58.52675,-24.833689,STN
1252333300000.0,1.3312896490097046,0.11642125248908997,9.927824020385742,1.2182090282440186,-0.8313347697257996,0.22968534,-0.057726767000000005,49.02394,-58.70613,-24.766687,STN
1252338300000.0,1.3362892866134644,0.11754552274942398,9.736191749572754,1.1431055068969727,-0.787258505821228,0.41294490000000006,0.01038471,48.46621,-58.911694,-24.691341,STN
1252343300000.0,1.3412894010543823,0.10697181522846222,9.551338195800781,1.0674439668655396,-0.7452545166015625,0.5751295999999999,0.061086524,47.8949,-59.141014,-24.617353,STN
1252348400000.0,1.3462892770767212,0.08268316090106964,9.375584602355957,1.0000730752944946,-0.7046263217926025,0.65148777,0.099571034,47.29694,-59.39464,-24.529420000000002,STN
1252353400000.0,1.3512831926345825,0.04836920648813248,9.209463119506836,0.9429477453231812,-0.664405345916748,0.655153,0.14508049,46.713993,-59.668834999999994,-24.422258,STN
1252358400000.0,1.35628080368042,0.009958935901522636,9.05466365814209,0.9012105464935303,-0.623788595199585,0.57848936,0.20586158,46.133340000000004,-59.962154000000005,-24.293903,STN
1252363300000.0,1.3612767457962036,-0.03111671656370163,8.90880012512207,0.8726792931556702,-0.5819344520568848,0.4822781,0.28191432,45.580544,-60.234825,-24.177382,STN
1252368300000.0,1.3662775754928589,-0.07101592421531677,8.76539421081543,0.853009819984436,-0.539055347442627,0.3652974,0.33536503,45.059937,-60.5241,-24.036955,STN
1252373300000.0,1.37127685546875,-0.1084287017583847,8.623364448547363,0.8397025465965271,-0.49520593881607056,0.32406402,0.39858958,44.539955,-60.795204000000005,-23.897033999999998,STN
1252378400000.0,1.3762785196304321,-0.13757002353668213,8.47785472869873,0.8243422508239746,-0.45216330885887146,0.25778514,0.42577308,44.068325,-61.074721999999994,-23.736303,STN
1252383400000.0,1.3812768459320068,-0.15832999348640442,8.329916000366211,0.807357668876648,-0.4078335165977478,0.21227567,0.46303585,43.59832,-61.349143999999995,-23.57366,STN
1252388400000.0,1.3862770795822144,-0.1665486991405487,8.183624267578125,0.7904985547065735,-0.36370131373405457,0.18845193,0.5006041,43.1471,-61.630196,-23.396395000000002,STN
1252393400000.0,1.3912758827209473,-0.16325855255126953,8.03931713104248,0.7738114595413208,-0.319853812456131,0.14599679999999998,0.5393939999999999,42.71565,-61.930702000000004,-23.19497,STN
1252398300000.0,1.3962762355804443,-0.15016940236091614,7.89871072769165,0.7575149536132812,-0.2778547406196594,0.07544186,0.5882632,42.30218,-62.243603,-22.973831,STN
1252403300000.0,1.4012737274169922,-0.12815603613853455,7.7621169090271,0.7408543825149536,-0.23682428896427155,0.017104227,0.6206391,41.873962,-62.581852000000005,-22.727388,STN
1252408300000.0,1.4062738418579102,-0.09937907755374908,7.633570671081543,0.7166329026222229,-0.19609229266643524,-0.0061086523,0.66889745,41.456684,-62.938076,-22.458454,STN
1252413400000.0,1.4113110303878784,-0.06488754600286484,7.51235818862915,0.6849532127380371,-0.15494291484355927,0.0009162978999999999,0.71868294,41.028484000000006,-63.323975,-22.15661,STN
1252418400000.0,1.4163098335266113,-0.03184496983885765,7.396827220916748,0.650680661201477,-0.11341467499732971,0.020463986,0.7696901999999999,40.604485,-63.72618000000001,-21.838963,STN
1252423400000.0,1.4213045835494995,-0.00011928640014957637,7.28656530380249,0.6133502125740051,-0.07196725904941559,0.050396382999999996,0.81031275,40.18311,-64.199486,-21.467089,STN
1252428300000.0,1.4263044595718384,0.027485407888889313,7.181174278259277,0.5752051472663879,-0.03136139363050461,0.08277224,0.8414669,39.755759999999995,-64.68551,-21.084774,STN
1252433300000.0,1.4312982559204102,0.050670769065618515,7.080417156219482,0.5368818044662476,0.008577991276979446,0.12858713,0.8686504,39.31674,-65.184166,-20.694902,STN
1252438300000.0,1.4362975358963013,0.06461074203252792,6.987902641296387,0.5010706186294556,0.04699115455150604,0.16798794,0.9049969000000001,38.882156,-65.71239,-20.28327,STN
1252443300000.0,1.4412939548492432,0.06872250884771347,6.904143810272217,0.46836337447166443,0.08405710011720657,0.2144137,0.95447695,38.433422,-66.25159000000001,-19.86366,STN
1252448400000.0,1.4462934732437134,0.06432425230741501,6.826273441314697,0.43654540181159973,0.11950580030679703,0.25717425,1.0054842,37.986893,-66.7951,-19.442,STN
1252453400000.0,1.4512913227081299,0.05247227102518082,6.752809047698975,0.4046292006969452,0.15389548242092133,0.28771752,1.047023,37.532413,-67.34781,-19.01135,STN
1252458400000.0,1.4562879800796509,0.03279668092727661,6.684568405151367,0.3772233724594116,0.1861431747674942,0.32314770000000004,1.0858128999999999,37.080172999999995,-67.87843000000001,-18.6,STN
1252463300000.0,1.4612866640090942,0.0052866083569824696,6.62174129486084,0.35610029101371765,0.21738851070404053,0.31978795,1.0870347,36.635506,-68.410736,-18.187687,STN
1252468300000.0,1.466286301612854,-0.030743444338440895,6.5682454109191895,0.34217822551727295,0.24753840267658234,0.30451632,1.0873401000000003,36.206264000000004,-68.92962,-17.78869,STN
1252473300000.0,1.4712860584259033,-0.07534223794937134,6.525530815124512,0.33564960956573486,0.2778069078922272,0.24037547,1.0903945,35.797626,-69.44967,-17.386942,STN
1252478400000.0,1.476286768913269,-0.13193991780281067,6.494598865509033,0.3341335654258728,0.30823656916618347,0.15118915,1.0900891000000001,35.418312,-69.922104,-17.022683999999998,STN
1252483500000.0,1.4813258647918701,-0.20388776063919067,6.47694730758667,0.3369837999343872,0.34231841564178467,-0.0061086523,1.1038336000000002,35.081920000000004,-70.408005,-16.648575,STN
1252488500000.0,1.486323595046997,-0.29271769523620605,6.476559638977051,0.34111273288726807,0.38695472478866577,-0.057726767000000005,1.1166617,34.75633,-70.86679000000001,-16.317835000000002,STN
1252493500000.0,1.4913254976272583,-0.4022480547428131,6.496464729309082,0.34653258323669434,0.4339815080165863,-0.16798794,1.1664472,34.495556,-71.32523,-15.964773999999998,STN
1252498500000.0,1.4963231086730957,-0.5306040644645691,6.534965991973877,0.35312873125076294,0.4886429011821747,-0.24862215,1.2296717,34.2744,-71.78389,-15.656277,STN
1252503500000.0,1.5013210773468018,-0.677193284034729,6.591400146484375,0.3608628511428833,0.5530875325202942,-0.32162055,1.3213016000000002,34.083626,-72.27259000000001,-15.324770999999998,STN
1252508400000.0,1.5063190460205078,-0.8454480171203613,6.666454792022705,0.37965694069862366,0.6276242136955261,-0.38973203,1.4205671999999998,33.91617,-72.79677,-14.978598000000002,STN
1252513400000.0,1.5113178491592407,-1.03652024269104,6.760034084320068,0.4139672517776489,0.7123987674713135,-0.462425,1.5079208999999998,33.77217,-73.3627,-14.611676000000001,STN
1252518400000.0,1.5163161754608154,-1.2531546354293823,6.865734577178955,0.4831259846687317,0.8050913214683533,-0.5332854,1.5641204,33.76137,-73.82911,-14.374492000000002,STN
1252523400000.0,1.5213148593902588,-1.4965964555740356,6.979748249053955,0.5976603627204895,0.9034405946731567,-0.5699373000000001,1.5381586999999999,33.76617,-74.30447,-14.141205,STN
1252528400000.0,1.52631413936615,-1.764436960220337,7.0939459800720215,0.7684227228164673,1.0024898052215576,-0.49357912,1.4156802,33.82523,-74.62804399999999,-14.048903,STN
1252533300000.0,1.5313129425048828,-2.054483652114868,7.202564239501953,1.0020318031311035,1.0920934677124023,-0.33444872,1.1798861999999999,33.876793,-74.891335,-14.000817999999999,STN
1252538300000.0,1.5363112688064575,-2.3410754203796387,7.30324125289917,1.2586287260055542,1.1577633619308472,-0.20586158,0.84696466,33.99868,-74.813576,-14.209441,STN
1252543400000.0,1.5413126945495605,-2.6050493717193604,7.394247531890869,1.508388876914978,1.191057562828064,-0.14110987,0.5177083,34.098557,-74.64614,-14.475636999999999,STN
1252548400000.0,1.5463110208511353,-2.83149790763855,7.478806972503662,1.7250317335128784,1.1961266994476318,-0.15699236,0.27030787,34.361294,-74.15468,-14.981698000000002,STN
1252553400000.0,1.5513083934783936,-3.0074222087860107,7.559624195098877,1.8860701322555542,1.1831834316253662,-0.1826487,0.16462818,34.610615,-73.60481999999999,-15.515139999999999,STN
1252558400000.0,1.55630362033844,-3.1343157291412354,7.6391401290893555,1.983106255531311,1.16243314743042,-0.14172074,0.15943582,34.871586,-73.038605,-16.040808,STN
1252563400000.0,1.561302661895752,-3.2125632762908936,7.719654083251953,2.00715970993042,1.1424143314361572,0.030543262,0.2284636,35.099667,-72.47375500000001,-16.553798999999998,STN
1252568300000.0,1.566301703453064,-3.254378080368042,7.800017833709717,1.97310471534729,1.1294199228286743,0.183565,0.33444872,35.203716,-72.13566,-16.874971,STN
1252573300000.0,1.5713015794754028,-3.27274751663208,7.878992080688477,1.8962609767913818,1.121789574623108,0.6178902,0.38362336,35.172053999999996,-71.811295,-17.193893,STN
1252578300000.0,1.5762972831726074,-3.278780937194824,7.951640605926514,1.8005626201629639,1.1250159740447998,1.1374311000000001,0.4538729,34.88706,-71.79579,-17.280478,STN
1252583400000.0,1.581296682357788,-3.2936551570892334,8.007328033447266,1.732215404510498,1.1379344463348389,1.6169603000000001,0.46639562,34.48922,-71.786896,-17.374151,STN
1252588400000.0,1.586294412612915,-3.3137807846069336,8.046717643737793,1.7019250392913818,1.1573753356933594,1.9367483,0.43829579999999996,33.940487,-71.95961,-17.344023,STN
1252593400000.0,1.5912972688674927,-3.3333652019500732,8.069395065307617,1.7327646017074585,1.176398754119873,2.0625865,0.37751472,33.313759999999995,-72.12151999999999,-17.320304999999998,STN
1252598300000.0,1.5962941646575928,-3.342303991317749,8.08226203918457,1.8068989515304565,1.1888089179992676,1.9688186999999997,0.3155119,32.70604,-72.18944499999999,-17.362714999999998,STN
1252603300000.0,1.6012940406799316,-3.3247454166412354,8.094184875488281,1.9041340351104736,1.1933468580245972,1.6591099999999999,0.26450464,32.135414000000004,-72.23861,-17.407145,STN
1252608300000.0,1.6062893867492676,-3.281822919845581,8.108879089355469,2.0182321071624756,1.1903506517410278,1.3225232,0.26053402,31.705353000000002,-72.198616,-17.499334,STN
1252613300000.0,1.6112897396087646,-3.212261199951172,8.13243293762207,2.141981363296509,1.1855608224868774,0.98746365,0.3145956,31.373765999999996,-72.16084000000001,-17.577599,STN
1252618300000.0,1.616283655166626,-3.124964952468872,8.164775848388672,2.2790749073028564,1.183565616607666,0.5626069,0.36926803,31.187199,-72.19462,-17.567623,STN
1252623400000.0,1.6212966442108154,-3.0328032970428467,8.208175659179688,2.4414944648742676,1.1858437061309814,0.06017022599999999,0.3933972,31.126602000000002,-72.234505,-17.543623,STN
1252628400000.0,1.6262928247451782,-2.940976619720459,8.26086711883545,2.6128063201904297,1.1903117895126343,-0.47800204,0.42271876,31.178904,-72.39965,-17.385365,STN
1252633300000.0,1.6312925815582275,-2.85685396194458,8.32403564453125,2.771156072616577,1.195420742034912,-0.929126,0.4636467000000001,31.35505,-72.57422,-17.213537,STN
1252638300000.0,1.6362872123718262,-2.781383752822876,8.398148536682129,2.9118175506591797,1.1991667747497559,-1.1682798,0.48685959999999995,31.650684000000002,-72.76902,-17.007334,STN
1252643400000.0,1.6412912607192993,-2.717878580093384,8.486928939819336,3.0216495990753174,1.202599287033081,-1.2198978999999999,0.48808134,32.021815999999994,-72.96614,-16.796011,STN
1252648400000.0,1.646287441253662,-2.663480520248413,8.587516784667969,3.101482629776001,1.2069882154464722,-1.2431108,0.49205196,32.445159999999994,-73.17311,-16.57422,STN
1252653400000.0,1.6512863636016846,-2.609654664993286,8.695412635803223,3.1413824558258057,1.2097760438919067,-1.2559388999999999,0.47433686,32.877174,-73.36646,-16.362522,STN
1252658400000.0,1.6562833786010742,-2.5570645332336426,8.811244010925293,3.135737657546997,1.2055299282073975,-1.1585059,0.42180246,33.251296999999994,-73.554405,-16.164865,STN
1252663400000.0,1.6612827777862549,-2.508554220199585,8.940313339233398,3.0489161014556885,1.1918413639068604,-1.0268645,0.35460728,33.6158,-73.7228,-15.982861999999999,STN
1252668300000.0,1.6662805080413818,-2.464604377746582,9.082380294799805,2.8936069011688232,1.1693600416183472,-0.63224554,0.32467487,33.804190000000006,-73.92851,-15.779284,STN
1252673300000.0,1.6712805032730103,-2.42850923538208,9.240690231323242,2.7075459957122803,1.1433563232421875,-0.19456059,0.26878070000000004,33.939434000000006,-74.09656,-15.611606,STN
1252678300000.0,1.6762772798538208,-2.3997397422790527,9.413899421691895,2.493154287338257,1.1088581085205078,0.24587326,0.17012598,33.783638,-74.28922,-15.447277,STN
1252683300000.0,1.6812771558761597,-2.3704833984375,9.610092163085938,2.279961109161377,1.0682387351989746,0.61300325,0.057421334000000004,33.523552,-74.452805,-15.312813,STN
1252688300000.0,1.6862735748291016,-2.33935809135437,9.828886032104492,2.0737218856811523,1.0272122621536255,0.8909469999999999,-0.03390302,33.165512,-74.58632,-15.207314000000002,STN
1252693400000.0,1.6912767887115479,-2.2900960445404053,10.087413787841797,1.926291584968567,0.9907650351524353,1.1133018999999997,-0.1020145,32.703857,-74.735214,-15.108419,STN
1252698400000.0,1.6962776184082031,-2.2198543548583984,10.386579513549805,1.8473453521728516,0.9592552185058594,1.2974777,-0.13255776,32.1799,-74.860664,-15.026342000000001,STN
1252703300000.0,1.7012778520584106,-2.1084275245666504,10.695528030395508,1.8677055835723877,0.9290176630020142,1.4440855,-0.10720685,31.580471000000003,-75.024475,-14.900785999999998,STN
1252708300000.0,1.7062739133834839,-1.951769232749939,11.003986358642578,1.991816520690918,0.8932458162307739,1.5787811999999999,-0.103847094,30.942296999999996,-75.16398000000001,-14.790501,STN
1252713300000.0,1.7112696170806885,-1.7906231880187988,11.274529457092285,2.1147937774658203,0.847579300403595,1.8249598999999999,-0.204029,30.269165,-75.360535,-14.608441000000001,STN
1252718300000.0,1.7162615060806274,-1.6401984691619873,11.495187759399414,2.1984167098999023,0.7910153269767761,2.1609359,-0.33017266,29.540981,-75.5385,-14.440399,STN
1252723300000.0,1.7212567329406738,-1.5368013381958008,11.675395011901855,2.1962687969207764,0.7298479676246643,2.361605,-0.45906523,28.847727000000003,-75.79799,-14.176229999999999,STN
1252728200000.0,1.726252555847168,-1.4853816032409668,11.819229125976562,2.103573799133301,0.6698569059371948,2.3267857999999997,-0.58032197,28.13322,-76.00843,-13.958420000000002,STN
1252733200000.0,1.7312489748001099,-1.481693148612976,11.934081077575684,1.9638795852661133,0.6145278811454773,2.1096232,-0.68477994,27.402052,-76.16096,-13.801622,STN
1252738200000.0,1.7362427711486816,-1.5223075151443481,12.023015022277832,1.7892781496047974,0.5690328478813171,1.6074919,-0.6737844,26.773415000000004,-76.30764,-13.650114000000002,STN
1252743300000.0,1.741241455078125,-1.586523413658142,12.117501258850098,1.6252851486206055,0.5337917804718018,0.94897914,-0.58459806,26.231964,-76.3325,-13.63531,STN
1252748300000.0,1.7462366819381714,-1.667258620262146,12.224873542785645,1.482905387878418,0.506988525390625,0.35857790000000006,-0.49510628,25.827232000000002,-76.36364,-13.612691,STN
1252753300000.0,1.7512340545654297,-1.741242527961731,12.35348892211914,1.3477948904037476,0.4860899746417999,0.03726278,-0.44135013,25.567503,-76.28435999999999,-13.703485,STN
1252758300000.0,1.7562310695648193,-1.8030496835708618,12.504193305969238,1.2161420583724976,0.46524715423583984,-0.020463986,-0.4175264,25.407757,-76.22310999999999,-13.771730999999999,STN
1252763400000.0,1.7612344026565552,-1.8567242622375488,12.613790512084961,1.0896499156951904,0.43876001238822937,0.0061086523,-0.3933972,25.35622,-76.117226,-13.881070999999999,STN
1252768400000.0,1.7662379741668701,-1.9038978815078735,12.666093826293945,0.9686853885650635,0.4059852361679077,0.05161811400000001,-0.39828414,25.317453,-76.01205999999999,-13.987704,STN
1252773500000.0,1.7712712287902832,-1.9401956796646118,12.667360305786133,0.8428954482078552,0.3719621002674103,-0.069027774,-0.43554693,25.291216,-104.050476,-14.050389000000001,STN
1252778400000.0,1.776275873184204,-1.9663647413253784,12.632503509521484,0.7114006876945496,0.3384174108505249,-0.41630468,-0.45204028,25.321136,-104.108086,-14.107519,STN
1252783400000.0,1.7812762260437012,-1.9761221408843994,12.56229019165039,0.5728818774223328,0.3099484443664551,-0.8387180000000001,-0.44990227,25.42026,-104.20294,-14.201453,STN
1252788400000.0,1.7862764596939087,-1.9677726030349731,12.458934783935547,0.42733365297317505,0.2889704406261444,-1.2131783999999999,-0.44165558,25.607115,-104.29938,-14.296895000000001,STN
1252793400000.0,1.7912811040878296,-1.9392802715301514,12.332254409790039,0.28768277168273926,0.27339136600494385,-1.4300356,-0.43218717,25.842472,-104.395454,-14.391547000000001,STN
1252798400000.0,1.7962818145751953,-1.8908051252365112,12.189323425292969,0.16097460687160492,0.25834953784942627,-1.4801265,-0.42394048,26.135026999999997,-104.49009000000001,-14.484763000000001,STN
1252803300000.0,1.8012816905975342,-1.809881567955017,12.047791481018066,0.054842982441186905,0.24036554992198944,-1.4688255,-0.42119157,26.438270000000003,-104.5516,-14.5442915,STN
1252808500000.0,1.8062846660614014,-1.6891759634017944,11.91844367980957,-0.026292847469449043,0.21909157931804657,-1.5454891000000002,-0.41325033,26.778048,-104.61061,-14.601617000000001,STN
1252813400000.0,1.8112847805023193,-1.5332890748977661,11.820413589477539,-0.10570083558559418,0.19460530579090118,-1.8118263,-0.41508293,27.148125,-104.637794,-14.628054999999998,STN
1252818400000.0,1.816283941268921,-1.3447880744934082,11.764678955078125,-0.19700492918491364,0.17171697318553925,-2.1523838,-0.39858958,27.557737,-104.65921999999999,-14.649075,STN
1252823400000.0,1.821284532546997,-1.1284343004226685,11.75660228729248,-0.3071207106113434,0.15616869926452637,-2.3948972,-0.34422258,27.965338,-104.57054000000001,-14.560394,STN
1252828400000.0,1.8262856006622314,-0.8892470598220825,11.800908088684082,-0.4424847662448883,0.15121544897556305,-2.4367414000000003,-0.21410827,28.405632,-104.46085,-14.450232000000002,STN
1252833400000.0,1.8312854766845703,-0.6432516574859619,11.877142906188965,-0.594966471195221,0.15526710450649261,-2.3057107999999995,-0.036651913,28.759539,-104.191414,-14.176167499999998,STN
1252838300000.0,1.8362855911254883,-0.400132954120636,11.97259521484375,-0.7595322728157043,0.16473479568958282,-2.0864103,0.1255328,29.089792,-103.903534,-13.880610999999998,STN
1252843500000.0,1.8413197994232178,-0.17406490445137024,12.067992210388184,-0.9307357668876648,0.17622092366218567,-1.8219056,0.23487769,29.285662,-103.46615,-13.425325,STN
1252848400000.0,1.8463178873062134,0.03040691837668419,12.153531074523926,-1.101712703704834,0.18758323788642883,-1.4752395,0.30268374,29.391726000000002,-103.02101,-12.952875,STN
1252853400000.0,1.8513157367706299,0.20647594332695007,12.225828170776367,-1.2599927186965942,0.19578447937965393,-1.0622946000000002,0.32620203,29.374727000000004,-102.53308,-12.42256,STN
1252858400000.0,1.8563112020492554,0.35065099596977234,12.283141136169434,-1.3954899311065674,0.20227903127670288,-0.86284715,0.3390302,29.325583,-102.06183,-11.894994,STN
1252863400000.0,1.8613097667694092,0.45733559131622314,12.325560569763184,-1.493768572807312,0.2067183405160904,-0.50762904,0.34636059999999996,29.132873999999997,-101.63504,-11.393651,STN
1252868400000.0,1.8663084506988525,0.5223564505577087,12.353554725646973,-1.5425487756729126,0.21064434945583344,-0.25411993,0.34910949999999996,28.920472999999998,-101.2363,-10.904048,STN
1252873300000.0,1.871306300163269,0.547892689704895,12.367426872253418,-1.5523364543914795,0.21439369022846222,-0.17684549,0.35460728,28.685159999999996,-100.932106,-10.504038000000001,STN
1252878300000.0,1.876306176185608,0.5354989171028137,12.367354393005371,-1.5313822031021118,0.21878963708877563,-0.19211712,0.35735616,28.409466,-100.65115,-10.110978,STN
1252883300000.0,1.8813047409057617,0.4924616813659668,12.353849411010742,-1.4918164014816284,0.22363495826721191,-0.22510384,0.32375857,28.16275,-100.495804,-9.867545,STN
1252888300000.0,1.8863027095794678,0.42476192116737366,12.327221870422363,-1.44391667842865,0.2283034473657608,-0.24465153,0.29016098,27.919638,-100.34918,-9.626467,STN
1252893400000.0,1.891301155090332,0.3371826112270355,12.288907051086426,-1.3959918022155762,0.23366722464561462,-0.21960606,0.23854288,27.788372,-100.27417,-9.487916,STN
1252898400000.0,1.8963004350662231,0.23567581176757812,12.240586280822754,-1.3590017557144165,0.2391032576560974,-0.056505035999999995,0.18753563,27.622417,-100.210495,-9.358205,STN
1252903400000.0,1.901299238204956,0.12619534134864807,12.187315940856934,-1.3196790218353271,0.2412382811307907,0.17623462,0.14813483,27.47621,-100.215645,-9.320143,STN
1252908300000.0,1.906296730041504,0.015041664242744446,12.134462356567383,-1.2638037204742432,0.23780661821365356,0.39492437,0.11178834,27.286990000000003,-100.22809000000001,-9.292099,STN
1252913400000.0,1.9113107919692993,-0.09105528891086578,12.081744194030762,-1.1874361038208008,0.2299025058746338,0.44287730000000003,0.09560041,27.067719,-100.301445,-9.329742999999999,STN
1252918400000.0,1.9163092374801636,-0.18281935155391693,12.029322624206543,-1.0895590782165527,0.21905021369457245,0.33933565,0.09590584,26.833972999999997,-100.36664,-9.368089999999999,STN
1252923400000.0,1.9213060140609741,-0.2578710913658142,11.97255802154541,-0.973808765411377,0.20726248621940613,0.14141529999999997,0.13041973,26.670332000000002,-100.4123,-9.415673,STN
1252928400000.0,1.9263066053390503,-0.3089126944541931,11.898252487182617,-0.851998507976532,0.19484959542751312,-0.10476339,0.17531833,26.553753000000004,-100.44623,-9.461397999999999,STN
1252933400000.0,1.9312996864318848,-0.3406912386417389,11.805442810058594,-0.7308545708656311,0.18210530281066895,-0.34605515,0.20525073,26.54208,-100.41956,-9.474126,STN
1252938400000.0,1.9362986087799072,-0.3577629625797272,11.6895112991333,-0.6197389960289001,0.16860778629779816,-0.5653558000000001,0.24220806,26.595736,-100.37697,-9.476838,STN
1252943300000.0,1.9412940740585327,-0.3631385564804077,11.554381370544434,-0.5217453837394714,0.1554877609014511,-0.76174897,0.2843578,26.719917,-100.27671,-9.427375999999999,STN
1252948300000.0,1.946293830871582,-0.360551655292511,11.403680801391602,-0.44355860352516174,0.14381569623947144,-0.9114109,0.3484986,26.892818,-100.16305,-9.365658,STN
1252953300000.0,1.9512875080108643,-0.3529203534126282,11.241366386413574,-0.38490739464759827,0.13307493925094604,-1.0186177,0.41874814,27.09556,-100.01884,-9.267917,STN
1252958300000.0,1.956284523010254,-0.34519296884536743,11.072367668151855,-0.3482356667518616,0.12389950454235077,-1.0500773,0.48472157,27.317271999999996,-99.86496,-9.156417,STN
1252963300000.0,1.9612809419631958,-0.3395828306674957,10.899446487426758,-0.3313308656215668,0.11565254628658295,-1.0283916,0.5128214,27.535621999999996,-99.70356,-9.02164,STN
1252968400000.0,1.9662809371948242,-0.3420981168746948,10.728696823120117,-0.331240713596344,0.1079753115773201,-0.9443976999999999,0.5348125,27.741896,-99.53125,-8.872281,STN
1252973300000.0,1.9712786674499512,-0.35194122791290283,10.560638427734375,-0.3449174165725708,0.10030028223991394,-0.8054258000000001,0.5522222,27.894254999999998,-99.38297,-8.726417,STN
1252978300000.0,1.9762808084487915,-0.36841222643852234,10.396171569824219,-0.36747637391090393,0.0930342748761177,-0.65209866,0.55924714,28.014484000000003,-99.23645,-8.579035000000001,STN
1252983400000.0,1.9812976121902466,-0.3915310502052307,10.234945297241211,-0.39871320128440857,0.08584622293710709,-0.5002986,0.55924714,28.058908000000002,-99.14288,-8.4694195,STN
1252988400000.0,1.9862966537475586,-0.4221469461917877,10.078431129455566,-0.4348321855068207,0.07970861345529556,-0.344528,0.56046885,28.056332,-99.051765,-8.357101,STN
1252993500000.0,1.9913064241409302,-0.46094492077827454,9.926135063171387,-0.47595474123954773,0.07510261982679367,-0.20952678,0.5717699,28.004948,-99.01302,-8.2807,STN
1252998500000.0,1.996305227279663,-0.5090932250022888,9.781726837158203,-0.5146574378013611,0.07228843867778778,-0.08643743400000001,0.5699373000000001,27.913328000000003,-98.97978,-8.205,STN
1253003500000.0,2.001298666000366,-0.5663145184516907,9.644782066345215,-0.5510647296905518,0.07021021842956543,-0.021991148999999998,0.57910025,27.825004999999997,-98.963356,-8.140244500000001,STN
1253008500000.0,2.0062978267669678,-0.6370277404785156,9.523796081542969,-0.585918128490448,0.06892640143632889,0.03359759,0.57787853,27.705640000000002,-98.95395,-8.076417999999999,STN
1253013500000.0,2.011291980743408,-0.7206547260284424,9.419170379638672,-0.6193976402282715,0.06831326335668564,0.07086037,0.56505036,27.575284999999997,-98.94653000000001,-8.011907,STN
1253018400000.0,2.016291618347168,-0.8167746663093567,9.331534385681152,-0.6498209834098816,0.06879083067178726,0.10842858,0.52534413,27.460413,-98.97171999999999,-7.985079300000001,STN
1253023400000.0,2.021287202835083,-0.9240283966064453,9.25989818572998,-0.6768988370895386,0.07020331174135208,0.098043874,0.44715336,27.34977,-99.01096,-7.972767999999999,STN
1253028400000.0,2.0262868404388428,-1.0395487546920776,9.19954776763916,-0.699379026889801,0.07315197587013245,0.052839845,0.33078352,27.286070000000002,-99.10077,-8.019335,STN
1253033400000.0,2.0312817096710205,-1.1615079641342163,9.148207664489746,-0.7171344757080078,0.07763633877038956,0.019242255,0.20250183,27.221579,-99.214386,-8.0906725,STN
1253038400000.0,2.0362813472747803,-1.2933887243270874,9.097356796264648,-0.746124267578125,0.08339551091194153,0.035430185,0.08093964,27.188834999999997,-99.38584,-8.234075,STN
1253043300000.0,2.0412817001342773,-1.4355666637420654,9.044231414794922,-0.7908945679664612,0.08987323194742203,0.15088372,-0.013133603,27.135820000000002,-99.58191,-8.401905000000001,STN
1253048300000.0,2.046281576156616,-1.581922173500061,8.989588737487793,-0.8515549898147583,0.09740559011697769,0.3857614,-0.059253927000000005,27.072917999999998,-99.82238000000001,-8.620317,STN
1253053300000.0,2.051281690597534,-1.7286460399627686,8.933905601501465,-0.9279536604881287,0.1068316400051117,0.74097955,-0.07391469,26.941757,-100.07773,-8.845774,STN
1253058300000.0,2.056278944015503,-1.8755297660827637,8.877902030944824,-1.0166246891021729,0.11842483282089233,0.95539325,-0.06872234,26.81485,-100.38025,-9.106941,STN
1253063400000.0,2.0612854957580566,-2.022874116897583,8.82177448272705,-1.1163703203201294,0.1311093121767044,1.4465289,-0.052839845,26.505608000000002,-100.68189,-9.347913,STN
1253068400000.0,2.0662853717803955,-2.1659774780273438,8.763635635375977,-1.212649941444397,0.14894509315490723,2.028378,-0.023823743999999997,26.111496,-101.018394,-9.580786,STN
1253073400000.0,2.0712838172912598,-2.3027586936950684,8.7023344039917,-1.2983205318450928,0.17317144572734833,2.6557367000000003,-0.024129177,25.562641,-101.362564,-9.7958555,STN
1253078500000.0,2.0762875080108643,-2.4228248596191406,8.63380241394043,-1.3584692478179932,0.2035617232322693,3.2528574,-0.035430185,24.862225,-101.74408000000001,-9.996371,STN
1253083400000.0,2.0812878608703613,-2.522528886795044,8.55691909790039,-1.3882203102111816,0.2383062094449997,3.7391062000000006,-0.08399397,24.014143,-102.14816,-10.181394000000001,STN
1253088400000.0,2.086287260055542,-2.597160816192627,8.476546287536621,-1.379737377166748,0.2723873257637024,4.099517,-0.14813483,23.043264,-102.56483,-10.356369,STN
1253093400000.0,2.0912883281707764,-2.6444461345672607,8.395537376403809,-1.3291499614715576,0.300354927778244,4.3566910000000005,-0.18997909,21.966920000000002,-102.98409000000001,-10.511337,STN
1253098500000.0,2.0963194370269775,-2.6612801551818848,8.318353652954102,-1.211402177810669,0.32030484080314636,4.494441,-0.20463985,20.842861,-103.3437,-10.6238985,STN
1253103500000.0,2.101317882537842,-2.65388822555542,8.247639656066895,-1.03182852268219,0.33198070526123047,4.4956627000000005,-0.18417588,19.695002,-103.68041,-10.718817,STN
1253108500000.0,2.106315851211548,-2.6259913444519043,8.184637069702148,-0.7708134055137634,0.3373047113418579,4.257731,-0.13530666,18.645664,-103.86698,-10.7209015,STN
1253113500000.0,2.111314296722412,-2.5818796157836914,8.129728317260742,-0.4237331449985504,0.3403428792953491,3.6682458,-0.086132,17.719517,-104.02554,-10.718171,STN
1253118400000.0,2.116312265396118,-2.5319948196411133,8.08151626586914,-0.026717573404312134,0.34474918246269226,2.7461447999999997,-0.030848695,16.950429999999997,-104.04841,-10.710708,STN
1253123400000.0,2.1213104724884033,-2.483745574951172,8.038942337036133,0.39439859986305237,0.3478300869464874,1.6490307,-0.013439035,16.411406,-104.04911,-10.731359,STN
1253128400000.0,2.126309633255005,-2.439678430557251,8.00125503540039,0.7848387956619263,0.33922243118286133,0.55680364,-0.048563786,16.195572,-103.86553,-10.79711,STN
1253133500000.0,2.131314516067505,-2.4015719890594482,7.967898845672607,1.1059644222259521,0.310987263917923,-0.33169982,-0.12003502,16.239995999999998,-103.664345,-10.905669,STN
1253138500000.0,2.136312484741211,-2.3663454055786133,7.94200325012207,1.3483518362045288,0.2636171579360962,-0.91782504,-0.16676621,16.552998000000002,-103.39876,-11.070311,STN
1253143500000.0,2.141310930252075,-2.331841468811035,7.926031589508057,1.502543330192566,0.20607519149780273,-1.1976013,-0.18753563,17.034607,-103.14519,-11.265359,STN
1253148500000.0,2.1463091373443604,-2.2939653396606445,7.9225873947143555,1.5715858936309814,0.14748163521289825,-1.2660183,-0.20525073,17.580822,-102.9588,-11.463766,STN
1253153400000.0,2.1513078212738037,-2.2450199127197266,7.937148571014404,1.5561935901641846,0.0934593677520752,-1.2513573999999998,-0.19517145,18.186213000000002,-102.794914,-11.659497,STN
1253158400000.0,2.1563034057617188,-2.1851608753204346,7.963809013366699,1.4715559482574463,0.045620396733284,-1.1392636,-0.18295415,18.695837,-102.69901999999999,-11.791275,STN
1253163400000.0,2.1613030433654785,-2.113973379135132,7.997453689575195,1.3292794227600098,0.0025120656937360764,-0.97585726,-0.11636983,19.186998000000003,-102.61034000000001,-11.899721000000001,STN
1253168500000.0,2.1663341522216797,-2.0338070392608643,8.02791976928711,1.1352111101150513,-0.03361102566123009,-0.65209866,-0.019242255,19.497713,-102.51993,-11.892241,STN
1253173500000.0,2.1713309288024902,-1.9501246213912964,8.048306465148926,0.9112083315849304,-0.059475015848875046,-0.5177083,0.0027488936,19.812248,-102.449524,-11.889674000000001,STN
1253178500000.0,2.176325798034668,-1.866213321685791,8.054357528686523,0.6697425246238708,-0.08049356937408447,-0.25137106,0.043066,19.935184,-102.32281,-11.745917,STN
1253183500000.0,2.181323766708374,-1.7870231866836548,8.042139053344727,0.43092525005340576,-0.09275791049003601,-0.02687807,0.057726767000000005,20.024760999999998,-102.222824,-11.6079035,STN
1253188400000.0,2.186319351196289,-1.7173638343811035,8.01367473602295,0.2063993513584137,-0.09709267318248749,0.10812314599999999,0.059864793,19.945414000000003,-102.11265999999999,-11.424998,STN
1253193400000.0,2.1913182735443115,-1.6649819612503052,7.970602512359619,0.014058834873139858,-0.09318797290325165,0.14844026,0.05375614,19.831170999999998,-102.02345,-11.241265,STN
1253198400000.0,2.19631290435791,-1.6345951557159424,7.912027359008789,-0.14279165863990784,-0.08337108045816422,0.17745635,0.041233405,19.669926,-101.967155,-11.066593,STN
1253203400000.0,2.201310873031616,-1.6360796689987183,7.834596157073975,-0.2556014358997345,-0.0696987509727478,0.27366763,0.024740042,19.48098,-101.93636,-10.894320500000001,STN
1253208400000.0,2.2063047885894775,-1.6646277904510498,7.740672588348389,-0.3220089077949524,-0.05366235971450806,0.49541172,0.007330383,19.287070999999997,-101.978096,-10.799652,STN
1253213300000.0,2.2113029956817627,-1.7155652046203613,7.631870746612549,-0.3332807123661041,-0.03895263373851776,0.80909103,-0.045814894,19.039509,-102.04045,-10.714271,STN
1253218300000.0,2.216296434402466,-1.7751582860946655,7.51699686050415,-0.294473260641098,-0.03147266060113907,1.0393872,-0.12492194,18.845861,-102.193634,-10.778428,STN
1253223300000.0,2.2212960720062256,-1.8158661127090454,7.413137912750244,-0.20725776255130768,-0.03651794046163559,0.97158116,-0.20463985,18.649242,-102.34099,-10.853944,STN
1253228300000.0,2.226292133331299,-1.8349964618682861,7.326288223266602,-0.09144384413957596,-0.053583741188049316,0.52687126,-0.24007004,18.598764000000003,-102.55675500000001,-11.08217,STN
1253233400000.0,2.2312917709350586,-1.8225027322769165,7.272855758666992,0.013270173221826553,-0.07807406038045883,-0.08460484,-0.25259277,18.624273000000002,-102.75811999999999,-11.3257,STN
1253238500000.0,2.2363100051879883,-1.7837413549423218,7.252255916595459,0.09009970724582672,-0.10565411299467087,-0.58093286,-0.22204952,18.752481,-102.83409,-11.548665,STN
1253243500000.0,2.24130916595459,-1.7322722673416138,7.258209705352783,0.11578719317913055,-0.13306653499603271,-0.7651087,-0.15485434,18.970345000000002,-102.90158000000001,-11.770919000000001,STN
1253248500000.0,2.246307134628296,-1.672016978263855,7.289237976074219,0.08979228138923645,-0.15877391397953033,-0.6637050999999999,-0.0842994,19.181173,-102.850174,-11.854655000000001,STN
1253253400000.0,2.2513058185577393,-1.6194199323654175,7.33738899230957,0.01428893767297268,-0.1818579137325287,-0.5128214,-0.013744468000000001,19.431599,-102.789986,-11.921781,STN
1253258400000.0,2.2563023567199707,-1.5754761695861816,7.3995795249938965,-0.10163839161396027,-0.20229557156562805,-0.07360926,0.014660766,19.468515,-102.690445,-11.860288,STN
1253263400000.0,2.2613015174865723,-1.5494511127471924,7.462411880493164,-0.21781617403030396,-0.21946288645267487,0.41783184,0.04550946,19.445398,-102.57938399999999,-11.776083999999999,STN
1253268400000.0,2.266305685043335,-1.5399887561798096,7.5256218910217285,-0.331694632768631,-0.23488517105579376,0.7797695,0.049785517,19.253667999999998,-102.5072,-11.667326,STN
1253273400000.0,2.2713048458099365,-1.5392431020736694,7.585907459259033,-0.412425696849823,-0.24836242198944092,0.98471475,0.030848695,18.968335999999997,-102.43745,-11.549057000000001,STN
1253278400000.0,2.2763044834136963,-1.5469201803207397,7.643433094024658,-0.46121320128440857,-0.25934720039367676,1.0827586999999999,0.023823743999999997,18.634548000000002,-102.40805,-11.468065,STN
1253283300000.0,2.2813024520874023,-1.5579086542129517,7.696325302124023,-0.4686180651187897,-0.27064183354377747,1.0305296,0.0061086523,18.290454999999998,-102.38134000000001,-11.392307,STN
1253288300000.0,2.2862958908081055,-1.5708662271499634,7.744355201721191,-0.4344971179962158,-0.28289714455604553,0.82558435,-0.019547688,17.968563,-102.35850500000001,-11.320085,STN
1253293300000.0,2.291295051574707,-1.583188772201538,7.789020538330078,-0.3792906701564789,-0.29939883947372437,0.52870387,-0.04734206,17.750723,-102.36516999999999,-11.312882,STN
1253298300000.0,2.2962894439697266,-1.5943591594696045,7.830810070037842,-0.3091891407966614,-0.32288306951522827,0.20005837,-0.08155051,17.606627,-102.365746,-11.317328999999999,STN
1253303400000.0,2.3012888431549072,-1.6077563762664795,7.885479927062988,-0.2420472800731659,-0.35278239846229553,-0.10903945,-0.12217305,17.579635999999997,-102.335,-11.373263,STN
1253308400000.0,2.3062915802001953,-1.6240788698196411,7.956160068511963,-0.18212279677391052,-0.38673654198646545,-0.3652974,-0.16584991,17.632563,-102.307526,-11.444998,STN
1253313300000.0,2.311291217803955,-1.6435871124267578,8.05751895904541,-0.14304816722869873,-0.42088329792022705,-0.5653558000000001,-0.20922135,17.777839999999998,-102.278564,-11.540817,STN
1253318300000.0,2.3162894248962402,-1.66636061668396,8.195259094238281,-0.13011251389980316,-0.45301494002342224,-0.66614854,-0.24220806,17.96679,-102.26359599999999,-11.647438000000001,STN
1253323300000.0,2.321288585662842,-1.6927642822265625,8.373512268066406,-0.14652210474014282,-0.4809925854206085,-0.6047566,-0.29871312,18.160104999999998,-102.27988,-11.769764,STN
1253328400000.0,2.3262906074523926,-1.7228869199752808,8.593270301818848,-0.19306989014148712,-0.502368152141571,-0.34605515,-0.38728857,18.321735,-102.32874,-11.907121,STN
1253333400000.0,2.3312904834747314,-1.7545264959335327,8.85051441192627,-0.25595274567604065,-0.5171516537666321,0.043066,-0.52015173,18.383698000000003,-102.409775,-12.043016999999999,STN
1253338400000.0,2.336290121078491,-1.7866895198822021,9.143152236938477,-0.32874196767807007,-0.5268500447273254,0.43737950000000003,-0.6612616,18.366184,-102.5255,-12.200165,STN
1253343400000.0,2.341289520263672,-1.8314955234527588,9.464279174804688,-0.38697850704193115,-0.5333784222602844,0.7583892,-0.7788531999999999,18.204638,-102.66741,-12.349333999999999,STN
1253348300000.0,2.3462891578674316,-1.8967995643615723,9.80903434753418,-0.41469869017601013,-0.5382729172706604,0.89675015,-0.8762861999999999,17.985481,-102.83946,-12.5233,STN
1253353300000.0,2.351287603378296,-1.979318618774414,10.149009704589844,-0.40353408455848694,-0.5439158082008362,1.1007791999999998,-0.9129381,17.628092000000002,-102.99029,-12.663618,STN
1253358300000.0,2.3562843799591064,-2.0764505863189697,10.462966918945312,-0.34753647446632385,-0.5505764484405518,1.2513573999999998,-0.9941832,17.254303,-103.17304,-12.835533,STN
1253363300000.0,2.3612842559814453,-2.1859211921691895,10.7552490234375,-0.23148846626281738,-0.55919349193573,1.319469,-1.0748174,16.9061,-103.38803,-13.063239999999999,STN
1253368400000.0,2.366284132003784,-2.3050599098205566,11.030146598815918,-0.04256465286016464,-0.5695649981498718,1.2483031999999998,-1.1349876,16.562804999999997,-103.610405,-13.299039000000002,STN
1253373400000.0,2.371284008026123,-2.4289939403533936,11.284246444702148,0.21167410910129547,-0.5811254978179932,1.0458013000000002,-1.208597,16.315472,-103.9099,-13.643322,STN
1253378400000.0,2.376286506652832,-2.5536510944366455,11.514697074890137,0.5251370668411255,-0.5942022204399109,0.700357,-1.2666291,16.136136999999998,-104.21425,-13.991767000000001,STN
1253383300000.0,2.381286382675171,-2.6761667728424072,11.72636604309082,0.8646798133850098,-0.6087144017219543,0.17531833,-1.3310753,16.171267999999998,-104.59184,-14.442484,STN
1253388300000.0,2.3862862586975098,-2.7939252853393555,11.923717498779297,1.1997967958450317,-0.6268643140792847,-0.42241332,-1.4248432,16.331210000000002,-104.99575,-14.908242999999999,STN
1253393300000.0,2.3912858963012695,-2.902195692062378,12.11432933807373,1.508005976676941,-0.6488487720489502,-0.97127575,-1.5118915000000002,16.725346,-105.47278,-15.443601999999998,STN
1253398300000.0,2.396284818649292,-2.995952844619751,12.30612564086914,1.7655261754989624,-0.6750331521034241,-1.4471397,-1.5894713,17.276115,-105.98866000000001,-15.987035999999998,STN
1253403300000.0,2.4012839794158936,-3.073604106903076,12.499767303466797,1.9678457975387573,-0.7017102837562561,-1.7730363999999998,-1.6429220000000002,17.964357,-73.44838,-16.542317999999998,STN
1253408400000.0,2.4062838554382324,-3.1309256553649902,12.696669578552246,2.102451801300049,-0.7281702160835266,-1.9226984,-1.6737707999999998,18.742517000000003,-72.85385,-17.091013,STN
1253413400000.0,2.4112792015075684,-3.1676840782165527,12.894758224487305,2.17299747467041,-0.7531712055206299,-1.9511036,-1.6982054,19.513723000000002,-72.29104,-17.582178,STN
1253418300000.0,2.416276693344116,-3.181464672088623,13.091113090515137,2.1795814037323,-0.7762212753295898,-1.8674151,-1.7110336,20.294847,-71.716415,-18.05997,STN
1253423400000.0,2.4213132858276367,-3.1716785430908203,13.281330108642578,2.122021198272705,-0.7978313565254211,-1.6566665,-1.6841555000000001,20.934916,-71.23321,-18.450235,STN
1253428400000.0,2.4263107776641846,-3.146305799484253,13.459424018859863,2.0240585803985596,-0.8195268511772156,-1.3420709,-1.6368133999999999,21.515278,-70.75205,-18.829872,STN
1253433400000.0,2.431305408477783,-3.102339029312134,13.621525764465332,1.8901009559631348,-0.8415148258209229,-0.9578367,-1.5909985,21.898395999999998,-70.3851,-19.125834,STN
1253438400000.0,2.4363019466400146,-3.038079261779785,13.761406898498535,1.7358675003051758,-0.8637145757675171,-0.54641896,-1.5109752,22.174622,-70.04236999999999,-19.400888000000002,STN
1253443400000.0,2.4412972927093506,-2.9571728706359863,13.877488136291504,1.5742777585983276,-0.884324312210083,-0.34910949999999996,-1.3912456,22.311139999999998,-69.81076,-19.59996,STN
1253448400000.0,2.4462950229644775,-2.864797353744507,13.964983940124512,1.4284263849258423,-0.9015080332756042,0.01985312,-1.2767084,22.271544,-69.60369,-19.788657999999998,STN
1253453300000.0,2.4512898921966553,-2.7645914554595947,14.023496627807617,1.3069255352020264,-0.9161645174026489,0.33444872,-1.219287,22.122,-69.473885,-19.916456,STN
1253458300000.0,2.456286907196045,-2.6627683639526367,14.04882526397705,1.2301658391952515,-0.9260194301605225,0.5338961999999999,-1.1120802,21.898045,-69.3974,-20.001360000000002,STN
1253463300000.0,2.461282730102539,-2.5606460571289062,14.041150093078613,1.1968742609024048,-0.9307263493537903,0.593761,-1.0262536,21.633364,-69.344826,-20.064228,STN
1253468300000.0,2.466280937194824,-2.46174693107605,13.995665550231934,1.210233211517334,-0.931731641292572,0.54061574,-0.9584476000000001,21.348116,-69.3232,-20.100296,STN
1253473400000.0,2.471280336380005,-2.3664872646331787,13.914840698242188,1.2657865285873413,-0.9306161403656006,0.39064834,-0.9221011,21.114525,-69.270615,-20.14075,STN
1253478400000.0,2.4762816429138184,-2.2775394916534424,13.802007675170898,1.3524714708328247,-0.9280137419700623,0.15393804,-0.9230174000000001,20.92785,-69.23355,-20.165941,STN
1253483300000.0,2.481278657913208,-2.1941308975219727,13.660964012145996,1.466143012046814,-0.9248501062393188,-0.15882497,-0.94714653,20.878748,-69.12829,-20.221895,STN
1253488300000.0,2.486279249191284,-2.1111879348754883,13.506744384765625,1.5864907503128052,-0.9213830232620239,-0.49877146,-0.97585726,20.911562,-69.02586,-20.269057999999998,STN
1253493300000.0,2.491279363632202,-2.0281217098236084,13.34310245513916,1.71029531955719,-0.9183773994445801,-0.8179486,-0.99112886,21.098969,-68.85056,-20.353392000000003,STN
1253498300000.0,2.49627947807312,-1.9411308765411377,13.187198638916016,1.8211156129837036,-0.9159714579582214,-1.1157454,-0.97127575,21.382261,-68.67815999999999,-20.421988,STN
1253503400000.0,2.5012824535369873,-1.8501805067062378,13.038155555725098,1.917750358581543,-0.915647029876709,-1.3610078,-0.9437868,21.763948000000003,-68.4761,-20.492792,STN
1253508400000.0,2.506281614303589,-1.7538120746612549,12.890045166015625,1.978690505027771,-0.9159258604049683,-1.5357152,-0.9419542,22.212248000000002,-68.27280400000001,-20.552367999999998,STN
1253513500000.0,2.5112876892089844,-1.6516207456588745,12.74284553527832,2.0033276081085205,-0.9168083667755127,-1.6377298,-0.9224065,22.679888000000002,-68.099884,-20.568956,STN
1253518500000.0,2.516287326812744,-1.5409762859344482,12.600512504577637,1.9794939756393433,-0.9146813750267029,-1.5732834,-0.8897252,23.144370000000002,-67.93496,-20.576632999999998,STN
1253523500000.0,2.5212957859039307,-1.4218740463256836,12.46261978149414,1.9086912870407104,-0.9083542227745056,-1.3674218999999999,-0.84329945,23.518684,-67.82893,-20.551779,STN
1253528400000.0,2.526301622390747,-1.2995574474334717,12.329133033752441,1.8151835203170776,-0.8979694247245789,-1.0577132,-0.78984874,23.833628,-67.73968,-20.521202,STN
1253533500000.0,2.5313172340393066,-1.1739165782928467,12.199674606323242,1.7001069784164429,-0.8823758363723755,-0.7858781,-0.7067711,23.95461,-67.77054,-20.451223000000002,STN
1253538500000.0,2.5363142490386963,-1.0497021675109863,12.074240684509277,1.5918817520141602,-0.8612976670265198,-0.58184916,-0.62888575,23.995071,-67.82549,-20.37827,STN
1253543600000.0,2.5413291454315186,-0.926706850528717,11.951913833618164,1.4909007549285889,-0.8355318307876587,-0.45081854,-0.5537493,23.889723,-67.96030400000001,-20.270193,STN
1253548600000.0,2.5463263988494873,-0.8158288598060608,11.827993392944336,1.4075852632522583,-0.8080138564109802,-0.4083634,-0.52748215,23.749010000000002,-68.1103,-20.157475,STN
1253553600000.0,2.5513222217559814,-0.7167547345161438,11.702080726623535,1.3417277336120605,-0.781164824962616,-0.32436943,-0.4886922,23.537905,-68.29385,-20.01705,STN
1253558600000.0,2.556317090988159,-0.6325823664665222,11.569771766662598,1.2865281105041504,-0.7560558915138245,-0.2724459,-0.48624873,23.326586,-68.478546,-19.878016,STN
1253563700000.0,2.561337471008301,-0.5638313889503479,11.429673194885254,1.2415605783462524,-0.7337175011634827,-0.20525073,-0.4596761,23.085522,-68.67895,-19.723370000000003,STN
1253568700000.0,2.5663342475891113,-0.5061076283454895,11.282111167907715,1.1981754302978516,-0.7130742073059082,-0.124311075,-0.44532076,22.85742,-68.83423,-19.59865,STN
1253573700000.0,2.5713281631469727,-0.45908018946647644,11.125812530517578,1.1549252271652222,-0.6935635805130005,-0.022602014,-0.4175264,22.604143,-68.999275,-19.46386,STN
1253578600000.0,2.576326847076416,-0.41728347539901733,10.965169906616211,1.1247947216033936,-0.6751253008842468,0.056505035999999995,-0.3820962,22.370855,-69.12135,-19.364988,STN
1253583600000.0,2.5813193321228027,-0.3798798620700836,10.801297187805176,1.10781991481781,-0.6589066982269287,0.06261369,-0.35277468,22.131565,-69.24876400000001,-19.258125,STN
1253588600000.0,2.586317300796509,-0.34461405873298645,10.636249542236328,1.1073403358459473,-0.6449522972106934,0.01863139,-0.3036,21.888437,-69.35177,-19.16679,STN
1253593600000.0,2.59131121635437,-0.31097424030303955,10.470874786376953,1.1225976943969727,-0.6334995031356812,-0.03756821,-0.24770586,21.650297,-69.46378,-19.061857,STN
1253598600000.0,2.5963101387023926,-0.276862233877182,10.308084487915039,1.144006609916687,-0.6239592432975769,-0.09865474,-0.18570304,21.451344,-69.55194,-18.958945999999997,STN
1253603500000.0,2.6013028621673584,-0.24207744002342224,10.148490905761719,1.169505000114441,-0.6149599552154541,-0.17837265,-0.12583824,21.275084,-69.65566,-18.835953,STN
1253608500000.0,2.6063005924224854,-0.20919449627399445,9.988977432250977,1.197917103767395,-0.605186939239502,-0.2864958,-0.06383542,21.171331,-69.74911,-18.69391,STN
1253613500000.0,2.611294746398926,-0.1785571128129959,9.82933521270752,1.228760004043579,-0.594551146030426,-0.38698313,-0.014049901000000002,21.086195,-69.85618000000001,-18.534983,STN
1253618500000.0,2.6162939071655273,-0.1479833573102951,9.675505638122559,1.252061128616333,-0.5814871788024902,-0.42027529999999996,0.03726278,21.02405,-69.98198000000001,-18.353819,STN
1253623500000.0,2.6212925910949707,-0.11703421175479889,9.528620719909668,1.2661014795303345,-0.5656360387802124,-0.41722095,0.09254608,20.976015,-70.125534,-18.15536,STN
1253628400000.0,2.626293182373047,-0.083439901471138,9.384199142456055,1.2675249576568604,-0.5463650226593018,-0.35888332,0.14538592,20.934439,-70.27059,-17.951957999999998,STN
1253633400000.0,2.631288528442383,-0.046886689960956573,9.241225242614746,1.2563745975494385,-0.5255003571510315,-0.26022860000000003,0.16432275,20.875861999999998,-70.42438,-17.745182,STN
1253638400000.0,2.6362876892089844,-0.005163826048374176,9.103099822998047,1.2338359355926514,-0.502964198589325,-0.13103059,0.19822577,20.763447,-70.61585,-17.518694,STN
1253643400000.0,2.6412887573242188,0.042012929916381836,8.970602035522461,1.200858473777771,-0.4796106517314911,-0.062308256,0.22418754,20.637278,-70.813614,-17.291616,STN
1253648400000.0,2.646287441253662,0.0906420573592186,8.841696739196777,1.1587872505187988,-0.45468568801879883,0.06688975,0.23762658,20.411722,-71.0406,-17.061573000000003,STN
1253653300000.0,2.651285171508789,0.13928452134132385,8.715493202209473,1.1082779169082642,-0.4298356771469116,0.1908954,0.25717425,20.16659,-71.27660999999999,-16.825241000000002,STN
1253658300000.0,2.6562819480895996,0.18704259395599365,8.597716331481934,1.0512235164642334,-0.4034126400947571,0.31948254,0.2846632,19.851195999999998,-71.56075,-16.561129,STN
1253663300000.0,2.661280632019043,0.23369619250297546,8.48981761932373,0.9883254170417786,-0.3748655617237091,0.44257188,0.33292156,19.502617,-71.85959,-16.289448,STN
1253668300000.0,2.666278839111328,0.27730777859687805,8.387924194335938,0.921689510345459,-0.34430766105651855,0.5699373000000001,0.39920044,19.114931,-72.19516,-15.994407999999998,STN
1253673300000.0,2.6712777614593506,0.31682372093200684,8.289689064025879,0.8525311946868896,-0.3120902478694916,0.67347896,0.44990227,18.701487,-72.54624,-15.692463,STN
1253678300000.0,2.6762752532958984,0.3562275767326355,8.204530715942383,0.7843410968780518,-0.27782973647117615,0.7263188,0.49266282,18.276915,-72.949,-15.352007999999998,STN
1253683400000.0,2.6812744140625,0.39808499813079834,8.138330459594727,0.7192791104316711,-0.2416512668132782,0.76174897,0.5549710999999999,17.829824,-73.375824,-14.993592000000001,STN
1253688300000.0,2.6862735748291016,0.43805208802223206,8.078377723693848,0.6618890762329102,-0.20395004749298096,0.82863873,0.6612616,17.364624,-73.8344,-14.614742999999999,STN
1253693300000.0,2.6912732124328613,0.47310107946395874,8.015664100646973,0.6152881979942322,-0.16682562232017517,0.9260716999999998,0.7867944,16.88335,-74.315575,-14.213787,STN
1253698300000.0,2.696272373199463,0.5035029649734497,7.950355052947998,0.5788768529891968,-0.130182147026062,1.0283916,0.8897252,16.371098,-74.85245,-13.759387,STN
1253703300000.0,2.7012720108032227,0.5294948816299438,7.882566452026367,0.5521413087844849,-0.094840407371521,1.0729848,0.9621128000000001,15.8517685,-75.41094,-13.279485999999999,STN
1253708300000.0,2.7062716484069824,0.5454567074775696,7.80761194229126,0.5403319001197815,-0.060438040643930435,1.0626001,1.0122037,15.324181,-75.98958,-12.778718,STN
1253713400000.0,2.7112720012664795,0.5469036102294922,7.721722602844238,0.5476239323616028,-0.02695753611624241,0.95478237,1.0555751,14.818273999999999,-76.5815,-12.258885000000001,STN
1253718400000.0,2.7162673473358154,0.5349981784820557,7.628983974456787,0.568995475769043,0.004152710549533367,0.7672467,1.0848966999999998,14.371979999999999,-77.12138,-11.763123,STN
1253723300000.0,2.721261501312256,0.5103673934936523,7.532686233520508,0.6004016995429993,0.03266092389822006,0.5723807,1.1294898000000002,13.963041,-77.67283,-11.249645,STN
1253728300000.0,2.7262580394744873,0.47143277525901794,7.434345245361328,0.6402329802513123,0.05833138898015022,0.36285394,1.1957687,13.656720000000002,-78.14112,-10.790514,STN
1253733300000.0,2.7312543392181396,0.41616079211235046,7.336174964904785,0.6862137317657471,0.08183621615171432,0.17531833,1.2721269,13.399982999999999,-78.61743,-10.315178999999999,STN
1253738300000.0,2.736250638961792,0.3459918797016144,7.239834785461426,0.7353668808937073,0.10389307141304016,0.07788532,1.3564261999999998,13.226276,-79.04438,-9.880071000000001,STN
1253743300000.0,2.741248846054077,0.2621893584728241,7.146866321563721,0.7849219441413879,0.124709352850914,-0.13133603,1.4031575,13.136157,-79.472946,-9.431828,STN
1253748200000.0,2.746244430541992,0.16357053816318512,7.057453155517578,0.8311892747879028,0.1452626883983612,-0.31245756,1.5128077,13.110081,-79.86191,-9.015595,STN
1253753200000.0,2.751241445541382,0.048076190054416656,6.971775531768799,0.8701013922691345,0.16756922006607056,-0.47036624,1.6249015,13.132886,-80.26002,-8.587125,STN
1253758200000.0,2.7562363147735596,-0.08678819239139557,6.890350818634033,0.9010674357414246,0.1926749348640442,-0.61544675,1.7122552,13.23821,-80.60901,-8.207874,STN
1253763300000.0,2.7612383365631104,-0.24518485367298126,6.8137688636779785,0.9230810403823853,0.2202678620815277,-0.72356987,1.7831156000000004,13.370688000000001,-80.97968,-7.806377400000001,STN
1253768300000.0,2.766234874725342,-0.42803487181663513,6.74844217300415,0.9356935024261475,0.25083401799201965,-0.8246681,1.8307631000000002,13.565729000000001,-81.28794,-7.484583,STN
1253773400000.0,2.771237850189209,-0.6410650610923767,6.704627513885498,0.9370731115341187,0.283384770154953,-0.86284715,1.8860464,13.765001000000002,-81.61429,-7.1488130000000005,STN
1253778400000.0,2.7762362957000732,-0.8800410032272339,6.682102680206299,0.9295762777328491,0.317895770072937,-0.8549059000000001,1.9233092,14.019101999999998,-81.83923,-6.943217999999999,STN
1253783400000.0,2.7812392711639404,-1.1429080963134766,6.683105945587158,0.9157055020332336,0.35582515597343445,-0.8219192,1.9422461,14.269835999999998,-82.079124,-6.735639999999999,STN
1253788400000.0,2.786236047744751,-1.426116943359375,6.704916000366211,0.901287317276001,0.3971047103404999,-0.7733554,1.9156734,14.627538000000001,-82.22979000000001,-6.671889,STN
1253793300000.0,2.7912378311157227,-1.7280200719833374,6.74588680267334,0.8988152742385864,0.44223955273628235,-0.70188415,1.8417587,14.964451,-82.379456,-6.6235394,STN
1253798300000.0,2.796236276626587,-2.0432963371276855,6.8003764152526855,0.912487268447876,0.4917241334915161,-0.5858198,1.7110336,15.354997000000001,-82.40486,-6.7375817,STN
1253803300000.0,2.801238775253296,-2.3622848987579346,6.856321334838867,0.9569709897041321,0.5438454151153564,-0.47525316,1.5091426000000001,15.721916,-82.38946,-6.894466,STN
1253808300000.0,2.8062384128570557,-2.6796953678131104,6.908324241638184,1.025974154472351,0.5967211723327637,-0.4120286,1.2675453,16.127157,-82.19134,-7.2301517,STN
1253813400000.0,2.8112411499023438,-2.9814372062683105,6.940096855163574,1.10651433467865,0.6462419033050537,-0.36254853,1.0216721,16.49754,-81.92703,-7.616989599999999,STN
1253818500000.0,2.8162662982940674,-3.2647430896759033,6.95311975479126,1.1927070617675781,0.6888914108276367,-0.312763,0.7858781,16.88581,-81.47962,-8.151547,STN
1253823500000.0,2.8212666511535645,-3.5215163230895996,6.955370903015137,1.2663602828979492,0.7241406440734863,-0.28160888,0.5849035,17.259005,-80.973366,-8.728713,STN
1253828500000.0,2.826268434524536,-3.752000093460083,6.946392059326172,1.3273285627365112,0.7529699802398682,-0.20861048,0.43799037,17.617496,-80.389046,-9.361328,STN
1253833400000.0,2.8312695026397705,-3.9498291015625,6.937911510467529,1.364298939704895,0.7777562141418457,-0.049480084,0.33444872,17.938784,-79.76728,-10.021049,STN
1253838400000.0,2.8362648487091064,-4.114986896514893,6.932900428771973,1.3756616115570068,0.7995449304580688,0.056199603,0.30176744,18.251093,-79.1334,-10.682867,STN
1253843400000.0,2.8412678241729736,-4.2407331466674805,6.944709300994873,1.3616808652877808,0.819342315196991,0.344528,0.2706133,18.445373999999997,-78.539925,-11.30665,STN
1253848400000.0,2.8462634086608887,-4.328825950622559,6.975142002105713,1.325048565864563,0.8363755345344543,0.73273283,0.2678644,18.577509,-77.95339,-11.91811,STN
1253853500000.0,2.8512704372406006,-4.374980926513672,7.030714511871338,1.272765874862671,0.8503686785697937,1.2498302,0.28221974,18.546515,-77.47863000000001,-12.424938000000001,STN
1253858500000.0,2.856266975402832,-4.383020401000977,7.109945297241211,1.2093490362167358,0.8614674806594849,1.8726074000000001,0.31673363,18.37004,-77.01417,-12.917605,STN
1253863500000.0,2.86126708984375,-4.349605083465576,7.2147135734558105,1.1755123138427734,0.8697447776794434,2.453235,0.4098906,17.98776,-76.73607,-13.224795,STN
1253868400000.0,2.8662657737731934,-4.276464462280273,7.343723297119141,1.1837424039840698,0.8740487694740295,2.7678304,0.5476406999999999,17.504185,-76.48338000000001,-13.498122,STN
1253873400000.0,2.871267080307007,-4.174908638000488,7.481165409088135,1.2457362413406372,0.8729472160339355,2.7580566,0.6414085,16.875067,-76.42706,-13.56821,STN
1253878400000.0,2.876270055770874,-4.050767421722412,7.620110988616943,1.36420476436615,0.8678838610649109,2.4752259999999997,0.6560693,16.244072,-76.3898,-13.610170000000002,STN
1253883400000.0,2.881269693374634,-3.926501989364624,7.756304740905762,1.5218886137008667,0.8598511219024658,2.0518963,0.6087272,15.633016,-103.443985,-13.442927,STN
1253888500000.0,2.886298656463623,-3.8127026557922363,7.888260364532471,1.7150965929031372,0.8505861759185791,1.5891659,0.54428095,15.129116,-103.27790999999999,-13.2739,STN
1253893500000.0,2.8912994861602783,-3.7170379161834717,8.02846622467041,1.909036636352539,0.8414894938468933,1.1817188,0.5222898,14.7180805,-103.04588000000001,-13.040411,STN
1253898500000.0,2.8962998390197754,-3.644620656967163,8.184972763061523,2.091874122619629,0.8351401090621948,0.8573494,0.5537493,14.423162,-102.819885,-12.813433999999999,STN
1253903400000.0,2.901298761367798,-3.5879950523376465,8.344555854797363,2.255486249923706,0.8316358327865601,0.54458636,0.61117065,14.278234,-102.62419,-12.619862,STN
1253908400000.0,2.9062952995300293,-3.5423779487609863,8.499242782592773,2.3954286575317383,0.8309715390205383,0.22479841,0.6450737,14.231864000000002,-102.430176,-12.427739,STN
1253913400000.0,2.911294937133789,-3.5037667751312256,8.654608726501465,2.5404632091522217,0.8346723914146423,-0.16829337,0.7144069000000001,14.325841,-102.25889000000001,-12.257795,STN
1253918400000.0,2.916295051574707,-3.4697623252868652,8.813420295715332,2.7055532932281494,0.8406013250350952,-0.7696901999999999,0.75991637,14.57369,-102.08881,-12.088692,STN
1253923400000.0,2.9212961196899414,-3.4465203285217285,8.954915046691895,2.870436429977417,0.8441633582115173,-1.3041973,0.7861836,14.922195,-78.07104,-11.9289,STN
1253928500000.0,2.926302433013916,-3.4371726512908936,9.068426132202148,3.024585485458374,0.8427011966705322,-1.6438384,0.7742717,15.385701000000001,-78.2271,-11.771894,STN
1253933400000.0,2.9313011169433594,-3.4354770183563232,9.149453163146973,3.159864902496338,0.8380777835845947,-1.8277088,0.7470882,15.972473,-78.36793,-11.626923,STN
1253938400000.0,2.936300277709961,-3.4365017414093018,9.192233085632324,3.2684717178344727,0.8299569487571716,-1.8915442,0.71959925,16.616629999999997,-78.49677,-11.488888000000001,STN
1253943400000.0,2.9412999153137207,-3.4350600242614746,9.207725524902344,3.342827081680298,0.8202667832374573,-1.9941696,0.691194,17.353846,-78.54539,-11.425659,STN
1253948400000.0,2.946298360824585,-3.4273762702941895,9.204488754272461,3.3779399394989014,0.8062586784362793,-1.9895881000000002,0.6435465,18.071356,-78.57132,-11.377426,STN
1253953400000.0,2.95129656791687,-3.4136264324188232,9.193510055541992,3.368743419647217,0.7889114618301392,-1.8784106,0.5870415,18.785738000000002,-78.55268000000001,-11.371761,STN
1253958500000.0,2.956312894821167,-3.3936045169830322,9.181041717529297,3.310224771499634,0.7705680131912231,-1.6401732,0.528093,19.455069,-78.51223,-11.382951,STN
1253963500000.0,2.961310625076294,-3.372676372528076,9.177275657653809,3.2014076709747314,0.753885805606842,-1.2990049,0.49021935,20.034971,-78.48349,-11.392174,STN
1253968400000.0,2.9663093090057373,-3.354174852371216,9.1904935836792,3.032827854156494,0.7430897355079651,-0.9468411,0.48258355,20.536576999999998,-78.44463,-11.414551,STN
1253973400000.0,2.9713077545166016,-3.3444130420684814,9.218292236328125,2.8040823936462402,0.7395427823066711,-0.54000485,0.44318274,20.876425,-78.43207,-11.436987,STN
1253978400000.0,2.9763083457946777,-3.347740411758423,9.258974075317383,2.514934778213501,0.7434282302856445,-0.028710667000000002,0.3979787,21.077856,-78.416214,-11.469944,STN
1253983400000.0,2.981307029724121,-3.3571434020996094,9.313199996948242,2.1835122108459473,0.7502155900001526,0.57848936,0.31398472,21.084974,-78.41431999999999,-11.512939999999999,STN
1253988400000.0,2.9863059520721436,-3.3678174018859863,9.381497383117676,1.8219044208526611,0.7564459443092346,1.1682798,0.20616703,20.944963,-78.38857,-11.573503500000001,STN
1253993300000.0,2.9913063049316406,-3.3227922916412354,9.501648902893066,1.4878381490707397,0.7622628808021545,1.4929546,0.10415252,20.674774,-78.35394000000001,-11.637949,STN
1253998300000.0,2.996305227279663,-3.181462526321411,9.70010757446289,1.2235510349273682,0.7708299160003662,1.5201381,0.008246681,20.320135,-101.72578,-11.725408,STN
1254003300000.0,3.00130295753479,-2.978706121444702,9.953535079956055,1.0661473274230957,0.7851420640945435,1.3503176000000001,-0.0711658,19.894835999999998,-101.828026,-11.80444,STN
1254008300000.0,3.0063016414642334,-2.7445969581604004,10.241842269897461,1.047678828239441,0.8008400797843933,1.2061534,-0.09987647,19.455397,-101.96866,-11.887818,STN
1254013400000.0,3.011300563812256,-2.500603675842285,10.550300598144531,1.137198567390442,0.81443190574646,1.0726794,-0.10781772,18.936632,-101.74600000000001,-11.583763000000001,STN
1254018400000.0,3.0162997245788574,-2.2781453132629395,10.857784271240234,1.2923341989517212,0.8239462375640869,0.7993172,-0.09010262,18.512056,-101.5546,-11.288927000000001,STN
1254023400000.0,3.021298408508301,-2.092060089111328,11.1599702835083,1.453546166419983,0.8219826221466064,0.48991394,-0.10812314599999999,18.165796,-101.20529,-10.890016000000001,STN
1254028500000.0,3.026301622390747,-1.9589753150939941,11.452463150024414,1.5576978921890259,0.8055065870285034,0.36010507,-0.13988814,17.852702999999998,-100.86634000000001,-10.5081215,STN
1254033500000.0,3.031299352645874,-1.8713093996047974,11.746637344360352,1.6203458309173584,0.7840812802314758,0.3594942,-0.20861048,17.649654,-100.5607,-10.201889999999999,STN
1254038400000.0,3.0362987518310547,-1.8237160444259644,12.056459426879883,1.6559697389602661,0.7610957622528076,0.37293324,-0.25961772,17.482256,-100.258026,-9.915594,STN
1254043400000.0,3.0412964820861816,-1.8115003108978271,12.376059532165527,1.6782581806182861,0.7367796301841736,0.29016098,-0.38973203,17.373114,-100.13548,-9.798926,STN
1254048400000.0,3.046294927597046,-1.830263376235962,12.699004173278809,1.703623652458191,0.70775306224823,0.19150625,-0.46150870000000005,17.267265,-100.0104,-9.687629,STN
1254053400000.0,3.0512912273406982,-1.8721582889556885,13.00699234008789,1.7301069498062134,0.6685048937797546,0.09193522,-0.46089783,17.216452,-99.98943,-9.682925,STN
1254058400000.0,3.056288242340088,-1.9199411869049072,13.251152992248535,1.7528212070465088,0.6185055375099182,0.010079277,-0.42027529999999996,17.19053,-99.9715,-9.690557,STN
1254063300000.0,3.0612823963165283,-1.9725521802902222,13.429308891296387,1.767811894416809,0.5606881380081177,-0.14599679999999998,-0.355829,17.262972,-100.015816,-9.776191,STN
1254068300000.0,3.0662825107574463,-2.028484344482422,13.528733253479004,1.7654931545257568,0.5012152791023254,-0.48136179999999995,-0.30573806,17.411638,-100.04890400000001,-9.8556,STN
1254073300000.0,3.0712790489196777,-2.083275318145752,13.557713508605957,1.7370578050613403,0.4431539475917816,-0.883922,-0.31306845,17.645115,-100.123085,-9.978642,STN
1254078400000.0,3.0762815475463867,-2.1294872760772705,13.520843505859375,1.663837194442749,0.38660797476768494,-1.2116512,-0.32803464,17.952559,-100.188156,-10.089135,STN
1254083400000.0,3.0812768936157227,-2.1618423461914062,13.431075096130371,1.554050087928772,0.33260345458984375,-1.4361442,-0.34636059999999996,18.365675,-100.31286999999999,-10.247748,STN
1254088400000.0,3.086277484893799,-2.1677610874176025,13.302239418029785,1.4154685735702515,0.2852858603000641,-1.5430456,-0.37904188,18.834541,-100.45279000000001,-10.413399,STN
1254093400000.0,3.0912768840789795,-2.1466176509857178,13.138038635253906,1.255473017692566,0.24626842141151428,-1.5995506000000002,-0.41996986,19.342573,-100.62499,-10.595728,STN
1254098300000.0,3.0962777137756348,-2.0884761810302734,12.942708015441895,1.0967302322387695,0.21317178010940552,-1.7220291,-0.49296826,19.890892,-100.81734499999999,-10.796585,STN
1254103300000.0,3.101275682449341,-1.99630606174469,12.720130920410156,0.9402551054954529,0.18307603895664215,-1.9129245,-0.5693264,20.416399,-100.9736,-10.954896000000002,STN
1254108400000.0,3.106278419494629,-1.8733503818511963,12.480753898620605,0.7918583750724792,0.15390053391456604,-2.189341,-0.6203337,20.9915,-101.14429,-11.127811999999999,STN
1254113400000.0,3.111276865005493,-1.7248002290725708,12.228107452392578,0.6507479548454285,0.12409871071577072,-2.5256224,-0.66675943,21.578308,-101.25075,-11.236338,STN
1254118400000.0,3.116276502609253,-1.5652574300765991,11.972285270690918,0.5143843293190002,0.09539678692817688,-2.8518242999999996,-0.70707655,22.23076,-101.37191,-11.359967,STN
1254123400000.0,3.1212780475616455,-1.3966686725616455,11.714986801147461,0.38119080662727356,0.06923366338014603,-3.1419854,-0.763887,22.925720000000002,-101.43533000000001,-11.425614,STN
1254128400000.0,3.126281499862671,-1.2294080257415771,11.467316627502441,0.24182449281215668,0.04617396369576454,-3.3786957,-0.8240572,23.685091,-101.514626,-11.507446,STN
1254133300000.0,3.1312808990478516,-1.0648913383483887,11.229485511779785,0.09513180702924728,0.024701282382011414,-3.4727690000000004,-0.8426886,24.44959,-101.55255,-11.547788,STN
1254138300000.0,3.1362812519073486,-0.914215087890625,11.00635814666748,-0.07418063282966614,0.004307829309254885,-3.5769214999999996,-0.8723155999999999,25.271059,-101.61471,-11.61203,STN
1254143300000.0,3.141280174255371,-0.7764266133308411,10.798416137695312,-0.265945166349411,-0.0157475583255291,-3.5475998,-0.9104946,26.057917,-101.65075999999999,-11.649389,STN
1254148400000.0,3.1462807655334473,-0.6489591002464294,10.618965148925781,-0.4933030605316162,-0.03468530625104904,-3.3157766000000004,-0.9505063,26.804423999999997,-101.698524,-11.697925999999999,STN
1254153400000.0,3.151275157928467,-0.5311760902404785,10.465980529785156,-0.7530273795127869,-0.05139300972223282,-2.8447994999999997,-0.98654735,27.45897,-101.7386,-11.738063,STN
1254158400000.0,3.1562728881835938,-0.4160403311252594,10.36170768737793,-1.0518698692321777,-0.06208294630050659,-2.0821342,-0.9737191999999999,27.954153,-101.77736999999999,-11.776266,STN
1254163300000.0,3.161268472671509,-0.30212363600730896,10.307488441467285,-1.3881336450576782,-0.06308787316083908,-1.0742066000000001,-0.87689704,28.234432,-101.80374,-11.800383,STN
1254168300000.0,3.166269540786743,-0.19273127615451813,10.311261177062988,-1.731583595275879,-0.05326363816857338,0.007941248,-0.70371675,28.234046999999997,-101.77334,-11.758822,STN
1254173300000.0,3.171267032623291,-0.08866449445486069,10.370803833007812,-2.0726139545440674,-0.03538480028510094,0.9877690999999998,-0.5006041,27.970758,-101.7181,-11.677242999999999,STN
1254178400000.0,3.176272392272949,0.007788548246026039,10.462751388549805,-2.3871426582336426,-0.012940753251314163,1.8216002,-0.29504790000000003,27.3742,-101.58206,-11.473028999999999,STN
1254183400000.0,3.1812703609466553,0.09647468477487564,10.577498435974121,-2.6705820560455322,0.010488353669643402,2.4465152999999997,-0.1386664,26.56772,-101.44141,-11.216700999999999,STN
1254188400000.0,3.186269998550415,0.17132548987865448,10.690217971801758,-2.911552906036377,0.03616848587989807,2.924212,-0.090713486,25.556944,-101.29608,-10.88498,STN
1254193400000.0,3.191272258758545,0.23033784329891205,10.790627479553223,-3.1069066524505615,0.06466333568096161,3.249803,-0.08155051,24.43393,-101.17753,-10.510648,STN
1254198300000.0,3.1962730884552,0.27194276452064514,10.886252403259277,-3.227020502090454,0.09605077654123306,3.3786957,-0.052839845,23.265767999999998,-101.08986999999999,-10.109333,STN
1254203300000.0,3.20127272605896,0.29579925537109375,10.980663299560547,-3.2599709033966064,0.13323679566383362,3.2485814,0.004886922,22.104164,-101.062614,-9.692341,STN
1254208300000.0,3.206273317337036,0.3079920709133148,11.089404106140137,-3.171388864517212,0.17781682312488556,2.7391197999999997,0.10598512,21.074673,-101.08935,-9.3063135,STN
1254213400000.0,3.2113068103790283,0.3104136288166046,11.22132396697998,-2.9354135990142822,0.22982002794742584,1.8631389999999999,0.27824909999999997,20.212872,-101.152054,-8.895673,STN
