timestamp,rel_time,acc_x,acc_y,acc_z,gyro_x,gyro_y,gyro_z,azimuth,pitch,roll,label
0.0,0.0,0.0,0.0,0.0,0.0,0.050701816,0.023518313,89.482605,-55.126965000000006,-17.163242,STD
21071229000.0,1.4949152500776108e-05,0.005042173434048891,-0.02828371711075306,0.00531775550916791,-2.8320273486315273e-05,0.047036625,0.019547688,89.83325,-54.599926,-17.124268,STD
62900097000.0,7.410987745970488e-05,0.015072616748511791,-0.0844343975186348,0.015912175178527832,-4.816014916286804e-05,0.062308256,0.022296581,90.177246,-54.06389,-17.08529,STD
124870705000.0,0.00021498659043572843,0.02997114695608616,-0.16763073205947876,0.03167678788304329,-8.839734800858423e-05,0.06383542,0.022296581,90.52878,-53.518046999999996,-17.040941,STD
206086670000.0,0.0004472399887163192,0.04953065142035484,-0.2766709625720978,0.05239866301417351,-9.094458073377609e-05,0.05467244,0.017715093,90.88138000000001,-52.96665600000001,-16.99319,STD
305402200000.0,0.0008037631632760167,0.0735011100769043,-0.4100218713283539,0.07783212512731552,-0.00012954456906300038,0.04795292,0.016493361,91.23433,-52.405570000000004,-16.940617,STD
421460180000.0,0.0013061990030109882,0.10157398134469986,-0.5658650994300842,0.10766386240720749,-0.00023776889429427683,0.03390302,0.005497787,91.59553000000001,-51.835136,-16.883995000000002,STD
552735300000.0,0.001973354257643223,0.13339853286743164,-0.7421560287475586,0.14153459668159485,-0.0006144368089735508,0.030543262,0.0036651915999999997,91.956055,-51.254665,-16.821165,STD
697579600000.0,0.002820911817252636,0.16859251260757446,-0.9366850256919861,0.17905019223690033,-0.000757460598833859,0.02565634,0.0012217305,92.32390600000001,-50.669907,-16.753365,STD
854268400000.0,0.003863872494548559,0.20674104988574982,-1.1471279859542847,0.2197933793067932,-0.0007613816414959729,0.02076942,0.00580322,92.69306,-50.07281,-16.678467,STD
1021043700000.0,0.005105977412313223,0.2472316026687622,-1.3709660768508911,0.26328563690185547,-0.0006339008104987442,0.02076942,0.0033597588,93.06517,-49.46917,-16.60033,STD
1196154800000.0,0.006555338855832815,0.28962087631225586,-1.6058251857757568,0.30909064412117004,-0.00041125970892608166,0.029932396,-0.0027488936,93.456276,-48.842715999999996,-16.476631,STD
1377893500000.0,0.008214298635721207,0.33348116278648376,-1.8493951559066772,0.3567773103713989,-0.00018019239360000938,0.043066,0.004276057,93.84392,-48.20947,-16.345112,STD
1564623500000.0,0.010086538270115852,0.3784015476703644,-2.099461793899536,0.4059341549873352,0.0004396592266857624,0.046120327,0.00580322,94.23318,-47.57015,-16.209685999999998,STD
1754804500000.0,0.01216522604227066,0.42400404810905457,-2.353952407836914,0.4561638832092285,0.00127235462423414,0.055283304000000005,0.008552114,94.61561,-46.921917,-16.069574,STD
1947009400000.0,0.014446571469306946,0.4699362814426422,-2.6109437942504883,0.5071008801460266,0.0023691486567258835,0.056505035999999995,0.007330383,94.99858,-46.268414,-15.922832000000001,STD
2139936300000.0,0.016926540061831474,0.5158773064613342,-2.8686819076538086,0.5584110617637634,0.003678122768178582,0.050396382999999996,0.0070249503,95.37917,-45.608222999999995,-15.769292000000002,STD
2332415200000.0,0.019598016515374184,0.561541736125946,-3.1255948543548584,0.6097908616065979,0.005175828002393246,0.037873644,0.012217305,95.7586,-44.942028,-15.607482000000001,STD
2523410700000.0,0.02244996838271618,0.6066809296607971,-3.380296468734741,0.6609670519828796,0.006265857256948948,0.005497787,0.008246681,96.14385,-44.264282,-15.436097,STD
2712020000000.0,0.025474393740296364,0.6510768532752991,-3.6315765380859375,0.7117029428482056,0.007520637009292841,-0.0125227375,0.007941248,96.52486,-43.584509999999995,-15.256626,STD
2897468200000.0,0.028662772849202156,0.6945438385009766,-3.8783986568450928,0.7617939114570618,0.008937402628362179,-0.03848451,0.007941248,96.7208043239732,-43.2376666463476,-15.1589394930549,STD
3079102800000.0,0.03200420364737511,0.7369285821914673,-4.119893550872803,0.8110640048980713,0.010164517909288406,-0.04917465,0.004276057,96.91585,-42.892414,-15.061701000000001,STD
3256384700000.0,0.035488665103912354,0.7781053781509399,-4.355344772338867,0.8593668341636658,0.01106184534728527,-0.050701816,0.008552114,97.29893,-42.192364000000005,-14.861873000000001,STD
3428879200000.0,0.039108362048864365,0.8179726004600525,-4.584174156188965,0.9065846800804138,0.01128133200109005,-0.046731193,0.0015271631,97.688614,-41.481087,-14.651769,STD
3596245800000.0,0.042850714176893234,0.8564562797546387,-4.805936336517334,0.9526191353797913,0.011027781292796135,-0.03573562,0.008552114,98.06994,-40.763157,-14.432282,STD
3758229000000.0,0.04670725390315056,0.893500030040741,-5.0202956199646,0.9973973035812378,0.010581541806459427,-0.024129177,0.007330383,98.450226,-40.03374,-14.209804,STD
3914648300000.0,0.05066898837685585,0.9290665984153748,-5.227018356323242,1.0408648252487183,0.01080475002527237,-0.0076358155,0.012217305,98.82086,-39.30012,-13.981313,STD
4065388100000.0,0.054728467017412186,0.9631336331367493,-5.425957679748535,1.082985281944275,0.010902187786996365,0.0061086523,0.01160644,99.18751,-38.552845,-13.749154,STD
4210390500000.0,0.058876365423202515,0.9956946969032288,-5.6170454025268555,1.123734951019287,0.010802684351801872,0.004581489,0.006414085,99.5499,-37.801643,-13.510399,STD
4349645300000.0,0.06310489773750305,1.0267540216445923,-5.800277233123779,1.1631038188934326,0.010887186042964458,0.013133603,0.01160644,99.9015,-37.045525,-13.268471,STD
4483184000000.0,0.06740861386060715,1.0563241243362427,-5.975701808929443,1.2010947465896606,0.01121034100651741,0.017715093,0.013439035,100.2518,-36.28091,-13.020225,STD
4611072600000.0,0.07178017497062683,1.0844275951385498,-6.143416404724121,1.2377172708511353,0.011108133010566235,0.016187929,0.015271631,100.595955,-35.507236,-12.765047000000001,STD
4733404700000.0,0.07621169090270996,1.1110947132110596,-6.3035569190979,1.272987723350525,0.011348100379109383,0.014049901000000002,0.014049901000000002,100.935,-34.732240000000004,-12.504507,STD
4850297000000.0,0.08070136606693268,1.136356234550476,-6.456283092498779,1.306934118270874,0.011438390240073204,0.019547688,0.022296581,101.26536999999999,-33.946625,-12.237115,STD
4961884700000.0,0.08523990213871002,1.1602537631988525,-6.601788520812988,1.3395817279815674,0.011493523605167866,0.01160644,0.0070249503,101.59918,-33.155273,-11.963768,STD
5068318000000.0,0.08982397615909576,1.1828274726867676,-6.740278720855713,1.3709653615951538,0.011577321216464043,0.021380282999999996,0.014049901000000002,101.91643499999999,-32.359474,-11.684795,STD
5169756000000.0,0.09445000439882278,1.2041202783584595,-6.871973991394043,1.4011220932006836,0.011296682059764862,0.020158553,0.013439035,102.23676999999999,-31.553726,-11.398827,STD
5266367000000.0,0.09911290556192398,1.2241783142089844,-6.997106552124023,1.4300895929336548,0.010478651151061058,0.0421497,0.017104227,102.54352,-30.742022,-11.113149,STD
5358323500000.0,0.10381006449460983,1.2430469989776611,-7.115912437438965,1.4579092264175415,0.009778988547623158,0.049480084,0.009773844,102.84978000000001,-29.925346,-10.819498,STD
5445801000000.0,0.10853701084852219,1.260773777961731,-7.228634357452393,1.484621286392212,0.00916092935949564,0.06994407,0.011301007,103.14175999999999,-29.100835999999997,-10.526974000000001,STD
5528976000000.0,0.1132924035191536,1.2774039506912231,-7.335512638092041,1.5102691650390625,0.0090180654078722,0.07147124,0.01740966,103.43009,-28.273424,-10.226479,STD
5608025000000.0,0.11807247996330261,1.2929846048355103,-7.436789035797119,1.5348941087722778,0.009105250239372253,0.084910266,0.024129177,103.70721400000001,-27.440138,-9.928496,STD
5683122500000.0,0.12287353724241257,1.3075624704360962,-7.5327043533325195,1.5585367679595947,0.009188076481223106,0.08155051,0.015271631,103.98264,-26.602718,-9.622753999999999,STD
5754440400000.0,0.1276983916759491,1.3211779594421387,-7.6234869956970215,1.5812435150146484,0.009042812511324883,0.08155051,0.020463986,104.24407,-25.761826,-9.313606,STD
5822147000000.0,0.1325387954711914,1.333880066871643,-7.709373950958252,1.6030490398406982,0.008952975273132324,0.07269296,0.013439035,104.506035,-24.916925,-8.999206,STD
5886406300000.0,0.13739365339279175,1.3457107543945312,-7.790587902069092,1.6239941120147705,0.008129427209496498,0.049785517,0.012217305,104.76006,-24.062998,-8.675116000000001,STD
5947378400000.0,0.142264723777771,1.356708288192749,-7.867342948913574,1.6441208124160767,0.007910573855042458,0.041233405,0.009162978,105.00878999999999,-23.211973,-8.349037,STD
6005218000000.0,0.14714954793453217,1.3669131994247437,-7.9398512840271,1.6634660959243774,0.007348892744630575,0.02107485,0.0018325957999999999,105.25573999999999,-22.348103,-8.010164,STD
6060074000000.0,0.15204577147960663,1.3763649463653564,-8.008316993713379,1.682065486907959,0.006848409306257963,0.018936822,0.009468411,105.49096999999999,-21.486383,-7.668389,STD
6112091300000.0,0.15696218609809875,1.3851197957992554,-8.07304573059082,1.700110673904419,0.006631911266595125,0.008552114,0.004886922,105.72679,-20.619919,-7.3172429999999995,STD
6161408500000.0,0.161881685256958,1.393665075302124,-8.136127471923828,1.7199126482009888,0.006184473633766174,0.02076942,0.01038471,105.94792,-19.748657,-6.9660907000000005,STD
6208158000000.0,0.1668173223733902,1.4019806385040283,-8.197737693786621,1.7414839267730713,0.005469468422234058,0.0061086523,0.0067195175,106.15283000000001,-18.880713,-6.626071499999999,STD
6252469000000.0,0.1717497855424881,1.409179449081421,-8.257953643798828,1.7637503147125244,0.005503310356289148,-0.005497787,-0.0021380284,106.34848999999998,-18.013916000000002,-6.2869839999999995,STD
6294462300000.0,0.17668716609477997,1.4152960777282715,-8.316902160644531,1.7867337465286255,0.005583928432315588,-0.0030543262,-0.006414085,106.52781,-17.124044,-5.9297557,STD
6334255000000.0,0.1816704273223877,1.4217846393585205,-8.37356185913086,1.8095778226852417,0.004704992286860943,-0.018020526000000002,-0.0027488936,106.70116999999999,-16.230103,-5.562806,STD
6371959400000.0,0.18661697208881378,1.4286019802093506,-8.427693367004395,1.8318920135498047,0.003710188902914524,-0.022907447,0.0033597588,106.86521,-15.338448999999999,-5.1978316,STD
6407681000000.0,0.19157062470912933,1.4342460632324219,-8.478362083435059,1.849812388420105,0.0015358243836089969,-0.03390302,0.004276057,107.01298500000001,-14.418713,-4.819578,STD
6441522400000.0,0.1965281218290329,1.4386557340621948,-8.525660514831543,1.8632744550704956,-0.0016105164540931582,-0.03176499,0.0030543262,107.14973,-13.497415,-4.44295,STD
6473580000000.0,0.20149029791355133,1.4416226148605347,-8.569507598876953,1.8720320463180542,-0.0061645410023629665,-0.03634648,0.008552114,107.26588000000001,-12.559223,-4.0301456,STD
6503945700000.0,0.20645734667778015,1.4431366920471191,-8.610004425048828,1.876179575920105,-0.011971180327236652,-0.037873644,0.016493361,107.37093,-11.614492,-3.6199508000000002,STD
6532707600000.0,0.2114284634590149,1.4424737691879272,-8.647746086120605,1.8737653493881226,-0.01985730417072773,-0.05467244,0.014049901000000002,107.45246000000002,-10.654958,-3.1858547,STD
6559948600000.0,0.21640001237392426,1.4395759105682373,-8.682987213134766,1.8646687269210815,-0.029615916311740875,-0.053450707,0.014966198,107.51916499999999,-9.686981,-2.7582470000000003,STD
6585748300000.0,0.22137422859668732,1.433286428451538,-8.723665237426758,1.8461412191390991,-0.042544957250356674,-0.03970624,0.015577064,107.55402,-8.695764,-2.3010106,STD
6610181700000.0,0.22635376453399658,1.423414945602417,-8.771631240844727,1.8177707195281982,-0.058135826140642166,-0.04520403,0.029626964,107.57435,-7.693117,-1.8424537,STD
6633320600000.0,0.23133353888988495,1.4125415086746216,-8.82654094696045,1.783922553062439,-0.07678390294313431,-0.07819075,0.044593163,107.54729499999999,-6.6579933,-1.342262,STD
6655232700000.0,0.23631465435028076,1.4025065898895264,-8.888228416442871,1.7476792335510254,-0.09865233302116394,-0.12461651,0.06505715,107.50333400000001,-5.602048,-0.8434417,STD
6675982500000.0,0.24129770696163177,1.3923206329345703,-8.955058097839355,1.7094019651412964,-0.12319658696651459,-0.18051068,0.0888809,107.385925,-4.4677434,-0.29125994,STD
6695631000000.0,0.24628467857837677,1.3813964128494263,-9.02601432800293,1.669319748878479,-0.15014460682868958,-0.2275473,0.10659598599999999,107.25232,-3.3112307,0.25940755,STD
6714237000000.0,0.2513091266155243,1.3711422681808472,-9.098613739013672,1.6272205114364624,-0.17938494682312012,-0.29321529999999996,0.13408493,106.975204,-2.0565236000000002,1.0027689,STD
6731855000000.0,0.2562948763370514,1.3620887994766235,-9.170199394226074,1.5842961072921753,-0.21128356456756592,-0.34269542,0.1432479,106.68297,-0.7811157,1.7246573,STD
6748536600000.0,0.26128244400024414,1.353973388671875,-9.239588737487793,1.5371663570404053,-0.2438126653432846,-0.41630468,0.16523905,106.37279,0.5284426999999999,2.4147506,STD
6764332000000.0,0.26627081632614136,1.3465487957000732,-9.305809020996094,1.484237790107727,-0.2789064049720764,-0.48685959999999995,0.19058995,106.04482,1.8671433000000002,3.089644,STD
6779287600000.0,0.2712612450122833,1.3387868404388428,-9.365562438964844,1.4236323833465576,-0.31543612480163574,-0.5299255999999999,0.21471913,104.82540999999999,3.5661898,4.67441,STD
6793448000000.0,0.2762575149536133,1.3301533460617065,-9.417257308959961,1.3544344902038574,-0.3531300723552704,-0.54000485,0.2452624,103.61478000000001,5.2628317000000004,6.0512866999999995,STD
6806856000000.0,0.28124967217445374,1.3201804161071777,-9.45984935760498,1.277462124824524,-0.390559583902359,-0.5122104999999999,0.26450464,102.17858000000001,7.071619999999999,7.344962,STD
6819550300000.0,0.2862408459186554,1.3086044788360596,-9.492826461791992,1.1929689645767212,-0.4260139763355255,-0.43401974,0.2764165,100.78726,8.847185000000001,8.416469000000001,STD
6831569600000.0,0.2912319302558899,1.2958091497421265,-9.516951560974121,1.1028157472610474,-0.4592563509941101,-0.33169982,0.2837469,99.05103000000001,10.765047000000001,9.451889999999999,STD
6842949300000.0,0.2962251603603363,1.2821694612503052,-9.532929420471191,1.0088170766830444,-0.4888747036457062,-0.204029,0.30115658,97.414764,12.612827000000001,10.235892,STD
6853724000000.0,0.3012186586856842,1.2667806148529053,-9.541746139526367,0.9141219258308411,-0.5140364766120911,-0.064751714,0.31520647,95.80396999999999,14.411045999999999,10.846741999999999,STD
6863925000000.0,0.30621200799942017,1.2486635446548462,-9.544363021850586,0.8220119476318359,-0.5333840250968933,0.074830994,0.3191771,94.31200000000001,16.13402,11.25739,STD
6873583500000.0,0.31120678782463074,1.2284011840820312,-9.542708396911621,0.7356818318367004,-0.5460386872291565,0.2171626,0.32406402,93.29427,17.633146,11.349607,STD
6882727600000.0,0.3162018060684204,1.206419825553894,-9.53808879852295,0.6570007801055908,-0.5523565411567688,0.33383787,0.32009340000000003,92.341675,19.081464999999998,11.350760000000001,STD
6891385000000.0,0.32120051980018616,1.1824742555618286,-9.531100273132324,0.58854079246521,-0.5527236461639404,0.43066000000000004,0.31612277,91.41639,20.478374,11.272428999999999,STD
6899582000000.0,0.32619696855545044,1.1565454006195068,-9.522228240966797,0.5314969420433044,-0.5468057990074158,0.49968776,0.31948254,90.55494,21.817514000000003,11.123775,STD
6907342400000.0,0.3311929404735565,1.1289695501327515,-9.511218070983887,0.4861583709716797,-0.535035252571106,0.54000485,0.312763,89.74597,23.101511,10.910397,STD
6914689700000.0,0.3361891806125641,1.1000034809112549,-9.49793529510498,0.4525263011455536,-0.5180491209030151,0.53969944,0.29260445,88.99633,24.33079,10.658367,STD
6921646000000.0,0.34118446707725525,1.0693423748016357,-9.481769561767578,0.43032756447792053,-0.494855672121048,0.54244834,0.27947086,88.30197,25.488571,10.356657,STD
6928232000000.0,0.3461819589138031,1.0365357398986816,-9.46187686920166,0.41956833004951477,-0.4666481018066406,0.5360342,0.24953845,87.66367,26.597363,10.041048,STD
6934467400000.0,0.3511788547039032,1.0020378828048706,-9.440293312072754,0.4209260642528534,-0.4350280463695526,0.5323690999999999,0.23640485,87.078156,27.635933,9.695374000000001,STD
6940371000000.0,0.3561755120754242,0.9661925435066223,-9.418634414672852,0.4349525272846222,-0.40260234475135803,0.5497787,0.20219639,86.54822,28.633318,9.340873,STD
6945960400000.0,0.36117297410964966,0.9291145205497742,-9.397934913635254,0.46327242255210876,-0.368209570646286,0.56688297,0.15821409,86.044914,29.564331,8.975502,STD
6951252000000.0,0.3661706745624542,0.8909413814544678,-9.379362106323242,0.507739245891571,-0.3327520191669464,0.57910025,0.11453723,85.58757,30.467834000000003,8.605455000000001,STD
6956262000000.0,0.37116849422454834,0.8548063635826111,-9.362325668334961,0.568749725818634,-0.29745835065841675,0.5842925999999999,0.04184427,85.17031,31.325391999999997,8.227331,STD
6961005300000.0,0.37617218494415283,0.8242095708847046,-9.346197128295898,0.6473150253295898,-0.2631336748600006,0.602924,-0.042455133,84.80181999999999,32.153023,7.8502893,STD
6965496400000.0,0.3811720907688141,0.7987321615219116,-9.330927848815918,0.7417869567871094,-0.23065416514873505,0.59131753,-0.10995574,84.4701,32.938633,7.4748693,STD
6969748400000.0,0.3861696422100067,0.7781177163124084,-9.316472053527832,0.8514117002487183,-0.20135386288166046,0.54702985,-0.17470746,84.18117,33.70758,7.118833,STD
6973774000000.0,0.3911709785461426,0.7646006941795349,-9.301609992980957,0.9734706282615662,-0.1750471144914627,0.46792278,-0.21838433,83.91911,34.459602000000004,6.7847056,STD
6977585400000.0,0.3961687982082367,0.7634090185165405,-9.283583641052246,1.1011583805084229,-0.1507931798696518,0.36957347,-0.2415972,83.678696,35.198956,6.475976999999999,STD
6981194000000.0,0.401163786649704,0.7742159366607666,-9.262482643127441,1.2300435304641724,-0.12823855876922607,0.27702740000000003,-0.23609942,83.44594000000001,35.82658,6.2404957,STD
6984610300000.0,0.4061632752418518,0.797262966632843,-9.238234519958496,1.3528146743774414,-0.10753685235977173,0.20983220000000002,-0.22785273,83.219154,36.444244,6.0284977,STD
6987845000000.0,0.411163330078125,0.8308144211769104,-9.211491584777832,1.4676152467727661,-0.08857307583093643,0.15515977,-0.21380283,83.012856,36.983635,5.8832445,STD
6990907600000.0,0.41616469621658325,0.872348964214325,-9.183314323425293,1.5701022148132324,-0.0720684751868248,0.11453723,-0.18570304,82.80070500000001,37.520534999999995,5.747403,STD
6993807400000.0,0.4211646616458893,0.9209873676300049,-9.154187202453613,1.6601624488830566,-0.05886862799525261,0.06536258,-0.17684549,82.61391400000001,38.004740000000005,5.6801667,STD
6996552600000.0,0.4261666238307953,0.9746058583259583,-9.126107215881348,1.7340655326843262,-0.04891138896346092,0.016493361,-0.16890424,82.41923,38.48989,5.6165934,STD
6999152000000.0,0.4311649203300476,1.032707691192627,-9.099210739135742,1.7926998138427734,-0.04231695830821991,-0.061086524,-0.172264,82.23913,38.958576,5.609001999999999,STD
7001613000000.0,0.4361625015735626,1.0945796966552734,-9.0747652053833,1.8352394104003906,-0.03867826610803604,-0.13133603,-0.18020524,82.05469000000001,39.43289,5.6079974,STD
7003943500000.0,0.44116494059562683,1.1593486070632935,-9.052593231201172,1.861364483833313,-0.039042312651872635,-0.23365596,-0.18997909,81.8761,39.925746999999994,5.6520925,STD
7006149700000.0,0.44616496562957764,1.2214322090148926,-9.032114028930664,1.866430401802063,-0.0422842837870121,-0.27550024,-0.1872302,81.697845,40.421603999999995,5.694296,STD
7008239000000.0,0.4511646628379822,1.2808037996292114,-9.013789176940918,1.851617693901062,-0.04828336834907532,-0.34330627,-0.16432275,81.51347,40.9475,5.7782426,STD
7010217000000.0,0.4561602771282196,1.3365585803985596,-9.00074291229248,1.8194810152053833,-0.05602995678782463,-0.33169982,-0.11881329,81.3338,41.479076,5.844998,STD
7012090000000.0,0.46115463972091675,1.3888847827911377,-8.99273681640625,1.7707633972167969,-0.06837709248065948,-0.29718593,-0.077579886,81.16195,42.079212,5.9083843,STD
7013863000000.0,0.46615055203437805,1.439678430557251,-8.997035026550293,1.7082674503326416,-0.08519354462623596,-0.27030787,-0.036957346,80.98527,42.686478,5.9580173,STD
7015542300000.0,0.47114646434783936,1.4891142845153809,-9.014107704162598,1.6326382160186768,-0.10458087921142578,-0.22235495,-0.036957346,80.9068037928971,43.0044825706305,5.956147139305671,STD
7017132000000.0,0.47614407539367676,1.5366894006729126,-9.046004295349121,1.5416946411132812,-0.1260114312171936,-0.11698069400000001,0.043676864,80.827835,43.324524,5.954265,STD
7018637000000.0,0.481140673160553,1.5823538303375244,-9.090776443481445,1.4374630451202393,-0.1489693820476532,0.027488936000000002,0.07666359,80.699936,44.025047,5.927118,STD
7020062700000.0,0.4861375391483307,1.6253362894058228,-9.141606330871582,1.3268660306930542,-0.1729501187801361,0.19517145,0.11362094,80.61029,44.81841,5.831163,STD
7021412000000.0,0.49113336205482483,1.66567862033844,-9.197707176208496,1.2103060483932495,-0.1969062238931656,0.37568212,0.11911872,80.57744,45.702312,5.6790514000000005,STD
7022690400000.0,0.49613040685653687,1.7023169994354248,-9.253926277160645,1.0880435705184937,-0.22054602205753326,0.5479460999999999,0.12003502,80.58237,46.5871,5.489527,STD
7023900500000.0,0.5011264085769653,1.7353490591049194,-9.309362411499023,0.9596737623214722,-0.24365849792957306,0.70463306,0.093767814,80.64732,47.522205,5.257572,STD
7025046600000.0,0.5061236023902893,1.7639338970184326,-9.356225967407227,0.8181156516075134,-0.2648230493068695,0.86284715,0.077579886,80.76005,48.44343,4.9940233,STD
7026132000000.0,0.5111469030380249,1.7883105278015137,-9.394451141357422,0.6629387736320496,-0.28254833817481995,1.0238101000000002,0.07238753,80.92840600000001,49.39131,4.6940465,STD
7027159500000.0,0.516148030757904,1.8111636638641357,-9.425477981567383,0.5041391253471375,-0.29651302099227905,1.1472049,0.07299839999999999,81.13891600000001,50.320570000000004,4.3808045,STD
7028132500000.0,0.5211471319198608,1.8325573205947876,-9.44929313659668,0.3409935534000397,-0.3069989085197449,1.2415836,0.070249505,81.39735999999999,51.279224,4.031067,STD
7029054000000.0,0.5261474847793579,1.8530282974243164,-9.466196060180664,0.17938067018985748,-0.3135240375995636,1.2935071000000002,0.062002823,81.68980400000001,52.2089,3.6767595,STD
7029926700000.0,0.5311461687088013,1.8726621866226196,-9.47661304473877,0.019780203700065613,-0.3161366879940033,1.3353515,0.056505035999999995,82.01534000000001,53.113213,3.317346,STD
7030753000000.0,0.5361457467079163,1.8921812772750854,-9.484895706176758,-0.12955524027347565,-0.3142966032028198,1.3536774,0.046731193,82.36851,54.01465,2.956255,STD
7031535700000.0,0.5411429405212402,1.9116367101669312,-9.491517066955566,-0.268490731716156,-0.30868059396743774,1.3573426000000002,0.02321288,82.74483000000001,54.89025,2.6055167,STD
7032277000000.0,0.5461428165435791,1.931108832359314,-9.49916934967041,-0.3908613920211792,-0.2992457151412964,1.3548992,0.0018325957999999999,83.13235999999999,55.74269,2.265602,STN
7032979000000.0,0.5511389970779419,1.9505831003189087,-9.508233070373535,-0.49657225608825684,-0.28674888610839844,1.3341296999999999,-0.017715093,83.53171,56.569523,1.9433873,STN
7033644000000.0,0.5561386346817017,1.9737765789031982,-9.521224021911621,-0.5639181733131409,-0.2734856605529785,1.3069462,-0.05681047,83.94351,57.365069999999996,1.6498773000000002,STN
7034273500000.0,0.5611370205879211,2.0007920265197754,-9.53812026977539,-0.5931880474090576,-0.25895971059799194,1.2586879,-0.09132435,84.35634,58.131905,1.3762107,STN
7034870000000.0,0.5661370158195496,2.030890941619873,-9.554608345031738,-0.595528244972229,-0.24309182167053223,1.2024882,-0.14691310000000002,84.77450999999999,58.851627,1.1394036,STN
7035435000000.0,0.5711360573768616,2.0636231899261475,-9.568971633911133,-0.5765566825866699,-0.22689761221408844,1.1398746000000002,-0.19303341,85.18883000000001,59.55931999999999,0.92591345,STN
7035970000000.0,0.5761868953704834,2.100578784942627,-9.578064918518066,-0.5303463339805603,-0.21115949749946594,1.028697,-0.24648413,85.55494,60.123135,0.8044640000000001,STN
7036477000000.0,0.581184446811676,2.1398491859436035,-9.582818031311035,-0.46667611598968506,-0.19722047448158264,0.9789116,-0.25442538,85.92218000000001,60.68266,0.6895089,STN
7036957400000.0,0.5861818194389343,2.1831600666046143,-9.582053184509277,-0.3880862891674042,-0.18448005616664886,0.88453287,-0.27580565,86.23101,61.148956000000005,0.65079266,STN
7037412000000.0,0.5911802053451538,2.2306251525878906,-9.575860977172852,-0.2975291609764099,-0.17354175448417664,0.7519751,-0.2779437,86.51606,61.61920500000001,0.6249969,STN
7037843000000.0,0.5961781740188599,2.2816245555877686,-9.565644264221191,-0.200033038854599,-0.16497687995433807,0.593761,-0.28160888,86.733574,61.993717000000004,0.6615339,STN
7038251000000.0,0.6011763215065002,2.3358118534088135,-9.552120208740234,-0.09797515720129013,-0.15911473333835602,0.41996986,-0.2837469,86.91311,62.372386999999996,0.7189814999999999,STN
7038637000000.0,0.606174111366272,2.391906499862671,-9.53384017944336,0.0003471116360742599,-0.15424863994121552,0.23396139,-0.29168814,87.01975,62.671319999999994,0.8381008,STN
7039003700000.0,0.6111727356910706,2.4493329524993896,-9.510293006896973,0.09150905907154083,-0.14985348284244537,0.046120327,-0.29626966,87.08155,62.975536,0.9780469999999999,STN
7039350700000.0,0.6161709427833557,2.5065550804138184,-9.481156349182129,0.17204801738262177,-0.14487868547439575,-0.13683382,-0.29565877,87.07601,63.226000000000006,1.1667606000000001,STN
7039679500000.0,0.6211679577827454,2.562436580657959,-9.446249008178711,0.23950636386871338,-0.13961558043956757,-0.2864958,-0.29382620000000004,87.03222,63.474525,1.3720238,STN
7039991000000.0,0.6261706948280334,2.616929054260254,-9.404267311096191,0.29133909940719604,-0.13196347653865814,-0.42271876,-0.27763826,86.94053000000001,63.692840000000004,1.6077438999999998,STN
7040286000000.0,0.6311748027801514,2.6699092388153076,-9.35422420501709,0.32537829875946045,-0.1223752349615097,-0.52290064,-0.2648101,86.821365,63.90546,1.8527416,STN
7040565500000.0,0.6361727118492126,2.7207064628601074,-9.296487808227539,0.34301939606666565,-0.10986345261335373,-0.6001751000000001,-0.23915374,86.688644,64.1103,2.0995338,STN
7040831000000.0,0.6411715745925903,2.7690541744232178,-9.231002807617188,0.34477049112319946,-0.09461649507284164,-0.64843345,-0.20189096,86.53659,64.29934,2.3431275,STN
7041082000000.0,0.6461814641952515,2.812018871307373,-9.161006927490234,0.3309277594089508,-0.07647085189819336,-0.66767573,-0.16218472,86.38566,64.49609,2.5817,STN
7041320000000.0,0.651176929473877,2.8487143516540527,-9.08895206451416,0.3037129044532776,-0.055808890610933304,-0.6768387,-0.13408493,86.22394,64.67325600000001,2.8129783,STN
7041545400000.0,0.6561732292175293,2.879246950149536,-9.014617919921875,0.26303184032440186,-0.034180838614702225,-0.66767573,-0.07666359,86.071655,64.871605,3.0198273999999996,STN
7041759300000.0,0.6611689329147339,2.9039669036865234,-8.938157081604004,0.20967963337898254,-0.01061270758509636,-0.64965516,-0.0036651915999999997,85.91640500000001,65.04513,3.2107182,STN
7041962000000.0,0.666165292263031,2.918525457382202,-8.868066787719727,0.14331871271133423,0.014043349772691727,-0.5674938,0.037873644,85.779625,65.21053,3.3818377999999996,STN
7042154600000.0,0.6711625456809998,2.9206786155700684,-8.809042930603027,0.0640612542629242,0.037824906408786774,-0.45020768,0.059864793,85.652916,65.3699,3.5290525,STN
7042337000000.0,0.6761597990989685,2.9128921031951904,-8.760401725769043,-0.025375785306096077,0.059622872620821,-0.3390302,0.06841691,85.60858,65.62291,3.605593,STN
7042510000000.0,0.681156575679779,2.896862745285034,-8.721532821655273,-0.12313885986804962,0.07789894938468933,-0.25534168,0.058643065,85.59056,65.88131,3.66871,STN
7042674000000.0,0.6861528754234314,2.8737285137176514,-8.690921783447266,-0.22870796918869019,0.09301988035440445,-0.20891592,0.057421334000000004,85.637794,66.23571,3.6483943,STN
7042829400000.0,0.6911506652832031,2.846815347671509,-8.663890838623047,-0.34145882725715637,0.10495848208665848,-0.20647246,0.06352998,85.69974,66.601135,3.6241398,STN
7042976700000.0,0.6961480975151062,2.817746639251709,-8.639293670654297,-0.460897296667099,0.11184968054294586,-0.26633725,0.077579886,85.80321500000001,67.08126,3.5245437999999996,STN
7043116700000.0,0.7011477947235107,2.7892050743103027,-8.615241050720215,-0.5867451429367065,0.1115371435880661,-0.34300083,0.10415252,85.90609,67.58268000000001,3.4239721,STN
7043249300000.0,0.7061411738395691,2.7597336769104004,-8.59273624420166,-0.7197296619415283,0.10193061828613281,-0.42516220000000005,0.13591751,86.01966,68.17461999999999,3.2859352,STN
7043375000000.0,0.7111368775367737,2.7262110710144043,-8.573840141296387,-0.863027811050415,0.08507175743579865,-0.49449542,0.16096300000000002,86.12123000000001,68.78783,3.1531398,STN
7043494700000.0,0.7161304950714111,2.6895997524261475,-8.55991268157959,-1.0159770250320435,0.06315384060144424,-0.5360342,0.17287487,86.247574,69.48833499999999,2.9881942,STN
7043608000000.0,0.7211258411407471,2.650986671447754,-8.55315113067627,-1.1785629987716675,0.03887180611491203,-0.5513059,0.16829337,86.37074,70.20695500000001,2.830841,STN
7043715400000.0,0.7261207699775696,2.6105213165283203,-8.551557540893555,-1.3466731309890747,0.013328283093869686,-0.5195409000000001,0.17287487,86.55086999999999,71.02404,2.6061954,STN
7043817700000.0,0.7311174869537354,2.568294048309326,-8.551616668701172,-1.5128777027130127,-0.012953734025359154,-0.4896085,0.16646078,86.73871,71.842445,2.3972623,STN
7043914700000.0,0.7361122369766235,2.5242176055908203,-8.550226211547852,-1.6741387844085693,-0.04021160304546356,-0.44898596,0.17134771,87.01411999999999,72.75789,2.1040208,STN
7044006400000.0,0.7411102056503296,2.47788667678833,-8.542004585266113,-1.8252712488174438,-0.06927229464054108,-0.4098906,0.18845193,87.3077,73.66991,1.8244522,STN
7044093400000.0,0.7461057305335999,2.42905592918396,-8.52684497833252,-1.9660489559173584,-0.10085359960794449,-0.3371976,0.19730948,87.66078,74.616135,1.5126529,STN
7044176300000.0,0.751102864742279,2.3768935203552246,-8.503820419311523,-2.095444440841675,-0.13277024030685425,-0.23579398,0.24953845,88.03650999999999,75.54904,1.2007837,STN
7044255000000.0,0.7561052441596985,2.3214111328125,-8.47281551361084,-2.2138116359710693,-0.16541127860546112,-0.095294975,0.28221974,88.45476,76.47646999999999,0.8758145,STN
7044330000000.0,0.7611073851585388,2.2622854709625244,-8.431318283081055,-2.320326566696167,-0.19907993078231812,0.071776666,0.30482176,88.911354,77.396385,0.5548898,STN
7044401000000.0,0.7661092281341553,2.2002475261688232,-8.379095077514648,-2.4148783683776855,-0.2337539941072464,0.24678956,0.32406402,89.39497,78.2886,0.20994508,STN
7044469000000.0,0.771109938621521,2.1378366947174072,-8.31322193145752,-2.494826078414917,-0.26965659856796265,0.40225476,0.35124752,89.92113499999999,79.17629000000001,-0.12595902,STN
7044533300000.0,0.7761194109916687,2.075085163116455,-8.234151840209961,-2.5601632595062256,-0.30706408619880676,0.5122104999999999,0.3933972,90.4694,80.02975500000001,-0.46804902,STN
7044594000000.0,0.7811233401298523,2.013094902038574,-8.145441055297852,-2.6095731258392334,-0.34573352336883545,0.5925393,0.44593164,91.05113,80.876114,-0.8010622,STN
7044652300000.0,0.7861429452896118,1.9515433311462402,-8.046622276306152,-2.6425633430480957,-0.3851906955242157,0.61911196,0.5045747,91.60334,81.66322,-1.1316173,STN
7044707400000.0,0.7911421060562134,1.8894063234329224,-7.942503929138184,-2.6554975509643555,-0.42387980222702026,0.6072,0.56169057,92.16523000000001,82.43114,-1.4544828,STN
7044760000000.0,0.7961416244506836,1.8266173601150513,-7.833683490753174,-2.6481659412384033,-0.4621836245059967,0.57696223,0.60994893,92.6902,83.11701,-1.7746970000000002,STN
7044810000000.0,0.8011413812637329,1.7645105123519897,-7.727513790130615,-2.6228184700012207,-0.49851125478744507,0.5345071,0.6114761,93.20793,83.76468,-2.0750911,STN
7044858000000.0,0.806151807308197,1.7031768560409546,-7.624225616455078,-2.5795302391052246,-0.5318285822868347,0.49235737,0.59559363,93.646935,84.29733,-2.355248,STN
7044903500000.0,0.8111565709114075,1.6456259489059448,-7.530040740966797,-2.518242359161377,-0.5621169805526733,0.45875978,0.55771995,94.07769,84.78527,-2.6124687,STN
7044946500000.0,0.8161538243293762,1.5920480489730835,-7.444173812866211,-2.440598964691162,-0.5891960263252258,0.408058,0.50762904,94.42138,85.15230600000001,-2.8365664,STN
7044988000000.0,0.8211517930030823,1.546916127204895,-7.3631157875061035,-2.352883815765381,-0.6153854131698608,0.37995818,0.46028697,94.763336,85.47699,-3.0398330000000002,STN
7045027000000.0,0.8261575698852539,1.5099284648895264,-7.286616802215576,-2.2552566528320312,-0.6409929394721985,0.36254853,0.41477749999999997,95.02166,85.7007,-3.2037744999999997,STN
7045064400000.0,0.8311920762062073,1.482825517654419,-7.212887763977051,-2.151787042617798,-0.6663426160812378,0.34605515,0.37048978,95.273315,85.88929,-3.3477767,STN
7045100000000.0,0.8361893892288208,1.4634705781936646,-7.141962051391602,-2.045501708984375,-0.6911715269088745,0.28313604,0.310625,95.5077,86.04251,-3.4677138,STN
7045134000000.0,0.8411873579025269,1.4504430294036865,-7.069976329803467,-1.9396432638168335,-0.7149702310562134,0.22693644,0.27916542,95.68849,86.14191,-3.5543953999999998,STN
7045166700000.0,0.8461827635765076,1.4431791305541992,-6.996757507324219,-1.8346103429794312,-0.7388679385185242,0.06017022599999999,0.2706133,95.82024399999999,86.21321,-3.6260809999999997,STN
7045197600000.0,0.8511801362037659,1.4275258779525757,-6.92234468460083,-1.7638856172561646,-0.7622896432876587,-0.14355333,0.27458394,95.89005,86.25506999999999,-3.6729703000000002,STN
7045227500000.0,0.8561770915985107,1.4028533697128296,-6.846850395202637,-1.7281724214553833,-0.7873930335044861,-0.3659083,0.28405234,95.90777,86.265854,-3.7168233,STN
7045256000000.0,0.861177384853363,1.3797881603240967,-6.774824619293213,-1.7201982736587524,-0.8150977492332458,-0.5519168000000001,0.30482176,95.85734000000001,86.25073,-3.7492588,STN
7045283000000.0,0.8661717772483826,1.360565185546875,-6.707135200500488,-1.7362911701202393,-0.8454604148864746,-0.6542366999999999,0.30421090000000006,95.769424,93.79423,-3.777503,STN
7045309000000.0,0.8711691498756409,1.3450652360916138,-6.643567085266113,-1.775942087173462,-0.8777697086334229,-0.63255095,0.29504790000000003,95.76529000000001,93.94332,-3.8428430000000002,STN
7045333400000.0,0.8761675953865051,1.333072304725647,-6.583897113800049,-1.8377360105514526,-0.9114824533462524,-0.46303585,0.29138273,95.778786,94.15937,-3.9073005,STN
7045357000000.0,0.8811686635017395,1.3322780132293701,-6.536280632019043,-1.9060885906219482,-0.9463772773742676,-0.18325958,0.28863382,95.82681,94.43653,-3.9689313999999998,STN
7045379500000.0,0.8861664533615112,1.3437626361846924,-6.501908779144287,-1.976916790008545,-0.9830097556114197,0.12034045,0.28130344,95.934105,94.76623000000001,-4.023608,STN
7045401500000.0,0.8911653161048889,1.3648699522018433,-6.486296653747559,-2.050830841064453,-1.0224918127059937,0.36010507,0.2742785,96.27708,95.2893,-4.068353,STN
7045422500000.0,0.896164059638977,1.3945627212524414,-6.489692211151123,-2.127777338027954,-1.0658923387527466,0.464563,0.27763826,96.67049,95.8891,-4.103706,STN
7045442400000.0,0.9011984467506409,1.4280269145965576,-6.524759292602539,-2.2211453914642334,-1.1147443056106567,0.45478916,0.30115658,97.08337399999999,96.56965,-4.091149,STN
7045462000000.0,0.9061948657035828,1.4627150297164917,-6.584378719329834,-2.3275814056396484,-1.170417308807373,0.3717115,0.3304781,97.50561,97.32415999999999,-4.0746293,STN
7045480000000.0,0.9111923575401306,1.50271737575531,-6.695621013641357,-2.445683240890503,-1.2337524890899658,0.3268129,0.35246924,97.93777,98.16681,-4.025967,STN
7045498000000.0,0.916189432144165,1.5491408109664917,-6.864830493927002,-2.5733392238616943,-1.30621337890625,0.42455134,0.34086279999999997,98.38589499999999,99.08227,-3.9675160000000003,STN
7045515300000.0,0.9211857914924622,1.6051472425460815,-7.085766315460205,-2.678274393081665,-1.3888599872589111,0.6203337,0.2452624,98.89153,100.13631,-3.8697722000000003,STN
7045531600000.0,0.9261890649795532,1.6721659898757935,-7.356006145477295,-2.746823787689209,-1.4831840991973877,0.82558435,0.13530666,99.42128000000001,101.264275,-3.7520241999999997,STN
7045547300000.0,0.9311879277229309,1.73475980758667,-7.6552324295043945,-2.7686023712158203,-1.5881565809249878,0.9456194,0.083383106,99.97622,102.47408,-3.5815115,STN
7045562500000.0,0.9361849427223206,1.7855665683746338,-7.97419548034668,-2.7385127544403076,-1.6998240947723389,0.84635377,0.06017022599999999,100.51012,103.72869,-3.3871508,STN
7045577000000.0,0.9411823749542236,1.8185579776763916,-8.3141450881958,-2.673234462738037,-1.8114492893218994,0.7113526,0.020158553,100.925224,104.82103000000001,-3.1516669,STN
7045591300000.0,0.9461800456047058,1.8275476694107056,-8.676118850708008,-2.590214252471924,-1.9170117378234863,0.3472769,-0.014049901000000002,101.23679,105.92443,-2.9381937999999996,STN
7045605000000.0,0.9511777758598328,1.811578631401062,-9.05798053741455,-2.504298210144043,-2.0135626792907715,-0.09682214,-0.06352998,101.30827,106.74587,-2.8054973999999997,STN
7045618000000.0,0.9561752080917358,1.76961350440979,-9.45761489868164,-2.430478096008301,-2.1021034717559814,-0.5644395000000001,-0.062002823,101.2735,107.554184,-2.7139162999999997,STN
7045631000000.0,0.9611736536026001,1.7138372659683228,-9.868828773498535,-2.3622114658355713,-2.185811758041382,-0.97035944,-0.04795292,101.041794,108.2047,-2.7434017999999996,STN
7045644000000.0,0.9661715030670166,1.6527873277664185,-10.286989212036133,-2.295006036758423,-2.268737554550171,-1.2733486,-0.0015271631,100.720764,108.8513,-2.8155465,STN
7045656000000.0,0.9711725115776062,1.5888124704360962,-10.703482627868652,-2.1959831714630127,-2.356017589569092,-1.5613716,0.077579886,100.28333,109.48727,-3.0193112,STN
7045667400000.0,0.9761729836463928,1.5235085487365723,-11.112743377685547,-2.046872615814209,-2.4456779956817627,-2.105958,0.13133603,99.71016999999999,110.126205,-3.2769306000000005,STN
7045679000000.0,0.9811710715293884,1.4628323316574097,-11.501381874084473,-1.8942354917526245,-2.5320088863372803,-2.6768115000000003,0.23701571,99.03911,110.73736000000001,-3.6342422999999995,STN
7045690000000.0,0.986169159412384,1.410971999168396,-11.860174179077148,-1.7710469961166382,-2.61198091506958,-2.9309312999999997,0.38087448,98.33621,111.36651599999999,-4.030494,STN
7045700400000.0,0.9911661744117737,1.3644956350326538,-12.205669403076172,-1.700154185295105,-2.6859331130981445,-2.9599476000000005,0.54000485,97.43904,111.82191999999999,-4.5481052,STN
7045711000000.0,0.9961652159690857,1.3207471370697021,-12.550824165344238,-1.6993036270141602,-2.7519237995147705,-3.0360002999999995,0.56505036,96.48708,112.26055,-5.0813093,STN
7045721000000.0,1.0011636018753052,1.2874510288238525,-12.890803337097168,-1.7876986265182495,-2.8055427074432373,-2.8695395,0.39431350000000004,95.6321,112.739426,-5.544359,STN
7045731000000.0,1.0061619281768799,1.271684169769287,-13.221389770507812,-1.9836055040359497,-2.840710401535034,-2.3014348,0.15515977,94.88064,113.15428,-5.944872,STN
7045740000000.0,1.0111606121063232,1.2679072618484497,-13.529850006103516,-2.2598421573638916,-2.8545849323272705,-1.5986344,-0.055283304000000005,94.32458000000001,113.64518999999999,-6.2115293,STN
7045749700000.0,1.0161592960357666,1.2686147689819336,-13.79778003692627,-2.579981565475464,-2.8463966846466064,-1.0158689,-0.20005837,93.88593,114.02635,-6.373989,STN
7045758600000.0,1.021157145500183,1.2604100704193115,-14.013248443603516,-2.9006364345550537,-2.8225302696228027,-0.4859433,-0.24098633,93.767944,114.61988000000001,-6.34419,STN
7045767500000.0,1.0261597633361816,1.2299249172210693,-14.16353702545166,-3.179677963256836,-2.7896811962127686,-0.16249016,-0.2302962,93.741516,115.115845,-6.252223000000001,STN
7045776000000.0,1.0311636924743652,1.177156925201416,-14.252484321594238,-3.4082536697387695,-2.7515833377838135,-0.09987647,-0.20769419,93.86886,115.69768,-6.0979233,STN
7045784300000.0,1.036162257194519,1.1024761199951172,-14.284416198730469,-3.578965425491333,-2.7065632343292236,-0.16920967,-0.20219639,94.03925,116.203445,-5.9303745999999995,STN
7045792700000.0,1.0411665439605713,1.0107542276382446,-14.263192176818848,-3.691110610961914,-2.6545016765594482,-0.24556783,-0.21258110000000002,94.17967,116.66991999999999,-5.838382,STN
7045800500000.0,1.0461653470993042,0.9113499522209167,-14.198532104492188,-3.7467689514160156,-2.5971899032592773,-0.47586402,-0.22540927,94.26113000000001,117.087326,-5.7797537000000005,STN
7045808400000.0,1.0511603355407715,0.806341290473938,-14.092931747436523,-3.751986265182495,-2.5394816398620605,-0.7812967,-0.23823744,94.23477,117.42549,-5.8383913,STN
7045816000000.0,1.0561586618423462,0.7050259113311768,-13.949735641479492,-3.7259347438812256,-2.4792981147766113,-1.0800097,-0.26175576,94.15159,117.70256,-5.9185376,STN
7045824000000.0,1.061155080795288,0.6082184910774231,-13.773455619812012,-3.681414842605591,-2.4178457260131836,-1.3087788,-0.28985557,93.932846,117.89432,-6.0998673,STN
7045831500000.0,1.0661544799804688,0.5184072256088257,-13.569829940795898,-3.648715019226074,-2.3550779819488525,-1.4385877,-0.29779682,93.66971600000001,118.050385,-6.2999597000000005,STN
7045839000000.0,1.0711534023284912,0.43497854471206665,-13.341594696044922,-3.6316287517547607,-2.2905118465423584,-1.4376712999999999,-0.27366763,93.34649,118.16186499999999,-6.5417604,STN
7045846000000.0,1.076157808303833,0.357126384973526,-13.09115982055664,-3.6400952339172363,-2.223461627960205,-1.2938126,-0.22296582,93.03744499999999,118.240746,-6.777928,STN
7045853500000.0,1.0811749696731567,0.284334659576416,-12.819070816040039,-3.6728038787841797,-2.1534574031829834,-1.0946705,-0.1563815,92.7606,118.35779,-7.017995,STN
7045860300000.0,1.0861730575561523,0.21323880553245544,-12.53428840637207,-3.7180607318878174,-2.0805916786193848,-0.86009824,-0.07574729,92.54595,118.44348000000001,-7.2428455000000005,STN
7045867000000.0,1.091171383857727,0.14358720183372498,-12.235481262207031,-3.776252269744873,-2.005244731903076,-0.6432411,-0.0027488936,92.42223,118.61811999999999,-7.4578169999999995,STN
7045874000000.0,1.0961697101593018,0.068282850086689,-11.93194580078125,-3.8478589057922363,-1.9274510145187378,-0.4120286,0.020158553,92.37272,118.75729,-7.640558199999999,STN
7045881000000.0,1.1011683940887451,-0.01689533330500126,-11.629388809204102,-3.9329426288604736,-1.8466085195541382,-0.16554448,0.034513887,92.39533,118.86278999999999,-7.8023477,STN
7045887600000.0,1.1061664819717407,-0.10901618003845215,-11.333059310913086,-4.022577285766602,-1.7626357078552246,0.043676864,0.024129177,92.48909,119.02986000000001,-7.957536,STN
7045894000000.0,1.111164927482605,-0.2065267115831375,-11.045312881469727,-4.1123270988464355,-1.6745598316192627,0.20769419,0.022907447,92.63975500000001,119.15603,-8.085877,STN
7045900000000.0,1.1161634922027588,-0.3063317835330963,-10.76796817779541,-4.19284200668335,-1.5823228359222412,0.30604348,-0.0012217305,92.80257399999999,119.315605,-8.213671000000001,STN
7045906400000.0,1.1211611032485962,-0.4069363474845886,-10.501580238342285,-4.260143280029297,-1.4874813556671143,0.38759398,-0.016493361,93.00554,119.44025400000001,-8.318698,STN
7045912700000.0,1.1261647939682007,-0.5108240842819214,-10.260059356689453,-4.305717945098877,-1.3914599418640137,0.46395215,-0.022907447,93.195274,119.56190500000001,-8.432997,STN
7045919000000.0,1.1311676502227783,-0.6186819076538086,-10.048421859741211,-4.327098846435547,-1.293019413948059,0.5030475000000001,-0.046120327,93.39331999999999,119.63864,-8.528856,STN
7045925300000.0,1.1361664533615112,-0.7244930863380432,-9.861692428588867,-4.327229022979736,-1.1924188137054443,0.5140431,-0.08643743400000001,93.54883000000001,119.68061999999999,-8.637601,STN
7045931600000.0,1.1411666870117188,-0.825397789478302,-9.697122573852539,-4.307575225830078,-1.0898547172546387,0.52473325,-0.10720685,93.715164,119.6886,-8.735873,STN
7045937400000.0,1.1461673974990845,-0.9222690463066101,-9.551576614379883,-4.2689409255981445,-0.9895824790000916,0.5329799,-0.1441642,93.79292,119.60843,-8.847386,STN
7045943000000.0,1.1511679887771606,-1.0158189535140991,-9.422467231750488,-4.212111949920654,-0.8879965543746948,0.5335908,-0.17012598,93.87142,119.47861999999999,-8.951699000000001,STN
7045949000000.0,1.156167984008789,-1.1035563945770264,-9.30561351776123,-4.14042329788208,-0.7863389849662781,0.5323690999999999,-0.20158553,93.87548000000001,119.27895,-9.063303,STN
7045954700000.0,1.1611690521240234,-1.1840806007385254,-9.198286056518555,-4.056061744689941,-0.6861436367034912,0.5543602,-0.2284636,93.88404,119.05891000000001,-9.161273,STN
7045960400000.0,1.1661694049835205,-1.257954478263855,-9.099048614501953,-3.9582669734954834,-0.5868605375289917,0.5885687,-0.24251351,93.828415,118.75848400000001,-9.258477000000001,STN
7045966000000.0,1.1711679697036743,-1.3256515264511108,-9.006841659545898,-3.846769332885742,-0.4883759319782257,0.65301496,-0.25045475,93.78474,118.4446,-9.339101,STN
7045972000000.0,1.1761726140975952,-1.3869744539260864,-8.920195579528809,-3.7203779220581055,-0.39058220386505127,0.75900006,-0.25228736,93.714554,118.07172,-9.408188,STN
7045977700000.0,1.181172251701355,-1.442020058631897,-8.837916374206543,-3.579657554626465,-0.2951028048992157,0.87964594,-0.2678644,93.6627,117.69232,-9.45801,STN
7045983500000.0,1.186170220375061,-1.4892549514770508,-8.754103660583496,-3.4284939765930176,-0.20210738480091095,1.028697,-0.29199359999999996,93.61341,117.238914,-9.4728775,STN
7045989300000.0,1.1911674737930298,-1.527580738067627,-8.664186477661133,-3.270144462585449,-0.11217977106571198,1.1829406,-0.34055737,93.59132,116.78151000000001,-9.460825999999999,STN
7045995000000.0,1.1961658000946045,-1.5541434288024902,-8.561755180358887,-3.107571840286255,-0.025970345363020897,1.3610078,-0.4111123,93.5801,116.25273999999999,-9.401306,STN
7046001000000.0,1.2011642456054688,-1.566009759902954,-8.44024658203125,-2.943984031677246,0.05816773325204849,1.5338826,-0.47555858,93.60186999999999,115.71468999999999,-9.31511,STN
7046006600000.0,1.2061599493026733,-1.5634357929229736,-8.298406600952148,-2.78029203414917,0.1403285712003708,1.6780468000000002,-0.5036584,93.647644,115.14031999999999,-9.192751,STN
7046012000000.0,1.2111576795578003,-1.544238567352295,-8.126627922058105,-2.6193580627441406,0.22340096533298492,1.7950275000000002,-0.49693888,93.726364,114.5485,-9.051243,STN
7046017000000.0,1.2161530256271362,-1.510952353477478,-7.931400775909424,-2.4620630741119385,0.30963143706321716,1.8881843999999997,-0.48441613,93.82372,113.94098999999999,-8.877378,STN
7046022300000.0,1.2211518287658691,-1.466167688369751,-7.720033168792725,-2.309577465057373,0.40062594413757324,1.96271,-0.46975538,93.94404,113.31098,-8.702036,STN
7046027500000.0,1.2261769771575928,-1.4091123342514038,-7.493332386016846,-2.166778802871704,0.4974978566169739,1.9877555,-0.48044549999999997,94.061615,112.68233000000001,-8.529585,STN
7046033000000.0,1.2311744689941406,-1.3427834510803223,-7.259249210357666,-2.038740396499634,0.6002432703971863,1.9969183999999998,-0.5036584,94.18838000000001,112.01798000000001,-8.358460000000001,STN
7046038000000.0,1.2361751794815063,-1.265093445777893,-7.015500068664551,-1.9252619743347168,0.7077189683914185,1.9929477999999998,-0.5039638,94.30785999999999,111.33875,-8.184714999999999,STN
7046043300000.0,1.241172432899475,-1.162928819656372,-6.759152889251709,-1.8216831684112549,0.818810224533081,1.9801197,-0.49480084,94.41765600000001,110.62026999999999,-8.014619999999999,STN
7046048500000.0,1.246170163154602,-1.0372337102890015,-6.489919185638428,-1.7272026538848877,0.9283271431922913,1.8750508999999997,-0.45478916,94.56924000000001,109.91338999999999,-7.8252707,STN
7046054000000.0,1.2511686086654663,-0.8893820643424988,-6.206425189971924,-1.640223503112793,1.0391207933425903,1.6847663,-0.38698313,94.68713000000001,109.16418,-7.662888499999999,STN
7046059000000.0,1.2561670541763306,-0.7200108766555786,-5.910141468048096,-1.5614023208618164,1.149186134338379,1.4550809999999998,-0.30421090000000006,94.96599,108.31746000000001,-7.397517,STN
7046064000000.0,1.2611640691757202,-0.5270520448684692,-5.605308532714844,-1.4960304498672485,1.2554529905319214,1.2305881,-0.2593123,95.19089,107.46171000000001,-7.161776,STN
7046069500000.0,1.266163945198059,-0.3111999034881592,-5.2928996086120605,-1.4431451559066772,1.3568867444992065,1.029308,-0.20799962,95.37899,106.60968000000001,-6.916108599999999,STN
7046074700000.0,1.271161675453186,-0.07372081279754639,-4.984841346740723,-1.3970940113067627,1.4532403945922852,0.8127562,-0.15668693,95.49563,105.76116999999999,-6.704367599999999,STN
7046080000000.0,1.2761627435684204,0.18427902460098267,-4.681070327758789,-1.3586223125457764,1.5458426475524902,0.6026186,-0.10079276599999999,95.44378,105.02135,-6.5210360000000005,STN
7046085000000.0,1.2811623811721802,0.4517187178134918,-4.387882232666016,-1.3428421020507812,1.6385884284973145,0.54519725,-0.03726278,95.36739,104.27639,-6.3620834,STN
7046090500000.0,1.2861651182174683,0.7276037335395813,-4.105510234832764,-1.3482747077941895,1.7308677434921265,0.61300325,0.032986722999999996,95.192604,103.57435600000001,-6.197087000000001,STN
7046095700000.0,1.2911635637283325,1.0002299547195435,-3.844259023666382,-1.3657959699630737,1.8194663524627686,0.74036866,0.11209377,95.0157,102.878685,-6.057192,STN
7046101000000.0,1.296213150024414,1.2708407640457153,-3.605283260345459,-1.3949989080429077,1.900722622871399,0.8237518,0.17959438,94.92543,102.21294,-5.8817344,STN
7046106000000.0,1.301210880279541,1.525629997253418,-3.392242431640625,-1.4136459827423096,1.976313829421997,0.77121735,0.19517145,94.82423,101.54677,-5.7198634,STN
7046111400000.0,1.3062058687210083,1.7651432752609253,-3.2065608501434326,-1.4203863143920898,2.050936698913574,0.5723807,0.13164146,94.80377,100.84189,-5.501686,STN
7046116700000.0,1.3112032413482666,1.9901378154754639,-3.056854009628296,-1.4015976190567017,2.123568534851074,0.21288654,-0.008552114,94.70849,100.14732,-5.279719,STN
7046122000000.0,1.316196322441101,2.201425552368164,-2.9425864219665527,-1.356349229812622,2.1902949810028076,-0.35979962,-0.18173242,94.48129,99.45036999999999,-5.0508795,STN
7046127000000.0,1.3211941719055176,2.3886959552764893,-2.8705337047576904,-1.30247163772583,2.2462871074676514,-1.0137309,-0.37048978,94.16816999999999,98.63879,-4.7540345,STN
7046132400000.0,1.326194405555725,2.5501105785369873,-2.8404221534729004,-1.2456035614013672,2.281569242477417,-1.5476271000000001,-0.5702427,93.711205,97.85895,-4.4189544000000005,STN
7046137600000.0,1.3311964273452759,2.6870620250701904,-2.850527048110962,-1.2186808586120605,2.2822046279907227,-1.9669861000000002,-0.7165449,93.09573,96.98555999999999,-4.0083103,STN
7046143000000.0,1.3361918926239014,2.801342248916626,-2.897756576538086,-1.2336742877960205,2.2360739707946777,-2.1844542000000002,-0.8338310999999999,92.37821,96.223915,-3.5516815000000004,STN
7046148000000.0,1.3411900997161865,2.901731252670288,-2.9859225749969482,-1.2802611589431763,2.1641931533813477,-2.7708847999999997,-0.9138544,91.467575,95.458916,-3.0778828,STN
7046153400000.0,1.3461865186691284,2.99208402633667,-3.1137852668762207,-1.3527289628982544,2.032254457473755,-3.5164459000000003,-1.1233811000000002,90.44664,95.03839,-2.5379033,STN
7046158600000.0,1.3511857986450195,3.066150426864624,-3.2733314037323,-1.5099214315414429,1.8402681350708008,-4.0863830000000005,-1.3255776000000001,89.41178000000001,94.96349000000001,-2.0358899,STN
7046164000000.0,1.3561850786209106,3.1217310428619385,-3.459317922592163,-1.7747888565063477,1.6029261350631714,-4.094323999999999,-1.3432927,88.32919,95.219086,-1.5391117,STN
7046169000000.0,1.361185073852539,3.1778366565704346,-3.6409242153167725,-2.1787772178649902,1.3602951765060425,-3.0671543999999997,-1.1136073,87.44605,95.82399000000001,-1.0899078000000002,STN
7046174300000.0,1.3661853075027466,3.2428174018859863,-3.804678440093994,-2.7313034534454346,1.1842447519302368,-1.1704178,-0.7507534,86.82013,96.39927,-0.6621725,STN
7046179600000.0,1.3711843490600586,3.2712326049804688,-4.012607097625732,-3.308931589126587,1.1440190076828003,0.3915646,-0.49602258,86.62713000000001,97.20873,-0.4169696,STN
7046185000000.0,1.3761861324310303,3.2491042613983154,-4.284119129180908,-3.871704578399658,1.228570580482483,1.462106,-0.44868052,86.8441,97.74089000000001,-0.17020003,STN
7046190000000.0,1.381185531616211,3.1839282512664795,-4.619944095611572,-4.21498966217041,1.3396081924438477,2.3973405,-0.42424592,87.80041999999999,98.76078000000001,-0.16986191,STN
7046195300000.0,1.386186122894287,3.079299211502075,-5.020279884338379,-4.250095367431641,1.3906550407409668,3.0946434,-0.14446963,88.98133,99.54741,-0.209718,STN
7046200600000.0,1.3911852836608887,2.977519989013672,-5.484357833862305,-4.043640613555908,1.350237250328064,2.9984322,0.28527406,90.2764,100.33391,-0.37742195,STN
7046206000000.0,1.3961855173110962,2.892350912094116,-6.010813236236572,-3.622798442840576,1.225589632987976,1.7492126000000001,0.67011917,91.41211,101.36326,-0.61324143,STN
7046211000000.0,1.4011844396591187,2.803084135055542,-6.572014808654785,-3.1103579998016357,1.03358793258667,-0.59864795,1.061073,91.713844,101.71159,-0.87476945,STN
7046216000000.0,1.4061812162399292,2.696147918701172,-7.149421691894531,-2.5881850719451904,0.8031330108642578,-2.7791314,1.3747523000000001,91.72200000000001,102.38983,-1.2767996000000001,STN
7046221000000.0,1.4111807346343994,2.5487334728240967,-7.729747772216797,-2.161802053451538,0.5968747138977051,-3.5900550000000004,1.4688255,91.059685,102.247734,-1.7048888999999998,STN
7046225700000.0,1.416178584098816,2.346505880355835,-8.302518844604492,-1.9030007123947144,0.4432133734226227,-3.433979,1.2263118999999998,90.07509,102.21732,-2.1865292000000003,STN
7046231000000.0,1.4211764335632324,2.108917713165283,-8.768803596496582,-1.8874902725219727,0.33075153827667236,-2.9743028,0.8350528,88.94001,102.06066,-2.7247818,STN
7046235700000.0,1.4261802434921265,1.8485373258590698,-9.063645362854004,-2.1654913425445557,0.2474294900894165,-2.3218987,0.5393939999999999,87.91703000000001,101.7607,-3.1774511000000003,STN
7046241000000.0,1.4311800003051758,1.575864553451538,-9.22437572479248,-2.546466112136841,0.18117912113666534,-1.2522738000000002,0.46273044,87.35726,101.79799999999999,-3.633141,STN
7046246000000.0,1.4361839294433594,1.2978819608688354,-9.274914741516113,-2.8822150230407715,0.11805249005556107,-0.59773165,0.5558874,86.87092,101.78763000000001,-4.018429,STN
7046251000000.0,1.4411797523498535,1.0345646142959595,-9.24685001373291,-3.1426117420196533,0.052967362105846405,0.8258898000000001,0.6227771,87.32847,102.65054,-4.32514,STN
7046255600000.0,1.4461778402328491,0.8164636492729187,-9.176788330078125,-3.2734241485595703,-0.012116272933781147,2.1197022999999997,0.74128497,87.93579,103.4893,-4.6194305,STN
7046261000000.0,1.4511754512786865,0.6426578164100647,-9.083559036254883,-3.2936978340148926,-0.08164221048355103,3.0185907000000003,0.8564331000000001,88.77337,104.39331,-4.8795385,STN
7046265600000.0,1.456173062324524,0.5126677751541138,-8.984597206115723,-3.2201547622680664,-0.1523624062538147,3.5503487999999996,0.9599747,89.86539499999999,105.29368999999998,-5.0912976,STN
7046271000000.0,1.461169719696045,0.4274103045463562,-8.880880355834961,-3.061818838119507,-0.22203204035758972,3.7186421999999997,1.0161743,90.98071,105.94431999999999,-5.2331314,STN
7046276000000.0,1.46616792678833,0.39816874265670776,-8.775012016296387,-2.8365612030029297,-0.2892584204673767,3.5146132000000003,1.0094548,92.131516,106.6104,-5.3608456,STN
7046281000000.0,1.4711650609970093,0.4174548387527466,-8.672792434692383,-2.5790305137634277,-0.3540903627872467,3.0457742000000003,0.93554014,93.16109499999999,106.97402,-5.445376,STN
7046286000000.0,1.4761687517166138,0.47790655493736267,-8.582531929016113,-2.336005926132202,-0.41330236196517944,2.4901922,0.8045095,94.08084000000001,107.3217,-5.525704,STN
7046290700000.0,1.4811664819717407,0.5738385915756226,-8.506790161132812,-2.113548994064331,-0.4606178402900696,1.967597,0.65576386,94.75289000000001,107.4295,-5.525925599999999,STN
7046296000000.0,1.4861654043197632,0.7019354701042175,-8.450289726257324,-1.921095609664917,-0.4889553487300873,1.488984,0.5122104999999999,95.25939,107.47476999999999,-5.5316043,STN
7046300700000.0,1.491161584854126,0.858521580696106,-8.412877082824707,-1.766278624534607,-0.49340131878852844,1.0247264,0.35460728,95.58537,107.40545,-5.437531,STN
7046306000000.0,1.496160626411438,1.0394537448883057,-8.396398544311523,-1.6697864532470703,-0.47653117775917053,0.52595496,0.24648413,95.75841,107.24837,-5.359959,STN
7046310700000.0,1.5011557340621948,1.2361218929290771,-8.40346622467041,-1.6335328817367554,-0.44460830092430115,0.08307768,0.22540927,95.81761999999999,107.02231599999999,-5.210203599999999,STN
7046316000000.0,1.5061538219451904,1.433770775794983,-8.442798614501953,-1.6697258949279785,-0.40608522295951843,-0.20738874,0.3136793,95.78004,106.727646,-5.088563,STN
7046320600000.0,1.5111522674560547,1.6306992769241333,-8.520766258239746,-1.770455002784729,-0.37288689613342285,-0.27214047,0.45998153,95.75184,106.52852,-4.916404200000001,STN
7046326000000.0,1.5161515474319458,1.8223494291305542,-8.660405158996582,-1.9222030639648438,-0.35719799995422363,0.010995574,0.49632803,95.73756999999999,106.35037,-4.7328339999999995,STN
7046331000000.0,1.521153450012207,2.013012409210205,-8.854605674743652,-2.1171951293945312,-0.3685191869735718,0.51251596,0.37751472,95.85977,106.43073000000001,-4.4957957,STN
7046336000000.0,1.5261569023132324,2.218410015106201,-9.083429336547852,-2.331509590148926,-0.4067783057689667,0.9947940999999999,0.1826487,96.05098000000001,106.59988,-4.227201,STN
7046341000000.0,1.5311599969863892,2.4313528537750244,-9.33894157409668,-2.5529797077178955,-0.4664541482925415,1.3472633,0.0033597588,96.38993,106.99728,-3.8820627,STN
7046346000000.0,1.5361586809158325,2.636178731918335,-9.605195999145508,-2.754692792892456,-0.540854811668396,1.4504995,-0.08735373,96.77956,107.50513500000001,-3.4942665,STN
7046351000000.0,1.5411585569381714,2.828958511352539,-9.872197151184082,-2.933039903640747,-0.6179153323173523,1.4535538000000001,-0.2883284,97.2322,108.10063000000001,-2.9600053,STN
7046356000000.0,1.5461597442626953,2.9975779056549072,-10.111326217651367,-3.0763015747070312,-0.7048513293266296,1.171945,-0.46853364,97.619865,108.83018999999999,-2.4326813,STN
7046361000000.0,1.5511945486068726,3.134464979171753,-10.316967010498047,-3.184318780899048,-0.8004528284072876,0.7107416999999999,-0.5751295999999999,97.91935,109.53641,-1.8968661,STN
7046365700000.0,1.556193470954895,3.230010747909546,-10.48310661315918,-3.2676196098327637,-0.9041115641593933,0.34055737,-0.6441574000000001,98.14754,110.31284,-1.3549026000000002,STN
7046371000000.0,1.5612107515335083,3.2781436443328857,-10.604927062988281,-3.322136402130127,-1.0172375440597534,0.10231992599999999,-0.6426301999999999,98.248695,111.10502,-0.8846845,STN
7046375700000.0,1.566209077835083,3.274141311645508,-10.678987503051758,-3.329061508178711,-1.1363310813903809,-0.06261369,-0.5873469,98.26756,111.94531,-0.4519651,STN
7046381000000.0,1.571221947669983,3.2144343852996826,-10.702962875366211,-3.286607027053833,-1.2572978734970093,-0.15974127,-0.46700647,98.2263,112.80585,-0.16353203,STN
7046386000000.0,1.576226830482483,3.1080191135406494,-10.68912124633789,-3.2183079719543457,-1.3755943775177002,-0.17623462,-0.29535335,98.176834,113.69286000000001,0.08036745,STN
7046391000000.0,1.5812228918075562,2.957589864730835,-10.639628410339355,-3.125657081604004,-1.4864470958709717,-0.14569137,-0.11698069400000001,98.08855,114.491615,0.14875486,STN
7046396000000.0,1.586220145225525,2.7703771591186523,-10.56689739227295,-2.9960200786590576,-1.5858904123306274,-0.16462818,0.03481932,98.00519,115.27068,0.16924547,STN
7046401000000.0,1.5912154912948608,2.549543619155884,-10.473708152770996,-2.8304543495178223,-1.6694700717926025,-0.37690386,0.11911872,97.898155,116.00027,0.13950846,STN
7046406000000.0,1.5962132215499878,2.3054492473602295,-10.365394592285156,-2.616703748703003,-1.735948085784912,-0.8213083000000001,0.13561209,97.75081,116.61988999999998,-0.14034516,STN
7046411000000.0,1.601205825805664,2.0413026809692383,-10.243818283081055,-2.357490301132202,-1.7861381769180298,-1.4043792,0.10170906,97.52382,117.16818,-0.46687236,STN
7046416000000.0,1.6062041521072388,1.77314031124115,-10.095949172973633,-2.06205153465271,-1.8225685358047485,-1.8930714,0.023518313,97.18049,117.53929,-0.9755296999999998,STN
7046421000000.0,1.6111973524093628,1.5037505626678467,-9.92298412322998,-1.735317349433899,-1.8542578220367432,-2.4978279999999997,-0.0421497,96.66252,117.87411999999999,-1.5517253999999998,STN
7046426000000.0,1.6161960363388062,1.2535687685012817,-9.739299774169922,-1.3380117416381836,-1.890899419784546,-3.712839,-0.04520403,95.6967,118.06387,-2.2656975,STN
7046431000000.0,1.6212376356124878,1.027085542678833,-9.546001434326172,-0.8526413440704346,-1.9290064573287964,-5.166087,-0.109650314,94.5073,118.20822,-3.0502095000000002,STN
7046436000000.0,1.6262389421463013,0.8363417983055115,-9.345315933227539,-0.4497062861919403,-1.9572370052337646,-6.126062,-0.11728613,93.03685,118.2395,-3.9466815000000004,STN
7046441000000.0,1.6312403678894043,0.6899004578590393,-9.133301734924316,-0.1899271458387375,-1.9804960489273071,-6.288246599999999,-0.012217305,91.40963,118.30433000000001,-4.933257599999999,STN
7046446000000.0,1.6362364292144775,0.5919344425201416,-8.944003105163574,-0.15809014439582825,-1.9998623132705688,-6.0661974,0.05589417,89.470726,118.05064399999999,-5.976742,STN
7046450600000.0,1.6412322521209717,0.5427066087722778,-8.78604507446289,-0.37362009286880493,-2.014859676361084,-5.1321845,0.15088372,87.68443,117.77943,-6.9586744000000005,STN
7046456000000.0,1.6462271213531494,0.5407082438468933,-8.663769721984863,-0.7471155524253845,-2.0147337913513184,-3.805996,0.15454891,86.31351,117.76236000000002,-7.7205305,STN
7046460600000.0,1.651222825050354,0.5841311812400818,-8.577542304992676,-1.2453064918518066,-1.9922006130218506,-2.4397957000000003,0.14630222,85.20713,117.67902,-8.363387,STN
7046466000000.0,1.656219244003296,0.6442074775695801,-8.51494026184082,-1.76380455493927,-1.9481451511383057,-1.2556334999999998,0.18173242,85.04106,118.12926499999999,-8.637927000000001,STN
7046471000000.0,1.661216378211975,0.710594117641449,-8.47094440460205,-2.266435146331787,-1.886693000793457,-0.30482176,0.26511553,85.179825,118.47586000000001,-8.7693615,STN
7046476000000.0,1.6662124395370483,0.7571117281913757,-8.451530456542969,-2.702204465866089,-1.8144848346710205,0.3640757,0.35491269999999997,85.76536999999999,119.12395,-8.626945,STN
7046481000000.0,1.671209692955017,0.7732475996017456,-8.458706855773926,-3.051382541656494,-1.7369606494903564,0.75716746,0.4370741,86.51414,119.69403,-8.428643,STN
7046486000000.0,1.676206350326538,0.7620806097984314,-8.489734649658203,-3.323087692260742,-1.6579196453094482,0.9660834,0.48472157,87.34161999999999,120.23007,-8.183864,STN
7046491000000.0,1.681203842163086,0.7253904342651367,-8.543050765991211,-3.522634983062744,-1.5791356563568115,1.1029171999999998,0.49480084,88.23114,120.72487,-7.9215083,STN
7046495700000.0,1.6862013339996338,0.6641757488250732,-8.618245124816895,-3.661609649658203,-1.5020109415054321,1.1771374,0.45478916,88.94403,121.00632,-7.7384143,STN
7046501000000.0,1.6912317276000977,0.5756760239601135,-8.718757629394531,-3.7510225772857666,-1.4261316061019897,1.2544118,0.40469822,89.67685999999999,121.26494,-7.542882400000001,STN
7046505700000.0,1.6962268352508545,0.47142770886421204,-8.819602012634277,-3.824650764465332,-1.3518218994140625,1.357648,0.33933565,90.25215,121.28375,-7.433873700000001,STN
7046511000000.0,1.7012240886688232,0.3520178198814392,-8.906838417053223,-3.9004640579223633,-1.2761008739471436,1.5552629,0.24801129,90.84764,121.27292,-7.285199,STN
7046515700000.0,1.7062201499938965,0.22003307938575745,-8.971230506896973,-3.9826810359954834,-1.195234775543213,1.7745636000000002,0.14080444,91.34732,121.10191,-7.1859245,STN
7046521000000.0,1.7112174034118652,0.07713726907968521,-9.006157875061035,-4.074417591094971,-1.1046472787857056,1.9489655,0.061086524,91.86439,120.88382,-7.05245,STN
7046525600000.0,1.7162152528762817,-0.0657552108168602,-8.994758605957031,-4.151758193969727,-1.0041238069534302,2.0372355,0.0290161,92.3761,120.664825,-6.944769,STN
7046531000000.0,1.7212125062942505,-0.20002524554729462,-8.924283027648926,-4.196016311645508,-0.893656849861145,2.0448713,-0.0125227375,92.886765,120.37601000000001,-6.8067082999999995,STN
7046536000000.0,1.7262159585952759,-0.3170107305049896,-8.818995475769043,-4.210971832275391,-0.7752249240875244,1.9947804,-0.048258353,93.39721999999999,120.12508000000001,-6.705377599999999,STN
7046541000000.0,1.731217861175537,-0.41011348366737366,-8.701173782348633,-4.201268196105957,-0.6500175595283508,1.9532416000000001,-0.070554934,93.89654,119.80928,-6.599322,STN
7046546000000.0,1.7362152338027954,-0.4802323579788208,-8.578285217285156,-4.168401718139648,-0.5206258893013,1.8567249,-0.07666359,94.33386999999999,119.47063,-6.5203050000000005,STN
7046551000000.0,1.7412129640579224,-0.5276447534561157,-8.457452774047852,-4.1130757331848145,-0.39280715584754944,1.7406605,-0.08002335,94.74282,119.10528000000001,-6.4496512,STN
7046556000000.0,1.7462105751037598,-0.5572073459625244,-8.34174633026123,-4.038941860198975,-0.2631406784057617,1.6074919,-0.08704830000000001,95.07074,118.647095,-6.381241999999999,STN
7046561000000.0,1.751209020614624,-0.5745717883110046,-8.235055923461914,-3.9501044750213623,-0.13384099304676056,1.473407,-0.11728613,95.356476,118.18491999999999,-6.3262177,STN
7046566000000.0,1.7562044858932495,-0.5830323696136475,-8.138410568237305,-3.8485023975372314,-0.004709502216428518,1.3713925,-0.15149458,95.57409,117.622856,-6.2562213,STN
7046570700000.0,1.7612031698226929,-0.5859483480453491,-8.053282737731934,-3.7355058193206787,0.12595559656620026,1.2861768,-0.18203785,95.74989000000001,117.03073,-6.1991777,STN
7046576000000.0,1.766197681427002,-0.5816362500190735,-7.978579521179199,-3.6071949005126953,0.2591957151889801,1.2244793999999999,-0.23243423,95.85961,116.34823600000001,-6.126068,STN
7046580700000.0,1.7711986303329468,-0.5672038197517395,-7.913549900054932,-3.4564828872680664,0.3970222473144531,1.1820242,-0.31642818,95.93658,115.62142,-6.048714599999999,STN
7046586000000.0,1.776196002960205,-0.5424030423164368,-7.858457565307617,-3.2840585708618164,0.541437029838562,1.1065824,-0.39003745,95.91975,114.79796,-5.9801215999999995,STN
7046591000000.0,1.7811990976333618,-0.5057098269462585,-7.8144330978393555,-3.0877881050109863,0.6948886513710022,0.98440933,-0.4175264,95.8681,113.91308000000001,-5.915243599999999,STN
7046596000000.0,1.7861924171447754,-0.4582080841064453,-7.782594203948975,-2.876248836517334,0.8553654551506042,0.8332202,-0.4175264,95.72021,112.879326,-5.8365583,STN
7046601000000.0,1.7911908626556396,-0.3991929888725281,-7.766989707946777,-2.6592278480529785,1.0202956199645996,0.6753115,-0.39736784,95.529785,111.788925,-5.771612999999999,STN
7046606000000.0,1.796184778213501,-0.32814526557922363,-7.766956806182861,-2.4378957748413086,1.1864467859268188,0.5531385,-0.38453966,95.240486,110.52968600000001,-5.686093,STN
7046611000000.0,1.8011841773986816,-0.23982509970664978,-7.784519195556641,-2.2128982543945312,1.3497333526611328,0.42638394,-0.35613444,94.903175,109.24927,-5.6244307000000004,STN
7046616000000.0,1.806183934211731,-0.1363002508878708,-7.818451404571533,-1.987902045249939,1.507247805595398,0.20555615,-0.32711834,94.47547,107.867775,-5.547609,STN
7046621000000.0,1.8111830949783325,-0.02025764063000679,-7.867836952209473,-1.770258903503418,1.6590698957443237,-0.10445796,-0.30787608,93.98216,106.48489,-5.487960299999999,STN
7046626000000.0,1.8161797523498535,0.10699205845594406,-7.929249286651611,-1.5636882781982422,1.8037126064300537,-0.46761733,-0.32528573,93.41949,105.01087,-5.3748426,STN
7046631000000.0,1.8211787939071655,0.2440379559993744,-7.996933460235596,-1.3764152526855469,1.9383028745651245,-0.8854492,-0.37384954,92.74956999999999,103.56872,-5.2738757000000005,STN
7046635700000.0,1.826177716255188,0.39027848839759827,-8.066394805908203,-1.211137294769287,2.060267686843872,-1.3432927,-0.46120325,92.00809,102.07455999999999,-5.1028447,STN
7046641000000.0,1.831178069114685,0.5455243587493896,-8.126809120178223,-1.07681143283844,2.163524627685547,-1.5952746000000002,-0.57910025,91.20386500000001,100.64956,-4.907971,STN
7046645700000.0,1.836175799369812,0.7073187828063965,-8.17013168334961,-0.9837971925735474,2.2518539428710938,-2.1832323,-0.65148777,90.25237,99.22719000000001,-4.665800599999999,STN
7046651000000.0,1.8411744832992554,0.8704606294631958,-8.172013282775879,-0.9662771224975586,2.3125739097595215,-2.7663033,-0.7858781,89.22932,97.93467,-4.3648114,STN
7046655600000.0,1.8461755514144897,1.0346580743789673,-8.130505561828613,-1.0213229656219482,2.3471555709838867,-3.1948252,-0.8350528,88.18924,96.73597,-4.0245376,STN
7046661000000.0,1.8511754274368286,1.1986958980560303,-8.03409194946289,-1.1465743780136108,2.3630146980285645,-3.3967160000000005,-0.7852673000000001,87.05570999999999,95.63856,-3.669922,STN
7046666000000.0,1.856189489364624,1.3614959716796875,-7.88338565826416,-1.3398839235305786,2.367920398712158,-3.3899968,-0.66553766,86.04438,94.82725,-3.3200672,STN
7046671000000.0,1.8611890077590942,1.5035399198532104,-7.699127674102783,-1.5586670637130737,2.3661513328552246,-3.2082644,-0.5186246,85.03232,94.09949499999999,-2.9839354,STN
7046675600000.0,1.8661843538284302,1.625477910041809,-7.481535911560059,-1.8029166460037231,2.3589911460876465,-2.9486465,-0.42058071,84.20089,93.66273000000001,-2.698634,STN
7046681000000.0,1.8711806535720825,1.7159374952316284,-7.253818988800049,-2.021986722946167,2.345750570297241,-2.6994135,-0.38331795,83.42254,93.27373,-2.4321957000000003,STN
7046686000000.0,1.8762129545211792,1.77114737033844,-7.016955375671387,-2.211662769317627,2.322553873062134,-2.5124888,-0.41691554,82.70362,92.92783,-2.1683207,STN
7046691000000.0,1.8812129497528076,1.78334641456604,-6.795628547668457,-2.3892877101898193,2.284543991088867,-2.3280075,-0.4642576,82.12533,92.81833,-2.0024264,STN
7046696000000.0,1.8862124681472778,1.751141905784607,-6.588143825531006,-2.556412696838379,2.2282943725585938,-2.0916026000000003,-0.49816059999999995,81.61713,92.79762,-1.911872,STN
7046700700000.0,1.8912081718444824,1.6948013305664062,-6.378790378570557,-2.7275571823120117,2.1527912616729736,-1.8558086,-0.49541172,81.17128000000001,92.85513,-1.8193491999999998,STN
7046706000000.0,1.8962137699127197,1.6148524284362793,-6.167226314544678,-2.90305495262146,2.056863307952881,-1.6780468000000002,-0.46792278,80.8264,93.13354,-1.8947339,STN
7046710700000.0,1.9012097120285034,1.5212420225143433,-5.957160949707031,-3.0803723335266113,1.936081051826477,-1.6328428,-0.39828414,80.528435,93.54131,-1.9810385,STN
7046716000000.0,1.9062055349349976,1.4140740633010864,-5.748174667358398,-3.259801149368286,1.7903529405593872,-1.6349808000000001,-0.24740042,80.34376999999999,94.155815,-2.1247199,STN
7046721000000.0,1.911234974861145,1.2817860841751099,-5.597833633422852,-3.467633008956909,1.6375136375427246,-1.4856243,-0.08521569999999999,80.23088,94.849075,-2.2873614,STN
7046726000000.0,1.916246771812439,1.1310853958129883,-5.499152660369873,-3.694885015487671,1.509389877319336,-1.1478158,-0.10079276599999999,80.18646,95.53765,-2.4355059,STN
7046730600000.0,1.9212406873703003,0.9833133816719055,-5.454981327056885,-3.8787453174591064,1.432173252105713,-0.6310238,-0.25411993,80.26657,96.226036,-2.5714526,STN
7046736000000.0,1.92623770236969,0.8379025459289551,-5.466386318206787,-4.019003868103027,1.408880352973938,-0.08246681,-0.40530908,80.52320999999999,96.94626,-2.7594380000000003,STN
7046741000000.0,1.931235432624817,0.7181305289268494,-5.537395000457764,-4.054958343505859,1.413002848625183,0.1432479,-0.41294490000000006,80.832115,97.55475,-2.931331,STN
7046746000000.0,1.9362266063690186,0.6266254186630249,-5.664607048034668,-3.982666492462158,1.4183053970336914,0.54244834,-0.3555236,81.33796,98.02360999999999,-3.0478673,STN
7046751000000.0,1.9412213563919067,0.5724554061889648,-5.851068496704102,-3.796384811401367,1.4122730493545532,1.0073168,-0.17287487,81.88891,98.26921999999999,-3.2042997000000004,STN
7046756000000.0,1.9462206363677979,0.5551055073738098,-6.094438552856445,-3.500626564025879,1.3811858892440796,1.5314392,0.079107046,82.5667,98.59184,-3.3723160000000005,STN
7046761000000.0,1.9512161016464233,0.5614504814147949,-6.4262003898620605,-3.144835948944092,1.3118107318878174,1.9364429,0.3652974,83.17811999999999,98.607834,-3.5309591,STN
7046766000000.0,1.956209659576416,0.5888929963111877,-6.847715377807617,-2.737574577331543,1.2055859565734863,2.1065688,0.5928446999999999,83.860664,98.784615,-3.7241583,STN
7046771000000.0,1.9612066745758057,0.6012587547302246,-7.315384864807129,-2.350433826446533,1.0784575939178467,2.0708332,0.763887,84.33351,98.60256,-3.838421,STN
7046775700000.0,1.9662041664123535,0.5942004323005676,-7.81995964050293,-1.992826223373413,0.9497376680374146,1.8435913000000002,0.8900306999999998,84.789764,98.56803000000001,-4.000839,STN
7046781000000.0,1.9712003469467163,0.5637528896331787,-8.336509704589844,-1.686899185180664,0.8358046412467957,1.3771957000000001,0.9789116,85.007515,98.296196,-4.1220684,STN
7046786000000.0,1.9762042760849,0.5086466670036316,-8.85813045501709,-1.4389721155166626,0.746776282787323,0.743423,0.98929626,85.109,98.05635,-4.2712536,STN
7046791400000.0,1.981236219406128,0.4403194487094879,-9.37382698059082,-1.4292473793029785,0.679730236530304,-0.23365596,0.8023715,84.98406999999999,97.83986999999999,-4.439684400000001,STN
7046796000000.0,1.9862308502197266,0.3664703071117401,-9.87536907196045,-1.6480815410614014,0.6006960868835449,-0.5928446999999999,0.408058,84.85216,97.68626,-4.546687,STN
7046801000000.0,1.9912251234054565,0.33823662996292114,-10.361848831176758,-2.0649328231811523,0.48981955647468567,0.047036625,-0.0030543262,84.79949,97.67573,-4.641186,STN
7046805600000.0,1.9962210655212402,0.39641958475112915,-10.83113956451416,-2.6274819374084473,0.37723416090011597,1.0320568,-0.23945917,84.74834399999999,97.5858,-4.6699405,STN
7046811000000.0,2.001216411590576,0.49895179271698,-11.18350887298584,-3.180520534515381,0.2880329489707947,1.9788979,-0.39003745,85.287605,98.184326,-4.637097,STN
7046816000000.0,2.006211280822754,0.6257497072219849,-11.376651763916016,-3.654109239578247,0.230898916721344,2.6380215,-0.43829579999999996,86.00368,98.740875,-4.535673,STN
7046821000000.0,2.0112080574035645,0.7583489418029785,-11.451543807983398,-3.9532692432403564,0.19518683850765228,2.9397889999999998,-0.25961772,87.05757,99.57025,-4.318386599999999,STN
7046826000000.0,2.016204357147217,0.8884168267250061,-11.430732727050781,-4.043740749359131,0.15901774168014526,2.9788845,-0.019242255,88.18459,100.36399999999999,-4.0894504000000005,STN
7046831000000.0,2.0212011337280273,1.0054324865341187,-11.31248664855957,-3.9312167167663574,0.11216125637292862,2.9181032000000005,0.20983220000000002,89.314316,101.08270999999999,-3.8401997000000003,STN
7046836000000.0,2.0262017250061035,1.1046255826950073,-11.09744644165039,-3.6215720176696777,0.054259128868579865,2.850908,0.3998113,90.439316,101.838295,-3.6410915999999998,STN
7046840700000.0,2.0312023162841797,1.19203519821167,-10.83791732788086,-3.2218735218048096,-0.011658387258648872,2.6245825000000003,0.48258355,91.268394,102.21746999999999,-3.4353323,STN
7046846000000.0,2.036198377609253,1.2733702659606934,-10.583335876464844,-2.8333046436309814,-0.07879967987537384,2.2174408,0.62858033,92.03522,102.6567,-3.3096339999999995,STN
7046850700000.0,2.041194438934326,1.3489322662353516,-10.333298683166504,-2.455112934112549,-0.15370814502239227,1.6618589,0.6747006999999999,92.430916,102.708435,-3.2458282000000005,STN
7046856000000.0,2.046191692352295,1.4190235137939453,-10.087529182434082,-2.0867061614990234,-0.2302890568971634,1.1756102,0.64965516,92.72896999999999,102.75831,-3.2239193999999998,STN
7046861000000.0,2.051208019256592,1.4889329671859741,-9.857879638671875,-1.7705175876617432,-0.3011447489261627,0.74006325,0.59223384,92.88725,102.822975,-3.2319129,STN
7046866000000.0,2.0562031269073486,1.5610196590423584,-9.65014934539795,-1.5235973596572876,-0.36155062913894653,0.32284227,0.5015204000000001,92.9085,102.881355,-3.2514005,STN
7046870600000.0,2.0611982345581055,1.6460386514663696,-9.510261535644531,-1.35850989818573,-0.4097847640514374,-0.11575896,0.4175264,92.7632,102.88165,-3.3193589999999995,STN
7046876000000.0,2.066195011138916,1.7510638236999512,-9.469075202941895,-1.2801765203475952,-0.44625166058540344,-0.6032294,0.33108896,92.482056,102.83241,-3.3890068999999996,STN
7046881000000.0,2.0711915493011475,1.8682633638381958,-9.486028671264648,-1.2942818403244019,-0.47289690375328064,-1.0699303999999998,0.27305678,92.18361999999999,102.8541,-3.4039981,STN
7046886000000.0,2.0761890411376953,1.992159128189087,-9.532443046569824,-1.4044519662857056,-0.49833375215530396,-1.4083499,0.26878070000000004,91.78503,102.86149,-3.4302455999999997,STN
7046891000000.0,2.081186294555664,2.1082584857940674,-9.611169815063477,-1.6056785583496094,-0.5371785759925842,-1.4871514,0.32314770000000004,91.41727,103.04563,-3.4001419999999998,STN
7046896000000.0,2.086183786392212,2.203857421875,-9.724807739257812,-1.8938188552856445,-0.599052906036377,-1.2275337,0.34941490000000003,91.0521,103.27851,-3.3596542,STN
7046901000000.0,2.091179847717285,2.2781455516815186,-9.856656074523926,-2.227785348892212,-0.6817853450775146,-0.65576386,0.26878070000000004,90.88701999999999,103.84035,-3.259563,STN
7046905700000.0,2.0961782932281494,2.330174684524536,-9.992257118225098,-2.572030782699585,-0.7780952453613281,0.05681047,0.17012598,90.83910999999999,104.49651,-3.1346827,STN
7046911000000.0,2.1011760234832764,2.3568532466888428,-10.12039566040039,-2.8974602222442627,-0.8827826976776123,0.6618725000000001,0.10445796,91.055786,105.508606,-3.0044242999999997,STN
7046915700000.0,2.106172800064087,2.3544888496398926,-10.22914981842041,-3.173154354095459,-0.9938549399375916,0.9251554,0.058643065,91.36927,106.58728,-2.8257873,STN
7046921000000.0,2.111168146133423,2.316110134124756,-10.313675880432129,-3.4010682106018066,-1.1051281690597534,0.9117164000000001,0.023823743999999997,91.812126,107.76258999999999,-2.6563785,STN
7046925600000.0,2.116166591644287,2.231795310974121,-10.367216110229492,-3.582226276397705,-1.213157057762146,0.7861836,0.021380282999999996,92.290565,108.9593,-2.4707003,STN
7046931000000.0,2.121168613433838,2.106313467025757,-10.386070251464844,-3.7082316875457764,-1.3194493055343628,0.7131852,0.07422013,92.748566,110.09676,-2.3524093999999995,STN
7046935600000.0,2.126168727874756,1.9452818632125854,-10.367161750793457,-3.7715861797332764,-1.424146294593811,0.71959925,0.12583824,93.19208499999999,111.225945,-2.2334602,STN
7046941000000.0,2.13116717338562,1.753822922706604,-10.309342384338379,-3.764775276184082,-1.5248425006866455,0.77854776,0.14905111,93.63087,112.27501000000001,-2.2428844,STN
7046946000000.0,2.136167526245117,1.5425102710723877,-10.205022811889648,-3.6591646671295166,-1.6216862201690674,0.86193085,0.24098633,94.0902,113.32695,-2.2701821,STN
7046951000000.0,2.1411666870117188,1.3181356191635132,-10.057048797607422,-3.4554526805877686,-1.713417649269104,0.9071349,0.35063666,94.48309,114.2427,-2.4035313,STN
7046956000000.0,2.1461665630340576,1.0967174768447876,-9.866954803466797,-3.1420834064483643,-1.7975584268569946,0.7693848000000001,0.4578435,94.858795,115.1369,-2.5599439999999998,STN
7046961000000.0,2.1511666774749756,0.8793434500694275,-9.638557434082031,-2.739989757537842,-1.8701181411743164,0.36346483,0.5815437,95.01059000000001,115.80686999999999,-2.8082173,STN
7046966000000.0,2.156167984008789,0.6702470183372498,-9.379088401794434,-2.3076865673065186,-1.9279377460479736,-0.17409660000000002,0.6737844,95.10245,116.43266000000001,-3.1061342,STN
7046970700000.0,2.1611688137054443,0.4711354970932007,-9.092397689819336,-1.8571888208389282,-1.9725189208984375,-0.6899723000000001,0.7318166,94.91824,116.76348,-3.4967562999999995,STN
7046976000000.0,2.1661672592163086,0.28971612453460693,-8.787856101989746,-1.428929090499878,-2.0065855979919434,-1.1252137,0.7443393,94.62308,117.04185,-3.9582422,STN
7046980700000.0,2.171168088912964,0.12957264482975006,-8.46786117553711,-1.0156328678131104,-2.0327000617980957,-1.4813483,0.73823065,94.1638,117.19383,-4.502821400000001,STN
7046986000000.0,2.176172971725464,0.007138339336961508,-8.141119956970215,-0.5923725962638855,-2.0544605255126953,-1.9566013999999998,0.70707655,93.55927,117.31465,-5.1158595,STN
7046990700000.0,2.1811718940734863,-0.0832095816731453,-7.810180187225342,-0.1613585203886032,-2.0750937461853027,-2.591596,0.6789767,92.83166999999999,117.45998,-5.7825627,STN
7046996000000.0,2.1861743927001953,-0.15459372103214264,-7.48088264465332,0.27559858560562134,-2.0949692726135254,-3.4352007000000007,0.5992588000000001,91.91368,117.581696,-6.516235,STN
7047000600000.0,2.1911721229553223,-0.20845481753349304,-7.153625965118408,0.7173030376434326,-2.113508701324463,-4.288885,0.49266282,90.79555,117.62706999999999,-7.264319,STN
7047006000000.0,2.196171283721924,-0.257140189409256,-6.830949306488037,1.093216896057129,-2.136561870574951,-4.944038,0.37048978,89.49158,117.68948,-8.066635,STN
7047011000000.0,2.2011797428131104,-0.3074096441268921,-6.513916492462158,1.366015911102295,-2.166020631790161,-5.219538,0.29016098,88.04748000000001,117.74744,-8.906511,STN
7047016000000.0,2.206174612045288,-0.35480615496635437,-6.199356555938721,1.487441062927246,-2.196204662322998,-4.992907,0.23915374,86.505714,117.70515,-9.707255,STN
7047020500000.0,2.2111685276031494,-0.39548274874687195,-5.882687568664551,1.3992180824279785,-2.2221431732177734,-4.237572,0.19058995,85.01066999999999,117.66017,-10.447663,STN
7047026000000.0,2.2161617279052734,-0.41877031326293945,-5.570625305175781,1.1292587518692017,-2.2301125526428223,-3.5671475,0.09590584,83.66156,117.82567,-11.133459,STN
7047031000000.0,2.2211577892303467,-0.39948123693466187,-5.278329849243164,0.7245931625366211,-2.207690715789795,-3.2033772000000003,-0.0070249503,82.4177,117.89673,-11.748242,STN
7047036000000.0,2.2261569499969482,-0.35127779841423035,-5.0110392570495605,0.22043296694755554,-2.1586947441101074,-2.3331997,0.0018325957999999999,81.8985,118.59848000000001,-12.129352,STN
7047041000000.0,2.231152296066284,-0.2872665226459503,-4.773141384124756,-0.3482460379600525,-2.1028852462768555,-1.1933253000000001,0.086132,81.55156,119.23865,-12.42302,STN
7047046000000.0,2.2361655235290527,-0.226492777466774,-4.589544773101807,-0.9404675364494324,-2.0359864234924316,-0.11759156,0.16982053,81.74578000000001,120.04768,-12.415289,STN
7047051000000.0,2.241161584854126,-0.18575184047222137,-4.474031448364258,-1.5097647905349731,-1.966027855873108,0.7672467,0.2556471,82.20129399999999,120.85575,-12.300609,STN
7047055700000.0,2.2461564540863037,-0.16910383105278015,-4.444567680358887,-2.0444607734680176,-1.8969815969467163,1.4395038999999998,0.2910773,83.06931,121.82895,-11.950146,STN
7047061000000.0,2.251150369644165,-0.1797584444284439,-4.516297817230225,-2.5317933559417725,-1.8238344192504883,1.8643607,0.26694809999999997,84.07778,122.74041000000001,-11.519047,STN
7047065600000.0,2.2561445236206055,-0.20009389519691467,-4.674393653869629,-2.9626502990722656,-1.7378686666488647,2.1071796000000003,0.29657507,85.22675,123.4633,-11.074211,STN
7047071000000.0,2.2611379623413086,-0.2099008411169052,-4.902174949645996,-3.326129913330078,-1.63893723487854,2.2904391,0.40042216,86.43921,124.14138,-10.605714,STN
7047075600000.0,2.2661311626434326,-0.20238088071346283,-5.1875433921813965,-3.625654458999634,-1.5291635990142822,2.427273,0.6035349,87.56461,124.505264,-10.22535,STN
7047081000000.0,2.271127700805664,-0.16928909718990326,-5.518051624298096,-3.863891839981079,-1.4145458936691284,2.5262332,0.8512407,88.71828000000001,124.82155,-9.878208,STN
7047085600000.0,2.276122570037842,-0.1177859976887703,-5.8954057693481445,-4.03624153137207,-1.296839714050293,2.5244007,1.0760391000000002,89.70206,124.82745,-9.590384,STN
7047091000000.0,2.2811172008514404,-0.05575939267873764,-6.324163436889648,-4.134639263153076,-1.1778862476348877,2.4462099999999998,1.2107350000000001,90.69505,124.81096000000001,-9.351687,STN
7047095500000.0,2.2861111164093018,0.012750881724059582,-6.7904953956604,-4.172808647155762,-1.0596402883529663,2.3353379000000003,1.2205088,91.52071,124.54381000000001,-9.084033999999999,STN
7047101000000.0,2.291106700897217,0.06932687014341354,-7.235393524169922,-4.2042107582092285,-0.9421778917312622,2.2681427000000003,1.131017,92.3325,124.2558,-8.842971,STN
7047105500000.0,2.2961008548736572,0.114695243537426,-7.659963130950928,-4.229257583618164,-0.8222669959068298,2.2256875,0.9798279000000001,92.93066400000001,123.58606,-8.592727,STN
7047110700000.0,2.3010971546173096,0.14935272932052612,-8.065328598022461,-4.248230934143066,-0.696831464767456,2.1508564999999997,0.7861836,93.479485,122.88956999999999,-8.341286,STN
7047116000000.0,2.3060946464538574,0.16880805790424347,-8.44234561920166,-4.250644207000732,-0.5651891231536865,1.9825631000000001,0.58093286,93.92714000000001,122.18048,-8.113281,STN
7047120700000.0,2.3110921382904053,0.1600683629512787,-8.764819145202637,-4.207916259765625,-0.42698702216148376,1.6862935000000001,0.35827246,94.28865,121.41624499999999,-7.876924499999999,STN
7047126000000.0,2.3160898685455322,0.1296675056219101,-9.0341215133667,-4.133022785186768,-0.28485363721847534,1.2834278000000001,0.13041973,94.51238000000001,120.59065,-7.6959605,STN
7047130600000.0,2.32108998298645,0.09473974257707596,-9.247836112976074,-4.061351776123047,-0.13964952528476715,1.067487,-0.09162979,94.67406,119.71028000000001,-7.486415400000001,STN
7047136000000.0,2.3260905742645264,0.05720878764986992,-9.406920433044434,-3.9961342811584473,0.002911061281338334,0.6533204,-0.19028452,94.58159,118.80028999999999,-7.464661,STN
7047140600000.0,2.3310890197753906,0.022432873025536537,-9.507451057434082,-3.9477291107177734,0.14755921065807343,0.30482176,-0.36438109999999996,94.40436600000001,117.81608999999999,-7.38815,STN
7047146000000.0,2.3360865116119385,-0.00820261798799038,-9.554795265197754,-3.913112163543701,0.29332098364830017,0.043676864,-0.49816059999999995,94.15156999999999,116.89601,-7.375721,STN
7047150600000.0,2.3410861492156982,-0.029276544228196144,-9.56022834777832,-3.883665084838867,0.43925806879997253,-0.15363261,-0.5717699,93.807785,115.942894,-7.3656707,STN
7047156000000.0,2.3460843563079834,-0.04130867123603821,-9.531030654907227,-3.8581788539886475,0.5849215984344482,-0.34208453,-0.6026186,93.45285,115.0511,-7.3568690000000005,STN
7047160500000.0,2.3510818481445312,-0.04443668946623802,-9.48636245727539,-3.8330492973327637,0.7301959991455078,-0.552833,-0.6224717,93.03151,114.131546,-7.352388400000001,STN
7047166000000.0,2.3560802936553955,-0.039373330771923065,-9.430161476135254,-3.8086512088775635,0.8746950030326843,-0.70554936,-0.65240407,92.62435,113.22775,-7.3245716,STN
7047170500000.0,2.3610775470733643,-0.027991294860839844,-9.378222465515137,-3.786820411682129,1.0169787406921387,-0.80664754,-0.7153232,92.16903,112.30518000000001,-7.294728299999999,STN
7047175700000.0,2.366074800491333,-0.010941398330032825,-9.331866264343262,-3.766934871673584,1.157507061958313,-0.79779,-0.8081746999999999,91.73095,111.35271499999999,-7.219666,STN
7047181000000.0,2.371075391769409,0.009816667065024376,-9.29867172241211,-3.746408224105835,1.2951364517211914,-0.675617,-0.9166033000000001,91.289635,110.3869,-7.117885,STN
7047185700000.0,2.3760836124420166,0.03477049618959427,-9.277192115783691,-3.7234466075897217,1.4288169145584106,-0.44104472,-1.0299188,90.89805,109.39011399999998,-6.953253699999999,STN
7047191000000.0,2.3810811042785645,0.07001689076423645,-9.256082534790039,-3.6787221431732178,1.5571799278259277,-0.13347405,-1.1462886,90.55196,108.38333999999999,-6.739766599999999,STN
7047195700000.0,2.386078357696533,0.11523047089576721,-9.233750343322754,-3.612144947052002,1.679629921913147,0.1432479,-1.2528846000000002,90.268135,107.34073000000001,-6.4633975,STN
7047201000000.0,2.39107608795166,0.1685807704925537,-9.200806617736816,-3.5224990844726562,1.798337697982788,0.34208453,-1.3231341,90.04318,106.28978000000001,-6.1500444000000005,STN
7047205600000.0,2.396074056625366,0.22763574123382568,-9.157877922058105,-3.4097375869750977,1.9115818738937378,0.5045747,-1.3191633999999999,89.875,105.17045,-5.778401000000001,STN
7047211000000.0,2.401071548461914,0.2754480838775635,-9.105853080749512,-3.264026403427124,2.0156493186950684,0.6301074999999999,-1.2421944999999999,89.75324,104.07746999999999,-5.4038277,STN
7047215600000.0,2.406069755554199,0.3116855323314667,-9.043846130371094,-3.08652925491333,2.1058530807495117,0.5876524000000001,-1.1548406999999998,89.61629,102.93526999999999,-5.007969,STN
7047221000000.0,2.4110684394836426,0.3282860815525055,-8.959596633911133,-2.874985933303833,2.182020425796509,0.31123585,-1.0369438,89.45527,101.84482,-4.655242400000001,STN
7047225500000.0,2.416067361831665,0.32648101449012756,-8.85416030883789,-2.63154935836792,2.245973587036133,0.09743301,-0.88422745,89.23511500000001,100.74401,-4.3751974,STN
7047231000000.0,2.421067476272583,0.3093455135822296,-8.726778030395508,-2.3616344928741455,2.2958731651306152,-0.42149702,-0.79381937,88.85164,99.72715,-4.1430483,STN
7047236000000.0,2.4260733127593994,0.2773043215274811,-8.579516410827637,-2.0684685707092285,2.33713960647583,-1.1643091,-0.60994893,88.22079000000001,98.7575,-4.104593799999999,STN
7047241000000.0,2.4310717582702637,0.2303294986486435,-8.43140983581543,-1.7854621410369873,2.364650011062622,-2.1010711,-0.45112398,87.3896,97.9012,-4.1004853,STN
7047246000000.0,2.4360780715942383,0.16910387575626373,-8.282221794128418,-1.5169481039047241,2.3801465034484863,-3.184746,-0.36896262,86.32963000000001,97.004456,-4.135552,STN
7047250700000.0,2.441077470779419,0.10515674203634262,-8.135000228881836,-1.3239688873291016,2.386157751083374,-4.1187587,-0.36438109999999996,85.05391,96.21637,-4.191187,STN
7047256000000.0,2.446073055267334,0.038565631955862045,-7.989572525024414,-1.203189492225647,2.381333351135254,-4.736649,-0.39736784,83.6783,95.50439,-4.2247744,STN
7047260700000.0,2.451071262359619,-0.015478458255529404,-7.841360569000244,-1.2003271579742432,2.362555980682373,-5.023755599999999,-0.44593164,82.14144,94.93297,-4.2406235,STN
7047266000000.0,2.4560840129852295,-0.05507775768637657,-7.689548492431641,-1.3202983140945435,2.3285343647003174,-4.935486,-0.46120325,80.55,94.51685,-4.233687000000001,STN
7047270600000.0,2.4610817432403564,-0.08395814895629883,-7.538614273071289,-1.5248472690582275,2.2789254188537598,-4.45107,-0.43951756,79.08515,94.43397,-4.328722,STN
7047276000000.0,2.4660778045654297,-0.10227055102586746,-7.388158798217773,-1.813908576965332,2.213322877883911,-3.765679,-0.46089783,77.93621999999999,94.49816,-4.426579,STN
7047280600000.0,2.4710757732391357,-0.11060256510972977,-7.232544898986816,-2.1563165187835693,2.130690574645996,-2.9749138,-0.52503866,76.98591,94.56647,-4.5054940000000006,STN
7047286000000.0,2.4760732650756836,-0.10958943516016006,-7.071625232696533,-2.5457515716552734,2.0290064811706543,-2.057394,-0.559858,76.29377,94.64799000000001,-4.576353500000001,STN
7047290600000.0,2.481071710586548,-0.10486254096031189,-6.888442516326904,-2.9222400188446045,1.9061766862869263,-1.0714576,-0.5561928,76.05555,94.86067,-4.667863400000001,STN
7047296000000.0,2.486067533493042,-0.09754662960767746,-6.681705474853516,-3.2765982151031494,1.7623515129089355,-0.13775012,-0.5009095,76.08238,95.17489,-4.756284,STN
7047301000000.0,2.4910688400268555,-0.10039462149143219,-6.4502058029174805,-3.5875403881073,1.5997568368911743,0.65026605,-0.35216382,76.48443,95.761505,-4.858355,STN
7047306000000.0,2.4960649013519287,-0.11395451426506042,-6.196476936340332,-3.8557400703430176,1.4308195114135742,1.314582,-0.09743301,77.12597,96.54953,-4.9855523,STN
7047310500000.0,2.501063585281372,-0.16523224115371704,-5.969422340393066,-4.0621209144592285,1.2822144031524658,1.820073,0.18234327,77.94083,97.43511,-5.0973115,STN
7047315700000.0,2.5060644149780273,-0.25639665126800537,-5.7751688957214355,-4.206846714019775,1.1807734966278076,1.9929477999999998,0.36071593,78.85385,98.34832,-5.2267194,STN
7047321000000.0,2.5110678672790527,-0.3740895688533783,-5.659708499908447,-4.237888813018799,1.137412190437317,1.7110336,0.34788775,79.73159,99.1432,-5.3583307,STN
7047325700000.0,2.516068935394287,-0.5130066871643066,-5.631390571594238,-4.147292137145996,1.1382107734680176,1.4584408000000002,0.20708331,80.6644,99.833046,-5.4828544,STN
7047331000000.0,2.5210742950439453,-0.6436030864715576,-5.701289653778076,-3.9618754386901855,1.157718300819397,0.81214535,0.07422013,81.3138,100.282364,-5.684589,STN
7047335600000.0,2.52607798576355,-0.7568935751914978,-5.866593360900879,-3.6963534355163574,1.1770652532577515,0.15943582,0.052534412999999995,81.88405,100.62309,-5.8866606,STN
7047341000000.0,2.5310800075531006,-0.8267133831977844,-6.115671634674072,-3.3575119972229004,1.1858913898468018,-0.07849618,0.09254608,82.16275,100.52385,-6.082429,STN
7047345600000.0,2.5360803604125977,-0.8405610918998718,-6.440408706665039,-2.9506986141204834,1.1630923748016357,0.34636059999999996,0.31978795,82.44946999999999,100.55675,-6.3246884,STN
7047351000000.0,2.5410819053649902,-0.8256014585494995,-6.835475444793701,-2.533512592315674,1.0828936100006104,0.98990715,0.6985244,82.55348000000001,100.40872,-6.5390544,STN
7047355600000.0,2.546084403991699,-0.7932093739509583,-7.296261787414551,-2.1283509731292725,0.9472147226333618,1.3545936,1.0558805,82.70239000000001,100.45035,-6.800654,STN
7047361000000.0,2.551086187362671,-0.7681400775909424,-7.789885520935059,-1.7934390306472778,0.7851375341415405,1.2082913999999998,1.3365731,82.727135,100.3152,-6.981061,STN
7047366000000.0,2.5560882091522217,-0.7650583386421204,-8.296528816223145,-1.5624969005584717,0.6332442164421082,0.55741453,1.5088371,82.715515,100.34564,-7.231855400000001,STN
7047371000000.0,2.561091661453247,-0.7733407020568848,-8.811299324035645,-1.492437720298767,0.5334108471870422,-0.18997909,1.4019357,82.58912,100.24895500000001,-7.400687,STN
7047376000000.0,2.566094398498535,-0.769195556640625,-9.322880744934082,-1.7235848903656006,0.5104368329048157,-0.7623598,0.7886270000000001,82.32266,99.99955,-7.4875274,STN
7047380700000.0,2.5711002349853516,-0.7016475796699524,-9.826318740844727,-2.176323175430298,0.45886704325675964,0.20830505,0.23090707,82.44819,100.20663,-7.5813584,STN
7047386000000.0,2.5761072635650635,-0.5060160756111145,-10.314661026000977,-2.7473082542419434,0.37332385778427124,2.0259346999999996,-0.2660318,82.64206999999999,100.07715999999999,-7.507567,STN
7047390700000.0,2.581110954284668,-0.2246425300836563,-10.699719429016113,-3.281283140182495,0.2934626340866089,3.5286632000000004,-0.47616947,83.42381,100.4399,-7.352961,STN
7047396000000.0,2.5861122608184814,0.09977363049983978,-10.883418083190918,-3.609947443008423,0.23335348069667816,3.7580430000000002,-0.33964106,84.328705,100.86891999999999,-7.139183500000001,STN
7047400700000.0,2.5911128520965576,0.43579182028770447,-10.919290542602539,-3.711838722229004,0.18587230145931244,3.3875531999999997,-0.061391957000000004,85.60356,101.4786,-6.6711144,STN
7047406000000.0,2.596113681793213,0.7413217425346375,-10.876482009887695,-3.5538580417633057,0.1317899227142334,2.8884764,0.24556783,86.87059,102.17016600000001,-6.251368,STN
7047410600000.0,2.6011126041412354,1.008352279663086,-10.766678810119629,-3.19036602973938,0.05649927258491516,2.2681427000000003,0.5131268,87.79616,102.5908,-5.817985,STN
7047416000000.0,2.6061131954193115,1.2251662015914917,-10.602194786071777,-2.683236598968506,-0.034588463604450226,1.5158621,0.6365215999999999,88.54353,103.08259,-5.4621205,STN
7047420600000.0,2.6111137866973877,1.4006288051605225,-10.403794288635254,-2.0924839973449707,-0.1290093958377838,0.6414085,0.6588182,88.77062,103.09595999999999,-5.192526,STN
7047426000000.0,2.6161153316497803,1.5530054569244385,-10.220372200012207,-1.5609434843063354,-0.21685202419757843,0.17256944,0.6337727,88.907196,103.1703,-4.9636483,STN
7047431000000.0,2.621114730834961,1.6836743354797363,-10.0510835647583,-1.0851609706878662,-0.2925582528114319,-0.7620544,0.6068946,88.44084000000001,102.907425,-4.9288654,STN
7047436000000.0,2.6261208057403564,1.7933598756790161,-9.895313262939453,-0.6630380749702454,-0.3583863079547882,-1.6551393,0.48899764,87.85601,102.63275,-4.890199,STN
7047441000000.0,2.6311559677124023,1.8845983743667603,-9.76589298248291,-0.30596548318862915,-0.40472185611724854,-2.3661866000000003,0.33261612,87.06696,102.26132,-4.876284,STN
7047446000000.0,2.636157512664795,1.9640008211135864,-9.673057556152344,-0.01554248295724392,-0.42651596665382385,-2.7763824,0.19394971,86.12024,101.81572,-4.8646374,STN
7047451000000.0,2.6411585807800293,2.0316591262817383,-9.619037628173828,0.20650210976600647,-0.42073047161102295,-2.885422,0.10048734,85.139534,101.407974,-4.8910823,STN
7047455700000.0,2.6461591720581055,2.093200206756592,-9.604732513427734,0.3773655593395233,-0.38837939500808716,-2.7421741,0.023823743999999997,84.121635,100.869125,-4.88296,STN
7047461000000.0,2.651158571243286,2.1502339839935303,-9.621390342712402,0.5078167915344238,-0.33120402693748474,-2.4956899,-0.05375614,83.18181,100.32760999999999,-4.8331394,STN
7047465700000.0,2.656158447265625,2.207026481628418,-9.64682674407959,0.6249566078186035,-0.25449901819229126,-2.2122486,-0.10751228,82.29826,99.67004,-4.7499375,STN
7047471000000.0,2.6611568927764893,2.2632830142974854,-9.680803298950195,0.7281427383422852,-0.1624792367219925,-1.9908098,-0.14599679999999998,81.5082,98.97851,-4.62782,STN
7047476000000.0,2.666161060333252,2.3180997371673584,-9.724136352539062,0.8131051063537598,-0.057556021958589554,-1.883603,-0.16035213,80.77063000000001,98.1956,-4.4807544,STN
7047481000000.0,2.671159505844116,2.3731589317321777,-9.773670196533203,0.8725525736808777,0.05652281641960144,-1.8481728,-0.16432275,80.08584599999999,97.35869,-4.3005834,STN
7047485600000.0,2.676158905029297,2.4343888759613037,-9.821575164794922,0.876477837562561,0.173035129904747,-1.7837266,-0.16187929,79.44451,96.49364,-4.104629,STN
7047491000000.0,2.6811578273773193,2.5007176399230957,-9.870536804199219,0.8184279799461365,0.28817254304885864,-1.6096298999999998,-0.13744467,78.86054,95.64741500000001,-3.8997684,STN
7047496000000.0,2.6861579418182373,2.569101572036743,-9.93111801147461,0.6618320345878601,0.3981180787086487,-1.3139712,-0.12278391400000001,78.33415,94.83261999999999,-3.6822032999999994,STN
7047501000000.0,2.6911563873291016,2.6348049640655518,-9.995525360107422,0.422704815864563,0.5008206963539124,-0.88422745,-0.15668693,78.1607881878486,94.34799067691841,-3.41872636397306,STN
7047506600000.0,2.6966841220855713,2.637333869934082,-9.981439590454102,0.056333668529987335,0.5107871890068054,0.013133603,-0.27488935,77.64004,92.89225,-2.6272883,STN
7047512000000.0,2.7021827697753906,2.617797374725342,-9.942768096923828,-0.3311954736709595,0.48633307218551636,0.061391957000000004,-0.20586158,77.816086,92.80906,-2.4267488,STN
7047517000000.0,2.707655906677246,2.5590267181396484,-9.877991676330566,-0.6849102973937988,0.44071945548057556,0.07269296,-0.17134771,78.024666,92.86061,-2.2215748,STN
7047522300000.0,2.7131030559539795,2.4632208347320557,-9.791748046875,-1.005483865737915,0.3907164931297302,0.03176499,-0.11698069400000001,78.27325400000001,93.17102,-2.1218596,STN
7047527500000.0,2.7185287475585938,2.3309004306793213,-9.701674461364746,-1.2877799272537231,0.3368348181247711,-0.08704830000000001,-0.06841691,78.50153,93.64107,-2.0343263,STN
7047533000000.0,2.7239296436309814,2.165219783782959,-9.607172966003418,-1.5346596240997314,0.2845062017440796,-0.23915374,-0.03176499,78.72069,94.19723499999999,-2.0797079,STN
7047538000000.0,2.729309320449829,1.970654845237732,-9.502521514892578,-1.7506645917892456,0.2363498955965042,-0.39614612,0.03848451,78.91001999999999,94.79247,-2.151014,STN
7047543000000.0,2.7346692085266113,1.7492974996566772,-9.38796329498291,-1.9370472431182861,0.18835091590881348,-0.5543602,0.129198,79.06724,95.411934,-2.364552,STN
7047548500000.0,2.7400095462799072,1.5068097114562988,-9.262033462524414,-2.0927276611328125,0.13802672922611237,-0.70402217,0.24373524,79.19211,96.039024,-2.6015275,STN
7047554000000.0,2.745330810546875,1.2458618879318237,-9.125431060791016,-2.2210285663604736,0.08327126502990723,-0.84788096,0.3930918,79.24091999999999,96.68733,-2.9100818999999998,STN
7047559000000.0,2.7506394386291504,0.979270339012146,-8.978678703308105,-2.3370742797851562,0.021407021209597588,-0.98440933,0.5393939999999999,79.25896,97.37759,-3.2485356,STN
7047564000000.0,2.755932331085205,0.7076050043106079,-8.822556495666504,-2.4415926933288574,-0.047903355211019516,-1.0118983,0.6737844,79.22829399999999,98.0961,-3.6562900000000003,STN
7047569500000.0,2.7612099647521973,0.44166362285614014,-8.660900115966797,-2.5502119064331055,-0.12375844269990921,-0.9257663,0.81397796,79.20106,98.87201999999999,-4.1036019999999995,STN
7047574700000.0,2.7664859294891357,0.1816621869802475,-8.493638038635254,-2.6645185947418213,-0.20551647245883942,-0.70921457,0.9193522,79.21244,99.70156999999999,-4.5694265,STN
7047580000000.0,2.7717370986938477,-0.06939870864152908,-8.328752517700195,-2.7886159420013428,-0.2927326261997223,-0.39614612,1.0100657,79.26496999999999,100.60903,-5.0995989999999995,STN
7047585000000.0,2.7769739627838135,-0.31156566739082336,-8.167376518249512,-2.923779010772705,-0.385669469833374,-0.005497787,1.0870347,79.40944,101.569496,-5.635864700000001,STN
7047590400000.0,2.782195568084717,-0.5461930632591248,-8.014699935913086,-3.0731656551361084,-0.48516154289245605,0.4166101,1.1450669,79.675415,102.63726,-6.187611599999999,STN
7047595700000.0,2.7874038219451904,-0.7738553881645203,-7.871166706085205,-3.2367465496063232,-0.5929266810417175,0.84299403,1.2122620000000002,80.06132,103.764565,-6.732527,STN
7047601000000.0,2.7926032543182373,-0.9998054504394531,-7.732666015625,-3.4036474227905273,-0.7077915668487549,1.2373075,1.2916746000000001,80.5856,105.00368999999999,-7.275485499999999,STN
7047606000000.0,2.797788143157959,-1.224868655204773,-7.598250865936279,-3.571287155151367,-0.8271966576576233,1.5937473999999998,1.3735305,81.226425,106.29213,-7.797236,STN
7047611400000.0,2.8029661178588867,-1.4447795152664185,-7.482516288757324,-3.728470802307129,-0.9490606188774109,1.9587394,1.4333953000000001,82.01925,107.69762,-8.297682,STN
7047616700000.0,2.808135986328125,-1.6588908433914185,-7.387256622314453,-3.87357759475708,-1.0724711418151855,2.3322835,1.4294246000000002,82.914856,109.134254,-8.75105,STN
7047622000000.0,2.813295841217041,-1.8577709197998047,-7.319645881652832,-3.9981424808502197,-1.1968249082565308,2.5115724,1.3716979,83.86804000000001,110.63821000000002,-9.192392,STN
7047627000000.0,2.8184468746185303,-2.039364814758301,-7.280714988708496,-4.1005449295043945,-1.3180185556411743,2.9083295,1.3426818,84.981224,112.14376999999999,-9.558597,STN
7047632400000.0,2.8235929012298584,-2.1922881603240967,-7.274737358093262,-4.1759772300720215,-1.440029501914978,3.3313537,1.319469,86.12536999999999,113.64941,-9.868528,STN
7047637600000.0,2.8287293910980225,-2.311610698699951,-7.302465915679932,-4.2230329513549805,-1.5613816976547241,3.7317758000000003,1.3277156,87.3604,115.14191399999999,-10.107318,STN
7047643000000.0,2.833857536315918,-2.4037342071533203,-7.3556809425354,-4.226221561431885,-1.6810522079467773,4.019798799999999,1.3515393999999998,88.62865,116.54555,-10.260086,STN
7047648000000.0,2.8389792442321777,-2.4712584018707275,-7.431410789489746,-4.182969570159912,-1.7958264350891113,4.090659,1.3628403999999998,89.93003,117.93643,-10.358504,STN
7047653400000.0,2.8440945148468018,-2.5273993015289307,-7.530712604522705,-4.075260162353516,-1.9031492471694946,3.896404,1.3634511999999999,91.19843,119.16873999999999,-10.367124,STN
7047658600000.0,2.849203109741211,-2.577698230743408,-7.653221130371094,-3.8981573581695557,-2.0003576278686523,3.5353825,1.3069462,92.41946999999999,120.36568,-10.351661,STN
7047664000000.0,2.8543055057525635,-2.5717992782592773,-7.758246421813965,-3.515498399734497,-2.0892927646636963,2.7889054,1.2730431999999998,93.43125,121.3323,-10.357835000000001,STN
7047669000000.0,2.8594043254852295,-2.494091033935547,-7.832509517669678,-2.886270523071289,-2.176971673965454,1.3726143,1.3848315,94.18335,122.30299,-10.519131,STN
7047674300000.0,2.8644964694976807,-2.4022722244262695,-7.942348480224609,-2.132800340652466,-2.275311231613159,-0.47067168,1.1798861999999999,94.46184000000001,123.01538000000001,-10.785891000000001,STN
7047679600000.0,2.869584083557129,-2.3136799335479736,-8.106342315673828,-1.2942298650741577,-2.3616061210632324,-3.7278051,0.8145888000000001,94.02176,123.61639,-11.451253,STN
7047685000000.0,2.8746707439422607,-2.2158985137939453,-8.302292823791504,-0.5262536406517029,-2.3983113765716553,-7.0646567,0.4569272,92.73751999999999,123.39223,-12.303578,STN
7047690000000.0,2.879751205444336,-2.1023614406585693,-8.51553726196289,0.0835113376379013,-2.41675066947937,-7.9501057,0.12308934,91.19167,123.24708600000001,-13.170176000000001,STN
7047695300000.0,2.8848249912261963,-1.9439101219177246,-8.72729778289795,0.4581944942474365,-2.463555335998535,-6.906747999999999,0.12308934,90.3461586928944,123.02386107507,-13.5527852681654,STN
7047700500000.0,2.88989520072937,-1.6696362495422363,-8.8946533203125,0.40096786618232727,-2.5335350036621094,-5.126380999999999,-0.031154128,89.491776,122.798294,-13.939409,STN
7047706000000.0,2.894961357116699,-1.2998303174972534,-9.022860527038574,0.027302872389554977,-2.591890811920166,-3.0973923,-0.058337633,87.32168,121.984024,-14.8350725,STN
7047711000000.0,2.900024175643921,-0.8578993678092957,-9.11769962310791,-0.5231220126152039,-2.619807004928589,-1.2770138,0.056505035999999995,86.06408,121.56367,-15.137732500000002,STN
7047716000000.0,2.9050824642181396,-0.4100135862827301,-9.189656257629395,-1.1764912605285645,-2.618417501449585,0.1441642,0.33414328,85.733734,122.04014,-14.832014000000001,STN
7047721000000.0,2.9101402759552,-0.030046194791793823,-9.249930381774902,-1.8535197973251343,-2.5917093753814697,1.0274754000000001,0.49632803,85.740685,122.40698,-14.366553,STN
7047725700000.0,2.9151906967163086,0.25936222076416016,-9.323777198791504,-2.4921658039093018,-2.549333333969116,1.2693780000000001,0.5558874,86.26290999999999,123.152115,-13.550509,STN
7047731000000.0,2.920243501663208,0.4215339124202728,-9.44585132598877,-3.0100114345550537,-2.5028023719787598,1.4853188999999998,0.6078109,86.9998,123.86378,-12.686486,STN
7047735700000.0,2.9252936840057373,0.4365635812282562,-9.625643730163574,-3.3937911987304688,-2.45131254196167,1.4779885,0.68569624,87.813416,124.67558999999999,-11.956392999999998,STN
7047741000000.0,2.930342674255371,0.27186319231987,-9.878399848937988,-3.620675563812256,-2.3974392414093018,1.3952162000000001,0.7788531999999999,88.64404,125.46933,-11.253495,STN
7047745600000.0,2.9353814125061035,-0.006841814145445824,-10.167670249938965,-3.7304601669311523,-2.3393237590789795,1.2119566000000002,0.7858781,89.258736,125.986496,-10.884861,STN
7047751000000.0,2.9404213428497314,-0.27195706963539124,-10.418281555175781,-3.792707920074463,-2.274832010269165,0.8344419,0.6792821,89.79443,126.45618,-10.569211,STN
7047755600000.0,2.945456027984619,-0.5215949416160583,-10.626899719238281,-3.825273036956787,-2.203066825866699,0.31795537,0.5363397,90.04133,126.456566,-10.79873,STN
7047761000000.0,2.9504921436309814,-0.7482201457023621,-10.775856971740723,-3.8752710819244385,-2.1240737438201904,-0.14599679999999998,0.3903429,90.18698,126.40891,-11.039214999999999,STN
7047766000000.0,2.9555537700653076,-0.9523591995239258,-10.863009452819824,-3.9453113079071045,-2.038254499435425,-0.42485678,0.2706133,90.16407,126.27611999999999,-11.312488,STN
7047771000000.0,2.9605860710144043,-1.1375226974487305,-10.899127006530762,-4.034595489501953,-1.9474703073501587,-0.50426924,0.16310102,90.05589,126.09185,-11.582255,STN
7047776000000.0,2.9656167030334473,-1.3036925792694092,-10.881020545959473,-4.14376163482666,-1.8509275913238525,-0.45631635,0.052534412999999995,89.94151,125.96711,-11.833292,STN
7047781000000.0,2.970643997192383,-1.450111746788025,-10.801301956176758,-4.261636734008789,-1.7498937845230103,-0.3567453,-0.059864793,89.803345,125.79238000000001,-12.050284,STN
7047786000000.0,2.9756734371185303,-1.5775941610336304,-10.665834426879883,-4.3849358558654785,-1.6446081399917603,-0.22693644,-0.1695151,89.72270999999999,125.70495600000001,-12.222666,STN
7047790700000.0,2.9807000160217285,-1.6873071193695068,-10.4891939163208,-4.504657745361328,-1.5367296934127808,-0.09590584,-0.22785273,89.65756999999999,125.571976,-12.356699,STN
7047796000000.0,2.9857234954833984,-1.780353307723999,-10.27750015258789,-4.618900299072266,-1.4262337684631348,0.050701816,-0.28741209999999995,89.65079,125.50278999999999,-12.434764999999999,STN
7047800700000.0,2.9907479286193848,-1.8579679727554321,-10.045669555664062,-4.720571517944336,-1.3130158185958862,0.19425514,-0.36438109999999996,89.66362,125.38526,-12.471675999999999,STN
7047806000000.0,2.99576735496521,-1.9196221828460693,-9.798107147216797,-4.80879545211792,-1.1977579593658447,0.33628133,-0.45142943,89.72815,125.30927,-12.463337,STN
7047810600000.0,3.0007872581481934,-1.956939935684204,-9.549788475036621,-4.874564170837402,-1.07972252368927,0.42271876,-0.5439755000000001,89.80078,125.18068000000001,-12.422222999999999,STN
7047816000000.0,3.005805730819702,-1.9716570377349854,-9.303129196166992,-4.919318199157715,-0.9582436680793762,0.48563787,-0.59864795,89.89464,125.045456,-12.346831,STN
7047821000000.0,3.010828733444214,-1.9664469957351685,-9.073141098022461,-4.944559097290039,-0.8333421349525452,0.5296202,-0.6392705,89.991714,124.86188,-12.245485,STN
7047826000000.0,3.01584792137146,-1.943829894065857,-8.859344482421875,-4.952632904052734,-0.7044515609741211,0.548557,-0.6597345,90.05962,124.61693999999999,-12.129521,STN
7047830600000.0,3.0208628177642822,-1.9158133268356323,-8.667084693908691,-4.954379081726074,-0.5773839950561523,0.60994893,-0.7095199999999999,90.13605,124.3508,-11.987847,STN
7047836000000.0,3.025921106338501,-1.8818787336349487,-8.496331214904785,-4.949605464935303,-0.44712644815444946,0.8179486,-0.7968736999999999,90.21578000000001,123.956566,-11.782592,STN
7047841000000.0,3.030935764312744,-1.8476569652557373,-8.336772918701172,-4.944981575012207,-0.3091122508049011,0.904386,-0.82436264,90.27959399999999,123.52415500000001,-11.595544,STN
7047846000000.0,3.035942792892456,-1.8128511905670166,-8.188125610351562,-4.940483570098877,-0.17287005484104156,1.1175779,-0.88453287,90.37901,123.050446,-11.311881,STN
7047851000000.0,3.0409531593322754,-1.7773960828781128,-8.049904823303223,-4.936100006103516,-0.031680572777986526,1.3570372,-0.93401295,90.5017,122.48009499999999,-11.016354,STN
7047855700000.0,3.045959949493408,-1.7413885593414307,-7.921492099761963,-4.931828022003174,0.11450180411338806,1.6362026,-0.97433007,90.676765,121.88762,-10.681414,STN
7047861000000.0,3.0509696006774902,-1.706568956375122,-7.797272682189941,-4.916619777679443,0.26604580879211426,1.9770653000000002,-0.9773844,90.90997,121.24991000000001,-10.316502,STN
7047865700000.0,3.055976390838623,-1.673357605934143,-7.67571496963501,-4.888367652893066,0.424439936876297,2.3527473999999997,-0.98349303,91.21173,120.55138000000001,-9.910185,STN
7047871000000.0,3.0609920024871826,-1.6440327167510986,-7.558023929595947,-4.827503204345703,0.5890424251556396,2.7366762000000002,-0.99021256,91.60748000000001,119.78123000000001,-9.444078999999999,STN
7047875700000.0,3.0659964084625244,-1.618963599205017,-7.44464635848999,-4.732180595397949,0.759261965751648,3.0457742000000003,-0.9642508,92.078156,118.95792,-8.961822999999999,STN
7047881000000.0,3.0710041522979736,-1.5992387533187866,-7.342945098876953,-4.59798526763916,0.9334970116615295,3.242778,-0.9098838,92.59501999999999,118.05908000000001,-8.470464999999999,STN
7047885600000.0,3.0760135650634766,-1.584958791732788,-7.254962921142578,-4.425784587860107,1.109075665473938,3.3292155,-0.83199847,93.16112,117.12596,-7.987992299999999,STN
7047891000000.0,3.0810234546661377,-1.577879786491394,-7.188955307006836,-4.221833229064941,1.2848032712936401,3.3136384,-0.7467828000000001,93.65728,116.09173600000001,-7.571778299999999,STN
7047895600000.0,3.086028814315796,-1.5785746574401855,-7.1481451988220215,-3.9907476902008057,1.459906816482544,3.2403347,-0.6395759,94.16148000000001,115.04123,-7.199837,STN
7047901000000.0,3.091034173965454,-1.5842012166976929,-7.135648250579834,-3.741997480392456,1.633459210395813,3.177721,-0.50732356,94.61406,113.83352,-6.8735447,STN
7047906000000.0,3.096055746078491,-1.5934600830078125,-7.1537017822265625,-3.479240894317627,1.8022061586380005,3.0677652,-0.37415496,95.032974,112.63598,-6.609884,STN
7047911000000.0,3.101060152053833,-1.6000499725341797,-7.209630012512207,-3.1997861862182617,1.961260199546814,2.8570168,-0.28008172,95.493645,111.23178999999999,-6.333476999999999,STN
7047916000000.0,3.1060633659362793,-1.6006354093551636,-7.3111443519592285,-2.8987350463867188,2.104724645614624,2.4587326000000003,-0.25686884,95.87434,109.87224599999999,-6.1224527,STN
7047921000000.0,3.1110687255859375,-1.5891666412353516,-7.457368850708008,-2.573789119720459,2.22564959526062,2.1627683999999996,-0.36468655,96.21556,108.44158,-5.897253,STN
7047926000000.0,3.116072416305542,-1.5626813173294067,-7.645854949951172,-2.2249395847320557,2.317699909210205,1.3356569,-0.47128254,96.30263000000001,107.11925500000001,-5.772578,STN
7047930700000.0,3.121076822280884,-1.5157679319381714,-7.850709915161133,-1.8637869358062744,2.3925716876983643,0.32589662,-0.70188415,96.1811,105.65805,-5.582873,STN
7047936000000.0,3.126081705093384,-1.4397739171981812,-8.032350540161133,-1.5081868171691895,2.442227602005005,-0.68844515,-0.8924741,95.82683,104.38032,-5.4375777,STN
7047940700000.0,3.131089448928833,-1.340989589691162,-8.172471046447754,-1.1722445487976074,2.4733667373657227,-1.6319264999999998,-1.0164796999999999,95.10624,102.95715,-5.2359184999999995,STN
7047946000000.0,3.136091709136963,-1.2252485752105713,-8.259536743164062,-0.8658888936042786,2.491940498352051,-2.515543,-1.0827586999999999,94.12303,101.63664,-5.0478473,STN
7047950600000.0,3.1410927772521973,-1.0938420295715332,-8.289939880371094,-0.6006151437759399,2.5018904209136963,-3.3478470000000002,-1.0922271000000001,92.85753000000001,100.34019,-4.807014499999999,STN
7047956000000.0,3.1460957527160645,-0.9486258029937744,-8.2557373046875,-0.3976764380931854,2.5059711933135986,-4.1016544999999995,-1.044885,91.382416,99.11474,-4.5868998,STN
7047960600000.0,3.1510977745056152,-0.7982891201972961,-8.168519973754883,-0.28835952281951904,2.50449538230896,-4.6120324,-0.9230174000000001,89.705894,98.02538,-4.3707769999999995,STN
7047966000000.0,3.1560986042022705,-0.6512404680252075,-8.038961410522461,-0.30470430850982666,2.4972872734069824,-4.629748,-0.79320854,87.981186,96.991776,-4.16031,STN
7047971000000.0,3.161102771759033,-0.5226953625679016,-7.880005359649658,-0.4366679787635803,2.4835290908813477,-4.144415400000001,-0.6814201999999999,86.44563000000001,96.071945,-3.9129848,STN
7047976000000.0,3.166105031967163,-0.4305078983306885,-7.708037376403809,-0.6692740321159363,2.460916757583618,-3.4715470999999996,-0.6264423000000001,84.97918,95.22299,-3.6670625,STN
7047981000000.0,3.1711061000823975,-0.37296897172927856,-7.52086877822876,-0.9634454250335693,2.42743182182312,-2.81334,-0.6035349,83.91535999999999,94.69425,-3.4291123999999997,STN
7047986000000.0,3.1761093139648438,-0.34876763820648193,-7.3159260749816895,-1.2797784805297852,2.381456136703491,-2.2675319,-0.5839871999999999,83.0179,94.226326,-3.1894138,STN
7047991000000.0,3.181110143661499,-0.34710195660591125,-7.097479820251465,-1.6048651933670044,2.3225321769714355,-1.8179349999999999,-0.5681046999999999,82.38968,94.191895,-3.115697,STN
7047995700000.0,3.1861116886138916,-0.35618025064468384,-6.8696184158325195,-1.9237897396087646,2.2502758502960205,-1.391551,-0.58032197,81.92376999999999,94.21516,-3.0343206,STN
7048001000000.0,3.1911120414733887,-0.3662571609020233,-6.633102893829346,-2.2349557876586914,2.166292905807495,-0.9410379000000001,-0.5882632,81.705215,94.45279000000001,-3.0340521000000003,STN
7048005700000.0,3.1961138248443604,-0.3647250533103943,-6.388306140899658,-2.5363330841064453,2.071582555770874,-0.42516220000000005,-0.5830709,81.6341,94.76924,-3.0267324,STN
7048011000000.0,3.2011115550994873,-0.3469114899635315,-6.1396379470825195,-2.816826105117798,1.9691743850708008,-0.0036651915999999997,-0.58001655,81.71242,95.192764,-3.0204415,STN
7048015600000.0,3.2061123847961426,-0.3038703203201294,-5.892862319946289,-3.057922601699829,1.8607646226882935,0.26267207,-0.5934556,81.89365,95.69806,-3.002234,STN
7048021000000.0,3.2111144065856934,-0.2425442337989807,-5.6552348136901855,-3.2605178356170654,1.7441500425338745,0.34147367,-0.6020076999999999,82.15703,96.29878000000001,-2.9458130000000002,STN
7048025600000.0,3.216115713119507,-0.1768975555896759,-5.443519592285156,-3.423633098602295,1.6252696514129639,0.4709771,-0.5879578000000001,82.509,96.95406,-2.8805819,STN
7048031000000.0,3.2211151123046875,-0.10720613598823547,-5.256256103515625,-3.5495445728302,1.4943150281906128,0.59589905,-0.48930305,82.86093000000001,97.63533000000001,-2.752351,STN
7048036000000.0,3.2261204719543457,-0.03345751389861107,-5.092538833618164,-3.639373302459717,1.3565036058425903,0.7528914000000001,-0.26633725,83.26436,98.37149000000001,-2.655575,STN
7048041000000.0,3.2311196327209473,0.02481439709663391,-4.999406814575195,-3.691248655319214,1.2235298156738281,0.8854492,-0.027794369,83.71093,99.161575,-2.575143,STN
7048046000000.0,3.2361202239990234,0.029307041317224503,-5.074742317199707,-3.6959264278411865,1.1076369285583496,0.95386606,0.14049901,84.19200000000001,99.97993000000001,-2.5282667,STN
7048051000000.0,3.241119146347046,-0.010353860445320606,-5.303092002868652,-3.6747734546661377,1.0126512050628662,0.74128497,0.25473082,84.67256,100.54293,-2.5140767000000004,STN
7048056000000.0,3.246124505996704,-0.07610920816659927,-5.668148517608643,-3.678776979446411,0.9323800206184387,0.17837265,0.35185838,85.08067,101.09559,-2.5553322,STN
7048060700000.0,3.2511231899261475,-0.15470117330551147,-6.13509464263916,-3.7054450511932373,0.8560774326324463,-0.79259765,0.44318274,85.24374,101.39188399999999,-2.74194,STN
