timestamp,rel_time,acc_x,acc_y,acc_z,gyro_x,gyro_y,gyro_z,azimuth,pitch,roll,label
0.0,0.0,0.0,0.0,0.0,0.0,-0.016798794,0.013439035,259.76376,-58.313618000000005,29.924553000000003,STD
60966543000.0,1.4748754438187461e-05,-0.001264864462427795,0.02939053252339363,-6.243984535103664e-05,-5.115920430398546e-05,-0.015577064,0.004276057,260.0319,-57.681637,30.521967,STD
181992230000.0,7.422036287607625e-05,-0.003868429223075509,0.08776062726974487,-0.00029228959465399384,-0.00011088013707194477,-0.0033597588,0.016493361,260.29663,-57.0611,31.110259999999997,STD
361295000000.0,0.0002064421132672578,-0.007861057296395302,0.17427609860897064,-0.0007875376613810658,-0.00017224847397301346,0.002443461,0.015577064,260.57162,-56.459225,31.682254999999998,STD
596281260000.0,0.0004387018852867186,-0.013274610973894596,0.28771114349365234,-0.001643436262384057,-0.0003709703451022506,-0.002443461,0.014660766,260.8478,-55.86963000000001,32.243959999999994,STD
883635700000.0,0.0007938386988826096,-0.020112859085202217,0.4264882504940033,-0.0029395073652267456,-0.0006184141966514289,0.00580322,0.005192355,261.12112,-55.299442000000006,32.78868,STD
1219431900000.0,0.0012976682046428323,-0.027993185445666313,0.5886504054069519,-0.004507380537688732,-0.0010706244502216578,0.007330383,0.011301007,261.40237,-54.7251,33.3385,STD
1599256300000.0,0.001963783521205187,-0.03663349896669388,0.7720290422439575,-0.006235284730792046,-0.001454999903216958,0.014049901000000002,0.009773844,261.6837,-54.172237,33.869785,STD
2018340900000.0,0.0028122016228735447,-0.04584474489092827,0.9743087291717529,-0.008088097907602787,-0.001742816879414022,0.01740966,0.017715093,261.9779,-53.60425,34.418285,STD
2471695200000.0,0.003852810012176633,-0.05546047165989876,1.1930712461471558,-0.010034295730292797,-0.0022351271472871304,0.017104227,0.009773844,262.2763,-53.056625,34.94814,STD
2954233400000.0,0.005095994099974632,-0.0653996393084526,1.426161289215088,-0.011909233406186104,-0.0025287335738539696,0.012217305,0.0076358155,262.57825,-52.522909999999996,35.468723,STD
3460889600000.0,0.0065472740679979324,-0.07556041330099106,1.6713142395019531,-0.013602721504867077,-0.0030678650364279747,0.013133603,0.008552114,262.88312,-52.00375,35.97487,STD
3986721000000.0,0.008208224549889565,-0.0862124115228653,1.9260950088500977,-0.015059267170727253,-0.0035609654150903225,0.009468411,0.014660766,263.20367000000005,-51.50345,36.465282,STD
4526994000000.0,0.010083168745040894,-0.09748956561088562,2.1882057189941406,-0.016223201528191566,-0.003946837969124317,0.01282817,0.016798794,263.52667,-51.01775,36.94258,STD
5077251700000.0,0.012162424623966217,-0.10918118059635162,2.4553065299987793,-0.017262257635593414,-0.004700221586972475,0.008246681,0.015577064,263.8599,-50.546634999999995,37.406933,STD
5633364500000.0,0.014465381391346455,-0.12118848413228989,2.7253451347351074,-0.018216731026768684,-0.005206383764743805,0.007941248,0.0067195175,264.19635,-50.092506,37.858067,STD
6191566000000.0,0.01694304868578911,-0.13339845836162567,2.996476650238037,-0.019096000120043755,-0.005564180668443441,0.008246681,0.01282817,264.53796,-49.64736,38.30148,STD
6748471000000.0,0.019612858071923256,-0.14576785266399384,3.2670724391937256,-0.019879335537552834,-0.005813274998217821,0.0033597588,0.005497787,264.8894,-49.22186,38.7285,STD
7301083700000.0,0.022464046254754066,-0.15858931839466095,3.5354909896850586,-0.02050456777215004,-0.006283272989094257,-0.0033597588,0.0036651915999999997,265.24655,-48.80559,39.148518,STD
7846791000000.0,0.025487424805760384,-0.17198416590690613,3.8003721237182617,-0.020938590168952942,-0.0063014705665409565,0.004581489,0.010079277,265.60645,-48.40305,39.55802,STD
8383352500000.0,0.02867404744029045,-0.18547482788562775,4.06050968170166,-0.021482892334461212,-0.006463161204010248,0.0061086523,0.0067195175,265.97375,-48.031240000000004,39.938984000000005,STD
8908880000000.0,0.03201502934098244,-0.19858099520206451,4.314869403839111,-0.022444259375333786,-0.00704956566914916,0.0061086523,0.010079277,266.34427,-47.667324,40.314133,STD
9421813000000.0,0.03549824655056,-0.21126483380794525,4.562700271606445,-0.023815548047423363,-0.007417112588882446,0.018020526000000002,0.007941248,266.71783,-47.312509999999996,40.68169,STD
9920894000000.0,0.03911741450428963,-0.22349412739276886,4.803390026092529,-0.025597790256142616,-0.008066770620644093,0.017715093,0.010690141499999998,267.1021,-46.96482,41.043490000000006,STD
10405138000000.0,0.042869437485933304,-0.23490047454833984,5.036598205566406,-0.027790606021881104,-0.009107081219553947,0.016493361,0.006414085,267.4939,-46.625690000000006,41.397636,STD
10873805000000.0,0.046725381165742874,-0.24529486894607544,5.26209020614624,-0.030342919752001762,-0.009870045818388462,0.020463986,0.0027488936,267.89078,-46.297047,41.743629999999996,STD
11326374000000.0,0.0506884902715683,-0.25451788306236267,5.480001926422119,-0.03745849058032036,-0.010272474028170109,0.026267206,0.009773844,268.29712,-45.971084999999995,42.089065999999995,STD
11762510000000.0,0.054748814553022385,-0.26249420642852783,5.690456867218018,-0.052065860480070114,-0.010880913585424423,0.029321532999999997,0.008857545999999999,268.7117,-45.658443,42.422577000000004,STD
12182046000000.0,0.05889732763171196,-0.2698810398578644,5.8928632736206055,-0.06607381999492645,-0.011644561775028706,0.032070424,0.016187929,269.13495,-45.335926,42.768227,STD
12584951000000.0,0.06316771358251572,-0.27723050117492676,6.086735725402832,-0.07211922109127045,-0.012497981078922749,0.02321288,0.01740966,269.57,-45.02608,43.103466,STD
12971319000000.0,0.06746995449066162,-0.28467699885368347,6.27276611328125,-0.07041576504707336,-0.013013715855777264,0.026267206,0.017104227,270.04593,-44.684315000000005,43.478671999999996,STD
13341338000000.0,0.07183970510959625,-0.29255589842796326,6.451672554016113,-0.057073723524808884,-0.013949811458587646,0.017104227,0.016493361,270.539,-44.354209999999995,43.84424,STD
13695279000000.0,0.07627039402723312,-0.3007635474205017,6.623072147369385,-0.04022619128227234,-0.014277225360274315,0.019242255,0.011301007,271.00427,-44.07373,44.156384,STD
14033482000000.0,0.08075892180204391,-0.3092038035392761,6.786611080169678,-0.02807171642780304,-0.01443562749773264,0.017715093,0.017104227,271.48206,-43.79954,44.463566,STD
14356337000000.0,0.08529508858919144,-0.3178502917289734,6.942492961883545,-0.02035793475806713,-0.014447074383497238,0.016493361,0.01282817,271.91427999999996,-43.591553000000005,44.69716,STD
14664278000000.0,0.08987858891487122,-0.3266996443271637,7.090932369232178,-0.01697588339447975,-0.014426781795918941,0.016798794,0.008246681,272.35332999999997,-43.389379999999996,44.92644,STD
14957766000000.0,0.0944996103644371,-0.33539441227912903,7.232357978820801,-0.012757365591824055,-0.014188003726303577,0.0070249503,0.014049901000000002,272.8036,-43.180634000000005,45.165397999999996,STD
15237287000000.0,0.09916232526302338,-0.34342676401138306,7.367301940917969,-3.7600209907395765e-05,-0.014133681543171406,0.004276057,0.008246681,273.26025,-42.983505,45.39309,STD
15503340000000.0,0.10385309904813766,-0.35048043727874756,7.495716094970703,0.011276870034635067,-0.013955648988485336,0.014355333500000001,0.019242255,273.76108,-42.756035,45.659744,STD
15756434000000.0,0.10857760906219482,-0.3559775948524475,7.617390155792236,0.0055443476885557175,-0.013817969709634781,0.003970624,0.009773844,274.28247000000005,-42.544765000000005,45.91247,STD
15997080000000.0,0.11332719773054123,-0.3602994680404663,7.732823848724365,-0.012774258852005005,-0.013401121832430363,0.008246681,-0.00030543262000000003,274.7527,-42.371265,46.120834,STD
16225788000000.0,0.11810718476772308,-0.36414891481399536,7.842789173126221,-0.03560250625014305,-0.013196063227951527,0.0018325957999999999,0.0030543262,275.23892,-42.203148,46.325596000000004,STD
16443062000000.0,0.12290506809949875,-0.3675588071346283,7.947504043579102,-0.058120884001255035,-0.013097027316689491,-0.0009162978999999999,-0.00030543262000000003,275.8172,-41.99465,46.585297,STD
16649401000000.0,0.1277516782283783,-0.3705224394798279,8.047223091125488,-0.0705801397562027,-0.013002976775169373,-0.004581489,0.004581489,276.40707000000003,-41.792904,46.839096000000005,STD
16845291000000.0,0.1325870305299759,-0.37311437726020813,8.14211368560791,-0.07520584017038345,-0.013009829446673393,0.0018325957999999999,0.011911871999999999,277.03436,-41.575336,47.11289,STD
17031207000000.0,0.13744328916072845,-0.3753215968608856,8.232425689697266,-0.07138127088546753,-0.013224978931248188,0.0012217305,0.004276057,277.6773,-41.371845,47.37332,STD
17207612000000.0,0.1423121690750122,-0.37743082642555237,8.3184814453125,-0.061260271817445755,-0.013123731128871441,-0.010079277,0.00580322,278.3249,-41.1767,47.62683,STD
17374954000000.0,0.14719633758068085,-0.38008761405944824,8.400771141052246,-0.04881700500845909,-0.01310815755277872,-0.008857545999999999,0.017715093,278.97757,-40.990555,47.86981,STD
17533664000000.0,0.15212079882621765,-0.3833146393299103,8.479466438293457,-0.034249983727931976,-0.013335083611309528,0.00030543262000000003,0.014355333500000001,279.5363,-40.904434,47.999959999999994,STD
17684159000000.0,0.15702521800994873,-0.3867935836315155,8.553878784179688,-0.021903226152062416,-0.013566394336521626,-0.012217305,0.0009162978999999999,280.11142,-40.82331,48.126514,STD
17826840000000.0,0.16193494200706482,-0.39055556058883667,8.62419605255127,-0.011820279993116856,-0.013333627954125404,-0.020158553,0.004276057,280.68127000000004,-40.738116999999995,48.254115999999996,STD
17962096000000.0,0.16685856878757477,-0.3953779637813568,8.689836502075195,-0.0016108265845105052,-0.013096820563077927,-0.011301007,0.003970624,281.25854,-40.66284,48.371223,STD
18090293000000.0,0.17178545892238617,-0.401337206363678,8.750894546508789,0.00922290701419115,-0.013098767958581448,-0.007330383,0.0070249503,281.8484,-40.591423,48.48535,STD
18211785000000.0,0.17672312259674072,-0.40764573216438293,8.808870315551758,0.02076069824397564,-0.012954973615705967,-0.0018325957999999999,0.009162978,282.4621,-40.504265000000004,48.616271999999995,STD
18326910000000.0,0.18167144060134888,-0.4138867259025574,8.86459732055664,0.033009037375450134,-0.013191131874918938,-0.008246681,0.005497787,283.08725,-40.42364,48.740234,STD
18435992000000.0,0.186621755361557,-0.41887274384498596,8.917281150817871,0.04414089396595955,-0.013787511736154556,0.00061086525,0.009162978,283.70575,-40.342674,48.86253,STD
18539340000000.0,0.19157861173152924,-0.4221799671649933,8.96672248840332,0.05350692570209503,-0.014368743635714054,0.00061086525,0.005192355,284.3392,-40.27129,48.97575,STD
18637245000000.0,0.19653604924678802,-0.42481982707977295,9.01327896118164,0.061431627720594406,-0.01469234935939312,0.0030543262,0.004886922,284.96862999999996,-40.208736,49.078365000000005,STD
18729990000000.0,0.20150040090084076,-0.427584707736969,9.057249069213867,0.06814595311880112,-0.015209783799946308,-0.0015271631,0.0067195175,285.6085,-40.152378000000006,49.174409999999995,STD
18817840000000.0,0.20646525919437408,-0.43046221137046814,9.098769187927246,0.07373030483722687,-0.015651224181056023,-0.004276057,0.004886922,286.2547,-40.11102,49.25521,STD
18901048000000.0,0.21143664419651031,-0.43345242738723755,9.13796329498291,0.07822540402412415,-0.015760913491249084,-0.01282817,0.009162978,286.9118,-40.073055,49.33256,STD
18979857000000.0,0.2164103090763092,-0.43588170409202576,9.175368309020996,0.08139146864414215,-0.016173318028450012,-0.010690141499999998,0.014049901000000002,287.57599999999996,-40.03637,49.407246,STD
19054494000000.0,0.22138674557209015,-0.43742817640304565,9.211297035217285,0.08313291519880295,-0.016531413421034813,-0.014660766,0.010995574,288.25345,-40.00693,49.47504,STD
19125180000000.0,0.22636710107326508,-0.43861207365989685,9.245659828186035,0.0828150287270546,-0.0165293887257576,-0.022907447,0.004276057,288.94574,-39.975758,49.545288,STD
19192118000000.0,0.2313605397939682,-0.43973323702812195,9.278448104858398,0.08004920184612274,-0.017096178606152534,-0.026267206,0.004886922,289.64392000000004,-39.94872,49.609770000000005,STD
19255509000000.0,0.23634245991706848,-0.4407949447631836,9.309722900390625,0.0751764252781868,-0.017112858593463898,-0.03604105,0.009162978,290.36142,-39.92889,49.66794,STD
19315535000000.0,0.24132774770259857,-0.4418003261089325,9.339576721191406,0.06818034499883652,-0.017258688807487488,-0.028710667000000002,0.013439035,291.07907,-39.913990000000005,49.71867,STD
19372377000000.0,0.2463134378194809,-0.44300103187561035,9.367838859558105,0.0593835785984993,-0.017413035035133362,-0.032375857,0.01038471,291.8062,-39.912796,49.755306,STD
19426200000000.0,0.25130048394203186,-0.44490644335746765,9.394087791442871,0.049260854721069336,-0.0173965971916914,-0.029626964,0.009468411,292.53265,-39.915302000000004,49.786358,STD
19477165000000.0,0.25628581643104553,-0.4471398591995239,9.418684005737305,0.03800997510552406,-0.017381031066179276,-0.03634648,0.0061086523,293.30786,-39.909256,49.827220000000004,STD
19525423000000.0,0.26127418875694275,-0.44899532198905945,9.442233085632324,0.025887781754136086,-0.017463868483901024,-0.03176499,0.006414085,294.08203,-39.90876,49.860252,STD
19571115000000.0,0.2662622034549713,-0.4504958987236023,9.464786529541016,0.012957856990396976,-0.01754230260848999,-0.030543262,0.00061086525,294.86713,-39.92992,49.870064,STD
19614377000000.0,0.27125105261802673,-0.451659232378006,9.486397743225098,-0.000743518874514848,-0.017502708360552788,-0.02321288,0.004276057,295.65152,-39.95389,49.874759999999995,STD
19655340000000.0,0.27624082565307617,-0.4525030851364136,9.50711727142334,-0.01517613884061575,-0.01743268594145775,-0.025961772999999997,0.0033597588,296.44928,-39.983000000000004,49.872368,STD
19694122000000.0,0.28123271465301514,-0.4530431628227234,9.526993751525879,-0.030308056622743607,-0.016910890117287636,-0.020158553,0.004581489,297.24362,-40.016234999999995,49.863564000000004,STD
19730843000000.0,0.28622162342071533,-0.45348984003067017,9.545784950256348,-0.04617689549922943,-0.016872381791472435,-0.01740966,-0.0015271631,298.04427999999996,-40.05707,49.84486,STD
19765610000000.0,0.2912161350250244,-0.45416468381881714,9.563072204589844,-0.0629647746682167,-0.01672203466296196,-0.023823743999999997,0.005192355,298.8492,-40.099632,49.822586,STD
19798526000000.0,0.29620659351348877,-0.45481812953948975,9.578957557678223,-0.0803941860795021,-0.016758665442466736,-0.02321288,0.0012217305,299.68515,-40.141205,49.79967,STD
19829690000000.0,0.30120107531547546,-0.4549511969089508,9.593511581420898,-0.09810979664325714,-0.017281480133533478,-0.014660766,0.0018325957999999999,300.52246,-40.18547,49.771491999999995,STD
19859197000000.0,0.3061945140361786,-0.4545404613018036,9.607060432434082,-0.11579114198684692,-0.01766256056725979,-0.022907447,0.004581489,301.3841,-40.228302,49.74277,STD
19887133000000.0,0.31119081377983093,-0.4533560574054718,9.620682716369629,-0.13226592540740967,-0.017649086192250252,-0.020463986,0.0036651915999999997,302.2389,-40.27813,49.7041,STD
19913580000000.0,0.3161855638027191,-0.451837956905365,9.634347915649414,-0.14723645150661469,-0.01766887493431568,-0.026267206,-0.003970624,303.10925,-40.33136,49.659496000000004,STD
19938620000000.0,0.3211807906627655,-0.4511301815509796,9.648015022277832,-0.15970763564109802,-0.01758997142314911,-0.038789943,-0.0036651915999999997,303.9822,-40.388783000000004,49.607903,STD
19962326000000.0,0.32617804408073425,-0.45105627179145813,9.661628723144531,-0.16976509988307953,-0.01714097149670124,-0.036957346,-0.0015271631,304.8366,-40.465503999999996,49.534096000000005,STD
19984770000000.0,0.331175297498703,-0.4508657157421112,9.67487907409668,-0.1773575395345688,-0.0171390138566494,-0.03848451,0.0061086523,305.69827000000004,-139.45418,49.45387,STD
20006018000000.0,0.3361721932888031,-0.4505648612976074,9.687785148620605,-0.18261848390102386,-0.01751147396862507,-0.04337143,0.0021380284,306.53432999999995,-139.34515,49.342209999999994,STD
20026136000000.0,0.3411700427532196,-0.4501590132713318,9.700366973876953,-0.18566279113292694,-0.0178478192538023,-0.043982297000000004,0.0076358155,307.36908,-139.23678999999998,49.228590000000004,STD
20045183000000.0,0.3461652100086212,-0.44965535402297974,9.71263599395752,-0.1866343915462494,-0.017775647342205048,-0.04062254,0.007941248,308.20367000000005,-139.12166000000002,49.105537,STD
20063214000000.0,0.35116326808929443,-0.4498746991157532,9.723339080810547,-0.18717075884342194,-0.018114201724529266,-0.040011674,0.010690141499999998,309.03912,-139.00451999999999,48.977947,STD
20080285000000.0,0.3561588227748871,-0.45083102583885193,9.732473373413086,-0.18742898106575012,-0.018483547493815422,-0.032375857,0.01282817,309.86896,-138.88329,48.843655,STD
20096448000000.0,0.36115825176239014,-0.4513913094997406,9.741230010986328,-0.1859600991010666,-0.018947144970297813,-0.036651913,0.014966198,310.67902000000004,-138.75238000000002,48.697903000000004,STD
20111748000000.0,0.3661566972732544,-0.4514608383178711,9.749750137329102,-0.18272584676742554,-0.019776664674282074,-0.04337143,0.0027488936,311.48544,-138.61421,48.542716999999996,STD
20126236000000.0,0.37115421891212463,-0.4516538381576538,9.75744342803955,-0.17831768095493317,-0.020285295322537422,-0.03634648,0.014660766,312.28283999999996,-138.48053000000002,48.38962,STD
20139950000000.0,0.3761531710624695,-0.4522179365158081,9.764091491699219,-0.1730002760887146,-0.02057151310145855,-0.02107485,0.012217305,313.07764,-138.33557,48.22314,STD
20152937000000.0,0.38118281960487366,-0.4531750977039337,9.76968002319336,-0.16669683158397675,-0.020630888640880585,-0.028405233999999998,0.01282817,313.8603,-138.18504,48.049240000000005,STD
20165230000000.0,0.3861767053604126,-0.4544120728969574,9.774419784545898,-0.15973679721355438,-0.020963799208402634,-0.028099801,0.01038471,314.63156000000004,-138.02968,47.868996,STD
20176867000000.0,0.3911745250225067,-0.4557138681411743,9.779126167297363,-0.15074339509010315,-0.021637054160237312,-0.03023783,0.014355333500000001,315.3985,-137.86737,47.67977,STD
20187886000000.0,0.39616912603378296,-0.4569462835788727,9.78422737121582,-0.13925950229167938,-0.022290710359811783,-0.01985312,0.015271631,316.15808,-137.70067,47.484463,STD
20198317000000.0,0.40116724371910095,-0.45811304450035095,9.789718627929688,-0.12534382939338684,-0.022844430059194565,-0.02565634,0.015577064,316.91037,-137.53063999999998,47.284405,STD
20208192000000.0,0.40616610646247864,-0.4592176079750061,9.795573234558105,-0.1091548278927803,-0.02392205223441124,-0.013133603,0.025961772999999997,317.6494,-137.36067,47.08372,STD
20217541000000.0,0.4111647307872772,-0.46046319603919983,9.800268173217773,-0.09233124554157257,-0.02512129582464695,-0.009468411,0.02443461,318.39227,-137.18488,46.8748,STD
20226394000000.0,0.4161619544029236,-0.46190160512924194,9.80341625213623,-0.07536737620830536,-0.026712387800216675,-0.016798794,0.02107485,319.1329,-137.00835,46.663883,STD
20234774000000.0,0.42115968465805054,-0.4612799286842346,9.808175086975098,-0.0602121464908123,-0.02812103182077408,-0.029626964,0.021991148999999998,319.83832,-136.81677,46.43969,STD
20242707000000.0,0.4261634349822998,-0.4581057131290436,9.815265655517578,-0.0472748763859272,-0.029080240055918694,-0.013744468000000001,0.02321288,320.53342000000004,-136.62209,46.21179,STD
20250220000000.0,0.43116146326065063,-0.4542575776576996,9.822670936584473,-0.036020562052726746,-0.029906949028372765,-0.007330383,0.026572637000000003,321.22977000000003,-136.42668,45.981735,STD
20257330000000.0,0.43615904450416565,-0.45087066292762756,9.829169273376465,-0.02613437920808792,-0.031568560749292374,-0.003970624,0.023518313,321.9191,-136.22723,45.747170000000004,STD
20264065000000.0,0.4411576986312866,-0.4479321241378784,9.834129333496094,-0.017578713595867157,-0.03279981017112732,0.004276057,0.028405233999999998,322.5976,-136.02594,45.50799,STD
20270440000000.0,0.44615820050239563,-0.445425808429718,9.83717155456543,-0.010305894538760185,-0.033965446054935455,0.0076358155,0.027794369,323.27472,-135.81966,45.263306,STD
20276476000000.0,0.4511767625808716,-0.44273775815963745,9.838663101196289,-0.004018099047243595,-0.03531312197446823,0.015882496,0.026267206,323.94552999999996,-135.61226000000002,45.016216,STD
20282188000000.0,0.45617398619651794,-0.43975311517715454,9.83897590637207,0.001494776108302176,-0.03665408492088318,0.019242255,0.028405233999999998,324.61542000000003,-135.40417,44.76699,STD
20287597000000.0,0.46117284893989563,-0.4364156126976013,9.838150978088379,0.006043523550033569,-0.03785847872495651,0.023823743999999997,0.02321288,325.28406,-135.19637,44.516684999999995,STD
20292718000000.0,0.4661710858345032,-0.432725727558136,9.836309432983398,0.009554484859108925,-0.03890102729201317,0.036651913,0.021380282999999996,325.94647000000003,-134.9883,44.265465,STD
20297567000000.0,0.47116830945014954,-0.4287353754043579,9.834056854248047,0.011324061080813408,-0.039822906255722046,0.056505035999999995,0.024129177,326.60165,-134.78123,44.014503000000005,STD
20302157000000.0,0.476167231798172,-0.42447152733802795,9.831681251525879,0.01105471607297659,-0.040809597820043564,0.058948494000000004,0.02321288,327.25616,-134.57083,43.758953000000005,STD
20306503000000.0,0.4811660051345825,-0.42037007212638855,9.829691886901855,0.009150626137852669,-0.04172743111848831,0.07086037,0.024740042,327.89865,-134.36331,43.506115,STD
20310617000000.0,0.48616456985473633,-0.4167470335960388,9.828458786010742,0.005918807815760374,-0.042270805686712265,0.06811147,0.032070424,328.5441,-134.15569,43.251346999999996,STD
20314514000000.0,0.49116235971450806,-0.4135763645172119,9.8279390335083,0.001433164463378489,-0.04265500605106354,0.0888809,0.029626964,329.20257999999995,-133.95982,43.006634000000005,STD
20318203000000.0,0.4961616098880768,-0.4108360707759857,9.82810115814209,-0.004251217003911734,-0.04277457296848297,0.08582657,0.034513887,329.86922999999996,-133.76613999999998,42.761340000000004,STD
20321694000000.0,0.501160740852356,-0.40817928314208984,9.828645706176758,-0.011087732389569283,-0.042529668658971786,0.08399397,0.037873644,330.52405,-133.56933999999998,42.512859999999996,STD
20325002000000.0,0.5061589479446411,-0.4054199159145355,9.829404830932617,-0.019024871289730072,-0.04211876541376114,0.079107046,0.043676864,331.17852999999997,-133.37242,42.262974,STD
20328133000000.0,0.5111584067344666,-0.40377628803253174,9.830140113830566,-0.027150806039571762,-0.041583262383937836,0.076358154,0.03176499,331.8505,-133.17366,42.00678,STD
20331096000000.0,0.5161574482917786,-0.40415504574775696,9.830667495727539,-0.03475956991314888,-0.0407995842397213,0.0720821,0.03940081,332.5226,-132.97986,41.753975,STD
20333902000000.0,0.5211763978004456,-0.40659648180007935,9.830986022949219,-0.041872289031744,-0.040432047098875046,0.063224554,0.039095376,333.1838,-132.77045,41.484627,STD
20336560000000.0,0.5261756181716919,-0.4107096195220947,9.831130981445312,-0.048527613282203674,-0.03967716544866562,0.06566802,0.051923547,333.83984,-132.56613000000002,41.218740000000004,STD
20339076000000.0,0.531173825263977,-0.4165344834327698,9.831100463867188,-0.054744306951761246,-0.039808932691812515,0.053450707,0.052534412999999995,334.50626,-132.35538,40.947520000000004,STD
20341458000000.0,0.5361720323562622,-0.42398643493652344,9.830903053283691,-0.060545459389686584,-0.04003134369850159,0.058337633,0.059253927000000005,335.16235,-132.14911,40.679893,STD
20343712000000.0,0.5411705374717712,-0.43239283561706543,9.830694198608398,-0.0663745254278183,-0.04003029689192772,0.03359759,0.049480084,335.82802999999996,-131.93558000000002,40.402485,STD
20345847000000.0,0.546169638633728,-0.4411129355430603,9.830623626708984,-0.07265466451644897,-0.03993164002895355,0.022296581,0.048258353,336.48355,-131.72386,40.127716,STD
20347869000000.0,0.551167905330658,-0.45012611150741577,9.830683708190918,-0.07935789227485657,-0.040407948195934296,0.018325957,0.051923547,337.18097,-131.516,39.851172999999996,STD
20349784000000.0,0.5561657547950745,-0.4594176113605499,9.830866813659668,-0.08646256476640701,-0.04063098877668381,0.014660766,0.04734206,337.8753,-131.30365,39.56769,STD
20351596000000.0,0.5611646771430969,-0.4687390625476837,9.83146858215332,-0.09323225170373917,-0.04092353209853172,0.01740966,0.052534412999999995,338.57,-131.09505,39.2879,STD
20353310000000.0,0.5661635398864746,-0.4778190851211548,9.832803726196289,-0.09887514263391495,-0.0410214327275753,0.015882496,0.04917465,339.26,-130.88046,39.000473,STD
20354936000000.0,0.5711599588394165,-0.48665890097618103,9.83458137512207,-0.1027228981256485,-0.04104900732636452,0.02076942,0.04337143,339.9602,-130.66794,38.712165999999996,STD
20356476000000.0,0.5761595368385315,-0.49526557326316833,9.836502075195312,-0.10398620367050171,-0.04112394526600838,0.033292156,0.054061572999999995,340.65216000000004,-130.45588999999998,38.424446,STD
20357933000000.0,0.5811561942100525,-0.5034269690513611,9.838408470153809,-0.1034732460975647,-0.041259996592998505,0.007330383,0.05467244,341.34476,-130.23334,38.124454,STD
20359313000000.0,0.5861552357673645,-0.5106396675109863,9.839957237243652,-0.10273075848817825,-0.04083536937832832,-0.004581489,0.05467244,342.02197,-130.01169,37.826122,STD
20360620000000.0,0.5911599397659302,-0.5171879529953003,9.841360092163086,-0.10146454721689224,-0.040872860699892044,-0.007330383,0.0421497,342.69077000000004,-129.77868999999998,37.520472999999996,STD
20361857000000.0,0.5961596965789795,-0.5236233472824097,9.843042373657227,-0.09908529371023178,-0.041136234998703,-0.010690141499999998,0.04520403,343.3588,-129.54855,37.21564,STD
20363027000000.0,0.601158082485199,-0.5299548506736755,9.844993591308594,-0.09563741087913513,-0.04133674129843712,-0.006414085,0.049785517,344.01294,-129.31238000000002,36.906216,STD
20364137000000.0,0.6061561703681946,-0.5361889600753784,9.847200393676758,-0.09117328375577927,-0.04102196544408798,-0.00580322,0.03940081,344.66226,-129.07113999999999,36.59082,STD
20365187000000.0,0.6111612319946289,-0.5423015356063843,9.849650382995605,-0.08573254942893982,-0.040886737406253815,0.00061086525,0.04520403,345.30908,-128.83255,36.281918,STD
20366181000000.0,0.6161606311798096,-0.5478530526161194,9.852205276489258,-0.07964038103818893,-0.040677327662706375,0.00580322,0.043982297000000004,345.94818,-128.58844,35.9662,STD
20367123000000.0,0.6212002635002136,-0.5528720021247864,9.854799270629883,-0.07274184376001358,-0.040267474949359894,0.018936822,0.049785517,346.56705,-128.3388,35.64959,STD
20368014000000.0,0.6261972784996033,-0.5578395128250122,9.856390953063965,-0.06513078510761261,-0.03981435298919678,0.01038471,0.04734206,347.1851,-128.0849,35.32772,STD
20368860000000.0,0.631193220615387,-0.562795877456665,9.85688304901123,-0.05665743350982666,-0.03839246183633804,0.017715093,0.047647487,347.7892,-127.83252,35.0112,STD
20369658000000.0,0.6361905336380005,-0.5678545832633972,9.856229782104492,-0.04818807542324066,-0.03743700310587883,0.029321532999999997,0.04184427,348.38852,-127.57383999999999,34.6908,STD
20370415000000.0,0.6411871314048767,-0.573016881942749,9.854491233825684,-0.0397968590259552,-0.03658129647374153,0.028099801,0.048258353,348.98535,-127.319626,34.372386999999996,STD
20371133000000.0,0.6461832523345947,-0.578277587890625,9.851725578308105,-0.03147931769490242,-0.0352991484105587,0.03176499,0.05161811400000001,349.56528,-127.06123000000001,34.052597,STD
20371812000000.0,0.6511774063110352,-0.583629310131073,9.847992897033691,-0.023233698680996895,-0.034785255789756775,0.03848451,0.052534412999999995,350.13998,-126.80031000000001,33.733265,STD
20372456000000.0,0.6561770439147949,-0.5889659523963928,9.844461441040039,-0.014750746078789234,-0.03397320210933685,0.03940081,0.04642576,350.7097,-126.53996000000001,33.411896,STD
20373066000000.0,0.6611738801002502,-0.5942574739456177,9.841358184814453,-0.006002185866236687,-0.032797493040561676,0.06383542,0.05497787,351.26605,-126.281494,33.096565000000005,STD
20373643000000.0,0.6661725044250488,-0.600089967250824,9.838109970092773,0.003050062572583556,-0.031521666795015335,0.052534412999999995,0.05009095,351.82697,-126.01959,32.775271999999994,STD
20374190000000.0,0.6711682081222534,-0.6066410541534424,9.83452033996582,0.012391934171319008,-0.03070448897778988,0.04520403,0.04337143,352.37448,-125.75818000000001,32.457542,STD
20374708000000.0,0.6761674880981445,-0.6129066348075867,9.829833984375,0.02026875875890255,-0.029149549081921577,0.03573562,0.05161811400000001,352.9208,-125.49927,32.139915,STD
20375200000000.0,0.6811630725860596,-0.6185894012451172,9.823904037475586,0.026232395321130753,-0.02779141627252102,0.037873644,0.048258353,353.45953,-125.23208000000001,31.817358000000002,STD
20375665000000.0,0.6861635446548462,-0.6239011287689209,9.819107055664062,0.03156358376145363,-0.026570772752165794,0.03023783,0.04917465,353.99893,-124.96615600000001,31.493876,STD
20376105000000.0,0.6911641359329224,-0.6289297938346863,9.816206932067871,0.036736927926540375,-0.024812918156385422,0.022907447,0.05009095,354.53679263638196,-124.70106473014401,31.170068213698396,STD
20376522000000.0,0.6961630582809448,-0.6336904764175415,9.815092086791992,0.041759978979825974,-0.023311518132686615,0.01038471,0.05161811400000001,355.07099999999997,-124.437775,30.848461,STD
20376917000000.0,0.7011639475822449,-0.6381974220275879,9.815689086914062,0.04664244130253792,-0.021483197808265686,0.0061086523,0.048563786,355.60382000000004,-124.17648,30.526284999999998,STD
20377290000000.0,0.7061983346939087,-0.6419386267662048,9.81810474395752,0.04940987005829811,-0.019605817273259163,0.0012217305,0.04520403,356.12927,-123.91168,30.20022,STD
20377644000000.0,0.7111964821815491,-0.6449294090270996,9.82182502746582,0.050046127289533615,-0.017958706244826317,0.00061086525,0.048563786,356.6507,-123.647705,29.875421999999997,STD
20377980000000.0,0.7161953449249268,-0.6471266746520996,9.826995849609375,0.048365458846092224,-0.016187770292162895,0.0009162978999999999,0.053450707,357.16927999999996,-123.37785,29.544724,STD
20378299000000.0,0.721193790435791,-0.6485751867294312,9.83353328704834,0.044500451534986496,-0.014332161284983158,-0.0027488936,0.046120327,357.68422999999996,-123.10533000000001,29.211903000000003,STD
20378600000000.0,0.7261977195739746,-0.6495623588562012,9.839742660522461,0.04078614339232445,-0.01262427493929863,-0.0021380284,0.044593163,358.18994,-122.83327,28.881247,STD
20378886000000.0,0.7311968803405762,-0.6502478718757629,9.844874382019043,0.0382659025490284,-0.01151200383901596,-0.009773844,0.043982297000000004,358.6947,-122.55906999999999,28.548804999999998,STD
20379156000000.0,0.7361955046653748,-0.6511277556419373,9.84899616241455,0.03686171770095825,-0.010800832882523537,-0.0076358155,0.05131268,359.2047,-122.29195,28.219563,STD
20379412000000.0,0.7411953806877136,-0.6524472236633301,9.852168083190918,0.03650527447462082,-0.009509023278951645,0.004581489,0.045814894,359.70804,-122.02287,27.888015999999997,STD
20379655000000.0,0.7461941242218018,-0.6540490984916687,9.854778289794922,0.036397334188222885,-0.008074452169239521,0.002443461,0.04276056599999999,0.20619889,-121.75393999999999,27.5604,STD
20379886000000.0,0.7511931657791138,-0.655813992023468,9.857125282287598,0.035922564566135406,-0.007383704651147127,0.002443461,0.03970624,0.69511986,-121.4834,27.233766999999997,STD
20380104000000.0,0.7561887502670288,-0.6577296853065491,9.859224319458008,0.03510579839348793,-0.007218089420348406,0.014355333500000001,0.03023783,1.1679621,-121.20693999999999,26.903903999999997,STD
20380312000000.0,0.7611867785453796,-0.6597934365272522,9.86108684539795,0.03395729884505272,-0.007338015362620354,0.022602014,0.03970624,1.6395868999999998,-120.93405,26.579690000000003,STD
20380510000000.0,0.7661839127540588,-0.6622130870819092,9.8626708984375,0.03287435695528984,-0.007744542323052883,0.02107485,0.03848451,2.1050692000000004,-120.65573,26.25185,STD
20380696000000.0,0.7711803317070007,-0.6652621626853943,9.863917350769043,0.032354686409235,-0.00822706799954176,0.015882496,0.03604105,2.5662916,-120.380196,25.928373,STD
20380872000000.0,0.7762210369110107,-0.6690353155136108,9.864802360534668,0.03245377540588379,-0.008732710964977741,0.011301007,0.040011674,3.0264485,-120.10835,25.605825,STD
20381040000000.0,0.7812170386314392,-0.6732467412948608,9.865427017211914,0.032973818480968475,-0.01007410604506731,0.014660766,0.047647487,3.4823004999999996,-119.83533,25.285704,STD
20381200000000.0,0.7862090468406677,-0.6774908900260925,9.865965843200684,0.03406284749507904,-0.011702116578817368,-0.004886922,0.05375614,3.9431182999999996,-119.56515,24.965920999999998,STD
20381350000000.0,0.7912052273750305,-0.6809960007667542,9.866731643676758,0.03586304187774658,-0.013243366032838821,-0.017104227,0.06017022599999999,4.3978405,-119.29658,24.651064,STD
20381493000000.0,0.7961982488632202,-0.684464693069458,9.867520332336426,0.038219600915908813,-0.014718755148351192,-0.03481932,0.06750060599999999,4.8609222999999995,-119.02701,24.335037,STD
20381629000000.0,0.8011956214904785,-0.6890122294425964,9.868014335632324,0.04095606505870819,-0.016880551353096962,-0.049480084,0.07452556,5.3235269999999995,-118.75766000000002,24.021729999999998,STD
20381757000000.0,0.8061898350715637,-0.6946704983711243,9.86823558807373,0.04412034526467323,-0.019545679911971092,-0.070554934,0.08124508,5.7857213,-118.489494,23.710426000000002,STD
20381878000000.0,0.811187744140625,-0.7016733288764954,9.868191719055176,0.04787573963403702,-0.022003667429089546,-0.08552113,0.08460484,6.247106,-118.222885,23.401204999999997,STD
20381994000000.0,0.8161821365356445,-0.7099061608314514,9.867903709411621,0.05217094346880913,-0.023777231574058533,-0.10048734,0.09560041,6.716175999999999,-117.96059,23.091839,STD
20382103000000.0,0.8211811184883118,-0.719351589679718,9.867377281188965,0.05699939280748367,-0.025651605799794197,-0.1160644,0.096516706,7.185438,-117.69542,22.781107000000002,STD
20382208000000.0,0.8261848092079163,-0.7297625541687012,9.866954803466797,0.06252018362283707,-0.02780046872794628,-0.15454891,0.105374254,7.6685853,-117.43937,22.475920000000002,STD
20382306000000.0,0.8311928510665894,-0.7405869960784912,9.867523193359375,0.06919918954372406,-0.03012780472636223,-0.17531833,0.10476339,8.14611,-117.18141000000001,22.170149,STD
20382400000000.0,0.8361890912055969,-0.7517246603965759,9.86884593963623,0.07676579058170319,-0.03254271671175957,-0.18997909,0.10812314599999999,8.640769,-116.92048,21.859526000000002,STD
20382489000000.0,0.8411900401115417,-0.7630292773246765,9.869845390319824,0.08418263494968414,-0.03500797972083092,-0.21013765,0.10720685,9.138024,-116.65785,21.546999,STD
20382573000000.0,0.8461951017379761,-0.7746607661247253,9.870441436767578,0.09164844453334808,-0.03760230168700218,-0.22204952,0.10415252,9.633602999999999,-116.38904,21.231522000000002,STD
20382652000000.0,0.8511945009231567,-0.7882495522499084,9.869717597961426,0.10103579610586166,-0.0404815748333931,-0.23579398,0.09590584,10.130434,-116.118164,20.914305,STD
20382728000000.0,0.8561919331550598,-0.8034676909446716,9.8678560256958,0.11217587441205978,-0.043174851685762405,-0.24862215,0.0983493,10.642623,-115.85531,20.604187,STD
20382801000000.0,0.8611918091773987,-0.8184046149253845,9.865828514099121,0.12431170046329498,-0.04587109014391899,-0.26083946,0.08857546,11.151545,-115.58591000000001,20.288956,STD
20382870000000.0,0.8661900162696838,-0.8330181241035461,9.863740921020508,0.13763101398944855,-0.04931889474391937,-0.27488935,0.07880162,11.662103,-115.30646000000002,19.969048,STD
20382935000000.0,0.871187150478363,-0.8471043705940247,9.862016677856445,0.15325908362865448,-0.05313638597726822,-0.28496864,0.07788532,12.169742,-115.02771000000001,19.649994,STD
20382998000000.0,0.8761897087097168,-0.8604722023010254,9.860733032226562,0.17083606123924255,-0.05663648992776871,-0.2959642,0.076358154,12.686113,-114.75018999999999,19.32998,STD
20383057000000.0,0.8811888694763184,-0.872118353843689,9.860274314880371,0.18873794376850128,-0.06073137745261192,-0.30940324,0.06963864,13.200327,-114.46678,19.009117,STD
20383114000000.0,0.8861870169639587,-0.8823295831680298,9.860739707946777,0.2070109099149704,-0.06547073274850845,-0.33017266,0.070554934,13.707748,-114.1758,18.687395000000002,STD
20383168000000.0,0.8911848068237305,-0.8922247290611267,9.862776756286621,0.22590681910514832,-0.07077138870954514,-0.3576616,0.056505035999999995,14.214649,-113.87823,18.360262,STD
20383219000000.0,0.896181583404541,-0.9018201231956482,9.86629867553711,0.24538862705230713,-0.07603371143341064,-0.37720928,0.058337633,14.715489000000002,-113.581276,18.039757,STD
20383267000000.0,0.9011793732643127,-0.9101594090461731,9.870771408081055,0.26446253061294556,-0.0818457379937172,-0.39095375,0.058643065,15.217119,-113.27718,17.71565,STD
20383313000000.0,0.9061790704727173,-0.9172853231430054,9.876065254211426,0.2830934226512909,-0.08785262703895569,-0.4111123,0.054367005999999996,15.721742,-112.97381000000001,17.39118,STD
20383357000000.0,0.9111774563789368,-0.9240314960479736,9.88155746459961,0.3015725910663605,-0.09415792673826218,-0.4297437,0.048258353,16.224161,-112.6614,17.064342,STD
20383399000000.0,0.9161783456802368,-0.9304181337356567,9.887245178222656,0.3199201226234436,-0.1007620170712471,-0.4370741,0.04795292,16.733328,-112.35282,16.745120999999997,STD
20383439000000.0,0.921176016330719,-0.9364644289016724,9.893106460571289,0.3381251096725464,-0.10782802850008011,-0.453262,0.043676864,17.245241,-112.040474,16.423578,STD
20383476000000.0,0.9261749982833862,-0.9421885013580322,9.899140357971191,0.35620900988578796,-0.1149895116686821,-0.45814893,0.03176499,17.75103,-111.726685,16.102688,STD
20383512000000.0,0.9311732649803162,-0.9469879865646362,9.905342102050781,0.374494731426239,-0.12232276797294617,-0.4529566,0.028099801,18.25454,-111.41197,15.785060000000001,STD
20383548000000.0,0.9361685514450073,-0.9508025646209717,9.911699295043945,0.3930211663246155,-0.13038834929466248,-0.46853364,0.025045475,18.760296,-111.09261000000001,15.465198000000001,STD
20383581000000.0,0.941166877746582,-0.9528383016586304,9.917739868164062,0.41275501251220703,-0.1390170156955719,-0.46211955,0.014660766,19.257746,-110.76718999999999,15.14952,STD
20383613000000.0,0.946162223815918,-0.9529614448547363,9.923330307006836,0.4338856339454651,-0.14782065153121948,-0.47128254,0.010995574,19.76016,-110.441505,14.835412,STD
20383642000000.0,0.9511607885360718,-0.9512323141098022,9.92849063873291,0.45639505982398987,-0.1570829302072525,-0.48258355,0.008857545999999999,20.249887,-110.10701999999999,14.522379,STD
20383672000000.0,0.9561573266983032,-0.9477846622467041,9.933246612548828,0.48016223311424255,-0.1673816591501236,-0.48472157,0.009468411,20.735863000000002,-109.77,14.2121525,STD
20383699000000.0,0.961156964302063,-0.9418596029281616,9.936866760253906,0.504566490650177,-0.17825467884540558,-0.48441613,0.004581489,21.225492000000003,-109.43325,13.905589,STD
20383726000000.0,0.9661529064178467,-0.9335055947303772,9.939295768737793,0.5294167995452881,-0.19038759171962738,-0.48472157,-0.0018325957999999999,21.712015,-109.09024,13.601597,STD
20383751000000.0,0.9711521863937378,-0.9234626293182373,9.940800666809082,0.5544865727424622,-0.20343653857707977,-0.48899764,0.0021380284,22.17841,-108.74136000000001,13.308195000000001,STD
20383776000000.0,0.9761531949043274,-0.9119789600372314,9.941484451293945,0.5797022581100464,-0.21758057177066803,-0.50518554,-0.008246681,22.64422,-108.38335,13.011279,STD
20383800000000.0,0.9811525940895081,-0.8991891145706177,9.941231727600098,0.6053740382194519,-0.233282208442688,-0.50854534,-0.01038471,23.104572,-108.02721399999999,12.73429,STD
20383823000000.0,0.9861499071121216,-0.8851779103279114,9.940040588378906,0.6315807104110718,-0.25097933411598206,-0.52015173,-0.022907447,23.56802,-107.66105,12.452733,STN
20383843000000.0,0.9911506175994873,-0.8699491024017334,9.937843322753906,0.6583550572395325,-0.2694912850856781,-0.52442783,-0.03023783,24.02262,-107.2967,12.179382,STN
20383864000000.0,0.9961496591567993,-0.8535904884338379,9.934654235839844,0.6856439113616943,-0.28957220911979675,-0.53023106,-0.03604105,24.478262,-106.919785,11.905036,STN
20383883000000.0,1.0011488199234009,-0.8369088768959045,9.929422378540039,0.7136646509170532,-0.3114640712738037,-0.54611355,-0.046731193,24.926855,-106.5353,11.634226,STN
20383902000000.0,1.0061479806900024,-0.8201186060905457,9.921975135803223,0.742436945438385,-0.33505406975746155,-0.55741453,-0.053145275,25.374159,-106.14475,11.365879,STN
20383921000000.0,1.011148452758789,-0.8041505813598633,9.913228988647461,0.7743368744850159,-0.35992616415023804,-0.5571090999999999,-0.063224554,25.83118,-105.75266,11.108461,STN
20383938000000.0,1.0161478519439697,-0.7892690896987915,9.903535842895508,0.8099542260169983,-0.3860120177268982,-0.5726861999999999,-0.07819075,26.293705,-105.35157,10.849059,STN
20383955000000.0,1.02114737033844,-0.7746379375457764,9.892021179199219,0.8455778956413269,-0.41378408670425415,-0.5766568,-0.09773844,26.744771999999998,-104.93846,10.591869,STN
20383971000000.0,1.0261479616165161,-0.7597006559371948,9.878133773803711,0.8787601590156555,-0.44272932410240173,-0.58093286,-0.1133155,27.1986,-104.51986,10.333518,STN
20383986000000.0,1.0311450958251953,-0.7422897815704346,9.863296508789062,0.9177276492118835,-0.4729316830635071,-0.59315014,-0.13194689,27.655495000000002,-104.07751,10.071213,STN
20384000000000.0,1.0361453294754028,-0.721510112285614,9.848055839538574,0.9658375382423401,-0.5040311813354492,-0.59712076,-0.14660765,28.109890000000004,-103.629684,9.808697,STN
20384015000000.0,1.0411468744277954,-0.6985456943511963,9.83622932434082,1.0198646783828735,-0.5363706946372986,-0.59712076,-0.16737708,28.56455,-103.17678000000001,9.549304,STN
20384030000000.0,1.0461469888687134,-0.6743502616882324,9.830718040466309,1.0772143602371216,-0.5697701573371887,-0.6010914,-0.18081611,29.020445000000002,-102.71984,9.290316,STN
20384043000000.0,1.051146388053894,-0.6489834785461426,9.831198692321777,1.1377243995666504,-0.6026756167411804,-0.59803706,-0.20463985,29.45468,-102.23891,9.031531,STN
20384055000000.0,1.0561450719833374,-0.6225077509880066,9.837352752685547,1.2012264728546143,-0.6370666027069092,-0.6105598000000001,-0.22418754,29.894808,-101.7471,8.772477,STN
20384068000000.0,1.0611450672149658,-0.5966378450393677,9.852932929992676,1.2642626762390137,-0.6728640198707581,-0.6420194,-0.25534168,30.343104999999998,-101.25275400000001,8.510047,STN
20384080000000.0,1.0661448240280151,-0.5724071264266968,9.879929542541504,1.324721097946167,-0.7093905806541443,-0.6805039,-0.2666427,30.797642,-100.75862,8.250435000000001,STN
20384093000000.0,1.0711441040039062,-0.5506125688552856,9.920409202575684,1.3823777437210083,-0.7476980686187744,-0.7287621999999999,-0.28710666,31.254313,-100.227905,7.982564,STN
20384104000000.0,1.0761470794677734,-0.5316161513328552,9.975332260131836,1.4371955394744873,-0.7877566814422607,-0.7812967,-0.30482176,31.724190000000004,-99.69948000000001,7.715139999999999,STN
20384114000000.0,1.0811468362808228,-0.5143954753875732,10.044968605041504,1.4871004819869995,-0.8289359211921692,-0.86529064,-0.33139440000000003,32.224785,-99.16157,7.4379919999999995,STN
20384125000000.0,1.0861459970474243,-0.49782735109329224,10.13051700592041,1.529572606086731,-0.8705250024795532,-0.9309586,-0.34208453,32.735813,-98.6305,7.1645494,STN
20384135000000.0,1.0911478996276855,-0.48062124848365784,10.231118202209473,1.5667884349822998,-0.9126485586166382,-1.0036516,-0.35460728,33.284073,-98.09003,6.8743525,STN
20384145000000.0,1.096147894859314,-0.46171948313713074,10.345429420471191,1.6007145643234253,-0.9538619518280029,-1.0665708,-0.35735616,33.847916,-97.56785,6.5888979999999995,STN
20384156000000.0,1.1011865139007568,-0.441501259803772,10.466917037963867,1.635611653327942,-0.9933021664619446,-1.1129965,-0.35430184,34.435852000000004,-97.06789,6.307529,STN
20384166000000.0,1.1061831712722778,-0.4209268093109131,10.588074684143066,1.6725404262542725,-1.0310637950897217,-1.1508701000000001,-0.35033122,35.03725,-96.59143,6.031346,STN
20384175000000.0,1.1111812591552734,-0.4000419080257416,10.70384693145752,1.7154134511947632,-1.0668129920959473,-1.1963795,-0.3475823,35.652297999999995,-96.15023000000001,5.7669225,STN
20384183000000.0,1.11617910861969,-0.37920358777046204,10.807317733764648,1.7677325010299683,-1.1021544933319092,-1.2394456,-0.34086279999999997,36.274223,-95.74293,5.511064,STN
20384192000000.0,1.1211756467819214,-0.3579981327056885,10.895407676696777,1.8245477676391602,-1.1373704671859741,-1.3035865,-0.3454443,36.907993,-95.37170400000001,5.261271,STN
20384200000000.0,1.126177430152893,-0.3360558748245239,10.965500831604004,1.8820689916610718,-1.1727280616760254,-1.3530666,-0.3472769,37.54629,-95.050995,5.020709,STN
20384208000000.0,1.1311769485473633,-0.3135148882865906,11.016677856445312,1.9381407499313354,-1.2083337306976318,-1.3607023,-0.34330627,38.188427000000004,-85.21174,4.7882404,STN
20384217000000.0,1.1361747980117798,-0.29050302505493164,11.045340538024902,1.9887160062789917,-1.2435067892074585,-1.3582588,-0.33108896,38.838264,-85.399704,4.5638190000000005,STN
20384225000000.0,1.1411741971969604,-0.2687324583530426,11.0543212890625,2.033621072769165,-1.277212381362915,-1.3008375,-0.32986724,39.469444,-85.49765,4.352055,STN
20384234000000.0,1.1461727619171143,-0.24981115758419037,11.04665756225586,2.0727548599243164,-1.3097727298736572,-1.205848,-0.31826079999999995,40.08587,-85.50251,4.1516433,STN
20384242000000.0,1.1511708498001099,-0.23493671417236328,11.023234367370605,2.1055362224578857,-1.3419651985168457,-1.1133018999999997,-0.30909783,40.678402,-85.41179,3.9675608,STN
20384250000000.0,1.1561685800552368,-0.2259792536497116,10.984917640686035,2.130934000015259,-1.3736791610717773,-1.0552697,-0.31337386,41.251045,-85.24644,3.7863762000000003,STN
20384259000000.0,1.1611666679382324,-0.2204662561416626,10.932049751281738,2.1505510807037354,-1.4037517309188843,-1.0360274,-0.30665436,41.809216,-85.01465,3.6167152000000002,STN
20384267000000.0,1.1661651134490967,-0.21498635411262512,10.864792823791504,2.166515588760376,-1.43113112449646,-1.0213667,-0.30329459999999997,42.349968,-84.733864,3.4474885000000004,STN
20384273000000.0,1.171166181564331,-0.20944145321846008,10.787209510803223,2.1794381141662598,-1.454984188079834,-1.0060950000000002,-0.2764165,42.891308,-84.42268,3.2849805,STN
20384280000000.0,1.1761689186096191,-0.20372098684310913,10.704103469848633,2.190023183822632,-1.475710391998291,-0.9960158000000001,-0.24923302,43.426853,-84.085365,3.1261199,STN
20384286000000.0,1.181168794631958,-0.19756706058979034,10.617172241210938,2.1995978355407715,-1.4926137924194336,-0.96944314,-0.21838433,43.952057,-83.73066,2.9859529,STN
20384292000000.0,1.1861670017242432,-0.19025976955890656,10.529935836791992,2.2113778591156006,-1.5055887699127197,-0.956615,-0.18112154,44.473923,-83.36780999999999,2.8571303,STN
20384299000000.0,1.191166639328003,-0.18161235749721527,10.441381454467773,2.224968433380127,-1.51399827003479,-0.9654725000000001,-0.14966199,44.98666,-83.009834,2.7397802,STN
20384305000000.0,1.196165919303894,-0.17086003720760345,10.348053932189941,2.2391176223754883,-1.5163112878799438,-1.0118983,-0.12125675400000001,45.501705,-82.6667,2.6339655,STN
20384311000000.0,1.2011646032333374,-0.15715955197811127,10.2509183883667,2.254054307937622,-1.5125110149383545,-1.0476339,-0.08704830000000001,46.025906,-82.31889,2.5536487,STN
20384317000000.0,1.2061620950698853,-0.13738127052783966,10.15263843536377,2.2706263065338135,-1.5032813549041748,-1.0751228000000002,-0.03359759,46.553925,-81.99345,2.4879917999999996,STN
20384324000000.0,1.2111611366271973,-0.11213772743940353,10.052831649780273,2.28857421875,-1.489058017730713,-1.1242975,0.022296581,47.08319,-81.6826,2.4418860000000002,STN
20384330000000.0,1.2161599397659302,-0.08405788242816925,9.94924259185791,2.306549549102783,-1.4706768989562988,-1.176221,0.08002335,47.613293,-81.39527,2.411598,STN
20384336000000.0,1.221165418624878,-0.053334951400756836,9.841696739196777,2.324704647064209,-1.449108362197876,-1.2205088,0.13591751,48.13864,-81.1019,2.4246995,STN
20384343000000.0,1.2261650562286377,-0.021845033392310143,9.729390144348145,2.344296455383301,-1.424717664718628,-1.2443326000000001,0.1908954,48.66414,-80.83244,2.4526381,STN
20384349000000.0,1.231173038482666,0.010500174947082996,9.612013816833496,2.36537766456604,-1.398208498954773,-1.2724323,0.22724187,49.188732,-80.56161,2.5095084,STN
20384355000000.0,1.2361711263656616,0.03910563513636589,9.494491577148438,2.382556915283203,-1.3698240518569946,-1.2727377,0.23976462,49.704044,-80.312584,2.5713633999999996,STN
20384361000000.0,1.241184949874878,0.06280532479286194,9.377249717712402,2.3943989276885986,-1.339827060699463,-1.2336423,0.2501493,50.207653,-80.081726,2.6383705,STN
20384368000000.0,1.246182918548584,0.08048413693904877,9.261344909667969,2.4042418003082275,-1.3089871406555176,-1.2021828,0.24404067,50.707954,-79.84203000000001,2.7166173,STN
20384374000000.0,1.251179575920105,0.09156551212072372,9.146589279174805,2.413057565689087,-1.278390884399414,-1.1059716,0.22999077,51.172268,-79.61653000000001,2.7863982000000003,STN
20384380000000.0,1.2561765909194946,0.09636692702770233,9.032892227172852,2.4208977222442627,-1.2458604574203491,-0.99265605,0.20616703,51.623688,-79.42506,2.8450653999999997,STN
20384387000000.0,1.2611751556396484,0.09519463032484055,8.920171737670898,2.427811861038208,-1.2115966081619263,-0.8509353000000001,0.16432275,52.034946000000005,-79.24556,2.884398,STN
20384393000000.0,1.2661738395690918,0.09125152975320816,8.810341835021973,2.4341037273406982,-1.1751220226287842,-0.70371675,0.118202426,52.408245,-79.09184,2.9061048,STN
20384400000000.0,1.2711751461029053,0.0861285999417305,8.704216957092285,2.439934015274048,-1.1364079713821411,-0.54641896,0.059253927000000005,52.736553,-78.96259,2.9015896,STN
20384406000000.0,1.2761728763580322,0.07992010563611984,8.601648330688477,2.4453301429748535,-1.0945971012115479,-0.39187005,-0.00030543262000000003,53.049409999999995,-78.878136,2.838717,STN
20384412000000.0,1.281171441078186,0.0726618766784668,8.502411842346191,2.450313091278076,-1.0504405498504639,-0.26022860000000003,-0.052534412999999995,53.32285,-78.81441,2.753477,STN
20384418000000.0,1.2861697673797607,0.06781061738729477,8.407145500183105,2.4545459747314453,-1.0033471584320068,-0.13316862,-0.11209377,53.554219999999994,-78.78333,2.6416407000000004,STN
20384424000000.0,1.2911672592163086,0.06765840947628021,8.316216468811035,2.457813262939453,-0.9543034434318542,-0.029626964,-0.15851954,53.754597,-78.77093,2.5140974999999997,STN
20384430000000.0,1.296166181564331,0.0723142996430397,8.230237007141113,2.460481643676758,-0.9034948348999023,0.04886922,-0.20677789,53.93485,-78.78782,2.3566184,STN
20384437000000.0,1.3011646270751953,0.0817837193608284,8.149725914001465,2.462881088256836,-0.850917637348175,0.11575896,-0.24495697,54.089397,-78.825005,2.1869426,STN
20384443000000.0,1.3061623573303223,0.0958060771226883,8.074390411376953,2.465026378631592,-0.796129047870636,0.16401732,-0.27580565,54.260334,-78.85387,2.068318,STN
20384450000000.0,1.3111610412597656,0.1141691654920578,8.003960609436035,2.4669301509857178,-0.7404676675796509,0.23762658,-0.31795537,54.404056999999995,-78.89768000000001,1.9332468999999997,STN
20384454000000.0,1.316159963607788,0.1364278346300125,7.939788818359375,2.4696967601776123,-0.6842404007911682,0.26145032,-0.34238997,54.54639,-78.95796,1.8020973999999998,STN
20384460000000.0,1.3211591243743896,0.16216924786567688,7.8831868171691895,2.474390983581543,-0.6283890008926392,0.29840767,-0.37079520000000005,54.663419999999995,-79.02986999999999,1.6566986000000001,STN
20384464000000.0,1.3261584043502808,0.1922326236963272,7.834274768829346,2.479556083679199,-0.5729910731315613,0.31490102,-0.38942659999999996,54.759014,-79.106125,1.5467801,STN
20384470000000.0,1.3311576843261719,0.2273036390542984,7.793110370635986,2.4839563369750977,-0.5182340741157532,0.36010507,-0.39522982,54.834582999999995,-79.19144,1.4318334,STN
20384475000000.0,1.3361568450927734,0.2648616433143616,7.756664276123047,2.4869484901428223,-0.46408388018608093,0.37568212,-0.39370266,54.900642000000005,-79.27787,1.3291733000000001,STN
20384479000000.0,1.341155767440796,0.30194249749183655,7.72139835357666,2.487748622894287,-0.41198933124542236,0.39187005,-0.39492437,54.95271999999999,-79.36498,1.2245377,STN
20384485000000.0,1.346152663230896,0.3360903859138489,7.68697452545166,2.4880640506744385,-0.361173540353775,0.43096542,-0.38423425,54.974087,-79.46916,1.1403242,STN
20384490000000.0,1.3511521816253662,0.3641214370727539,7.652952671051025,2.4900336265563965,-0.31101492047309875,0.46975538,-0.38056904,54.990353000000006,-79.57741999999999,1.055674,STN
20384494000000.0,1.3561519384384155,0.3857205808162689,7.619409561157227,2.494493007659912,-0.2617877125740051,0.5158757,-0.36774087,54.986819999999994,-79.689575,0.98819816,STN
20384500000000.0,1.3611522912979126,0.39947205781936646,7.586537837982178,2.503737211227417,-0.21360506117343903,0.5296202,-0.35338554,54.98036999999999,-79.80835,0.9244344000000001,STN
20384504000000.0,1.3661507368087769,0.4046047031879425,7.554588317871094,2.5189146995544434,-0.16654150187969208,0.56505036,-0.34055737,54.967181999999994,-79.923645,0.8517746999999999,STN
20384510000000.0,1.3711507320404053,0.3998977243900299,7.523850917816162,2.541623115539551,-0.12073273956775665,0.5873469,-0.31887165,54.951866,-80.04226,0.7882064999999999,STN
20384515000000.0,1.3761496543884277,0.3855409026145935,7.494069576263428,2.571408987045288,-0.07575379312038422,0.59681535,-0.30848694,54.956753000000006,-80.14478000000001,0.71770936,STN
20384519000000.0,1.3811496496200562,0.3611752390861511,7.464824199676514,2.6080164909362793,-0.03213014826178551,0.59712076,-0.29077184,54.955612,-80.24696,0.65694886,STN
20384525000000.0,1.3861454725265503,0.3284962773323059,7.437002658843994,2.6524455547332764,0.010845236480236053,0.59712076,-0.26939157,54.99182,-80.32302,0.5761531999999999,STN
20384530000000.0,1.391145944595337,0.28914347290992737,7.411938667297363,2.7070024013519287,0.052783697843551636,0.6203337,-0.27885997,55.020638,-80.39909,0.49247979999999997,STN
20384533000000.0,1.3961422443389893,0.24412475526332855,7.390676021575928,2.7699968814849854,0.09339868277311325,0.6249151,-0.29352075,55.094387,-80.44545,0.38788940000000005,STN
20384540000000.0,1.4011421203613281,0.19422060251235962,7.375319004058838,2.839933156967163,0.13313508033752441,0.63194007,-0.3023783,55.1592,-80.49665,0.28316027,STN
20384544000000.0,1.406140923500061,0.13952523469924927,7.364651679992676,2.914942741394043,0.17125841975212097,0.6600399,-0.29840767,55.252052,-80.49596,0.14640184,STN
20384550000000.0,1.411141276359558,0.07956654578447342,7.356597423553467,2.991832971572876,0.20743145048618317,0.6618725000000001,-0.3051272,55.34976999999999,-80.49597,0.007882037,STN
20384554000000.0,1.4161385297775269,0.015415866859257221,7.3508710861206055,3.0711119174957275,0.24180693924427032,0.6762278,-0.30176744,55.464344,-80.45510999999999,-0.15329012,STN
20384559000000.0,1.4211416244506836,-0.05135397985577583,7.347140312194824,3.1546192169189453,0.2739923596382141,0.6762278,-0.30604348,55.581825,-80.40845999999999,-0.3144464,STN
20384565000000.0,1.4261926412582397,-0.12101645767688751,7.345978260040283,3.243743658065796,0.30384397506713867,0.6948592,-0.32284227,55.712030000000006,-80.32983399999999,-0.5017212999999999,STN
20384570000000.0,1.4312008619308472,-0.1906532645225525,7.3473358154296875,3.3359017372131348,0.3311443626880646,0.70402217,-0.32375857,55.842937,-80.244484,-0.68112934,STN
20384575000000.0,1.4362136125564575,-0.260824978351593,7.351458549499512,3.4323947429656982,0.3559643626213074,0.7189884,-0.32528573,55.988040000000005,-80.11433000000001,-0.8920109,STN
20384580000000.0,1.4412100315093994,-0.32945165038108826,7.356897830963135,3.531426429748535,0.3779641389846802,0.72601336,-0.32620203,56.131730000000005,-79.97431999999999,-1.097926,STN
20384584000000.0,1.446205735206604,-0.3967452645301819,7.363674163818359,3.633315324783325,0.3983519971370697,0.7443393,-0.31703907,56.288180000000004,-79.807526,-1.3401898,STN
20384590000000.0,1.4512027502059937,-0.46317994594573975,7.370143413543701,3.735161542892456,0.4160906970500946,0.7458665,-0.31001409999999996,56.446754000000006,-79.62522,-1.5764803,STN
20384594000000.0,1.456199049949646,-0.5288558006286621,7.376014709472656,3.8363847732543945,0.4306865930557251,0.7449501999999999,-0.28405234,56.59868,-79.43778,-1.7994988999999997,STN
20384600000000.0,1.4611961841583252,-0.5925886034965515,7.380672931671143,3.934980869293213,0.4421769976615906,0.72143185,-0.26297748,56.776745,-79.21141999999999,-2.035495,STN
20384605000000.0,1.4661897420883179,-0.6542000770568848,7.384062767028809,4.030617713928223,0.450173944234848,0.6969972,-0.24068089999999998,56.952971999999995,-78.97375,-2.2574494,STN
20384609000000.0,1.4711883068084717,-0.7119194269180298,7.3858842849731445,4.1245856285095215,0.4539032578468323,0.63194007,-0.2302962,57.151993000000004,-78.700485,-2.4918308,STN
20384615000000.0,1.4761844873428345,-0.765621542930603,7.386196613311768,4.217075347900391,0.4545527398586273,0.5506949999999999,-0.21655174,57.360077000000004,-78.42256,-2.7103962999999998,STN
20384620000000.0,1.4811842441558838,-0.8174778819084167,7.384949207305908,4.302359104156494,0.45168423652648926,0.45540005,-0.21288654,57.59185,-78.11521,-2.931748,STN
20384624000000.0,1.4861783981323242,-0.8683577179908752,7.382236480712891,4.37850284576416,0.44566431641578674,0.36926803,-0.21655174,57.842082999999995,-77.79954000000001,-3.1412046,STN
20384630000000.0,1.4911799430847168,-0.9194613099098206,7.375670909881592,4.435579299926758,0.4364493191242218,0.30085114,-0.2321288,58.117430000000006,-77.458046,-3.3534284,STN
20384634000000.0,1.4961884021759033,-0.9711456894874573,7.364625930786133,4.471059799194336,0.4240955412387848,0.26969699999999996,-0.26267207,58.40586999999999,-77.10385,-3.5624830000000003,STN
20384640000000.0,1.501188039779663,-1.0224602222442627,7.345358848571777,4.478452682495117,0.4097632169723511,0.28527406,-0.29565877,58.689587,-76.75187,-3.7730842000000004,STN
20384645000000.0,1.5061856508255005,-1.0731868743896484,7.316384315490723,4.455126762390137,0.39425769448280334,0.32925636,-0.33017266,58.974334999999996,-76.38868000000001,-3.9870989999999997,STN
20384649000000.0,1.511185646057129,-1.1228605508804321,7.274199485778809,4.401858329772949,0.3785041868686676,0.42485678,-0.37507126,59.20001,-76.0749,-4.2246084,STN
20384655000000.0,1.5161830186843872,-1.1713778972625732,7.2188568115234375,4.320740699768066,0.36445292830467224,0.57848936,-0.42363504,59.39917,-75.76223,-4.473602,STN
20384660000000.0,1.5211820602416992,-1.218824028968811,7.150814533233643,4.212774753570557,0.3516876697540283,0.7049385,-0.45998153,59.516056000000006,-75.52739,-4.731383,STN
20384666000000.0,1.526183843612671,-1.2652626037597656,7.070681095123291,4.079254627227783,0.34147459268569946,0.8002335,-0.49510628,59.602863,-75.3009,-5.004135,STN
20384670000000.0,1.5311815738677979,-1.305282711982727,6.984324932098389,3.9292640686035156,0.3349473178386688,0.8295549999999999,-0.49632803,59.674427,-75.089134,-5.2845407,STN
20384674000000.0,1.5361809730529785,-1.3372435569763184,6.893552780151367,3.76562237739563,0.3310467302799225,0.8136725,-0.4822781,59.735209999999995,-74.881966,-5.565996,STN
20384680000000.0,1.5411851406097412,-1.3591370582580566,6.7988481521606445,3.596900701522827,0.33168378472328186,0.7507534,-0.4605924,59.652092,-74.86021,-5.8252153,STN
20384684000000.0,1.546186923980713,-1.3709510564804077,6.7007598876953125,3.426330804824829,0.336698055267334,0.6713409,-0.44593164,59.57849,-74.847916,-6.075597,STN
20384689000000.0,1.551186442375183,-1.3698118925094604,6.604160308837891,3.2625417709350586,0.3453679382801056,0.54244834,-0.41813725,59.478462,-74.92823,-6.28124,STN
20384695000000.0,1.556182622909546,-1.3546650409698486,6.511474609375,3.1097028255462646,0.3575963079929352,0.41599923,-0.40011674,59.400321999999996,-75.02687,-6.476592,STN
20384700000000.0,1.5611807107925415,-1.3266716003417969,6.424606800079346,2.974090099334717,0.37303072214126587,0.25686884,-0.37140608,59.333374,-75.193726,-6.618755999999999,STN
20384705000000.0,1.5661948919296265,-1.2862788438796997,6.34481954574585,2.860140562057495,0.3918095827102661,0.10079276599999999,-0.35124752,59.30076,-75.37754,-6.747217999999999,STN
20384710000000.0,1.5711923837661743,-1.2371022701263428,6.274528980255127,2.765225648880005,0.41315239667892456,-0.06841691,-0.33322698,59.31895,-75.60665,-6.803878299999999,STN
20384714000000.0,1.5761903524398804,-1.1796797513961792,6.215312957763672,2.6892683506011963,0.43723180890083313,-0.22418754,-0.310625,59.374516,-75.85421,-6.842548,STN
20384720000000.0,1.5811880826950073,-1.1152466535568237,6.169042110443115,2.6319947242736816,0.46421125531196594,-0.3735441,-0.30665436,59.50181,-76.11251999999999,-6.8721595,STN
20384724000000.0,1.5861854553222656,-1.044701337814331,6.1367411613464355,2.592949151992798,0.4925037622451782,-0.4908302,-0.28496864,59.65602,-76.37564,-6.882877000000001,STN
20384730000000.0,1.591184139251709,-0.9702295660972595,6.120358467102051,2.569288492202759,0.5213882327079773,-0.6047566,-0.26572640000000003,59.846835999999996,-76.60817,-6.884239,STN
20384735000000.0,1.5961822271347046,-0.8939275741577148,6.121455192565918,2.558223247528076,0.5502471923828125,-0.6753115,-0.23457226,60.05285,-76.84576,-6.873239999999999,STN
20384740000000.0,1.6011799573898315,-0.8189477324485779,6.142721176147461,2.5555903911590576,0.5782029628753662,-0.7122689,-0.20769419,60.288464000000005,-77.04981,-6.852761699999999,STN
20384745000000.0,1.6061769723892212,-0.74746173620224,6.185697555541992,2.5583696365356445,0.6044898629188538,-0.70188415,-0.15668693,60.52499399999999,-77.25753,-6.8173330000000005,STN
20384750000000.0,1.611175537109375,-0.6802480220794678,6.249640941619873,2.56575083732605,0.6289200782775879,-0.6133086999999999,-0.10048734,60.751713,-77.44796,-6.7729,STN
20384754000000.0,1.6161736249923706,-0.6178685426712036,6.333467960357666,2.576996326446533,0.6499485969543457,-0.5488624,-0.07391469,60.978863,-77.6265,-6.7238693,STN
20384760000000.0,1.621172308921814,-0.5592878460884094,6.437817573547363,2.593062400817871,0.6681147813796997,-0.48288897,-0.059253927000000005,61.17398000000001,-77.808525,-6.661823700000001,STN
20384764000000.0,1.6261711120605469,-0.5035696625709534,6.563063621520996,2.6147570610046387,0.6824968457221985,-0.45204028,-0.046120327,61.35743000000001,-77.97397600000001,-6.596711,STN
20384770000000.0,1.6311793327331543,-0.4425782859325409,6.710448265075684,2.636695384979248,0.6933127641677856,-0.33261612,-0.04520403,61.492474,-78.12817,-6.54627,STN
20384775000000.0,1.636177659034729,-0.37142065167427063,6.877860069274902,2.6549489498138428,0.7010781168937683,-0.29138273,-0.048258353,61.638732999999995,-78.26726500000001,-6.4930925,STN
20384779000000.0,1.641175627708435,-0.2903929352760315,7.059258937835693,2.6713638305664062,0.7076645493507385,-0.19883664,-0.061391957000000004,61.73745699999999,-78.39763,-6.451409,STN
20384785000000.0,1.646172285079956,-0.20095473527908325,7.2299723625183105,2.6930136680603027,0.7112793326377869,-0.09896017,-0.08246681,61.821490000000004,-78.50276,-6.4169245,STN
20384790000000.0,1.6511684656143188,-0.10347593575716019,7.38951301574707,2.7212765216827393,0.7098833918571472,-0.028710667000000002,-0.11362094,61.840275,-78.67147,-6.333734,STN
20384793000000.0,1.6561650037765503,0.001835427712649107,7.534160614013672,2.762535572052002,0.7035972476005554,0.003970624,-0.16401732,61.843086,-78.816154,-6.2675133,STN
20384800000000.0,1.661163330078125,0.11456461995840073,7.663334846496582,2.8156044483184814,0.6914281845092773,-0.010079277,-0.1826487,61.842148,-78.940674,-6.1782746,STN
20384804000000.0,1.666162371635437,0.23375673592090607,7.768573760986328,2.8757705688476562,0.6738361716270447,-0.024129177,-0.1518,61.83198,-79.04028000000001,-6.092727,STN
20384810000000.0,1.671161413192749,0.360832542181015,7.850966453552246,2.942521810531616,0.6491081118583679,-0.04550946,-0.10751228,61.852413,-79.07292,-5.991125,STN
20384814000000.0,1.6761614084243774,0.5089383125305176,7.909932613372803,3.014732599258423,0.6178196668624878,-0.07299839999999999,-0.046731193,61.87599,-79.08456,-5.877064,STN
20384819000000.0,1.6811610460281372,0.6775100231170654,7.948577880859375,3.086590051651001,0.5787577629089355,-0.17348573,0.009162978,61.943447,-79.03673,-5.730969,STN
20384825000000.0,1.6861618757247925,0.8743314743041992,7.98972749710083,3.0901200771331787,0.5317181944847107,-0.37751472,0.073303826,62.044163,-78.95694,-5.561356,STN
20384830000000.0,1.6911585330963135,1.097163200378418,8.033158302307129,3.030235528945923,0.47297537326812744,-0.6414085,0.19792034,62.178943999999994,-78.838554,-5.291071,STN
20384835000000.0,1.6961584091186523,1.3456199169158936,8.078871726989746,2.9085822105407715,0.3994254767894745,-0.87872964,0.3903429,62.355938,-78.66036,-4.977972,STN
20384840000000.0,1.701154112815857,1.6173202991485596,8.12662124633789,2.7302112579345703,0.3131272494792938,-1.0961976999999998,0.6417139000000001,62.590187,-78.42618,-4.6047769999999995,STN
20384844000000.0,1.706152319908142,1.8115243911743164,8.17564582824707,2.4972355365753174,0.22574730217456818,-1.3225232,0.87598073,62.751396,-78.34626999999999,-4.018872,STN
20384850000000.0,1.7111486196517944,1.9076452255249023,8.225621223449707,2.2137632369995117,0.15147201716899872,-1.3796391000000001,0.97158116,62.919155,-78.22873,-3.4096735000000002,STN
20384854000000.0,1.7161476612091064,1.9094070196151733,8.276557922363281,1.881407618522644,0.10055766999721527,-1.0451905000000001,0.9627235999999999,62.718376,-78.57772,-2.6637106,STN
20384859000000.0,1.7211469411849976,1.8225810527801514,8.328373908996582,1.503306269645691,0.0753728598356247,-0.29077184,0.7779369,62.429653,-78.9325,-1.9872268,STN
20384865000000.0,1.726146936416626,1.7176694869995117,8.473472595214844,1.3574199676513672,0.07788325101137161,0.23457226,0.5027421,62.132540000000006,-79.36095999999999,-1.3683363000000002,STN
20384870000000.0,1.7311460971832275,1.6263504028320312,8.749187469482422,1.5579538345336914,0.0932328999042511,1.2296717,0.41263947,61.498314,-79.80195,-0.83014977,STN
20384875000000.0,1.7361457347869873,1.4327425956726074,9.096227645874023,1.934989333152771,0.12376516312360764,2.5601363,0.516792,60.603607,-80.63396,-0.67482626,STN
20384880000000.0,1.7411495447158813,1.0930734872817993,9.490052223205566,2.4183502197265625,0.1479824036359787,4.883257,1.1615603,59.152409999999996,-81.40934,-0.47413835,STN
20384884000000.0,1.7461501359939575,0.6054805517196655,9.908897399902344,2.985790729522705,0.14696505665779114,6.0979624,1.8991799999999999,58.23967,-81.138565,-0.50227284,STN
20384890000000.0,1.7511671781539917,-0.044638533145189285,10.341978073120117,3.631296157836914,0.0877452939748764,4.102571,1.7058412,57.596996,-80.6804,-0.56025004,STN
20384894000000.0,1.756169080734253,-0.7101497054100037,10.671584129333496,4.008597373962402,-0.050844646990299225,0.8854492,0.31673363,57.329080000000005,-79.61742,-1.2918789,STN
20384900000000.0,1.7611675262451172,-1.3241546154022217,10.834355354309082,3.9306623935699463,-0.23429904878139496,-0.8249735,-0.6426301999999999,57.18585600000001,-78.47936999999999,-1.8685158,STN
20384905000000.0,1.76616632938385,-1.8189858198165894,10.867385864257812,3.6489717960357666,-0.3956058621406555,-1.3588698000000001,-0.7476991,57.669685,-76.9968,-2.701858,STN
20384909000000.0,1.7711646556854248,-2.1632323265075684,10.794244766235352,3.301027297973633,-0.510015606880188,-1.9346101999999998,-0.50762904,58.61444,-75.44059,-3.5030856,STN
20384915000000.0,1.7761656045913696,-2.396902322769165,10.62836742401123,2.9840736389160156,-0.5938795208930969,-2.5039365,-0.27152961,59.358517000000006,-74.62669,-4.11135,STN
20384920000000.0,1.7811636924743652,-2.5438942909240723,10.380949020385742,2.7420802116394043,-0.6621729731559753,-2.807842,-0.06872234,60.143356000000004,-73.96689599999999,-4.6189737,STN
20384926000000.0,1.786210060119629,-2.6384222507476807,10.036566734313965,2.516707181930542,-0.7254433035850525,-2.6465737999999996,0.08124508,60.791290000000004,-73.615105,-4.825997,STN
20384930000000.0,1.7912083864212036,-2.7186028957366943,9.632040977478027,2.2730889320373535,-0.7855208516120911,-2.1084012999999997,0.08674286,61.407722,-73.32212,-5.025285,STN
20384934000000.0,1.7962048053741455,-2.7821593284606934,9.171740531921387,1.9822760820388794,-0.8324837684631348,-1.2437216,-0.040317107000000005,61.924347,-72.951614,-5.1321187,STN
20384940000000.0,1.8012014627456665,-2.8287322521209717,8.673852920532227,1.6235164403915405,-0.8513884544372559,-0.24556783,-0.20036379999999998,62.253628000000006,-72.6634,-5.3033667,STN
20384944000000.0,1.8061970472335815,-2.845885992050171,8.190770149230957,1.2572144269943237,-0.8349241614341736,0.5821546,-0.31031954,62.369983999999995,-72.47733000000001,-5.5335097,STN
20384949000000.0,1.811194896697998,-2.825589656829834,7.756204605102539,0.9224454164505005,-0.7828923463821411,1.1878275,-0.31764993,62.274338,-72.42698,-5.84797,STN
20384955000000.0,1.8161919116973877,-2.7693235874176025,7.396137714385986,0.6435938477516174,-0.7026250958442688,1.5341879999999999,-0.22296582,61.952231999999995,-72.67832,-6.1863036,STN
20384960000000.0,1.8211913108825684,-2.6777632236480713,7.131845474243164,0.44052329659461975,-0.6040588021278381,1.5784757999999999,-0.062002823,61.537323,-73.071236,-6.5351214,STN
20384965000000.0,1.826188564300537,-2.5642292499542236,6.966269493103027,0.32666459679603577,-0.4959981143474579,1.5039502,0.018020526000000002,61.038230000000006,-73.60468,-6.802775,STN
20384970000000.0,1.8311959505081177,-2.4411611557006836,6.908900260925293,0.32234424352645874,-0.38860148191452026,1.1252137,0.24587326,60.585613,-74.23266,-6.962892,STN
20384974000000.0,1.8361927270889282,-2.317917585372925,6.958168029785156,0.39803171157836914,-0.2843076288700104,0.5348125,0.29168814,60.247974,-74.86469,-7.015322,STN
20384980000000.0,1.8411915302276611,-2.205679178237915,7.130361080169678,0.5291982293128967,-0.19232700765132904,0.110872045,0.42730024,59.947480000000006,-75.51345,-6.960866499999999,STN
20384984000000.0,1.8461904525756836,-2.10379695892334,7.410282135009766,0.6629385948181152,-0.1155681237578392,0.15118915,0.6062838,59.80948299999999,-76.03214,-6.83317,STN
20384990000000.0,1.8511896133422852,-2.0116753578186035,7.782027721405029,0.7347793579101562,-0.04846677929162979,0.50946164,0.7302894,59.68578,-76.53698,-6.676044,STN
20384995000000.0,1.8562166690826416,-1.9431229829788208,8.216171264648438,0.7690584659576416,0.011949572712182999,0.8695666999999999,0.6817255999999999,59.56261,-76.9132,-6.487392400000001,STN
20385000000000.0,1.8612146377563477,-1.9053308963775635,8.663244247436523,0.7971460223197937,0.06639529764652252,0.9673050999999999,0.43951756,59.41403199999999,-77.24416,-6.331328,STN
20385005000000.0,1.866209626197815,-1.8914133310317993,9.09030818939209,0.8304670453071594,0.11287720501422882,0.7959574,0.20250183,59.14144,-77.74565,-6.153019400000001,STN
20385010000000.0,1.8712067604064941,-1.889843463897705,9.450711250305176,0.884215235710144,0.1533823311328888,0.5152648,0.048258353,58.880869999999994,-78.19876,-6.02196,STN
20385014000000.0,1.8762023448944092,-1.8939411640167236,9.737639427185059,0.9550809264183044,0.1880989819765091,0.2706133,-0.06627888,58.670930000000006,-78.57222,-5.9906273,STN
20385020000000.0,1.8812001943588257,-1.8943661451339722,9.937228202819824,1.039441704750061,0.21574045717716217,0.044593163,-0.17287487,58.54251,-78.88237,-5.9852037000000005,STN
20385024000000.0,1.8861932754516602,-1.8861768245697021,10.057517051696777,1.131651759147644,0.2355281114578247,-0.14874569,-0.23671028,58.525332999999996,-79.05064399999999,-6.0348180000000005,STN
20385030000000.0,1.891193151473999,-1.8569178581237793,10.103425025939941,1.221071720123291,0.25020816922187805,-0.28893927,-0.24740042,58.55753299999999,-79.18901,-6.0877767,STN
20385035000000.0,1.8961869478225708,-1.8076326847076416,10.084614753723145,1.3059853315353394,0.2619735598564148,-0.34605515,-0.19272798,58.638817,-79.21421,-6.1496983,STN
20385039000000.0,1.9011855125427246,-1.7363476753234863,10.007292747497559,1.383038878440857,0.2716307044029236,-0.32498032,-0.11636983,58.735530000000004,-79.22455,-6.2033477,STN
20385045000000.0,1.9061806201934814,-1.6532471179962158,9.893994331359863,1.4559667110443115,0.2792593836784363,-0.18936823,-0.023518313,58.81024,-79.2241,-6.214364499999999,STN
20385050000000.0,1.9111809730529785,-1.5770585536956787,9.784996032714844,1.5322097539901733,0.2842678129673004,-0.016798794,0.09193522,58.862896,-79.22923,-6.200648999999999,STN
20385054000000.0,1.916176676750183,-1.5078481435775757,9.681168556213379,1.60956871509552,0.2856236398220062,0.16920967,0.19456059,58.868556999999996,-79.25198,-6.139530000000001,STN
20385060000000.0,1.921176552772522,-1.44721519947052,9.585962295532227,1.6817758083343506,0.28194260597229004,0.26328292,0.27672195,58.8471,-79.27171,-6.0568876,STN
20385064000000.0,1.9261937141418457,-1.3936363458633423,9.498761177062988,1.7500452995300293,0.2739000916481018,0.49388456,0.33567044,58.74417,-79.267296,-5.9776764,STN
20385070000000.0,1.931195616722107,-1.3431442975997925,9.418057441711426,1.8169901371002197,0.26394224166870117,0.5510005,0.3576616,58.663340000000005,-79.25625600000001,-5.884801400000001,STN
20385075000000.0,1.936193585395813,-1.2940325736999512,9.343520164489746,1.8824890851974487,0.25371748208999634,0.63499445,0.3839288,58.506886,-79.23479499999999,-5.7997565,STN
20385079000000.0,1.9411941766738892,-1.2358815670013428,9.274443626403809,1.944745421409607,0.24416784942150116,0.64843345,0.41325033,58.356274,-79.21043399999999,-5.709596599999999,STN
20385085000000.0,1.9461979866027832,-1.1683696508407593,9.21031379699707,2.0034732818603516,0.23649443686008453,0.64599,0.4166101,58.194862,-79.18378,-5.625312,STN
20385090000000.0,1.9511970281600952,-1.0830880403518677,9.148110389709473,2.053356647491455,0.2309390902519226,0.65026605,0.42241332,58.029667,-79.164,-5.535669,STN
20385095000000.0,1.9562054872512817,-0.9803206324577332,9.087560653686523,2.093899965286255,0.22649367153644562,0.6780604,0.43860126,57.85190600000001,-79.16814000000001,-5.419242400000001,STN
20385100000000.0,1.9612045288085938,-0.8681970238685608,9.027606010437012,2.1181671619415283,0.22223632037639618,0.7293731,0.47158796,57.6676,-79.17814,-5.300347,STN
20385104000000.0,1.9662197828292847,-0.7466601729393005,8.967744827270508,2.1262524127960205,0.21765242516994476,0.81306165,0.52015173,57.4445,-79.24396999999999,-5.127601599999999,STN
20385110000000.0,1.9712164402008057,-0.6376522183418274,8.903724670410156,2.1341230869293213,0.2131500542163849,0.8762861999999999,0.59620446,57.211619999999996,-79.316505,-4.941732,STN
20385114000000.0,1.9762122631072998,-0.5409126877784729,8.835273742675781,2.1418049335479736,0.20958754420280457,0.8729264000000001,0.6722571999999999,56.937819999999995,-79.45513000000001,-4.702016400000001,STN
20385119000000.0,1.9812086820602417,-0.4688367545604706,8.761514663696289,2.155064105987549,0.20663811266422272,0.79290307,0.7293731,56.66717,-79.59396,-4.448388,STN
20385125000000.0,1.9862016439437866,-0.42370450496673584,8.682547569274902,2.1752328872680664,0.20444811880588531,0.6872234,0.7443393,56.40514399999999,-79.73555,-4.1871314,STN
20385130000000.0,1.991202473640442,-0.41218000650405884,8.599357604980469,2.2029974460601807,0.20193535089492798,0.6059783000000001,0.73945236,56.16591,-79.85571999999999,-3.9411160000000005,STN
20385135000000.0,1.9961962699890137,-0.43274378776550293,8.51291275024414,2.2376914024353027,0.19662657380104065,0.5164866,0.71929383,55.960269999999994,-79.96059,-3.6938832,STN
20385140000000.0,2.0011954307556152,-0.4857790470123291,8.423101425170898,2.2687113285064697,0.18790575861930847,0.41966440000000005,0.677755,55.820305000000005,-79.99566999999999,-3.523073,STN
20385144000000.0,2.006192922592163,-0.5689720511436462,8.330330848693848,2.292081117630005,0.17551524937152863,0.32711834,0.61391956,55.70769,-80.00672,-3.364303,STN
20385150000000.0,2.0111923217773438,-0.6751831769943237,8.234728813171387,2.2984259128570557,0.1599273383617401,0.2556471,0.5308419,55.673559999999995,-79.92660500000001,-3.3285086,STN
20385154000000.0,2.0161898136138916,-0.8001312017440796,8.136597633361816,2.2846100330352783,0.14285875856876373,0.19914207,0.44806966,55.66684,-79.828926,-3.3088932,STN
20385160000000.0,2.0211892127990723,-0.9307229518890381,8.038504600524902,2.2572484016418457,0.1254952847957611,0.17165314,0.36560285,55.707283,-79.677986,-3.385875,STN
20385165000000.0,2.0261898040771484,-1.0612300634384155,7.941564559936523,2.219632148742676,0.10961059480905533,0.096516706,0.33414328,55.78079,-79.52351999999999,-3.4654211999999998,STN
20385169000000.0,2.0311834812164307,-1.181355357170105,7.849130153656006,2.182920455932617,0.09582579880952835,-0.027183502999999998,0.26450464,55.872425,-79.36221,-3.5993546999999997,STN
20385175000000.0,2.0361831188201904,-1.2866437435150146,7.762509822845459,2.1519389152526855,0.08264540880918503,-0.14019357,0.21594086,55.98248,-79.19664,-3.7325574999999995,STN
20385180000000.0,2.0412232875823975,-1.3698630332946777,7.685725688934326,2.13792085647583,0.07065576314926147,-0.204029,0.18051068,56.10391,-79.05400999999999,-3.8840551,STN
20385184000000.0,2.0462210178375244,-1.429682731628418,7.621030807495117,2.14681339263916,0.05723785609006882,-0.22266038,0.17379116,56.2443,-78.89584,-4.037517,STN
20385190000000.0,2.051217794418335,-1.4627879858016968,7.572473526000977,2.182964563369751,0.03974948450922966,-0.2321288,0.14996742,56.39984499999999,-78.72595,-4.186154,STN
20385194000000.0,2.056215524673462,-1.4687795639038086,7.543488025665283,2.2473549842834473,0.01835874281823635,-0.26297748,0.12980886,56.56596,-78.54548,-4.3325996,STN
20385200000000.0,2.061213731765747,-1.4495508670806885,7.532769203186035,2.328449010848999,-0.006872895639389753,-0.2855795,0.106901415,56.764378,-78.31891,-4.4564157,STN
20385205000000.0,2.066211700439453,-1.407018780708313,7.539011001586914,2.411879539489746,-0.033722348511219025,-0.24373524,0.10354166,56.95361,-78.08067,-4.579638500000001,STN
20385209000000.0,2.0712080001831055,-1.3442388772964478,7.555288791656494,2.4879631996154785,-0.059515297412872314,-0.10629055,0.089186326,57.145317000000006,-77.79483,-4.6683497,STN
20385215000000.0,2.076209306716919,-1.2640304565429688,7.573264122009277,2.544090986251831,-0.08090608566999435,0.14813483,0.12186762,57.291109999999996,-77.52083,-4.753492400000001,STN
20385220000000.0,2.0812020301818848,-1.1727570295333862,7.584659576416016,2.582871675491333,-0.09568770974874496,0.4447099,0.17531833,57.363082999999996,-77.28384399999999,-4.768436,STN
20385226000000.0,2.086199998855591,-1.0771849155426025,7.576874256134033,2.605717658996582,-0.1042286679148674,0.74128497,0.22540927,57.363597999999996,-77.06953399999999,-4.791484400000001,STN
20385230000000.0,2.0911977291107178,-0.9807667136192322,7.549283504486084,2.6163454055786133,-0.10686153918504715,1.0167851,0.27458394,57.228848,-76.96529,-4.7530665,STN
20385234000000.0,2.0961968898773193,-0.8904262781143188,7.498269557952881,2.6212401390075684,-0.10473132878541946,1.2492193999999999,0.33567044,57.021976,-76.89325,-4.7137218,STN
20385240000000.0,2.101193428039551,-0.8066164255142212,7.426450252532959,2.6226680278778076,-0.10038698464632034,1.4013248999999999,0.4092797,56.729583999999996,-76.88032,-4.6321993,STN
20385244000000.0,2.1061906814575195,-0.7350033521652222,7.342000484466553,2.6349918842315674,-0.0966159850358963,1.4526376,0.48441613,56.40043000000001,-76.88498,-4.541605000000001,STN
20385250000000.0,2.1112146377563477,-0.6797304749488831,7.247046947479248,2.663264751434326,-0.09703390300273895,1.4263704,0.56077427,56.052333999999995,-76.8846,-4.442489599999999,STN
20385255000000.0,2.1162126064300537,-0.6563814878463745,7.158809661865234,2.7248048782348633,-0.1040869876742363,1.3826935,0.6224717,55.695347,-76.875786,-4.3289766,STN
20385260000000.0,2.121209144592285,-0.6660206913948059,7.077088832855225,2.821157932281494,-0.12165374308824539,1.2727377,0.64996064,55.400185,-76.768005,-4.231471,STN
20385265000000.0,2.126206398010254,-0.705768883228302,7.02592658996582,2.9329164028167725,-0.1443232148885727,1.029308,0.65087694,55.156918000000005,-76.65553,-4.1150055,STN
20385270000000.0,2.131199359893799,-0.7731981873512268,7.008081436157227,3.055332899093628,-0.17852972447872162,0.675617,0.5888741,54.981747,-76.45159,-3.9973025,STN
20385274000000.0,2.1361963748931885,-0.8631504774093628,7.0330963134765625,3.18341064453125,-0.2235933393239975,0.31948254,0.49571714,55.03397,-76.062035,-3.9963559999999996,STN
20385280000000.0,2.1411924362182617,-0.9735466837882996,7.0989227294921875,3.316179037094116,-0.2814747095108032,-0.06047566,0.3921755,55.200607,-75.59565,-3.9940994,STN
20385284000000.0,2.1461915969848633,-1.0921722650527954,7.21292781829834,3.4445252418518066,-0.35259759426116943,-0.40530908,0.27366763,55.51275,-74.99639,-4.0725107000000005,STN
20385290000000.0,2.1511876583099365,-1.2162718772888184,7.372912883758545,3.5670573711395264,-0.43731436133384705,-0.70463306,0.1255328,55.927519999999994,-74.31572,-4.163429,STN
20385295000000.0,2.156184196472168,-1.3308848142623901,7.571135520935059,3.67134952545166,-0.5340378284454346,-0.93523467,-0.02443461,56.449913,-73.5337,-4.3180118,STN
20385299000000.0,2.1611814498901367,-1.4344955682754517,7.804800033569336,3.756624460220337,-0.6423885822296143,-1.0931433000000002,-0.1337795,57.03841800000001,-72.6726,-4.477663,STN
20385305000000.0,2.1661791801452637,-1.5243942737579346,8.052458763122559,3.8184218406677246,-0.7602331638336182,-1.2018773999999999,-0.23854288,57.651115000000004,-71.77271999999999,-4.654365,STN
20385310000000.0,2.1711769104003906,-1.6004563570022583,8.308277130126953,3.8565731048583984,-0.8844775557518005,-1.3225232,-0.31856623,58.30925799999999,-70.81943000000001,-4.8284035,STN
20385316000000.0,2.176182985305786,-1.664521336555481,8.56693172454834,3.8824496269226074,-1.0104020833969116,-1.4953982,-0.39736784,58.94217,-69.921196,-4.959952400000001,STN
20385320000000.0,2.181216239929199,-1.717105746269226,8.827665328979492,3.899418592453003,-1.1353453397750854,-1.7941113000000002,-0.47433686,59.64025,-68.9913,-5.0778346,STN
20385324000000.0,2.1862120628356934,-1.7561842203140259,9.092894554138184,3.9233858585357666,-1.2554367780685425,-2.1197022999999997,-0.5506949999999999,60.329124,-68.14813000000001,-5.1521419999999996,STN
20385330000000.0,2.191209077835083,-1.7792853116989136,9.367321014404297,3.959970712661743,-1.3700560331344604,-2.3689353,-0.5656611999999999,61.06952,-67.29984,-5.199145,STN
20385335000000.0,2.1962056159973145,-1.7869702577590942,9.656298637390137,3.9930832386016846,-1.4797389507293701,-2.6209173,-0.5357288,61.838480000000004,-66.48304,-5.180481400000001,STN
20385339000000.0,2.2012031078338623,-1.7798326015472412,9.96158504486084,4.016831398010254,-1.5859204530715942,-2.7776042999999997,-0.548557,62.642956000000005,-65.668915,-5.154849,STN
20385345000000.0,2.2061994075775146,-1.76870858669281,10.269618034362793,4.017656326293945,-1.6896010637283325,-2.7598891,-0.6438520000000001,63.446456999999995,-64.85175,-5.0954857,STN
20385350000000.0,2.2112009525299072,-1.7568440437316895,10.576790809631348,3.9917707443237305,-1.7878214120864868,-2.5683830000000003,-0.8426886,64.24792,-64.04798000000001,-5.067636,STN
20385356000000.0,2.2161977291107178,-1.7310799360275269,10.87967586517334,3.9425101280212402,-1.874377727508545,-2.4208589,-1.1355985,65.01586999999999,-63.318188,-5.0368322999999995,STN
20385360000000.0,2.221193790435791,-1.67403244972229,11.174721717834473,3.8720743656158447,-1.95018470287323,-1.988061,-1.2873985000000001,65.66018000000001,-62.59701,-5.078973,STN
20385364000000.0,2.2261924743652344,-1.5709327459335327,11.443325996398926,3.812567710876465,-2.0021421909332275,-1.393689,-1.5238034,66.20708,-62.061280000000004,-5.245925,STN
20385370000000.0,2.2311911582946777,-1.41339111328125,11.67348861694336,3.7854387760162354,-2.027907609939575,-0.7284568,-1.5888605,66.62049,-61.584328,-5.469771,STN
20385374000000.0,2.2361900806427,-1.222304344177246,11.849947929382324,3.7886340618133545,-2.0351760387420654,-0.09621128,-1.496009,66.83003000000001,-61.225525,-5.713014599999999,STN
20385380000000.0,2.241192579269409,-1.0121597051620483,11.96236801147461,3.8206441402435303,-2.0332510471343994,0.4166101,-1.3368785,66.90276,-60.946167,-6.0215440000000005,STN
20385385000000.0,2.2461917400360107,-0.8118032217025757,12.017226219177246,3.870549440383911,-2.026773452758789,0.79259765,-1.215011,66.884,-60.664455000000004,-6.27747,STN
20385390000000.0,2.251187801361084,-0.6409581899642944,12.018855094909668,3.930929183959961,-2.017613410949707,1.026559,-1.135904,66.75999499999999,-60.431732,-6.5470486,STN
20385395000000.0,2.2561869621276855,-0.509872317314148,11.981887817382812,4.005364894866943,-2.0051815509796143,1.0906999,-1.0705414,66.63376600000001,-60.10784,-6.767498,STN
20385400000000.0,2.2611865997314453,-0.426371693611145,11.92042350769043,4.096390724182129,-1.9902055263519287,0.93370754,-0.9691377,66.49395,-59.813572,-6.953952,STN
20385404000000.0,2.266185998916626,-0.38390880823135376,11.849112510681152,4.196949481964111,-1.9721535444259644,0.6609562,-0.8680395000000001,66.41662,-59.437748,-7.144423,STN
20385410000000.0,2.271185874938965,-0.3771044909954071,11.779707908630371,4.30138635635376,-1.9535824060440063,0.34910949999999996,-0.7690793,66.37988,-59.082817000000006,-7.276074,STN
20385414000000.0,2.2761847972869873,-0.400942862033844,11.716752052307129,4.406440734863281,-1.9345848560333252,0.12492194,-0.66339964,66.44906999999999,-58.663090000000004,-7.410627000000001,STN
20385420000000.0,2.2811837196350098,-0.44915643334388733,11.667463302612305,4.507218360900879,-1.914858102798462,-0.03970624,-0.5403103,66.56703,-58.270687,-7.476878,STN
20385425000000.0,2.2861814498901367,-0.5103510618209839,11.632087707519531,4.598293304443359,-1.8953686952590942,-0.17195857,-0.44715336,66.74123399999999,-57.848071999999995,-7.548675,STN
20385429000000.0,2.291184425354004,-0.5715668201446533,11.611474990844727,4.6728997230529785,-1.8738415241241455,-0.26053402,-0.40072759999999996,66.93406999999999,-57.46143000000001,-7.583129,STN
20385435000000.0,2.2961809635162354,-0.6260392069816589,11.60319995880127,4.729807376861572,-1.8495875597000122,-0.26389378,-0.38148534,67.10763,-57.084213,-7.625787700000001,STN
20385440000000.0,2.3011810779571533,-0.663189709186554,11.605231285095215,4.765215873718262,-1.8205221891403198,-0.18875736,-0.36132678,67.27545,-56.747063,-7.656007000000001,STN
20385444000000.0,2.306175947189331,-0.6835324168205261,11.607769012451172,4.780296802520752,-1.786429762840271,-0.11026118,-0.36010507,67.39853000000001,-56.472378000000006,-7.681924,STN
20385450000000.0,2.3111765384674072,-0.6855809688568115,11.592439651489258,4.774234771728516,-1.746780514717102,-0.024129177,-0.36346483,67.49875,-56.241505000000004,-7.7170296,STN
20385454000000.0,2.3161709308624268,-0.6725634336471558,11.556982040405273,4.751774787902832,-1.7020660638809204,0.0070249503,-0.35979962,67.541336,-56.09956999999999,-7.7173915,STN
20385460000000.0,2.321171283721924,-0.6477136611938477,11.493351936340332,4.7186689376831055,-1.6562511920928955,0.03848451,-0.34605515,67.56217,-55.981155,-7.729448,STN
20385465000000.0,2.3261778354644775,-0.6116645336151123,11.402016639709473,4.675715923309326,-1.6061228513717651,0.041233405,-0.35063666,67.55216,-55.930088,-7.7176933000000005,STN
20385469000000.0,2.331176280975342,-0.5657910108566284,11.275395393371582,4.626584529876709,-1.5516992807388306,0.021685716,-0.36926803,67.54004,-55.90126,-7.707294500000001,STN
20385475000000.0,2.3361754417419434,-0.5107600688934326,11.11756420135498,4.5732221603393555,-1.4935023784637451,-0.032986722999999996,-0.40072759999999996,67.537964,-55.884327,-7.681521400000001,STN
20385480000000.0,2.341176748275757,-0.4486008882522583,10.940835952758789,4.521745681762695,-1.4318796396255493,-0.12858713,-0.43004912,67.55178000000001,-55.904180000000004,-7.649964999999999,STN
20385486000000.0,2.3461737632751465,-0.3803327977657318,10.746994018554688,4.471445560455322,-1.3681857585906982,-0.25717425,-0.45020768,67.60249,-55.908134,-7.594992599999999,STN
20385490000000.0,2.3511717319488525,-0.3103354275226593,10.537922859191895,4.415647029876709,-1.3029379844665527,-0.3680463,-0.47525316,67.67409,-55.94345500000001,-7.5364320000000005,STN
20385494000000.0,2.3561694622039795,-0.2390154004096985,10.31439208984375,4.355040550231934,-1.236495852470398,-0.49785519999999994,-0.47494772,67.80231500000001,-55.969609999999996,-7.444814699999999,STN
20385500000000.0,2.361168146133423,-0.16948872804641724,10.075170516967773,4.293649196624756,-1.169899582862854,-0.6429357,-0.44959682,67.95546,-56.017272999999996,-7.3351917,STN
20385504000000.0,2.3661739826202393,-0.10183925181627274,9.820707321166992,4.231512069702148,-1.1038737297058105,-0.7632760999999999,-0.4071417,68.11865,-56.05445,-7.203425,STN
20385509000000.0,2.3711721897125244,-0.03877991437911987,9.556413650512695,4.16997766494751,-1.0369716882705688,-0.8417723,-0.36896262,68.296585,-56.119915,-7.0536284,STN
20385515000000.0,2.3761866092681885,0.019985130056738853,9.28177261352539,4.108698844909668,-0.9669450521469116,-0.8732319,-0.33108896,68.49821999999999,-56.18076,-6.8953904999999995,STN
20385520000000.0,2.3811917304992676,0.07611064612865448,9.009708404541016,4.047240257263184,-0.8928046226501465,-0.8445212,-0.30024028,68.69274,-56.27206999999999,-6.730107,STN
20385525000000.0,2.386202573776245,0.1300414502620697,8.739156723022461,3.9856107234954834,-0.8133535385131836,-0.7861836,-0.27275133,68.90164,-56.377030000000005,-6.5729933,STN
20385530000000.0,2.391204595565796,0.18518579006195068,8.467634201049805,3.9263038635253906,-0.728077232837677,-0.69027776,-0.23304509,69.081825,-56.528076,-6.418666,STN
20385536000000.0,2.396221399307251,0.24205678701400757,8.19397258758545,3.869035482406616,-0.6374814510345459,-0.5308419,-0.18234327,69.22128000000001,-56.711063,-6.282927,STN
20385540000000.0,2.4012200832366943,0.3045293986797333,7.923463344573975,3.8122527599334717,-0.5422729253768921,-0.37965274,-0.11026118,69.324585,-56.94504499999999,-6.147955400000001,STN
20385544000000.0,2.4062159061431885,0.37280166149139404,7.655280590057373,3.755782127380371,-0.4435764253139496,-0.23365596,-0.019547688,69.397446,-57.210359999999994,-6.0201325,STN
20385550000000.0,2.4112136363983154,0.44503799080848694,7.3890485763549805,3.6885976791381836,-0.3420987129211426,-0.15790866,0.07941248,69.43400600000001,-57.523026,-5.8857636,STN
20385555000000.0,2.416206121444702,0.5206872224807739,7.124983787536621,3.6107189655303955,-0.23989248275756836,0.004581489,0.13652839,69.40234,-57.868896,-5.7751245,STN
20385560000000.0,2.421203374862671,0.5894124507904053,6.877669811248779,3.5307857990264893,-0.14082172513008118,0.14599679999999998,0.24801129,69.33905,-58.23806999999999,-5.6235037000000005,STN
20385565000000.0,2.4262001514434814,0.6506414413452148,6.647609233856201,3.449841260910034,-0.04403568431735039,0.25778514,0.35277468,69.23218,-58.641075,-5.4782057,STN
20385570000000.0,2.4312071800231934,0.702580988407135,6.433863162994385,3.3675003051757812,0.05040833726525307,0.3286455,0.46486846,69.068504,-59.084630000000004,-5.301836499999999,STN
20385574000000.0,2.4362008571624756,0.7457795143127441,6.235184192657471,3.284263849258423,0.14250494539737701,0.3744604,0.5537493,68.86835500000001,-59.54314399999999,-5.1157928,STN
20385580000000.0,2.4412002563476562,0.774637758731842,6.0502729415893555,3.202310085296631,0.23109331727027893,0.4092797,0.6407976,68.618515,-60.027466000000004,-4.914365,STN
20385584000000.0,2.4461939334869385,0.7878767848014832,5.877923965454102,3.122828483581543,0.31681618094444275,0.43035457,0.7266241999999999,68.34561,-60.5278,-4.693339,STN
20385590000000.0,2.451192855834961,0.7861708402633667,5.718873500823975,3.0478932857513428,0.3993542194366455,0.42302418,0.7779369,68.04555500000001,-61.044003000000004,-4.469581,STN
20385595000000.0,2.4561879634857178,0.7708500027656555,5.572535514831543,2.9776992797851562,0.47886088490486145,0.41691554,0.8069529999999999,67.72901,-61.567425,-4.2311525,STN
20385599000000.0,2.4611878395080566,0.743639349937439,5.4385905265808105,2.915602922439575,0.5562952756881714,0.41080686,0.820392,67.392586,-62.080353,-4.0123714999999995,STN
20385605000000.0,2.466184616088867,0.705833375453949,5.316300868988037,2.861834764480591,0.6324189901351929,0.43768495,0.8173377,67.04649,-62.598724,-3.7927937999999997,STN
20385610000000.0,2.471184730529785,0.6566779017448425,5.205414772033691,2.8151135444641113,0.7072855234146118,0.46395215,0.78984874,66.68105,-63.087967000000006,-3.6035353999999997,STN
20385616000000.0,2.476186752319336,0.5966068506240845,5.10536003112793,2.7748196125030518,0.7827524542808533,0.51159966,0.7254025,66.30935,-63.59486999999999,-3.4297644999999997,STN
20385620000000.0,2.481186628341675,0.5274948477745056,5.0221357345581055,2.744384765625,0.8582994341850281,0.6114761,0.6407976,65.9468,-64.09000999999999,-3.3118489,STN
20385624000000.0,2.4861843585968018,0.45021310448646545,4.957216739654541,2.7246506214141846,0.9353383183479309,0.73975784,0.5543602,65.57429,-64.60838000000001,-3.2174357999999996,STN
20385630000000.0,2.49118709564209,0.3636902868747711,4.916017055511475,2.716233730316162,1.013089656829834,0.8561276,0.4642576,65.22308000000001,-65.12526,-3.1899273,STN
20385634000000.0,2.4961862564086914,0.26837024092674255,4.898930549621582,2.7185792922973633,1.0903598070144653,0.95233893,0.38973203,64.85448000000001,-65.65494,-3.1875237999999997,STN
20385639000000.0,2.501185894012451,0.1679161638021469,4.909448623657227,2.731234073638916,1.1661977767944336,1.0262536,0.30848694,64.50210600000001,-66.177444,-3.247509,STN
20385645000000.0,2.506181240081787,0.06378646194934845,4.946981430053711,2.7534637451171875,1.238075613975525,1.0604621,0.2519819,64.143585,-66.69405,-3.3181483999999997,STN
20385650000000.0,2.511181592941284,-0.04137716442346573,5.014451503753662,2.7829089164733887,1.305113673210144,1.1328496000000001,0.19853121,63.805702000000004,-67.20719,-3.4509046000000003,STN
20385655000000.0,2.516181230545044,-0.14622631669044495,5.1110734939575195,2.8180902004241943,1.3678466081619263,1.1850786,0.17898351,63.468844999999995,-67.7098,-3.5820743999999998,STN
20385660000000.0,2.5211799144744873,-0.2506282925605774,5.240151882171631,2.8578646183013916,1.4236878156661987,1.2183707000000001,0.13469578,63.156746,-68.19006,-3.759864,STN
20385664000000.0,2.5261802673339844,-0.3545894920825958,5.4025678634643555,2.9016671180725098,1.4717024564743042,1.2360858000000001,0.111177474,62.83675,-68.6474,-3.9311339999999997,STN
20385670000000.0,2.5311810970306396,-0.4586687982082367,5.5958356857299805,2.9481394290924072,1.509817123413086,1.2174544,0.09101892,62.52845799999999,-69.085236,-4.1079807,STN
20385674000000.0,2.536180257797241,-0.5630704760551453,5.817774295806885,2.996595621109009,1.5380549430847168,1.1404854,0.02443461,62.24024,-69.479546,-4.2891392999999995,STN
20385680000000.0,2.541179656982422,-0.6628825068473816,6.064591884613037,3.0458149909973145,1.5567306280136108,0.9969321,-0.07849618,61.968869999999995,-69.84919000000001,-4.4647517,STN
20385685000000.0,2.546180009841919,-0.7537994384765625,6.332736968994141,3.094710111618042,1.5674443244934082,0.8344419,-0.18509217,61.732025,-70.16946,-4.640594999999999,STN
20385690000000.0,2.5511786937713623,-0.8326588869094849,6.610010623931885,3.1415886878967285,1.5716620683670044,0.6637050999999999,-0.26572640000000003,61.541763,-70.48694,-4.823333,STN
20385695000000.0,2.556175470352173,-0.8966907858848572,6.88585090637207,3.184980630874634,1.5703974962234497,0.5045747,-0.31795537,61.400009999999995,-70.75735999999999,-5.003367400000001,STN
20385700000000.0,2.561173915863037,-0.9466081857681274,7.15061092376709,3.227780342102051,1.5641868114471436,0.35308012,-0.33964106,61.283424,-71.03686,-5.146538700000001,STN
20385704000000.0,2.5661721229553223,-0.9833139777183533,7.393283367156982,3.273188829421997,1.5526914596557617,0.20708331,-0.36468655,61.213306,-71.27351,-5.283237000000001,STN
20385710000000.0,2.57116961479187,-1.0111783742904663,7.610302925109863,3.323969841003418,1.5345978736877441,0.076052725,-0.38484509999999994,61.148617,-71.50038,-5.358136,STN
20385714000000.0,2.576192617416382,-1.0343594551086426,7.796075344085693,3.3840997219085693,1.5105018615722656,-0.086132,-0.38545597,61.132435,-71.69251,-5.415553,STN
20385720000000.0,2.5811891555786133,-1.0523781776428223,7.954012393951416,3.4487903118133545,1.4814720153808594,-0.28283059999999993,-0.3866777,61.163909999999994,-71.83695999999999,-5.4437594,STN
20385725000000.0,2.586186408996582,-1.0602836608886719,8.07750415802002,3.510319471359253,1.448227047920227,-0.4605924,-0.39125920000000003,61.233658,-71.94415,-5.460082,STN
20385729000000.0,2.591181516647339,-1.054884672164917,8.174989700317383,3.5717697143554688,1.4120334386825562,-0.5540548000000001,-0.38545597,61.391830000000006,-71.99486999999999,-5.5087980000000005,STN
20385735000000.0,2.596179723739624,-1.0311732292175293,8.256585121154785,3.637385129928589,1.3742690086364746,-0.6072,-0.36193767,61.583027,-72.02141999999999,-5.541397,STN
20385740000000.0,2.6011738777160645,-0.989238977432251,8.328607559204102,3.707458019256592,1.3364661931991577,-0.59559363,-0.31764993,61.790363,-72.02507,-5.569269,STN
20385744000000.0,2.606170892715454,-0.9236076474189758,8.413901329040527,3.785024881362915,1.2970969676971436,-0.5525276,-0.26939157,61.9977,-72.00412,-5.5877857,STN
20385750000000.0,2.611166477203369,-0.8336842656135559,8.520838737487793,3.873068332672119,1.2535591125488281,-0.39095375,-0.24281894,62.175236,-71.96664399999999,-5.5853124,STN
20385754000000.0,2.6161651611328125,-0.7138893008232117,8.674999237060547,3.981292963027954,1.2082233428955078,-0.1563815,-0.15424347,62.308723,-71.930565,-5.5644145,STN
20385760000000.0,2.621162176132202,-0.5688877105712891,8.874272346496582,4.121971607208252,1.152802586555481,0.112399206,-0.025961772999999997,62.370796,-71.85981,-5.50099,STN
20385764000000.0,2.626166343688965,-0.404400110244751,9.12088394165039,4.324744701385498,1.079370141029358,0.19028452,0.12095132,62.411137,-71.73371999999999,-5.4143834,STN
20385769000000.0,2.6311635971069336,-0.2228439450263977,9.409375190734863,4.58277702331543,0.9822284579277039,0.07391469,0.25259277,62.400764,-71.56479,-5.234872,STN
20385775000000.0,2.636162519454956,-0.02740255743265152,9.742515563964844,4.8450398445129395,0.8674429059028625,-0.05131268,0.36010507,62.362030000000004,-71.323135,-5.0330143,STN
20385780000000.0,2.6411614418029785,0.180260568857193,10.11835765838623,5.098652362823486,0.7567887306213379,-0.13439035,0.3811799,62.34097,-71.05269,-4.819193,STN
20385785000000.0,2.6461589336395264,0.4070347249507904,10.495924949645996,5.282229423522949,0.6735502481460571,-0.20677789,0.34972036,62.41213199999999,-70.68267,-4.5451837,STN
20385790000000.0,2.651155710220337,0.6529316306114197,10.870274543762207,5.391526222229004,0.6170315146446228,-0.41294490000000006,0.34636059999999996,62.535614,-70.31823,-4.246624,STN
20385794000000.0,2.6561543941497803,0.8919088840484619,11.200894355773926,5.449581146240234,0.566617488861084,-0.68630713,0.34269542,62.646446,-70.04971,-3.8922698,STN
20385800000000.0,2.6611506938934326,1.1221809387207031,11.487192153930664,5.461465835571289,0.5011315941810608,-0.9935723,0.38881573,62.81701999999999,-69.78769,-3.5156050000000003,STN
20385804000000.0,2.6661479473114014,1.3025476932525635,11.791838645935059,5.44357967376709,0.4128802418708801,-1.0842858999999998,0.605062,62.85205,-69.70708499999999,-3.006815,STN
20385809000000.0,2.671144962310791,1.4318946599960327,12.11941146850586,5.398958683013916,0.31084099411964417,-0.6383542,0.8875871999999999,62.818413,-69.55962,-2.5108502,STN
20385815000000.0,2.6761443614959717,1.429847240447998,12.45236587524414,5.303815841674805,0.20841240882873535,0.5488624,1.0543533999999999,62.550976,-69.410286,-2.0540830000000003,STN
20385820000000.0,2.6811413764953613,1.2936735153198242,12.787623405456543,5.158171653747559,0.10815449804067612,2.0347922,0.9850201999999999,62.08650600000001,-69.16448000000001,-1.6827819,STN
20385825000000.0,2.6861400604248047,1.020790934562683,12.9876127243042,4.955882549285889,0.01796003058552742,3.0955596,0.6081163,61.428585,-69.019424,-1.5355623,STN
20385830000000.0,2.6911375522613525,0.61894690990448,13.041894912719727,4.699550628662109,-0.049669135361909866,3.1673362000000003,0.21930063,60.662422,-68.92918399999999,-1.469695,STN
20385834000000.0,2.696136236190796,0.24697597324848175,13.008536338806152,4.458614826202393,-0.09494264423847198,2.463314,-0.024740042,59.879116,-68.96027,-1.7291473999999998,STN
20385840000000.0,2.701133966445923,-0.0369061641395092,12.913110733032227,4.2584757804870605,-0.12839509546756744,1.3490959999999999,-0.10323623,59.22798,-69.03277,-1.9938732,STN
20385844000000.0,2.706134557723999,-0.2363792061805725,12.757977485656738,4.097374439239502,-0.1577371209859848,0.7467828000000001,-0.087659165,58.688480000000006,-69.02444,-2.4889095,STN
20385850000000.0,2.7111332416534424,-0.35712093114852905,12.547420501708984,3.972747564315796,-0.18525497615337372,-0.3436117,-0.06597344599999999,58.585873,-69.05115500000001,-2.8374758,STN
20385855000000.0,2.7161335945129395,-0.4617227017879486,12.31174087524414,3.824803352355957,-0.213210791349411,-1.1316278999999998,-0.014049901000000002,58.55972,-69.07813,-3.1416202,STN
20385859000000.0,2.721132755279541,-0.5646288394927979,12.05904483795166,3.641833782196045,-0.2373165339231491,-1.5106697,0.047036625,58.713930000000005,-69.12834000000001,-3.3692536,STN
20385865000000.0,2.726142406463623,-0.6756012439727783,11.807600021362305,3.4349427223205566,-0.2510385811328888,-1.593442,0.07849618,59.113323,-69.11797,-3.3701277000000003,STN
20385870000000.0,2.7311408519744873,-0.796454906463623,11.564714431762695,3.211817979812622,-0.2489728033542633,-1.4022411,0.0842994,59.529835,-69.151505,-3.3554397000000002,STN
20385874000000.0,2.736140489578247,-0.9193893671035767,11.34890079498291,3.004370927810669,-0.23060955107212067,-1.0002918,0.08979719,59.82317,-69.272125,-3.3267995999999997,STN
20385880000000.0,2.7411415576934814,-1.042230486869812,11.163715362548828,2.820150375366211,-0.19673596322536469,-0.48075095,0.09285152,60.030581999999995,-69.47251999999999,-3.3328257000000003,STN
20385884000000.0,2.7461414337158203,-1.163958191871643,11.019607543945312,2.6775336265563965,-0.15065279603004456,0.025350908,0.09987647,60.09895699999999,-69.78158,-3.391083,STN
20385890000000.0,2.7511415481567383,-1.2843071222305298,10.918938636779785,2.581545829772949,-0.09592437744140625,0.43829579999999996,0.09896017,60.05335,-70.1603,-3.49497,STN
20385894000000.0,2.756141185760498,-1.403130054473877,10.860791206359863,2.528552532196045,-0.039603762328624725,0.68477994,0.08368854,59.92904,-70.55957,-3.6497335,STN
20385900000000.0,2.7611770629882812,-1.5203899145126343,10.853435516357422,2.51743221282959,0.01360143069177866,0.713796,0.0067195175,59.75877,-70.98323,-3.8386655,STN
20385905000000.0,2.766171455383301,-1.6309552192687988,10.874751091003418,2.528780460357666,0.061855118721723557,0.6123924,-0.06414085,59.605453000000004,-71.32826,-4.052006700000001,STN
20385910000000.0,2.7711689472198486,-1.7251498699188232,10.910009384155273,2.5471909046173096,0.10550256073474884,0.5329799,-0.110872045,59.444283,-71.6598,-4.2785660000000005,STN
20385915000000.0,2.7761688232421875,-1.801853060722351,10.951925277709961,2.570749044418335,0.1437474936246872,0.4297437,-0.15363261,59.349613,-71.91036,-4.5114017,STN
20385920000000.0,2.781167984008789,-1.8568496704101562,10.98302936553955,2.5951383113861084,0.17788702249526978,0.32070425,-0.18173242,59.28187,-72.14272,-4.737500700000001,STN
20385924000000.0,2.786166191101074,-1.890151858329773,11.002970695495605,2.6204636096954346,0.20851431787014008,0.21655174,-0.19975294,59.24508,-72.35558,-4.9301449999999996,STN
20385930000000.0,2.7911651134490967,-1.8882848024368286,11.000597953796387,2.6485788822174072,0.23498640954494476,0.09773844,-0.2321288,59.245564,-72.54047,-5.116355,STN
20385934000000.0,2.796168804168701,-1.8561426401138306,10.976598739624023,2.6770074367523193,0.25798049569129944,0.0021380284,-0.23945917,59.264244,-72.71311999999999,-5.236152,STN
20385940000000.0,2.8011696338653564,-1.8073183298110962,10.932251930236816,2.6982035636901855,0.27802377939224243,-0.03023783,-0.24556783,59.298973,-72.864395,-5.3547845,STN
20385945000000.0,2.806166887283325,-1.7446895837783813,10.869863510131836,2.712022542953491,0.2961524724960327,-0.015271631,-0.25534168,59.338326,-73.00496,-5.403293,STN
20385950000000.0,2.811171531677246,-1.6769623756408691,10.794718742370605,2.716141700744629,0.31373825669288635,0.04886922,-0.2510656,59.369564000000004,-73.138664,-5.449362799999999,STN
20385955000000.0,2.8161699771881104,-1.606719732284546,10.708956718444824,2.7123501300811768,0.3305007815361023,0.13744467,-0.23579398,59.37067,-73.27405999999999,-5.463042,STN
20385960000000.0,2.8211677074432373,-1.5414214134216309,10.61551570892334,2.7041971683502197,0.34814420342445374,0.22235495,-0.2302962,59.3534,-73.41551,-5.4821043,STN
20385964000000.0,2.8261666297912598,-1.4809068441390991,10.515168190002441,2.692509889602661,0.36699599027633667,0.2678644,-0.21502456,59.30904,-73.57613,-5.4814086,STN
20385970000000.0,2.8312063217163086,-1.4263302087783813,10.412030220031738,2.6847612857818604,0.3879520893096924,0.30970868,-0.16035213,59.237522,-73.7514,-5.4733186,STN
20385974000000.0,2.8362014293670654,-1.3762837648391724,10.3090238571167,2.6809844970703125,0.41107940673828125,0.33658674,-0.13041973,59.15221999999999,-73.93297,-5.484211,STN
20385980000000.0,2.841198444366455,-1.3284019231796265,10.20899486541748,2.689467430114746,0.4339345693588257,0.36621370000000003,-0.059864793,59.046721999999995,-74.12414,-5.470275,STN
20385985000000.0,2.846193552017212,-1.2829115390777588,10.11138916015625,2.7091574668884277,0.45571818947792053,0.36713,0.017715093,58.943176,-74.30968,-5.454703299999999,STN
20385990000000.0,2.8512461185455322,-1.2443416118621826,10.009430885314941,2.738757610321045,0.4736388623714447,0.36957347,0.09254608,58.82594,-74.48895,-5.421239,STN
20385995000000.0,2.8562498092651367,-1.2108898162841797,9.90639877319336,2.774245500564575,0.486763060092926,0.36193767,0.17073683,58.723144999999995,-74.63488000000001,-5.3695699999999995,STN
20386000000000.0,2.861250877380371,-1.1828856468200684,9.800958633422852,2.815131902694702,0.49448367953300476,0.3387248,0.24678956,58.61920500000001,-74.76748,-5.2971262999999995,STN
20386006000000.0,2.8662471771240234,-1.1600059270858765,9.693300247192383,2.8609120845794678,0.4964050352573395,0.31612277,0.30604348,58.513412,-74.88105,-5.2083097,STN
20386010000000.0,2.871255874633789,-1.1394898891448975,9.583646774291992,2.908358097076416,0.49236413836479187,0.29871312,0.36071593,58.437378,-74.941216,-5.117711,STN
20386016000000.0,2.876288652420044,-1.1145806312561035,9.473252296447754,2.949160575866699,0.48233693838119507,0.29840767,0.4156938,58.35941,-74.976776,-5.0127873,STN
20386020000000.0,2.8812882900238037,-1.087351679801941,9.365303039550781,2.9863126277923584,0.46688660979270935,0.32986724,0.44715336,58.3017,-74.94856,-4.9226540000000005,STN
20386025000000.0,2.8862814903259277,-1.0596860647201538,9.26442813873291,3.0248825550079346,0.44651374220848083,0.34666604,0.46273044,58.2466,-74.89353,-4.824180999999999,STN
20386029000000.0,2.8912782669067383,-1.031536340713501,9.170300483703613,3.064922332763672,0.42310845851898193,0.3472769,0.47342056,58.17949300000001,-74.83111600000001,-4.711894999999999,STN
20386035000000.0,2.896277666091919,-1.0030102729797363,9.087565422058105,3.1117143630981445,0.3968811631202698,0.30726522,0.45998153,58.12149,-74.739655,-4.6043406,STN
20386040000000.0,2.9012949466705322,-0.9740728735923767,9.019380569458008,3.169050931930542,0.3680148124694824,0.23426682,0.45081854,58.073437,-74.62983,-4.494379,STN
20386045000000.0,2.906287670135498,-0.9437821507453918,8.965017318725586,3.232477903366089,0.3354129493236542,0.17928895,0.44104472,58.050625,-74.49429,-4.3847437000000005,STN
20386050000000.0,2.911282777786255,-0.9095777869224548,8.927647590637207,3.298881769180298,0.3014232814311981,0.07086037,0.43799037,58.06456,-74.35038,-4.271007,STN
20386054000000.0,2.9162817001342773,-0.8722134828567505,8.900222778320312,3.3593764305114746,0.263352632522583,-0.036651913,0.43615779999999993,58.113197,-74.14443,-4.1629534,STN
20386060000000.0,2.9212749004364014,-0.832596480846405,8.875744819641113,3.4056129455566406,0.22078365087509155,-0.12308934,0.45570546,58.185359999999996,-73.92296,-4.048108,STN
20386064000000.0,2.9262709617614746,-0.7917458415031433,8.853082656860352,3.4374935626983643,0.17452578246593475,-0.1966986,0.48258355,58.282931999999995,-73.68074,-3.9207992999999997,STN
20386069000000.0,2.9312663078308105,-0.7565211653709412,8.825456619262695,3.452609062194824,0.1257685273885727,-0.24098633,0.51251596,58.394369999999995,-73.41458,-3.7882907,STN
20386075000000.0,2.936264991760254,-0.7266759276390076,8.793035507202148,3.4516196250915527,0.07588216662406921,-0.26511553,0.54336464,58.494953,-73.17692,-3.6357498,STN
20386080000000.0,2.9412593841552734,-0.7058783769607544,8.74930477142334,3.435028314590454,0.02525242231786251,-0.28252518,0.5626069,58.603954,-72.91914,-3.481358,STN
20386085000000.0,2.9462571144104004,-0.7023763656616211,8.67989730834961,3.401592254638672,-0.025690432637929916,-0.32070425,0.5235115,58.727146,-72.64589000000001,-3.3371517999999996,STN
20386090000000.0,2.9512503147125244,-0.7105161547660828,8.592935562133789,3.3570356369018555,-0.07619722932577133,-0.37262779999999995,0.50335294,58.83356,-72.41181,-3.1894310000000003,STN
20386094000000.0,2.9562480449676514,-0.7204017043113708,8.502087593078613,3.3112871646881104,-0.12503784894943237,-0.41477749999999997,0.4877759,58.95016,-72.17041,-3.0546043,STN
20386100000000.0,2.9612457752227783,-0.7319060564041138,8.407693862915039,3.264465570449829,-0.17182905972003937,-0.4343252,0.47708577,59.08055,-71.93016,-2.9576938,STN
20386104000000.0,2.9662437438964844,-0.740427553653717,8.307198524475098,3.2172739505767822,-0.21700561046600342,-0.43004912,0.46731192,59.216373,-71.68621,-2.8677235,STN
20386110000000.0,2.9712677001953125,-0.7438344955444336,8.19859504699707,3.1697492599487305,-0.25863516330718994,-0.38851030000000003,0.45631635,59.347533999999996,-71.45376,-2.7869843999999997,STN
20386115000000.0,2.976264715194702,-0.7420694231987,8.083771705627441,3.120248556137085,-0.2955720126628876,-0.28710666,0.45142943,59.46236999999999,-71.22935,-2.7276,STN
20386119000000.0,2.9812545776367188,-0.7342090010643005,7.961491107940674,3.0669968128204346,-0.32681286334991455,-0.1151481,0.4392121,59.547817,-71.02123,-2.6870353,STN
20386125000000.0,2.986259937286377,-0.719931423664093,7.830780029296875,3.009831666946411,-0.351163774728775,0.13439035,0.42455134,59.58270600000001,-70.83605,-2.6607412999999998,STN
20386130000000.0,2.9912567138671875,-0.6989357471466064,7.691170692443848,2.951406955718994,-0.3677711486816406,0.39370266,0.42943826,59.56831,-70.68171,-2.6518521,STN
20386134000000.0,2.9962494373321533,-0.6714658141136169,7.5428948402404785,2.891723871231079,-0.37659186124801636,0.5012149,0.43890667,59.519775,-70.5735,-2.639584,STN
20386140000000.0,3.0012412071228027,-0.6373088955879211,7.383488178253174,2.847943067550659,-0.378350168466568,0.68966687,0.4370741,59.382076,-70.50161999999999,-2.6612194,STN
20386144000000.0,3.0062339305877686,-0.6041661500930786,7.227094650268555,2.824406623840332,-0.3766128122806549,0.8530733,0.43615779999999993,59.22355,-70.45311,-2.6874057999999996,STN
20386150000000.0,3.011237144470215,-0.575593113899231,7.080236911773682,2.8217484951019287,-0.36953139305114746,0.96791595,0.44409904,59.030421999999994,-70.44813,-2.6864383,STN
20386155000000.0,3.0162458419799805,-0.551745593547821,6.943331718444824,2.8386290073394775,-0.35939285159111023,1.0219775,0.4700608,58.826446999999995,-70.410995,-2.676471,STN
20386159000000.0,3.021237850189209,-0.5360760688781738,6.824082851409912,2.8732590675354004,-0.3501201570034027,1.0305296,0.49205196,58.607212,-70.38584,-2.6710625,STN
20386165000000.0,3.02626371383667,-0.5305637121200562,6.7251811027526855,2.9283041954040527,-0.3456551432609558,0.9978484000000001,0.52839845,58.428757,-70.27923,-2.6683497000000003,STN
20386170000000.0,3.0312535762786865,-0.5434160232543945,6.658751487731934,2.996774673461914,-0.347646027803421,0.90224797,0.57696223,58.266098,-70.16497,-2.6510827999999997,STN
20386173000000.0,3.0362424850463867,-0.5762519240379333,6.626973628997803,3.0803067684173584,-0.35690444707870483,0.74067414,0.59864795,58.176834,-69.9692,-2.6414763999999997,STN
20386180000000.0,3.041233539581299,-0.6264297962188721,6.626483917236328,3.170245885848999,-0.37297797203063965,0.52381694,0.6197228,58.12797,-69.74699,-2.6057308,STN
20386184000000.0,3.046245574951172,-0.6931474804878235,6.656442165374756,3.2615296840667725,-0.39595919847488403,0.31215215,0.61117065,58.125603000000005,-69.487656,-2.5591307,STN
20386190000000.0,3.051234722137451,-0.7751772999763489,6.7149658203125,3.3517048358917236,-0.4248126149177551,0.14172074,0.57726765,58.20981999999999,-69.1447,-2.5451918,STN
20386194000000.0,3.0562264919281006,-0.8754507899284363,6.806707382202148,3.4401235580444336,-0.45906251668930054,0.007941248,0.5140431,58.345688,-68.767815,-2.526493,STN
20386199000000.0,3.061220645904541,-0.9962682127952576,6.935165882110596,3.5292718410491943,-0.5000327229499817,-0.17684549,0.44135013,58.544307999999994,-68.34371,-2.5275847999999996,STN
20386205000000.0,3.066211223602295,-1.1387712955474854,7.101987838745117,3.6210286617279053,-0.546876847743988,-0.40439278,0.32925636,58.79929,-67.89219,-2.5384247,STN
20386210000000.0,3.0712034702301025,-1.2957574129104614,7.308023452758789,3.7234983444213867,-0.5999817252159119,-0.70829827,0.20952678,59.11096,-67.40442,-2.578719,STN
20386215000000.0,3.0762367248535156,-1.4649077653884888,7.5596842765808105,3.844264030456543,-0.659274160861969,-1.0317514,0.07086037,59.497536,-66.880714,-2.624393,STN
20386220000000.0,3.081228256225586,-1.6251643896102905,7.837413787841797,3.9810616970062256,-0.7263287901878357,-1.2782356000000001,-0.054061572999999995,59.914314000000005,-66.292854,-2.7026837,STN
20386224000000.0,3.0862202644348145,-1.7701966762542725,8.145696640014648,4.139213562011719,-0.8032712936401367,-1.4566082,-0.13927728,60.399506,-65.65621999999999,-2.772853,STN
20386230000000.0,3.091216802597046,-1.8923767805099487,8.482077598571777,4.312848091125488,-0.890339732170105,-1.6459764,-0.21624629,60.9534,-64.95919,-2.8575404,STN
20386234000000.0,3.096209764480591,-1.9847371578216553,8.842154502868652,4.495067119598389,-0.9866200685501099,-1.7583756000000001,-0.3191771,61.533264,-64.209404,-2.9501455,STN
20386238000000.0,3.101201295852661,-2.047081708908081,9.224900245666504,4.678289890289307,-1.0836617946624756,-1.9856175,-0.3659083,62.187430000000006,-63.44239399999999,-2.9732041000000002,STN
20386245000000.0,3.106194257736206,-2.0778427124023438,9.629379272460938,4.849392890930176,-1.1839960813522339,-2.194228,-0.47036624,62.871117000000005,-62.60713199999999,-3.0149237999999996,STN
20386249000000.0,3.11118483543396,-2.076688766479492,10.04897403717041,4.998526096343994,-1.2848594188690186,-2.352442,-0.5729916,63.57838,-61.810109999999995,-2.972363,STN
20386255000000.0,3.1161770820617676,-2.041062831878662,10.475916862487793,5.110256671905518,-1.3845958709716797,-2.4281892999999997,-0.6789767,64.31893000000001,-60.995686,-2.9348695,STN
20386260000000.0,3.121170997619629,-1.9640101194381714,10.90422534942627,5.182384967803955,-1.4815075397491455,-2.4019222,-0.80909103,65.03699499999999,-60.24799,-2.8458579,STN
20386264000000.0,3.1261672973632812,-1.8331053256988525,11.324706077575684,5.209996700286865,-1.5748333930969238,-2.2996022999999997,-0.9822713,65.76564,-59.494730000000004,-2.7939065,STN
20386270000000.0,3.1311609745025635,-1.6563321352005005,11.719782829284668,5.2014994621276855,-1.6624042987823486,-2.0873265,-1.1798861999999999,66.39864,-58.852608,-2.720508,STN
20386274000000.0,3.1361544132232666,-1.4429059028625488,12.058625221252441,5.16803503036499,-1.7386671304702759,-1.750129,-1.3255776000000001,66.98832,-58.23949,-2.7130134,STN
20386280000000.0,3.14115047454834,-1.1960384845733643,12.33636474609375,5.113193035125732,-1.796167254447937,-1.287093,-1.3686435,67.43918599999999,-57.77955600000001,-2.663575,STN
20386285000000.0,3.146144151687622,-0.9315738677978516,12.500179290771484,5.05771541595459,-1.8308260440826416,-0.74128497,-1.3176364,67.79475,-57.384262,-2.6952045,STN
20386289000000.0,3.1511387825012207,-0.6536701321601868,12.55618667602539,5.002142906188965,-1.8449026346206665,-0.22693644,-1.2052372,68.03028,-57.068928,-2.6978421000000004,STN
20386295000000.0,3.156149387359619,-0.38950949907302856,12.513961791992188,4.950599193572998,-1.8419679403305054,0.18173242,-1.0824533,68.15049,-56.85024,-2.7563548,STN
20386300000000.0,3.161144495010376,-0.14071108400821686,12.392845153808594,4.902813911437988,-1.8243120908737183,0.41599923,-0.9804386999999999,68.22399999999999,-56.613636,-2.8036716,STN
20386303000000.0,3.1661391258239746,0.07255428284406662,12.227069854736328,4.859216690063477,-1.7954869270324707,0.48624873,-0.8943066999999999,68.223404,-56.458187,-2.8612877999999995,STN
20386310000000.0,3.1711347103118896,0.2520820200443268,12.018791198730469,4.819591522216797,-1.7582361698150635,0.45448375,-0.7806858,68.2168,-56.244087,-2.8980634,STN
20386314000000.0,3.1761322021484375,0.382800430059433,11.785531044006348,4.791652202606201,-1.717175841331482,0.34483343,-0.62858033,68.19375,-56.082012,-2.8994298,STN
20386320000000.0,3.1811301708221436,0.4661692976951599,11.532029151916504,4.775213241577148,-1.6745599508285522,0.23579398,-0.41935900000000004,68.1515,-55.972083999999995,-2.8515873,STN
20386324000000.0,3.1861259937286377,0.5053135752677917,11.284578323364258,4.767561435699463,-1.6335803270339966,0.14752395,-0.19914207,68.1421,-55.795715,-2.793915,STN
20386329000000.0,3.1911277770996094,0.5013293623924255,11.042618751525879,4.768479347229004,-1.5952892303466797,0.058948494000000004,0.004886922,68.16638,-55.565135999999995,-2.7317395,STN
20386335000000.0,3.196122407913208,0.4747273623943329,10.830740928649902,4.768499851226807,-1.5589085817337036,0.0027488936,0.058643065,68.19305,-55.347595,-2.6437342,STN
20386340000000.0,3.201131820678711,0.42925500869750977,10.653985023498535,4.765888690948486,-1.5236691236495972,-0.0842994,0.14569137,68.20940999999999,-55.140980000000006,-2.481538,STN
