timestamp,rel_time,acc_x,acc_y,acc_z,gyro_x,gyro_y,gyro_z,azimuth,pitch,roll,label
0.0,0.0,0.0,0.0,0.0,0.0,-0.045814894,0.005497787,39.709920000000004,-107.70738,-17.227435999999997,STD
22883041000.0,1.4859422662993893e-05,-0.007422434166073799,0.02848721668124199,-0.0037845843471586704,2.7406715162214823e-05,-0.06017022599999999,0.013439035,39.237774,-108.0944,-17.600147,STD
68308560000.0,7.445543451467529e-05,-0.02217070758342743,0.08506561815738678,-0.011217373423278332,0.00012364824942778796,-0.064751714,0.011911871999999999,38.75207,-108.48311000000001,-17.973095,STD
135607700000.0,0.00020698575826827437,-0.04406163468956947,0.16888798773288727,-0.022085826843976974,0.00031503019272349775,-0.061391957000000004,0.021380282999999996,38.271114000000004,-108.85703999999998,-18.330797,STD
223807010000.0,0.0004389809619169682,-0.07280492037534714,0.27874186635017395,-0.03614050894975662,0.0006482950411736965,-0.052839845,0.016798794,37.792545000000004,-109.22399999999999,-18.680943,STD
331662160000.0,0.0007953481399454176,-0.10802113264799118,0.41307735443115234,-0.05309176445007324,0.0009094540146179497,-0.050396382999999996,0.022602014,37.317547,-109.57511000000001,-19.015686,STD
457699360000.0,0.0012989621609449387,-0.14956164360046387,0.5698040127754211,-0.07212994247674942,0.0011830799048766494,-0.049480084,0.027488936000000002,36.8426,-109.91925,-19.342067999999998,STD
600262100000.0,0.0019677672535181046,-0.1972062885761261,0.7466103434562683,-0.09244324266910553,0.0013775629922747612,-0.048563786,0.016493361,36.368893,-110.25585,-19.661620000000003,STD
757560840000.0,0.002816431224346161,-0.2500074505805969,0.9415441155433655,-0.11486560106277466,0.001428601797670126,-0.046120327,0.006414085,35.92099,-110.565926,-19.955458,STD
927722440000.0,0.0038584410212934017,-0.30701151490211487,1.152532935142517,-0.14015468955039978,0.001431034877896309,-0.06078109,0.006414085,35.479434999999995,-110.86790500000001,-20.241428,STD
1108837800000.0,0.005099938251078129,-0.36778831481933594,1.3772697448730469,-0.1639334112405777,0.0018285874975845218,-0.06047566,0.0018325957999999999,35.051120000000004,-111.162415,-20.520623999999998,STD
1299005700000.0,0.006550696212798357,-0.43194568157196045,1.6134676933288574,-0.18112938106060028,0.0020595542155206203,-0.062002823,0.004276057,34.629177,-111.44561000000002,-20.790209,STD
1496371000000.0,0.008212162181735039,-0.4988102614879608,1.8588749170303345,-0.19237536191940308,0.0022707900498062372,-0.07269296,-0.0027488936,34.199783000000004,-111.73313,-21.061281,STD
1699157000000.0,0.0100831538438797,-0.5665034055709839,2.111741781234741,-0.22221484780311584,0.0026287254877388477,-0.07666359,0.0018325957999999999,33.770737,-112.008575,-21.31989,STD
1905690500000.0,0.012161646969616413,-0.6343841552734375,2.3700411319732666,-0.27189767360687256,0.0028872815892100334,-0.073303826,-0.0033597588,33.416573,-112.232254,-21.538666,STD
2114422000000.0,0.014443485997617245,-0.7015101909637451,2.631040573120117,-0.3203427493572235,0.0031374916434288025,-0.07422013,0.004886922,33.065395,-112.44588999999999,-21.746695000000003,STD
2323937500000.0,0.016921451315283775,-0.7673057913780212,2.8928444385528564,-0.36387038230895996,0.002960959915071726,-0.06811147,0.0015271631,32.710526,-112.65768,-21.953332999999997,STD
2532966700000.0,0.01959218643605709,-0.8343005776405334,3.154757022857666,-0.39164450764656067,0.002808809746056795,-0.07422013,0.007941248,32.204209999999996,-112.96415,-22.230173,STD
2740384700000.0,0.022443724796175957,-0.9028132557868958,3.4155752658843994,-0.4010808765888214,0.002633074065670371,-0.07544186,0.004886922,31.698529999999998,-113.261665,-22.498511999999998,STD
2945211200000.0,0.02547149732708931,-0.9704321622848511,3.673236846923828,-0.42204952239990234,0.0025104975793510675,-0.07299839999999999,-0.00030543262000000003,31.23084,-113.51700600000001,-22.72955,STD
3146605000000.0,0.028657859191298485,-1.036141037940979,3.9263858795166016,-0.46460747718811035,0.0022069597616791725,-0.07360926,0.008246681,30.76778,-113.759735,-22.948233,STD
3343857200000.0,0.03200305253267288,-1.1008846759796143,4.1737380027771,-0.49921515583992004,0.001936416607350111,-0.06627888,0.0067195175,30.411976,-113.931,-23.113585,STD
3536382600000.0,0.03553454950451851,-1.1652252674102783,4.414243221282959,-0.5072672367095947,0.0018908147467300296,-0.06414085,-0.002443461,30.058159999999997,-114.09698,-23.273467999999998,STD
3723708600000.0,0.039153341203927994,-1.2269505262374878,4.647221088409424,-0.5069487690925598,0.002235827036201954,-0.0571159,-0.002443461,29.8405761929902,-114.205071716948,-23.3682029964508,STD
3905466000000.0,0.04289615899324417,-1.2842069864273071,4.8715972900390625,-0.504963755607605,0.0027826339937746525,-0.05375614,0.01038471,29.569193,-114.33989,-23.486362,STD
4081376800000.0,0.04675314575433731,-1.3382011651992798,5.087644577026367,-0.5057091116905212,0.003125353716313839,-0.06017022599999999,0.011911871999999999,29.088177,-114.57753000000001,-23.695324,STD
4251245300000.0,0.050714362412691116,-1.3896981477737427,5.295520782470703,-0.5118892192840576,0.003921451512724161,-0.0720821,0.004886922,28.738155,-114.72696,-23.835812,STD
4414946400000.0,0.054772526025772095,-1.4386719465255737,5.495087146759033,-0.5233988761901855,0.004585686605423689,-0.06994407,0.010079277,28.388022999999997,-114.85954,-23.960805999999998,STD
4572416300000.0,0.05892002955079079,-1.4851199388504028,5.686285018920898,-0.5400944948196411,0.005284093786031008,-0.0720821,0.014660766,28.042982000000002,-114.99065,-24.083660000000002,STD
4723644600000.0,0.06315182149410248,-1.5298818349838257,5.869227886199951,-0.5599542260169983,0.006374961230903864,-0.08246681,0.011301007,27.698156,-115.11878999999999,-24.203363,STD
4868665000000.0,0.06745558977127075,-1.5742812156677246,6.0441694259643555,-0.5797361731529236,0.007330253254622221,-0.09712757,0.0015271631,27.355790999999996,-115.24225,-24.319010000000002,STD
5007549700000.0,0.07182685285806656,-1.6179300546646118,6.212203025817871,-0.5982109904289246,0.008565324358642101,-0.09590584,0.004276057,26.962517,-115.38966,-24.446344,STD
5140400000000.0,0.07626115530729294,-1.6603940725326538,6.374596118927002,-0.6139850616455078,0.009485755115747452,-0.087659165,0.009773844,26.57331,-115.53196000000001,-24.569695,STD
5267343300000.0,0.08074913918972015,-1.702519416809082,6.530299663543701,-0.6261037588119507,0.010087242349982262,-0.06658431,-0.00030543262000000003,26.181798999999998,-115.67754,-24.694944,STD
5388525600000.0,0.08528798818588257,-1.7454638481140137,6.677944183349609,-0.6332039833068848,0.010164485312998295,-0.056505035999999995,-0.003970624,25.793670000000002,-115.81322,-24.810854,STD
5504110000000.0,0.08987139165401459,-1.787689208984375,6.81877326965332,-0.6390752196311951,0.010222554206848145,-0.05161811400000001,-0.013439035,25.411592000000002,-115.94157,-24.920393,STD
5614270000000.0,0.09452536702156067,-1.8273963928222656,6.954334259033203,-0.6484264731407166,0.010027112439274788,-0.0421497,-0.024740042,25.026535,-116.06488,-25.025328,STD
5719187000000.0,0.09918686002492905,-1.8644787073135376,7.084622859954834,-0.6597424745559692,0.009243017062544823,-0.046731193,-0.02321288,24.673954000000002,-116.17521,-25.122252,STD
5819050000000.0,0.10388189554214478,-1.8985559940338135,7.2100958824157715,-0.672462522983551,0.009175715036690235,-0.056199603,-0.025961772999999997,24.320618,-116.28663,-25.218485,STD
5914049000000.0,0.10860563814640045,-1.929870367050171,7.330710411071777,-0.6862046718597412,0.008208763785660267,-0.06169739,-0.030543262,23.953217000000002,-116.39591999999999,-25.312672,STD
6004375300000.0,0.11336001008749008,-1.9587026834487915,7.446334362030029,-0.7004482746124268,0.007225829176604748,-0.06291912,-0.021991148999999998,23.58965,-116.49968,-25.399014,STD
6090221000000.0,0.11813604086637497,-1.9855902194976807,7.557476997375488,-0.7161548733711243,0.006259806454181671,-0.099571034,-0.014966198,23.217567000000003,-116.607956,-25.489784,STD
6171775000000.0,0.12293983995914459,-2.0119259357452393,7.665439605712891,-0.7366216778755188,0.00448013236746192,-0.10048734,-0.0030543262,22.837555,-116.705795,-25.56989,STD
6249225000000.0,0.12775608897209167,-2.0384938716888428,7.770206928253174,-0.7601749897003174,0.0032218839041888714,-0.10140363,0.010995574,22.463476,-116.79789,-25.642265,STD
6322753000000.0,0.13259629905223846,-2.06727933883667,7.871959209442139,-0.7840625047683716,0.0006653545424342155,-0.10445796,0.026267206,22.093332,-116.87727,-25.705894,STD
6392537000000.0,0.13745033740997314,-2.0988094806671143,7.97098445892334,-0.8089370727539062,-0.002162250690162182,-0.11484267,0.04428773,21.703197,-116.96328000000001,-25.769476,STD
6458751600000.0,0.1423187404870987,-2.1347804069519043,8.067970275878906,-0.8364973068237305,-0.005102361552417278,-0.1142318,0.0571159,21.314146,-117.03928,-25.824446,STD
6521564000000.0,0.14719992876052856,-2.1747608184814453,8.1622314453125,-0.8661916851997375,-0.008808773010969162,-0.12797627,0.061391957000000004,20.942265,-117.10953,-25.876245,STD
6581136700000.0,0.1520957052707672,-2.217223882675171,8.248600959777832,-0.8951118588447571,-0.013355246745049953,-0.12064589,0.07086037,20.567307999999997,-117.16948000000001,-25.917244,STD
6637626600000.0,0.15700256824493408,-2.261828660964966,8.327667236328125,-0.9228670597076416,-0.01756962388753891,-0.12736541,0.07269296,20.205883,-117.242966,-25.969625,STD
6691183700000.0,0.1619385927915573,-2.3073933124542236,8.40099048614502,-0.9461787343025208,-0.022130290046334267,-0.14202617,0.06566802,19.84764,-117.308876,-26.017134,STD
6741953000000.0,0.166860431432724,-2.353172540664673,8.468806266784668,-0.9650110006332397,-0.02687366120517254,-0.15974127,0.058643065,19.505825,-117.38512,-26.074892000000002,STD
6790073300000.0,0.1717933714389801,-2.3978209495544434,8.529057502746582,-0.9740532636642456,-0.03172525390982628,-0.21227567,0.043982297000000004,19.18167,-117.46003999999999,-26.134453,STD
6835677000000.0,0.1767292320728302,-2.4414262771606445,8.582348823547363,-0.974052369594574,-0.03734257444739342,-0.267559,0.033292156,18.885162,-117.53168000000001,-26.196686,STD
6878891000000.0,0.18167456984519958,-2.4848978519439697,8.630316734313965,-0.9653196334838867,-0.04478667676448822,-0.27824909999999997,0.03970624,18.593351000000002,-117.596375,-26.254580999999998,STD
6919836700000.0,0.18662689626216888,-2.528226137161255,8.673250198364258,-0.9483639001846313,-0.053751688450574875,-0.29535335,0.040011674,18.367918,-117.64563000000001,-26.309928999999997,STD
6958630000000.0,0.19158363342285156,-2.5714008808135986,8.711426734924316,-0.9236762523651123,-0.06331510841846466,-0.33108896,0.026572637000000003,18.151949,-117.69252,-26.36585,STD
6995380300000.0,0.1965559870004654,-2.614875555038452,8.74557113647461,-0.8917593359947205,-0.07409386336803436,-0.38820487,0.00580322,17.948296,-117.73511,-26.42271,STD
7030193500000.0,0.20151913166046143,-2.662621259689331,8.783071517944336,-0.859415590763092,-0.08628347516059875,-0.44409904,-0.020463986,17.755026,-117.77875,-26.483702,STD
7063169700000.0,0.2065075933933258,-2.7151198387145996,8.82409381866455,-0.8263142108917236,-0.10050734132528305,-0.45662177,-0.029932396,17.632301000000002,-117.80471999999999,-26.547117,STD
7094404000000.0,0.21147757768630981,-2.767157554626465,8.860005378723145,-0.7913874983787537,-0.11591146886348724,-0.4728097,-0.04795292,17.525702,-117.837875,-26.620794,STD
7123987000000.0,0.21645225584506989,-2.818967819213867,8.8908052444458,-0.7544061541557312,-0.13178379833698273,-0.50426924,-0.07513642,17.442095000000002,-117.8788,-26.708012,STD
7152004500000.0,0.22143001854419708,-2.8685109615325928,8.915084838867188,-0.7205737233161926,-0.14866767823696136,-0.5183192,-0.10048734,17.35608,-117.92015,-26.797240999999996,STD
7178538700000.0,0.2264079749584198,-2.9151830673217773,8.932639122009277,-0.691499650478363,-0.16636313498020172,-0.51159966,-0.1337795,17.270546,-117.96923999999999,-26.894245,STD
7203667000000.0,0.2314060479402542,-2.957117795944214,8.942265510559082,-0.6698206067085266,-0.1843394637107849,-0.49877146,-0.15974127,17.20505,-118.02682,-27.003475,STD
7227462600000.0,0.23638688027858734,-2.9941301345825195,8.944859504699707,-0.6553632616996765,-0.20160634815692902,-0.49235737,-0.17592919,17.137068,-118.0896,-27.116413,STD
7249996500000.0,0.2413681000471115,-3.023820400238037,8.940826416015625,-0.6485685110092163,-0.2171444296836853,-0.48533243,-0.19456059,17.053607999999997,-118.17148999999999,-27.243532000000002,STD
7271334500000.0,0.24635079503059387,-3.044700860977173,8.930845260620117,-0.649368405342102,-0.23179274797439575,-0.47891834,-0.21227567,16.966825,-118.25535,-27.371434999999998,STD
7291539600000.0,0.2513352632522583,-3.0571036338806152,8.918521881103516,-0.6540165543556213,-0.24415114521980286,-0.4783075,-0.21258110000000002,16.857107,-118.35347,-27.502778999999997,STD
7310671300000.0,0.25633004307746887,-3.061176061630249,8.905573844909668,-0.6607192754745483,-0.2541131377220154,-0.4914411,-0.19394971,16.7496,-118.449554,-27.630295,STD
7328787000000.0,0.2613232731819153,-3.056777238845825,8.895177841186523,-0.6670387983322144,-0.2606835663318634,-0.48075095,-0.17928895,16.595745,-118.55067,-27.751884000000004,STD
7345940000000.0,0.2663133442401886,-3.043905735015869,8.88891887664795,-0.6717420220375061,-0.2641561031341553,-0.49846604,-0.16249016,16.456861,-118.64518999999999,-27.865234,STD
7362181600000.0,0.27130448818206787,-3.018409252166748,8.89437198638916,-0.6731065511703491,-0.2638818919658661,-0.4905248,-0.14355333,16.284315,-118.72292,-27.953160999999998,STD
7377559500000.0,0.2762954533100128,-2.978693723678589,8.914887428283691,-0.6703935265541077,-0.26183292269706726,-0.40011674,-0.11301007,16.093323,-118.79103,-28.027420000000003,STD
7392119500000.0,0.2812862992286682,-2.9289169311523438,8.947460174560547,-0.6631541848182678,-0.2583475112915039,-0.3555236,-0.06414085,15.901051500000001,-118.82293999999999,-28.061964,STD
7405905000000.0,0.28627675771713257,-2.875474214553833,8.987645149230957,-0.650490939617157,-0.2538110911846161,-0.31429017,-0.03176499,15.682819,-118.85011000000002,-28.086786,STD
7418957300000.0,0.291268527507782,-2.8219785690307617,9.031594276428223,-0.6312486529350281,-0.2467176914215088,-0.3390302,0.02076942,15.434462,-118.78813000000001,-28.020437,STD
7431315000000.0,0.2962605655193329,-2.774773597717285,9.072674751281738,-0.603229284286499,-0.23666636645793915,-0.32345316,0.07574729,15.162887,-118.7173,-27.939991,STD
7443016000000.0,0.3012557923793793,-2.7346675395965576,9.11021900177002,-0.5690009593963623,-0.22412362694740295,-0.3109304,0.12003502,14.901051999999998,-118.60156,-27.815613,STD
7454093500000.0,0.30624738335609436,-2.7025718688964844,9.143414497375488,-0.5318945050239563,-0.21086549758911133,-0.32192600000000005,0.15149458,14.644516000000001,-118.47628999999999,-27.679623,STD
7464582000000.0,0.31123989820480347,-2.678159713745117,9.172452926635742,-0.49198392033576965,-0.19733689725399017,-0.34116822,0.17989981,14.429057,-118.337814,-27.534740000000003,STD
7474512000000.0,0.3162360191345215,-2.6610829830169678,9.197530746459961,-0.449369877576828,-0.18399165570735931,-0.3484986,0.19150625,14.213963,-118.19738000000001,-27.386521999999996,STD
7483913400000.0,0.32123062014579773,-2.651130199432373,9.218491554260254,-0.4056006669998169,-0.17039693892002106,-0.35613444,0.19608775,14.013907999999999,-118.04507,-27.22852,STD
7492815000000.0,0.3262268602848053,-2.6495890617370605,9.233251571655273,-0.3679760992527008,-0.15791678428649902,-0.36682457,0.20555615,13.817878,-117.88856499999999,-27.067463,STD
7501242000000.0,0.3312217593193054,-2.655791759490967,9.242231369018555,-0.33595365285873413,-0.14540152251720428,-0.36865717,0.21319197,13.685363,-117.75771999999999,-26.940159,STD
7509221000000.0,0.33621731400489807,-2.6685197353363037,9.245933532714844,-0.3081505596637726,-0.1330646276473999,-0.36377025,0.21533000000000002,13.553426000000002,-117.62643999999999,-26.813019,STD
7516774700000.0,0.34121450781822205,-2.687452793121338,9.244620323181152,-0.28435227274894714,-0.12039211392402649,-0.3753767,0.20097467,13.431242000000001,-117.532776,-26.721271999999995,STD
7523926500000.0,0.3462109863758087,-2.7119882106781006,9.238664627075195,-0.262269526720047,-0.10754834860563278,-0.38515055,0.18509217,13.306644,-117.44023,-26.629804999999998,STD
7530697700000.0,0.35120537877082825,-2.7417712211608887,9.228343963623047,-0.2415972352027893,-0.09428206831216812,-0.40530908,0.17654006,13.188531,-117.351974,-26.541708,STD
7537108000000.0,0.3562008738517761,-2.7744991779327393,9.215283393859863,-0.2224583476781845,-0.08079482614994049,-0.41996986,0.15118915,13.081247,-117.304184,-26.49307,STD
7543178000000.0,0.3611968755722046,-2.8092474937438965,9.200159072875977,-0.20484095811843872,-0.06615442037582397,-0.43585235,0.13469578,12.980924,-117.25906,-26.445190000000004,STD
7548924000000.0,0.3661954402923584,-2.8436412811279297,9.184829711914062,-0.18718808889389038,-0.05091056600213051,-0.44073927,0.13011430000000002,12.900862,-117.243256,-26.427359000000003,STD
7554364600000.0,0.37119728326797485,-2.8767361640930176,9.170050621032715,-0.1688748151063919,-0.03501404449343681,-0.45265114,0.1160644,12.827448,-117.23676999999999,-26.417336,STD
7559515000000.0,0.3761971890926361,-2.9065935611724854,9.157588958740234,-0.15100160241127014,-0.019655250012874603,-0.45173484,0.10751228,12.761151,-117.243164,-26.420553,STD
7564391600000.0,0.38119572401046753,-2.9328365325927734,9.147814750671387,-0.13382774591445923,-0.004659060388803482,-0.45753807,0.105068825,12.70102,-117.25313999999999,-26.426096,STD
7569008500000.0,0.3861951529979706,-2.953902006149292,9.140979766845703,-0.11906597763299942,0.009977550245821476,-0.47219884,0.10323623,12.649371,-117.26491000000001,-26.434634999999997,STD
7573380000000.0,0.3911955654621124,-2.969540596008301,9.137040138244629,-0.10711641609668732,0.024355115368962288,-0.48563787,0.0983493,12.599395,-117.27823000000001,-26.444313,STD
7577518700000.0,0.3961954414844513,-2.9800527095794678,9.137166023254395,-0.0999128669500351,0.03729923442006111,-0.5112942,0.12095132,12.560893,-117.2682,-26.434286,STD
7581437300000.0,0.4011944532394409,-2.9857137203216553,9.141575813293457,-0.09788905829191208,0.048625849187374115,-0.5332854,0.09437868,12.523589999999999,-117.27318999999999,-26.439651,STD
7585147000000.0,0.40619874000549316,-2.985931873321533,9.14557933807373,-0.10504505783319473,0.05952795222401619,-0.5476406999999999,0.08399397,12.476407,-117.25464,-26.419242999999998,STD
7588659300000.0,0.41119852662086487,-2.9809186458587646,9.147628784179688,-0.12201065570116043,0.07007699459791183,-0.54367006,0.08460484,12.429841999999999,-117.23918,-26.403221000000002,STD
7591985000000.0,0.4162340462207794,-2.9730374813079834,9.150687217712402,-0.14690622687339783,0.08001507073640823,-0.5109888,0.08216137400000001,12.357687,-117.20976,-26.370334999999997,STD
7595134000000.0,0.42123329639434814,-2.963911771774292,9.15524673461914,-0.17650867998600006,0.0888538733124733,-0.4841107,0.08155051,12.286582000000001,-117.179344,-26.336859999999998,STD
7598115000000.0,0.42623138427734375,-2.9529383182525635,9.160667419433594,-0.21095752716064453,0.09658686816692352,-0.44135013,0.07299839999999999,12.156811,-117.15355,-26.297995,STD
7600937600000.0,0.43122926354408264,-2.9398951530456543,9.166330337524414,-0.24967576563358307,0.10367990285158157,-0.40530908,0.06963864,12.022596,-117.125854,-26.256851,STD
7603610000000.0,0.43622690439224243,-2.9249651432037354,9.172207832336426,-0.28926244378089905,0.10992291569709778,-0.3484986,0.076052725,11.849568,-117.09288000000001,-26.204319,STD
7606140000000.0,0.44122424721717834,-2.9082870483398438,9.1782808303833,-0.3280113935470581,0.11497055739164352,-0.31642818,0.06872234,11.675125,-117.06317,-26.155804,STD
7608535600000.0,0.4462205767631531,-2.8873355388641357,9.185373306274414,-0.36451876163482666,0.11867491900920868,-0.28069258,0.04917465,11.462264,-117.03241000000001,-26.100534,STD
7610803700000.0,0.45121854543685913,-2.8608546257019043,9.193900108337402,-0.39811399579048157,0.12109130620956421,-0.24678956,0.03970624,11.243899,-116.99875,-26.042728,STN
7612951000000.0,0.456218957901001,-2.8291168212890625,9.203791618347168,-0.4289489984512329,0.12276039272546768,-0.20250183,0.01985312,11.016033,-116.95904499999999,-25.978065,STN
7614985000000.0,0.4612175524234772,-2.7925052642822266,9.214945793151855,-0.457185834646225,0.12333134561777115,-0.18020524,-0.01160644,10.787349,-116.92238600000002,-25.918467,STN
7616910000000.0,0.466216504573822,-2.749635934829712,9.227124214172363,-0.48268789052963257,0.12235809862613678,-0.17256944,-0.020158553,10.559355,-116.88119499999999,-25.854288,STN
7618733000000.0,0.4712170660495758,-2.6984798908233643,9.240009307861328,-0.5052045583724976,0.11989037692546844,-0.16584991,-0.04153884,10.326436,-116.84981,-25.801185999999998,STN
7620459000000.0,0.47621530294418335,-2.638453245162964,9.254820823669434,-0.5269251465797424,0.11646359413862228,-0.1518,-0.048258353,10.061352000000001,-116.76848999999999,-25.698322,STN
7622093000000.0,0.48121416568756104,-2.568789482116699,9.272693634033203,-0.5497987270355225,0.11247067153453827,-0.11148291,-0.050701816,9.788811,-116.68998,-25.598988000000002,STN
7623641000000.0,0.48625630140304565,-2.489764451980591,9.295445442199707,-0.5748136639595032,0.10663960874080658,-0.06078109,-0.07727446,9.495124,-116.582504,-25.473763,STN
7625106000000.0,0.4912536144256592,-2.40641713142395,9.321891784667969,-0.6012689471244812,0.09875909239053726,-0.05161811400000001,-0.07971791,9.206486,-116.46786499999999,-25.34293,STN
7626494000000.0,0.4962505102157593,-2.320538282394409,9.353841781616211,-0.6267203092575073,0.09014285355806351,-0.03573562,-0.089186326,8.868076,-116.32311000000001,-25.176125,STN
7627808000000.0,0.5012473464012146,-2.2352590560913086,9.392043113708496,-0.6484757661819458,0.08042317628860474,-0.02565634,-0.09193522,8.5332155,-116.17393500000001,-25.008965,STN
7629052000000.0,0.5062482357025146,-2.151768207550049,9.437400817871094,-0.6655246615409851,0.06988674402236938,-0.010995574,-0.08857546,8.16137,-115.99368,-24.80549,STN
7630230000000.0,0.5112451314926147,-2.072457790374756,9.491362571716309,-0.6760201454162598,0.05932583659887314,-0.032986722999999996,-0.07788532,7.8031820000000005,-115.81248500000001,-24.603441,STN
7631346000000.0,0.5162420272827148,-2.000133752822876,9.551275253295898,-0.677748441696167,0.04848132282495499,-0.07147124,-0.06261369,7.451785000000001,-115.5959,-24.370657,STN
7632402000000.0,0.5212384462356567,-1.9379709959030151,9.614049911499023,-0.6682843565940857,0.03761247918009758,-0.15118915,-0.03390302,7.125603999999999,-115.37512,-24.13654,STN
7633402600000.0,0.5262336134910583,-1.8861297369003296,9.675259590148926,-0.6526517271995544,0.028055340051651,-0.23579398,0.0012217305,6.827186,-115.12775,-23.882381,STN
7634350000000.0,0.5312296748161316,-1.8450573682785034,9.729454040527344,-0.63685142993927,0.01918657310307026,-0.30573806,0.030848695,6.5531726,-114.87673000000001,-23.628588,STN
7635247000000.0,0.5362253189086914,-1.8129050731658936,9.774940490722656,-0.6213837265968323,0.012515840120613575,-0.33994650000000004,0.04795292,6.3354992999999995,-114.62335,-23.381247000000002,STN
7636096400000.0,0.541222333908081,-1.787290334701538,9.808862686157227,-0.6069942116737366,0.007812061347067356,-0.3631594,0.064751714,6.1385093,-114.367455,-23.132765,STN
7636901000000.0,0.5462156534194946,-1.7659536600112915,9.831812858581543,-0.593164324760437,0.004840195644646883,-0.37873647,0.08521569999999999,5.9790645,-114.138405,-22.911188,STN
7637663000000.0,0.5512138605117798,-1.7454960346221924,9.843731880187988,-0.5790390372276306,0.003686995478346944,-0.38606682,0.08643743400000001,5.824598,-113.91759499999999,-22.695057000000002,STN
7638384400000.0,0.5562375783920288,-1.721158742904663,9.845956802368164,-0.5641395449638367,0.004206708166748285,-0.39706242,0.09621128,5.695389700000001,-113.72046,-22.50105,STN
7639068000000.0,0.5612356066703796,-1.6886426210403442,9.84226131439209,-0.5482935905456543,0.006293902639299631,-0.398895,0.106901415,5.565867,-113.52913999999998,-22.309727,STN
7639715500000.0,0.5662522315979004,-1.64695143699646,9.832132339477539,-0.5314417481422424,0.010955625213682652,-0.41722095,0.11178834,5.460243,-113.3518,-22.129715,STN
7640328400000.0,0.5712506771087646,-1.603318452835083,9.821073532104492,-0.5181821584701538,0.01696409098803997,-0.42821655,0.12461651,5.353571400000001,-113.17345,-21.947191,STN
7640909000000.0,0.5762617588043213,-1.557335376739502,9.809215545654297,-0.5089158415794373,0.0247684046626091,-0.43401974,0.13103059,5.2333207,-112.9768,-21.739655,STN
7641459000000.0,0.581264853477478,-1.509291648864746,9.79979419708252,-0.5064589977264404,0.03370315209031105,-0.44501534,0.13958271,5.11837,-112.78121000000002,-21.531685,STN
7641980000000.0,0.5862584710121155,-1.459329605102539,9.7926664352417,-0.5104032754898071,0.04295933246612549,-0.45020768,0.15393804,4.9878526,-112.58197,-21.313745,STN
7642473300000.0,0.5912529230117798,-1.407261848449707,9.794061660766602,-0.5211002230644226,0.05310580134391785,-0.44318274,0.17684549,4.8577129999999995,-112.38525,-21.09424,STN
7642940400000.0,0.5962464809417725,-1.3532027006149292,9.804915428161621,-0.5382509827613831,0.06407883763313293,-0.4120286,0.20830505,4.7228174,-112.187225,-20.870893,STN
7643383000000.0,0.6012403964996338,-1.3054757118225098,9.82154655456543,-0.5554252862930298,0.07472752779722214,-0.37751472,0.2501493,4.550394,-111.98122,-20.629467,STN
7643802400000.0,0.6062358617782593,-1.266036868095398,9.842785835266113,-0.5709350109100342,0.08427156507968903,-0.34605515,0.26053402,4.370644599999999,-111.78002,-20.39074,STN
7644200000000.0,0.6112320423126221,-1.2349673509597778,9.867572784423828,-0.5818052887916565,0.0926070511341095,-0.32345316,0.26297748,4.148858000000001,-111.56152,-20.124619,STN
7644576000000.0,0.6162245869636536,-1.2119094133377075,9.895360946655273,-0.5872658491134644,0.09934262186288834,-0.30604348,0.24831672,3.9214926,-111.34742,-19.863907,STN
7644932700000.0,0.6212242245674133,-1.1958181858062744,9.915160179138184,-0.5932307839393616,0.10532858222723007,-0.29443705,0.26725355,3.7041642999999995,-111.13696000000002,-19.608301,STN
7645271000000.0,0.6262254118919373,-1.1859312057495117,9.923940658569336,-0.6015511751174927,0.11019794642925262,-0.25228736,0.28680122,3.4744506,-110.93132,-19.358954999999998,STN
7645591000000.0,0.6312234401702881,-1.1835483312606812,9.931930541992188,-0.6121636629104614,0.11384744197130203,-0.2284636,0.2565634,3.2744126000000002,-110.74003,-19.133251,STN
7645895000000.0,0.6362215280532837,-1.1892502307891846,9.94411563873291,-0.6250343322753906,0.11769310384988785,-0.25045475,0.24190263,3.078871,-110.54466000000001,-18.901964000000003,STN
7646182000000.0,0.641216516494751,-1.2025600671768188,9.948083877563477,-0.6398575901985168,0.12244068086147308,-0.22571471,0.23854288,2.8779277999999997,-110.38833999999999,-18.706345000000002,STN
7646455000000.0,0.6462123394012451,-1.2232096195220947,9.937820434570312,-0.6564873456954956,0.12665852904319763,-0.18203785,0.22082779,2.678597,-110.24037,-18.522032,STN
7646712700000.0,0.6512108445167542,-1.2501747608184814,9.915494918823242,-0.6709579825401306,0.1299353986978531,-0.13408493,0.18142697,2.4923987000000003,-110.11928,-18.362576999999998,STN
7646957500000.0,0.656209409236908,-1.2827363014221191,9.882553100585938,-0.6816431283950806,0.133151575922966,-0.11789699,0.15027285,2.3043284,-110.00410500000001,-18.207876000000002,STN
7647189300000.0,0.6612064838409424,-1.3174324035644531,9.842732429504395,-0.6874238848686218,0.1358707994222641,-0.11209377,0.11362094,2.1281687999999996,-109.93902,-18.105793,STN
7647409000000.0,0.6662057638168335,-1.352570652961731,9.797905921936035,-0.6878049373626709,0.139421746134758,-0.11911872,0.071776666,1.9518037,-109.88711,-18.014902,STN
7647617000000.0,0.6712037324905396,-1.3843859434127808,9.754159927368164,-0.6859621405601501,0.1443786323070526,-0.12003502,0.044593163,1.8087852,-109.865776,-17.960642,STN
7647815000000.0,0.6762028932571411,-1.4109530448913574,9.714648246765137,-0.68358314037323,0.15016193687915802,-0.10934488,0.029932396,1.6649453999999997,-109.85278000000001,-17.914581,STN
7648002000000.0,0.6812008619308472,-1.432582139968872,9.679128646850586,-0.6807019710540771,0.15715083479881287,-0.10231992599999999,0.005497787,1.5417413,-109.85963400000001,-17.891037,STN
7648179700000.0,0.686198890209198,-1.4495208263397217,9.6473970413208,-0.6773425936698914,0.16521595418453217,-0.10354166,-0.004581489,1.4192787,-109.868225,-17.867247,STN
7648348000000.0,0.6911977529525757,-1.461105227470398,9.622212409973145,-0.671785295009613,0.17386046051979065,-0.109650314,-0.025350908,1.3028942,-109.88577,-17.849798,STN
7648507300000.0,0.6961964964866638,-1.4670370817184448,9.605167388916016,-0.6629995107650757,0.1835743486881256,-0.11056661,-0.04184427,1.1864837,-109.90853,-17.83349,STN
7648659000000.0,0.7011949419975281,-1.4691094160079956,9.59557056427002,-0.6489697098731995,0.1932588666677475,-0.1151481,-0.04550946,1.0573776000000001,-109.90588999999999,-17.792085999999998,STN
7648802500000.0,0.7061945199966431,-1.4686148166656494,9.59287166595459,-0.6283183097839355,0.2038271278142929,-0.13713925,-0.04276056599999999,0.9347588,-109.91091999999999,-17.754208,STN
7648939000000.0,0.7111892104148865,-1.4670262336730957,9.595251083374023,-0.6018751859664917,0.21487392485141754,-0.16035213,-0.03573562,0.812366,-109.88646000000001,-17.687601,STN
7649068000000.0,0.7161839604377747,-1.4657789468765259,9.601097106933594,-0.5701676607131958,0.22521807253360748,-0.19303341,-0.032070424,0.700382,-109.86268600000001,-17.623077,STN
7649190500000.0,0.7211799621582031,-1.466499924659729,9.609237670898438,-0.5343176126480103,0.234555184841156,-0.2049453,-0.0290161,0.5963553,-109.81255,-17.53706,STN
7649307000000.0,0.726174533367157,-1.47077214717865,9.61848258972168,-0.49550652503967285,0.24339468777179718,-0.21166481,-0.022907447,0.50131553,-109.7622,-17.451479,STN
7649417500000.0,0.7311689257621765,-1.478665828704834,9.627355575561523,-0.4513106942176819,0.2512422502040863,-0.17715092,-0.0067195175,0.40772668,-109.6945,-17.35602,STN
7649522400000.0,0.7361655235290527,-1.4902615547180176,9.634467124938965,-0.3994210958480835,0.25736939907073975,-0.16096300000000002,-0.023823743999999997,0.32041329999999996,-109.632645,-17.27069,STN
7649622000000.0,0.7411811351776123,-1.5065072774887085,9.63848876953125,-0.34188389778137207,0.2620631456375122,-0.15913039999999998,-0.036651913,0.24142572,-109.56793,-17.18897,STN
7649716300000.0,0.7461755275726318,-1.5270577669143677,9.639005661010742,-0.28177231550216675,0.2650255262851715,-0.16035213,-0.033292156,0.15865213,-109.50001,-17.107985,STN
7649806000000.0,0.7511690855026245,-1.5499001741409302,9.63427448272705,-0.22097840905189514,0.26691848039627075,-0.15485434,-0.043676864,0.09822211,-109.43764499999999,-17.045433,STN
7649891000000.0,0.7561695575714111,-1.5727876424789429,9.622725486755371,-0.16165703535079956,0.2669200599193573,-0.15913039999999998,-0.058948494000000004,0.040779054,-109.37046000000001,-16.984714999999998,STN
7649971700000.0,0.7611683011054993,-1.5943386554718018,9.606451988220215,-0.10410565137863159,0.2640567421913147,-0.17837265,-0.076052725,0.0103945,-109.31426,-16.9483,STN
7650048700000.0,0.7661709189414978,-1.6129562854766846,9.587475776672363,-0.04860139638185501,0.25900208950042725,-0.19211712,-0.08124508,359.97916000000004,-109.25631000000001,-16.913207999999997,STN
7650121600000.0,0.7711687088012695,-1.6277419328689575,9.568024635314941,0.004413521848618984,0.2532727122306824,-0.24404067,-0.083383106,359.97278,-109.20817,-16.896564,STN
7650191000000.0,0.7761685252189636,-1.6372679471969604,9.550851821899414,0.054354697465896606,0.24688830971717834,-0.28038713,-0.09193522,359.96484,-109.15777,-16.883154,STN
7650257000000.0,0.7811643481254578,-1.6425458192825317,9.53618049621582,0.10178964585065842,0.2388257533311844,-0.31673363,-0.09621128,359.97702000000004,-109.09783,-16.866022,STN
7650320000000.0,0.786163330078125,-1.644946575164795,9.524650573730469,0.14764057099819183,0.22972792387008667,-0.35308012,-0.096516706,359.999,-109.03916000000001,-16.851934,STN
7650379600000.0,0.7911598086357117,-1.6447670459747314,9.515411376953125,0.192210853099823,0.21790829300880432,-0.39461896,-0.09285152,0.021220202999999997,-108.95901,-16.822275,STN
7650436000000.0,0.7961596846580505,-1.6425983905792236,9.504798889160156,0.23693759739398956,0.20413047075271606,-0.4334089,-0.087659165,0.05247856,-108.87817,-16.794065,STN
7650490000000.0,0.8011578917503357,-1.6385828256607056,9.492920875549316,0.281766414642334,0.18877552449703217,-0.46609017,-0.08796459400000001,0.085941575,-108.78008999999999,-16.755726,STN
7650541600000.0,0.8061591982841492,-1.6327837705612183,9.47981071472168,0.3267364203929901,0.17161822319030762,-0.50701815,-0.08155051,0.13257784,-108.67459,-16.716534,STN
7650590300000.0,0.8111950755119324,-1.6240824460983276,9.463878631591797,0.3719862997531891,0.15251047909259796,-0.5448918,-0.06963864,0.19019206,-108.56352,-16.676033,STN
7650637000000.0,0.816196620464325,-1.6120750904083252,9.444188117980957,0.4167096018791199,0.132028266787529,-0.552833,-0.06536258,0.24947876,-108.45093999999999,-16.636892,STN
7650681000000.0,0.8211961388587952,-1.5959208011627197,9.42084789276123,0.4621832072734833,0.10947979986667633,-0.5506949999999999,-0.07299839999999999,0.3134088,-108.31961000000001,-16.589370000000002,STN
7650723500000.0,0.8261943459510803,-1.5729345083236694,9.396827697753906,0.5138878226280212,0.08523563295602798,-0.56230146,-0.046120327,0.38354048,-108.17745,-16.532345,STN
7650764000000.0,0.8312020897865295,-1.543630599975586,9.372118949890137,0.5712762475013733,0.05992329120635986,-0.57818395,-0.04276056599999999,0.44953564,-108.030014,-16.472834,STN
7650802000000.0,0.836199164390564,-1.514701247215271,9.347302436828613,0.6263185739517212,0.033843860030174255,-0.5839871999999999,-0.044593163,0.5149059,-107.87588500000001,-16.408035,STN
7650839000000.0,0.8412166833877563,-1.4859980344772339,9.322062492370605,0.6790673732757568,0.0072009931318461895,-0.5674938,-0.044898596,0.5674964,-107.68716,-16.315151,STN
7650874000000.0,0.8462137579917908,-1.457962989807129,9.293429374694824,0.7262053489685059,-0.020968206226825714,-0.55863625,-0.053145275,0.62156624,-107.50048000000001,-16.226627,STN
7650907000000.0,0.851208508014679,-1.430501103401184,9.26125717163086,0.767838180065155,-0.049735963344573975,-0.55833083,-0.06536258,0.66966814,-107.3154,-16.137133,STN
7650939000000.0,0.8562096953392029,-1.404077172279358,9.22260856628418,0.8018149733543396,-0.07879367470741272,-0.55741453,-0.079107046,0.7125259,-107.13396499999999,-16.05111,STN
7650969400000.0,0.8612037897109985,-1.3788071870803833,9.177374839782715,0.8281328082084656,-0.1079142764210701,-0.5580254,-0.10140363,0.75299793,-106.96101000000002,-15.971967999999999,STN
7650998000000.0,0.8662025332450867,-1.3534772396087646,9.123332023620605,0.8485863208770752,-0.13655726611614227,-0.5684100999999999,-0.112399206,0.79287994,-106.79798000000001,-15.896522500000001,STN
7651026000000.0,0.8712002038955688,-1.3278545141220093,9.06067180633545,0.8639606237411499,-0.1646178811788559,-0.60139686,-0.12034045,0.83710146,-106.64371499999999,-15.82779,STN
7651053000000.0,0.8761980533599854,-1.3012011051177979,8.989891052246094,0.8739325404167175,-0.19160626828670502,-0.6469063,-0.13652839,0.88476324,-106.51299999999999,-15.773814999999999,STN
7651078000000.0,0.8812021613121033,-1.273110032081604,8.911211967468262,0.8783714771270752,-0.21764469146728516,-0.67103547,-0.15943582,0.9335708,-106.39015,-15.724620999999999,STN
7651102000000.0,0.886198878288269,-1.2444727420806885,8.824000358581543,0.8770516514778137,-0.24301166832447052,-0.7110472,-0.17043139999999998,1.0023832000000001,-106.28016000000001,-15.683247,STN
7651125000000.0,0.8911976218223572,-1.2160396575927734,8.72636604309082,0.8691920638084412,-0.2680196762084961,-0.75136423,-0.18906279,1.0758134,-106.18243400000001,-15.65109,STN
7651147000000.0,0.8961954116821289,-1.1889631748199463,8.619656562805176,0.8548179268836975,-0.2929645776748657,-0.79626286,-0.20616703,1.1587378000000002,-106.09531399999999,-15.623498000000001,STN
7651168600000.0,0.9011924266815186,-1.164243221282959,8.504931449890137,0.833901584148407,-0.318712443113327,-0.83169305,-0.22876903,1.2483749,-106.017105,-15.603191,STN
7651189000000.0,0.906189501285553,-1.1421700716018677,8.381021499633789,0.8090794682502747,-0.3453018367290497,-0.8436049000000001,-0.24495697,1.3420236,-105.95988500000001,-15.596352,STN
7651209000000.0,0.9111879467964172,-1.123654842376709,8.244397163391113,0.786374032497406,-0.37335529923439026,-0.85918194,-0.25473082,1.4450143999999998,-105.90808,-15.594344,STN
7651228000000.0,0.9161825776100159,-1.110283374786377,8.096918106079102,0.7678413987159729,-0.40295758843421936,-0.86376345,-0.27947086,1.5470899,-105.89209,-15.620892999999999,STN
7651246000000.0,0.921183168888092,-1.1055703163146973,7.940125465393066,0.7577295899391174,-0.4348237216472626,-0.8588764999999999,-0.31887165,1.6488565,-105.88286599999999,-15.653697,STN
7651263500000.0,0.9261783957481384,-1.1081492900848389,7.778914928436279,0.7583520412445068,-0.46862149238586426,-0.8576548,-0.33383787,1.7814776999999997,-105.8948,-15.708239,STN
7651280300000.0,0.9311777949333191,-1.1165382862091064,7.62158727645874,0.7765359878540039,-0.5023760199546814,-0.87109387,-0.34177909999999995,1.9149683999999998,-105.91828999999998,-15.770691000000001,STN
7651296500000.0,0.9361739754676819,-1.1299141645431519,7.470614433288574,0.8098646402359009,-0.5355850458145142,-0.9242391,-0.35155296,2.1056057999999997,-105.98486000000001,-15.877895,STN
7651312300000.0,0.9411738514900208,-1.1468605995178223,7.334915637969971,0.8542672991752625,-0.5670405626296997,-1.0103711,-0.3567453,2.3086824,-106.05738000000001,-15.984388000000001,STN
7651327500000.0,0.9461703300476074,-1.165287971496582,7.216037750244141,0.9057111144065857,-0.5955337882041931,-1.1081096000000001,-0.35460728,2.5737975,-106.152855,-16.11231,STN
7651342000000.0,0.95118248462677,-1.1805766820907593,7.120478630065918,0.9563004374504089,-0.6203599572181702,-1.1728611999999998,-0.34330627,2.8534148,-106.254906,-16.236912,STN
7651356300000.0,0.9561827778816223,-1.1920784711837769,7.0468974113464355,1.0033882856369019,-0.6410307884216309,-1.2385293,-0.33964106,3.1808422000000003,-106.37035,-16.366571,STN
7651370000000.0,0.961181640625,-1.1975369453430176,6.998250961303711,1.0413557291030884,-0.6575235724449158,-1.2690725,-0.3203988,3.5155267999999995,-73.513954,-16.485986999999998,STN
7651383000000.0,0.9661777019500732,-1.197320580482483,6.9727702140808105,1.068915843963623,-0.6716399192810059,-1.3158038,-0.30970868,3.861451,-73.41508499999999,-16.579,STN
7651395600000.0,0.9711784720420837,-1.1916873455047607,6.967646598815918,1.0742807388305664,-0.6846132874488831,-1.3182472,-0.31581733,4.201005,-73.31049,-16.669199,STN
7651407700000.0,0.976191520690918,-1.1806384325027466,6.981335639953613,1.0576703548431396,-0.6958698034286499,-1.2507466,-0.29718593,4.4902163,-73.25585,-16.704094,STN
7651419000000.0,0.9811898469924927,-1.1637578010559082,7.0015716552734375,1.0188311338424683,-0.7055823802947998,-1.1013899999999999,-0.29382620000000004,4.752714599999999,-73.19037,-16.744652,STN
7651431000000.0,0.9861870408058167,-1.1410280466079712,7.028378009796143,0.9577666521072388,-0.7144680619239807,-0.9211848,-0.28985557,4.919012,-73.16917,-16.745396,STN
7651442000000.0,0.9911859631538391,-1.1142547130584717,7.051375389099121,0.9058597087860107,-0.722977876663208,-0.72356987,-0.28527406,5.032769,-73.14721,-16.746624,STN
7651452000000.0,0.996181070804596,-1.084199070930481,7.067966938018799,0.8710817694664001,-0.7305784225463867,-0.5751295999999999,-0.2773328,5.105253,-73.12643,-16.746958,STN
7651463000000.0,1.0011793375015259,-1.0507031679153442,7.076981544494629,0.8515698909759521,-0.7383761405944824,-0.528093,-0.2742785,5.0632095,-73.14466999999999,-16.724546,STN
7651472700000.0,1.0061830282211304,-1.0137823820114136,7.077960968017578,0.8458623290061951,-0.7459536194801331,-0.548557,-0.2660318,4.998060700000001,-73.167534,-16.698551000000002,STN
7651482700000.0,1.0111819505691528,-0.9708728194236755,7.0723958015441895,0.848832905292511,-0.753485381603241,-0.5992588000000001,-0.28099802,4.965091,-73.19538,-16.655432,STN
7651492000000.0,1.0161806344985962,-0.92060387134552,7.060943603515625,0.8580759167671204,-0.7588415145874023,-0.5879578000000001,-0.26022860000000003,4.9187199999999995,-73.23656,-16.60029,STN
7651501500000.0,1.021180510520935,-0.862452507019043,7.047826766967773,0.8786314129829407,-0.7632936835289001,-0.5216789000000001,-0.24770586,4.8917933,-73.27644000000001,-16.535873000000002,STN
7651510500000.0,1.0261812210083008,-0.7962379455566406,7.035928249359131,0.9136666059494019,-0.7681108713150024,-0.48441613,-0.23793201,4.8685794,-73.32027,-16.466601999999998,STN
7651519400000.0,1.0311797857284546,-0.7229512929916382,7.030459403991699,0.9545748829841614,-0.7747873663902283,-0.4896085,-0.24617869,4.830849,-73.38557,-16.368343,STN
7651528300000.0,1.0361782312393188,-0.6431729793548584,7.034441947937012,0.9962736964225769,-0.7837938070297241,-0.49632803,-0.23793201,4.780730999999999,-73.45496999999999,-16.263647,STN
7651536700000.0,1.04117751121521,-0.5644533038139343,7.063502788543701,1.0376845598220825,-0.795331597328186,-0.44684792,-0.21197024,4.706591,-73.55201,-16.115465,STN
7651545000000.0,1.0461770296096802,-0.4926256835460663,7.129310607910156,1.0779672861099243,-0.809575080871582,-0.35796702,-0.16340645,4.620429,-73.64981999999999,-15.960293,STN
7651553400000.0,1.0511746406555176,-0.43546321988105774,7.243971347808838,1.1169742345809937,-0.8293099999427795,-0.25961772,-0.08277224,4.483615,-73.796036,-15.7434435,STN
7651561300000.0,1.0561754703521729,-0.3967161178588867,7.413476467132568,1.1546839475631714,-0.8556272387504578,-0.13530666,0.014355333500000001,4.3098645,-73.94691,-15.512619,STN
7651569000000.0,1.0611745119094849,-0.3804488778114319,7.640836715698242,1.1978510618209839,-0.8903734683990479,-0.07238753,0.13316862,4.107589,-74.1314,-15.229242999999999,STN
7651577000000.0,1.0662206411361694,-0.39220085740089417,7.939251899719238,1.2512935400009155,-0.9283790588378906,0.036651913,0.19700404,3.8535373,-74.31113,-14.94254,STN
7651584400000.0,1.071219563484192,-0.4220675826072693,8.26882553100586,1.3074188232421875,-0.9751836657524109,0.09712757,0.31123585,3.5946848,-74.50053,-14.610738000000001,STN
7651591700000.0,1.0762165784835815,-0.47246482968330383,8.630996704101562,1.3654404878616333,-1.0289835929870605,0.10140363,0.46181414,3.3189821000000004,-74.690285,-14.26031,STN
7651599000000.0,1.0812132358551025,-0.5377345085144043,9.01888370513916,1.4149065017700195,-1.0876156091690063,0.12156218,0.59986967,3.04304,-74.84340999999999,-13.909915,STN
7651606400000.0,1.0862092971801758,-0.6140089631080627,9.427515983581543,1.4495398998260498,-1.1492270231246948,0.19058995,0.7302894,2.7496996,-74.989136,-13.533645000000002,STN
7651613000000.0,1.0912063121795654,-0.6983672380447388,9.840154647827148,1.479677438735962,-1.2162470817565918,0.3817908,0.82253003,2.4431507999999997,-75.077095,-13.176535999999999,STN
7651620000000.0,1.0962038040161133,-0.7887526154518127,10.246002197265625,1.5119503736495972,-1.2905523777008057,0.6404922,0.8848383,2.0961576,-75.13595,-12.81097,STN
7651627000000.0,1.1012003421783447,-0.8853950500488281,10.637207984924316,1.5441008806228638,-1.3720803260803223,0.81000733,0.8891144,1.7178551,-75.15649,-12.468811,STN
7651633700000.0,1.106204867362976,-0.9892095327377319,11.00298023223877,1.5731050968170166,-1.4621225595474243,0.95325524,0.86529064,1.2771552,-75.11665,-12.140566,STN
7651640500000.0,1.1112037897109985,-1.0999141931533813,11.35886287689209,1.6059889793395996,-1.5610554218292236,1.0787879999999999,0.8335256,0.8236902,-74.98363499999999,-11.851184,STN
7651647000000.0,1.1162046194076538,-1.2179559469223022,11.715126037597656,1.6473026275634766,-1.66580069065094,1.1945469,0.8332202,0.33755144,-74.7886,-11.577722999999999,STN
7651653000000.0,1.1212040185928345,-1.3568748235702515,12.070464134216309,1.7187045812606812,-1.7717351913452148,1.2400563999999998,0.87689704,359.86947999999995,-74.510544,-11.34181,STN
7651659400000.0,1.1262037754058838,-1.5261934995651245,12.424274444580078,1.8352962732315063,-1.871877670288086,1.1658363,0.9575313,359.40582,-74.20277,-11.103661,STN
7651665600000.0,1.1312029361724854,-1.736102819442749,12.771791458129883,1.9962188005447388,-1.9612303972244263,0.8927795000000001,1.0598511999999998,359.00632,-73.85155999999999,-10.865234,STN
7651672000000.0,1.1362452507019043,-2.005530834197998,13.110233306884766,2.2092854976654053,-2.0339062213897705,0.46150870000000005,1.1786644,358.67078,-73.52828000000001,-10.592103,STN
7651678000000.0,1.1412397623062134,-2.312575340270996,13.426599502563477,2.439591646194458,-2.0852596759796143,-0.09010262,1.2925909,358.50872999999996,-73.11666,-10.342578999999999,STN
7651684500000.0,1.146235466003418,-2.669243097305298,13.699441909790039,2.6624720096588135,-2.11418080329895,-0.6020076999999999,1.3585643,358.44788,-72.76661,-10.051733,STN
7651691000000.0,1.1512291431427002,-3.0477726459503174,13.917669296264648,2.8646626472473145,-2.1245181560516357,-0.97219205,1.314582,358.57657,-72.307014,-9.859207000000001,STN
7651696600000.0,1.1562284231185913,-3.4117817878723145,14.062541961669922,3.0266849994659424,-2.1163833141326904,-1.1533136,1.2263118999999998,358.78195,-71.94192,-9.638422,STN
7651702300000.0,1.161224365234375,-3.7582478523254395,14.139934539794922,3.1522676944732666,-2.092925548553467,-1.1771374,1.1679743999999999,359.0979,-71.56499000000001,-9.534396000000001,STN
7651708000000.0,1.1662206649780273,-4.0586090087890625,14.152444839477539,3.2482106685638428,-2.064499855041504,-1.1893546999999998,1.0406090000000001,359.46124,-71.21084,-9.457543,STN
7651714000000.0,1.171216607093811,-4.313220977783203,14.107483863830566,3.3181872367858887,-2.026845932006836,-1.1988231000000003,0.9279043,359.8424,-70.95128000000001,-9.435753,STN
7651719600000.0,1.1762137413024902,-4.511743068695068,14.029364585876465,3.375065565109253,-1.983629822731018,-1.2305881,0.818254,0.23607457,-70.695915,-9.443711,STN
7651725400000.0,1.181225299835205,-4.653794288635254,13.920169830322266,3.4202029705047607,-1.9353431463241577,-1.2815952,0.73731434,0.6345775,-70.49597,-9.447374,STN
7651731000000.0,1.186221957206726,-4.731470584869385,13.81003189086914,3.4686455726623535,-1.8827770948410034,-1.3115277,0.66889745,1.0397513,-70.31997,-9.47856,STN
7651737000000.0,1.1912190914154053,-4.744901657104492,13.698607444763184,3.5205488204956055,-1.8272664546966553,-1.3136656999999998,0.61453044,1.4244629,-70.17900999999999,-9.457875,STN
7651742700000.0,1.1962121725082397,-4.6985554695129395,13.586090087890625,3.5756232738494873,-1.7692937850952148,-1.2757921,0.5589417,1.8079648999999998,-70.061295,-9.461522,STN
7651748500000.0,1.2012081146240234,-4.613322734832764,13.490177154541016,3.6282336711883545,-1.710699439048767,-1.2064588,0.54183745,2.18099,-69.962036,-9.47633,STN
7651754000000.0,1.2062219381332397,-4.494288444519043,13.415507316589355,3.6769824028015137,-1.6542510986328125,-1.1255191999999998,0.54550266,2.540473,-69.87154,-9.508942,STN
7651760000000.0,1.2112187147140503,-4.351526260375977,13.358819007873535,3.711447238922119,-1.6019179821014404,-0.97219205,0.5540548000000001,2.7886074,-69.8049,-9.368535000000001,STN
7651765000000.0,1.2162123918533325,-4.185741424560547,13.31982421875,3.728888511657715,-1.555775761604309,-0.75319684,0.5717699,2.989925,-69.73371999999999,-9.2424135,STN
7651770500000.0,1.221210241317749,-4.008172035217285,13.28887939453125,3.725813865661621,-1.5163573026657104,-0.49174652,0.59773165,3.0975243999999997,-69.68942,-9.055195,STN
7651776000000.0,1.2262041568756104,-3.8230221271514893,13.262889862060547,3.7028067111968994,-1.4832228422164917,-0.22021692,0.62125,3.135897,-69.630714,-8.888635,STN
7651781000000.0,1.2312020063400269,-3.643643617630005,13.226653099060059,3.66767954826355,-1.454979419708252,0.017104227,0.6579019,3.075557,-69.62106,-8.675557000000001,STN
7651786000000.0,1.2361986637115479,-3.473033905029297,13.177321434020996,3.623089075088501,-1.4308454990386963,0.21319197,0.6719518,2.9486136000000003,-69.59288000000001,-8.486495,STN
7651791500000.0,1.241196632385254,-3.318791389465332,13.110119819641113,3.575334310531616,-1.409967303276062,0.36193767,0.68233645,2.7504972999999997,-69.613045,-8.279297,STN
7651796700000.0,1.2461923360824585,-3.181000232696533,13.025568008422852,3.525420665740967,-1.3910645246505737,0.46211955,0.6646214,2.5119617,-69.62222,-8.091442,STN
7651802000000.0,1.2511889934539795,-3.060025930404663,12.922462463378906,3.4786758422851562,-1.3740155696868896,0.5366451,0.6389651,2.2568243,-69.60739000000001,-7.912609599999999,STN
7651807000000.0,1.2561900615692139,-2.9555256366729736,12.800787925720215,3.4369289875030518,-1.3578263521194458,0.5537493,0.61911196,1.9922541,-69.59087,-7.742089999999999,STN
7651812400000.0,1.2611883878707886,-2.866966962814331,12.661182403564453,3.405566930770874,-1.3425161838531494,0.58276546,0.605062,1.7336006999999998,-69.52825,-7.603377,STN
7651817700000.0,1.2661867141723633,-2.793898344039917,12.503886222839355,3.3869032859802246,-1.3274847269058228,0.58276546,0.57635134,1.4838464,-69.46659,-7.4736247,STN
7651823000000.0,1.271187663078308,-2.7351417541503906,12.333657264709473,3.3773627281188965,-1.311594009399414,0.56199604,0.5467244000000001,1.2626152,-69.36851999999999,-7.3705955,STN
7651828000000.0,1.276200771331787,-2.6900830268859863,12.152398109436035,3.37528920173645,-1.2941899299621582,0.52687126,0.5329799,1.0494446000000002,-69.278534,-7.270078,STN
7651833400000.0,1.2812000513076782,-2.6538593769073486,11.960787773132324,3.3766863346099854,-1.2732371091842651,0.4905248,0.5296202,0.8738822,-69.14888,-7.1945915,STN
7651838700000.0,1.2861994504928589,-2.624498128890991,11.757325172424316,3.379826068878174,-1.2485177516937256,0.4370741,0.49296826,0.7196893,-69.03283,-7.127417599999999,STN
7651844000000.0,1.2911990880966187,-2.599139451980591,11.541972160339355,3.379272699356079,-1.2181652784347534,0.38942659999999996,0.46120325,0.59857374,-68.89869,-7.079890299999999,STN
7651849000000.0,1.296198844909668,-2.576205253601074,11.31502628326416,3.3723106384277344,-1.1832125186920166,0.33139440000000003,0.40591997,0.5026755999999999,-68.7839,-7.043233,STN
7651854400000.0,1.301198124885559,-2.5558810234069824,11.081293106079102,3.356651544570923,-1.144620656967163,0.3051272,0.37782016,0.43488999999999994,-68.662766,-7.017736,STN
7651859600000.0,1.3061989545822144,-2.538147211074829,10.842430114746094,3.331777334213257,-1.1026488542556763,0.30573806,0.36651915,0.38045034,-68.57223,-7.0005616999999996,STN
7651865000000.0,1.3111985921859741,-2.519134044647217,10.596579551696777,3.2985358238220215,-1.05720055103302,0.30207285,0.364992,0.35811085,-68.49144,-6.989090400000001,STN
7651870000000.0,1.3161975145339966,-2.4973466396331787,10.343125343322754,3.2574706077575684,-1.0094701051712036,0.30329459999999997,0.35369098,0.33682740000000005,-68.43308,-6.9849429999999995,STN
7651875400000.0,1.321197509765625,-2.4715399742126465,10.084844589233398,3.2089757919311523,-0.9596931338310242,0.30970868,0.3304781,0.34680393,-68.39707,-6.986724400000001,STN
7651880600000.0,1.3261981010437012,-2.4413058757781982,9.823172569274902,3.1534781455993652,-0.908629834651947,0.30879238,0.31306845,0.35820630000000003,-68.3815,-6.9907392999999995,STN
7651886000000.0,1.3311972618103027,-2.4061319828033447,9.557682037353516,3.093438148498535,-0.8562347888946533,0.30451632,0.29779682,0.38459983,-68.376015,-6.993348599999999,STN
7651891000000.0,1.3361960649490356,-2.3658511638641357,9.288138389587402,3.0301148891448975,-0.8025951981544495,0.32192600000000005,0.26450464,0.40752235,-68.38645,-7.0089707,STN
7651896300000.0,1.3411943912506104,-2.321924924850464,9.014959335327148,2.9671828746795654,-0.7474844455718994,0.3304781,0.226631,0.44134125,-68.4093,-7.0162130000000005,STN
7651901600000.0,1.3461929559707642,-2.275294542312622,8.738428115844727,2.9068479537963867,-0.6909646391868591,0.31734450000000003,0.18936823,0.47814372,-68.44803,-7.032952000000001,STN
7651907000000.0,1.3511898517608643,-2.228170394897461,8.462384223937988,2.851646900177002,-0.6330783367156982,0.2883284,0.14782938,0.5174677,-68.49290500000001,-7.046612700000001,STN
7651912000000.0,1.3561933040618896,-2.1819820404052734,8.188973426818848,2.80332612991333,-0.5740610957145691,0.23976462,0.105374254,0.5680491999999999,-68.55297,-7.068177,STN
7651917300000.0,1.361193299293518,-2.138874053955078,7.920497417449951,2.759521245956421,-0.5163334608078003,0.17715092,0.08460484,0.63515645,-68.60394000000001,-7.0796523,STN
7651922500000.0,1.3661928176879883,-2.1000754833221436,7.657904148101807,2.7188053131103516,-0.4575478434562683,0.112399206,0.054061572999999995,0.7192851,-68.67973,-7.101182499999999,STN
7651928000000.0,1.3711926937103271,-2.0653631687164307,7.400852203369141,2.681016206741333,-0.3978094458580017,0.05467244,0.028405233999999998,0.8044861999999999,-68.75116,-7.128574400000001,STN
7651933000000.0,1.3761930465698242,-2.034519910812378,7.149044036865234,2.645998239517212,-0.33690863847732544,-0.009773844,0.005497787,0.9108761000000001,-68.83856999999999,-7.15742,STN
7651938300000.0,1.3811925649642944,-2.0103421211242676,6.902480602264404,2.610027551651001,-0.2745492458343506,-0.05375614,-0.03145956,1.0267932,-68.93638,-7.1963344,STN
7651943500000.0,1.3861923217773438,-1.9949605464935303,6.661048889160156,2.5702178478240967,-0.21146008372306824,-0.089186326,-0.051923547,1.1571789,-69.04767,-7.232889699999999,STN
7651949000000.0,1.3912363052368164,-1.9887381792068481,6.42648458480835,2.5209126472473145,-0.1465080827474594,-0.113926366,-0.08704830000000001,1.302192,-69.16301999999999,-7.306366400000001,STN
7651954000000.0,1.3962335586547852,-1.9885914325714111,6.201867580413818,2.4633853435516357,-0.07998786121606827,-0.10354166,-0.1151481,1.4481893999999997,-69.29051,-7.3851023,STN
7651959000000.0,1.4012302160263062,-1.9941188097000122,5.982641220092773,2.4015209674835205,-0.011527216993272305,-0.06841691,-0.12461651,1.6227225,-69.41487,-7.492319999999999,STN
7651964500000.0,1.4062304496765137,-2.003912925720215,5.7649617195129395,2.340926170349121,0.05994240194559097,-0.08032878,-0.14569137,1.8104571,-69.55829,-7.609091,STN
7651969700000.0,1.4112277030944824,-2.015174388885498,5.555203914642334,2.2811148166656494,0.13284450769424438,-0.076358154,-0.19822577,1.9906258999999997,-69.73049,-7.775395,STN
7651974400000.0,1.416225790977478,-2.0250847339630127,5.359879493713379,2.221486806869507,0.20702138543128967,-0.090713486,-0.22632557,2.1792161,-69.92426,-7.940384,STN
7651979700000.0,1.4212218523025513,-2.031982183456421,5.178012371063232,2.1608328819274902,0.28297480940818787,-0.09560041,-0.24312437,2.3728432999999995,-70.1311,-8.146405999999999,STN
7651984400000.0,1.4262187480926514,-2.0336012840270996,5.00868034362793,2.0974667072296143,0.36109840869903564,-0.11209377,-0.26847526,2.5781865,-70.34679,-8.362839,STN
7651989700000.0,1.4312149286270142,-2.026961088180542,4.854349136352539,2.0328118801116943,0.44086959958076477,-0.11698069400000001,-0.28160888,2.7761202000000003,-70.587166,-8.5820875,STN
7651994400000.0,1.436211109161377,-2.0082955360412598,4.718241214752197,1.9685078859329224,0.5221354365348816,-0.11789699,-0.28710666,2.980182,-70.83793,-8.807903,STN
7651999600000.0,1.4412078857421875,-1.976055383682251,4.603161811828613,1.9037680625915527,0.6053860187530518,-0.07819075,-0.26328292,3.152835,-71.13193000000001,-9.02203,STN
7652004300000.0,1.4462052583694458,-1.9258350133895874,4.516881942749023,1.8368116617202759,0.6892784833908081,-0.009162978,-0.24190263,3.3192277000000003,-71.42694,-9.243182000000001,STN
7652009600000.0,1.4512003660202026,-1.8583710193634033,4.457077503204346,1.7702490091323853,0.7729485034942627,0.028710667000000002,-0.22327125,3.4496512000000004,-71.77139,-9.401621,STN
7652015000000.0,1.456199288368225,-1.773457407951355,4.422000408172607,1.7077288627624512,0.8540313839912415,0.09315695,-0.19364429,3.5515087,-72.11378,-9.560089,STN
7652020000000.0,1.4612281322479248,-1.6684001684188843,4.4225172996521,1.6569252014160156,0.9347973465919495,0.124311075,-0.15027285,3.5921135000000004,-72.55804,-9.623462,STN
7652025000000.0,1.4662243127822876,-1.5473835468292236,4.462399005889893,1.6252917051315308,1.0146936178207397,0.12125675400000001,-0.11545353400000001,3.6231165,-72.9939,-9.683069999999999,STN
7652030000000.0,1.4712328910827637,-1.4093416929244995,4.54628324508667,1.6151010990142822,1.0922038555145264,0.08093964,-0.099265605,3.5927812999999995,-73.51138,-9.628216,STN
7652035000000.0,1.4762294292449951,-1.2874654531478882,4.660131931304932,1.6273424625396729,1.1658438444137573,0.07849618,-0.103847094,3.5519385000000003,-74.02371,-9.570861,STN
7652039500000.0,1.4812254905700684,-1.1837717294692993,4.803648471832275,1.6608296632766724,1.23272705078125,0.0842994,-0.1255328,3.4486156,-74.57784000000001,-9.342519,STN
7652044700000.0,1.4862215518951416,-1.108217477798462,4.974555015563965,1.7104241847991943,1.2908697128295898,0.15485434,-0.1908954,3.3308949999999995,-75.10134000000001,-9.132694,STN
7652049400000.0,1.4912166595458984,-1.0587071180343628,5.170631408691406,1.7750605344772339,1.339565634727478,0.28221974,-0.24556783,3.221396,-75.53518000000001,-8.93186,STN
7652054700000.0,1.4962131977081299,-1.0305882692337036,5.386587142944336,1.853153109550476,1.377234697341919,0.48930305,-0.29168814,3.0719252,-75.91642,-8.759639,STN
7652059400000.0,1.5012104511260986,-1.022665023803711,5.621272563934326,1.943934440612793,1.4041228294372559,0.6963864000000001,-0.3277292,2.9377806,-76.16481,-8.687599,STN
7652064600000.0,1.5062092542648315,-1.0163952112197876,5.86164665222168,2.0462453365325928,1.4191279411315918,0.8081746999999999,-0.32589662,2.7737796,-76.36395999999999,-8.6261215,STN
7652070000000.0,1.5112082958221436,-1.009078025817871,6.104445457458496,2.1580817699432373,1.425341248512268,0.766025,-0.28130344,2.5972362,-76.5349,-8.566361,STN
7652074600000.0,1.5162053108215332,-0.9864166378974915,6.325700283050537,2.2624831199645996,1.4245171546936035,0.65179324,-0.23609942,2.4434342,-76.64424,-8.582500999999999,STN
7652080000000.0,1.5212178230285645,-0.9478896856307983,6.525157451629639,2.359055519104004,1.4203349351882935,0.53969944,-0.19486602,2.290187,-76.76644,-8.576963000000001,STN
7652084500000.0,1.5262150764465332,-0.8918159604072571,6.692933559417725,2.438382625579834,1.4149757623672485,0.37812558,-0.15302174,2.1839049999999998,-76.87581,-8.550441000000001,STN
7652090000000.0,1.5312291383743286,-0.817200243473053,6.827721118927002,2.4997472763061523,1.411302089691162,0.2134974,-0.08857546,2.0678756000000003,-77.05924,-8.439297,STN
7652094500000.0,1.5362248420715332,-0.7335145473480225,6.929957389831543,2.544312000274658,1.4098262786865234,0.03756821,-0.027794369,2.0010746,-77.24188000000001,-8.312624000000001,STN
7652100000000.0,1.5412300825119019,-0.640800416469574,6.99896240234375,2.572059154510498,1.4124008417129517,-0.12339478,0.03268129,1.9298495999999998,-77.52371,-8.088225,STN
7652104500000.0,1.5462262630462646,-0.5525763034820557,7.042642593383789,2.5917880535125732,1.420128345489502,-0.18661933,0.07727446,1.8792741999999998,-77.81904,-7.854627000000001,STN
7652109700000.0,1.551220417022705,-0.46859124302864075,7.0617876052856445,2.60375714302063,1.4326364994049072,-0.28741209999999995,0.094989546,1.8545212,-78.185135,-7.56553,STN
7652114400000.0,1.5562182664871216,-0.3990064561367035,7.067076206207275,2.612889051437378,1.4462196826934814,-0.37262779999999995,0.122478485,1.840114,-78.55781999999999,-7.2673254,STN
7652119700000.0,1.5612128973007202,-0.344667911529541,7.061331748962402,2.620223045349121,1.463099479675293,-0.39492437,0.11301007,1.8363377,-78.94648000000001,-6.981463400000001,STN
7652124400000.0,1.5662100315093994,-0.31052014231681824,7.060570240020752,2.623832941055298,1.4800400733947754,-0.38545597,0.079107046,1.8465923999999998,-79.34121999999999,-6.712464999999999,STN
7652129600000.0,1.5712062120437622,-0.29573965072631836,7.065781116485596,2.6237902641296387,1.4942222833633423,-0.32131509999999996,0.0076358155,1.8481808999999998,-79.721275,-6.465015,STN
7652134400000.0,1.5762041807174683,-0.30275219678878784,7.093790054321289,2.6250948905944824,1.5037257671356201,-0.2275473,-0.063224554,1.8637115000000002,-80.06455,-6.292153,STN
7652139600000.0,1.58119797706604,-0.33042410016059875,7.1453938484191895,2.628357410430908,1.5067001581192017,-0.092240654,-0.15118915,1.8516631999999997,-80.36548,-6.152486,STN
7652144300000.0,1.5861952304840088,-0.37227651476860046,7.227550983428955,2.637775182723999,1.5015565156936646,0.0842994,-0.22479841,1.8408790000000002,-80.59684,-6.115876,STN
7652149600000.0,1.5911905765533447,-0.4264432191848755,7.339025020599365,2.6534783840179443,1.4878157377243042,0.27397305,-0.27855456,1.7901324,-80.77835,-6.104739,STN
7652155000000.0,1.5961881875991821,-0.4864729940891266,7.474785327911377,2.6860830783843994,1.4645850658416748,0.45265114,-0.310625,1.7355578,-80.86287,-6.1995,STN
7652160000000.0,1.6012078523635864,-0.5510097742080688,7.63464879989624,2.7390410900115967,1.4338027238845825,0.5992588000000001,-0.31887165,1.6378005,-80.90602,-6.3047949999999995,STN
7652165000000.0,1.6062047481536865,-0.6138428449630737,7.798998832702637,2.8167922496795654,1.3955618143081665,0.67073005,-0.30970868,1.5381280000000002,-80.875175,-6.4648356,STN
7652169500000.0,1.611200213432312,-0.6730522513389587,7.962568759918213,2.9242398738861084,1.3510410785675049,0.68783426,-0.29016098,1.4132576000000001,-80.81354499999999,-6.6206380000000005,STN
7652174700000.0,1.6161984205245972,-0.726749062538147,8.107902526855469,3.0540647506713867,1.3020565509796143,0.63285637,-0.26389378,1.3000493999999998,-80.70749,-6.7840753,STN
7652179400000.0,1.6211968660354614,-0.774738073348999,8.231734275817871,3.2032973766326904,1.2501970529556274,0.53786683,-0.24373524,1.1938128000000001,-80.58243,-6.9360365999999996,STN
7652184700000.0,1.6261957883834839,-0.8211489915847778,8.333564758300781,3.3668503761291504,1.1963483095169067,0.37568212,-0.22724187,1.1278663999999998,-80.41058000000001,-7.067414299999999,STN
7652189400000.0,1.6311936378479004,-0.8680474162101746,8.413797378540039,3.5417304039001465,1.1398513317108154,0.15821409,-0.22082779,1.1052263999999998,-80.22344,-7.1860695,STN
7652194600000.0,1.6361908912658691,-0.9218239784240723,8.480486869812012,3.7183401584625244,1.0825400352478027,-0.08521569999999999,-0.20983220000000002,1.1415173,-79.99859000000001,-7.2847724000000005,STN
7652199400000.0,1.6411877870559692,-0.9909399747848511,8.54389762878418,3.8841586112976074,1.0236601829528809,-0.29046643,-0.21197024,1.2294194,-79.7529,-7.3759565,STN
7652204600000.0,1.646183729171753,-1.0855966806411743,8.616689682006836,4.028337478637695,0.9638977646827698,-0.37598756,-0.21471913,1.3689076999999998,-79.466965,-7.4818177,STN
7652209300000.0,1.6511826515197754,-1.213310956954956,8.708105087280273,4.143096446990967,0.9056110978126526,-0.44929138,-0.23945917,1.564054,-79.17034,-7.584569,STN
7652214600000.0,1.656179666519165,-1.3780583143234253,8.828234672546387,4.2120795249938965,0.8466868996620178,-0.38789943,-0.27855456,1.7814618000000002,-78.80714,-7.763047,STN
7652219300000.0,1.6611762046813965,-1.5831654071807861,8.984834671020508,4.222981929779053,0.7874847054481506,-0.22388211,-0.33200526,1.991123,-78.43668000000001,-7.949226400000001,STN
7652224500000.0,1.6661735773086548,-1.8194822072982788,9.191160202026367,4.177191257476807,0.7259358167648315,-0.044593163,-0.40011674,2.2525313,-77.98813,-8.289543,STN
7652230000000.0,1.671172857284546,-2.0788326263427734,9.458503723144531,4.076230525970459,0.6677972674369812,0.0693332,-0.408058,2.4831483,-77.56125,-8.620922,STN
7652234500000.0,1.676169753074646,-2.3524487018585205,9.776713371276855,3.9325294494628906,0.6165659427642822,0.053450707,-0.3381139,2.77089,-77.1444,-9.099346,STN
7652239700000.0,1.6811686754226685,-2.6327078342437744,10.138059616088867,3.756594181060791,0.5715645551681519,-0.16584991,-0.24465153,3.0767074,-76.74429,-9.545408,STN
7652244500000.0,1.6861664056777954,-2.9030251502990723,10.517353057861328,3.5685408115386963,0.5324447751045227,-0.49938235,-0.10476339,3.44714620817635,-76.4951108597194,-9.95759735511022,STN
7652249700000.0,1.6911643743515015,-3.146789789199829,10.889981269836426,3.3881733417510986,0.4968584477901459,-0.86437434,0.027183502999999998,3.8195202000000004,-76.24463,-10.371939999999999,STN
7652254400000.0,1.6961634159088135,-3.3551931381225586,11.237503051757812,3.2186567783355713,0.4623873233795166,-1.2678508,0.15149458,4.2873225,-76.08274,-10.687937,STN
7652259700000.0,1.7011619806289673,-3.506418228149414,11.517230033874512,3.0677828788757324,0.4274093210697174,-1.6621643,0.23762658,4.8381205000000005,-75.94643,-10.939853,STN
7652264400000.0,1.706157922744751,-3.603288173675537,11.731544494628906,2.9288225173950195,0.3937907814979553,-2.0207422,0.32925636,5.4415593,-75.90019000000001,-11.072877,STN
7652269600000.0,1.7111536264419556,-3.646232843399048,11.877790451049805,2.7812082767486572,0.36178481578826904,-2.2229384999999997,0.41233405,6.098535,-75.86516999999999,-11.16537,STN
7652274300000.0,1.7161487340927124,-3.6650962829589844,11.991125106811523,2.624539613723755,0.33058929443359375,-2.1716259,0.44318274,6.734094,-75.89591,-11.149161999999999,STN
7652279600000.0,1.7211467027664185,-3.6913821697235107,12.108635902404785,2.45808744430542,0.2980937659740448,-1.9233092,0.43096542,7.359524,-75.92283,-11.125948,STN
7652284300000.0,1.7261415719985962,-3.724480152130127,12.255349159240723,2.320441484451294,0.2610307037830353,-1.7061466,0.33139440000000003,7.9286785,-75.99047,-11.043515,STN
7652289500000.0,1.731137752532959,-3.7641184329986572,12.461165428161621,2.256075382232666,0.21518349647521973,-1.600467,0.15515977,8.454742999999999,-76.007,-10.999172999999999,STN
7652294300000.0,1.736133337020874,-3.7810885906219482,12.711660385131836,2.2480194568634033,0.15589292347431183,-1.6643023000000001,-0.00061086525,8.972743,-75.96942,-10.994618,STN
7652299500000.0,1.741132140159607,-3.723191499710083,12.985255241394043,2.2707228660583496,0.08971898257732391,-1.7253889,0.04184427,9.451797500000001,-75.91901,-10.990043,STN
7652304000000.0,1.7461260557174683,-3.5906293392181396,13.247275352478027,2.2684733867645264,0.028162218630313873,-1.6276505,0.12278391400000001,9.905669,-75.78859,-11.008147,STN
7652309500000.0,1.7511225938796997,-3.376556634902954,13.451395034790039,2.1646811962127686,-0.028714168816804886,-1.1753048000000001,0.23884831,10.263774,-75.64482,-11.017344999999999,STN
7652314700000.0,1.7561235427856445,-3.099188804626465,13.587055206298828,1.977008581161499,-0.07748091965913773,-0.46792278,0.23518312,10.44125,-75.61685,-10.8647785,STN
7652319400000.0,1.7611253261566162,-2.812206506729126,13.613228797912598,1.7552169561386108,-0.119530588388443,-0.10079276599999999,0.21319197,10.578917,-75.60498,-10.698414999999999,STN
7652324700000.0,1.7661232948303223,-2.5243043899536133,13.542658805847168,1.517475962638855,-0.15668611228466034,-0.023823743999999997,0.20708331,10.4713955,-75.85295,-10.358698,STN
7652329400000.0,1.7711257934570312,-2.2592592239379883,13.39370059967041,1.3124414682388306,-0.18876881897449493,-0.08093964,0.18875736,10.303379,-76.10035,-10.04987,STN
7652334600000.0,1.776126503944397,-2.0163519382476807,13.178366661071777,1.133591651916504,-0.2122889757156372,-0.20097467,0.17256944,10.133192999999999,-76.39046,-9.721573,STN
7652339400000.0,1.781128168106079,-1.7974531650543213,12.926137924194336,0.9604138731956482,-0.22312897443771362,-0.30024028,0.15241088,9.979632,-76.70154000000001,-9.402813,STN
7652344600000.0,1.7861295938491821,-1.608736515045166,12.654129028320312,0.7942674160003662,-0.2192462682723999,-0.32314770000000004,0.12767084,9.879219,-76.96885,-9.134749000000001,STN
7652350000000.0,1.7911319732666016,-1.4794889688491821,12.424742698669434,0.6415364742279053,-0.201490581035614,-0.27885997,0.11545353400000001,9.788997,-77.27834,-8.868694999999999,STN
7652354600000.0,1.7961326837539673,-1.4016159772872925,12.24036979675293,0.5067101716995239,-0.17190341651439667,-0.18387043,0.0842994,9.71964,-77.58980600000001,-8.654539999999999,STN
7652360000000.0,1.8011343479156494,-1.3513612747192383,12.122600555419922,0.4141453206539154,-0.13228729367256165,-0.0693332,0.032070424,9.63316,-77.94514000000001,-8.45214,STN
7652364500000.0,1.806136131286621,-1.3260339498519897,12.06637954711914,0.3606570363044739,-0.08447885513305664,0.011911871999999999,0.0015271631,9.573802,-78.265274,-8.368019,STN
7652370000000.0,1.811137080192566,-1.3175556659698486,12.06042766571045,0.339209645986557,-0.030298270285129547,0.043982297000000004,0.007941248,9.495778,-78.614265,-8.290405999999999,STN
7652374500000.0,1.8161383867263794,-1.3236390352249146,12.09730052947998,0.34628385305404663,0.02678961493074894,0.011301007,0.029932396,9.4304285,-78.923485,-8.262371,STN
7652379700000.0,1.8211705684661865,-1.3374887704849243,12.15353775024414,0.37333014607429504,0.08439987152814865,-0.073303826,0.008857545999999999,9.372058,-79.23307,-8.242865,STN
7652384400000.0,1.8261677026748657,-1.3569424152374268,12.223498344421387,0.41488611698150635,0.1408769190311432,-0.18539760000000002,0.003970624,9.343253,-79.51024,-8.234214999999999,STN
7652389700000.0,1.8311669826507568,-1.3785464763641357,12.288414001464844,0.46159711480140686,0.19369305670261383,-0.33567044,-0.0070249503,9.350804,-79.76523,-8.228235,STN
7652394400000.0,1.836167335510254,-1.4014201164245605,12.344786643981934,0.511144757270813,0.24001578986644745,-0.4541782999999999,-0.023823743999999997,9.381453,-79.99545,-8.222522999999999,STN
7652399600000.0,1.8411661386489868,-1.4256401062011719,12.381160736083984,0.561374306678772,0.2803213894367218,-0.48716503,-0.015577064,9.442289,-80.17900999999999,-8.223305,STN
7652404400000.0,1.846164345741272,-1.4512028694152832,12.394265174865723,0.6115604043006897,0.31639549136161804,-0.5036584,-0.0067195175,9.531654,-80.337875,-8.226363000000001,STN
7652409600000.0,1.8511648178100586,-1.4812054634094238,12.379443168640137,0.6662919521331787,0.3470800518989563,-0.47311515,-0.0030543262,9.623689,-80.45877,-8.236857,STN
7652415000000.0,1.8561689853668213,-1.5162427425384521,12.336580276489258,0.7265262603759766,0.37347611784935,-0.44165558,-0.037873644,9.7194805,-80.55870999999999,-8.25617,STN
7652419600000.0,1.8611639738082886,-1.5517070293426514,12.268972396850586,0.7856589555740356,0.39784693717956543,-0.41416663,-0.053145275,9.827558,-80.640236,-8.276436,STN
7652424300000.0,1.8661577701568604,-1.586496114730835,12.177270889282227,0.842126190662384,0.4210003614425659,-0.36621370000000003,-0.06536258,9.920113,-80.70148499999999,-8.30734,STN
7652429500000.0,1.8711551427841187,-1.6172667741775513,12.06006145477295,0.8972218632698059,0.44365233182907104,-0.30268374,-0.063224554,10.019956,-80.72332,-8.366601,STN
7652434000000.0,1.8761509656906128,-1.642595887184143,11.91814136505127,0.9515537023544312,0.4662039875984192,-0.2519819,-0.06047566,10.109391,-80.73761999999999,-8.429680000000001,STN
7652439500000.0,1.881146788597107,-1.6570804119110107,11.756714820861816,1.0052133798599243,0.4887095093727112,-0.21288654,-0.05497787,10.206833999999999,-80.74103000000001,-8.498260499999999,STN
7652444700000.0,1.8861442804336548,-1.6598074436187744,11.577675819396973,1.058260440826416,0.5115294456481934,-0.20861048,-0.076052725,10.299964,-80.735825,-8.573844,STN
7652450000000.0,1.8911521434783936,-1.649462342262268,11.383708953857422,1.1053751707077026,0.5343703031539917,-0.23090707,-0.08979719,10.393131,-80.726135,-8.64814,STN
7652454700000.0,1.896147608757019,-1.6273165941238403,11.178339958190918,1.145532250404358,0.5568729043006897,-0.22876903,-0.10781772,10.478597,-80.70659,-8.730144500000002,STN
7652459400000.0,1.9011428356170654,-1.5953829288482666,10.968637466430664,1.183961272239685,0.5783553123474121,-0.15454891,-0.13683382,10.543547,-80.693375,-8.800339,STN
7652464700000.0,1.9061436653137207,-1.554537057876587,10.756781578063965,1.2223169803619385,0.5980905890464783,-0.12278391400000001,-0.15607607,10.620287,-80.67333,-8.872301,STN
7652469400000.0,1.9111441373825073,-1.5068480968475342,10.547027587890625,1.2590793371200562,0.6166113615036011,-0.13041973,-0.17134771,10.683308,-80.67751,-8.919841,STN
7652474600000.0,1.916144847869873,-1.4533230066299438,10.341090202331543,1.2936286926269531,0.6319965124130249,-0.13744467,-0.19364429,10.737397999999999,-80.666275,-8.975157000000001,STN
7652479300000.0,1.9211452007293701,-1.4005234241485596,10.144338607788086,1.3255877494812012,0.6436643600463867,-0.09987647,-0.20433442,10.773821,-80.67628,-9.004308,STN
7652484600000.0,1.9261465072631836,-1.3515397310256958,9.959074974060059,1.3548415899276733,0.6512758731842041,-0.031154128,-0.22143865,10.803486999999999,-80.6718,-9.041578,STN
7652490000000.0,1.9311468601226807,-1.3056830167770386,9.789011001586914,1.3844249248504639,0.6555355787277222,0.03176499,-0.23671028,10.813087,-80.68109,-9.059531,STN
7652494500000.0,1.936146855354309,-1.2624974250793457,9.635967254638672,1.4160691499710083,0.6565732359886169,0.06505715,-0.22907446,10.811408,-80.68635,-9.075550999999999,STN
7652500000000.0,1.9411476850509644,-1.2205657958984375,9.501114845275879,1.4516432285308838,0.6546744704246521,0.12156218,-0.2312125,10.791558,-80.68278000000001,-9.099022,STN
7652504500000.0,1.9461482763290405,-1.1777527332305908,9.386763572692871,1.4941030740737915,0.6521118879318237,0.13836098,-0.21166481,10.773653999999999,-80.68583000000001,-9.113167,STN
7652510000000.0,1.9511464834213257,-1.1333975791931152,9.288995742797852,1.540900707244873,0.6473256349563599,0.1572978,-0.20586158,10.739239,-80.681076,-9.129619,STN
7652514500000.0,1.956148624420166,-1.0869369506835938,9.2051420211792,1.5903793573379517,0.6400924324989319,0.15913039999999998,-0.1957823,10.705239,-80.68186,-9.138424,STN
7652519700000.0,1.9611603021621704,-1.0387649536132812,9.13415241241455,1.6399803161621094,0.6296799778938293,0.15332718,-0.19975294,10.666908,-80.69003000000001,-9.134292,STN
7652524400000.0,1.966159701347351,-0.9898058176040649,9.074028015136719,1.6860681772232056,0.6162576675415039,0.19150625,-0.19303341,10.615613,-80.70144,-9.124116,STN
7652529700000.0,1.971158742904663,-0.9399527907371521,9.024502754211426,1.7287917137145996,0.5985209941864014,0.23854288,-0.19120082,10.556135000000001,-80.72306,-9.096091,STN
7652534400000.0,1.9761589765548706,-0.8892323970794678,8.98505687713623,1.7683247327804565,0.5771881341934204,0.29626966,-0.18967366,10.48294,-80.74316,-9.066488,STN
7652539600000.0,1.9811586141586304,-0.837887167930603,8.953179359436035,1.8061158657073975,0.5526787042617798,0.32559118,-0.18539760000000002,10.404907000000001,-80.76014,-9.036743,STN
7652544300000.0,1.9861576557159424,-0.7861610651016235,8.926117897033691,1.843811273574829,0.5252270698547363,0.33078352,-0.18142697,10.317877000000001,-80.77221999999999,-9.006712,STN
7652549600000.0,1.9911540746688843,-0.7334522008895874,8.902693748474121,1.8814488649368286,0.49551087617874146,0.31673363,-0.19364429,10.211625,-80.8086,-8.948158,STN
7652555000000.0,1.9961543083190918,-0.6782886385917664,8.880781173706055,1.9191861152648926,0.4648553431034088,0.28160888,-0.20311269,10.110595,-80.841835,-8.887893,STN
7652559600000.0,2.0011520385742188,-0.6205700635910034,8.859679222106934,1.9558913707733154,0.43241527676582336,0.23823744,-0.21135938,10.010893,-80.87804,-8.8196125,STN
7652565000000.0,2.0061566829681396,-0.559588611125946,8.838180541992188,1.9896262884140015,0.39836716651916504,0.19700404,-0.22174409,9.921411,-80.905594,-8.754859,STN
7652569500000.0,2.0111541748046875,-0.4975396394729614,8.8151216506958,2.0173630714416504,0.3632524907588959,0.20219639,-0.2321288,9.823355000000001,-80.93964,-8.675945,STN
7652575000000.0,2.0161538124084473,-0.4385402798652649,8.787378311157227,2.0312795639038086,0.32717692852020264,0.23732115,-0.24770586,9.729074,-80.96099,-8.60239,STN
7652579500000.0,2.021153450012207,-0.38181501626968384,8.754697799682617,2.0334038734436035,0.2901102900505066,0.2779437,-0.26419923,9.620257,-80.992325,-8.511704,STN
7652584700000.0,2.026154041290283,-0.32575929164886475,8.71599292755127,2.0271778106689453,0.25280529260635376,0.3109304,-0.27702740000000003,9.504019,-81.01266,-8.425982000000001,STN
7652589400000.0,2.03115177154541,-0.27030977606773376,8.671209335327148,2.0145115852355957,0.2152584046125412,0.33933565,-0.28344148,9.371523,-81.03623,-8.345208999999999,STN
7652594700000.0,2.03615140914917,-0.2148863822221756,8.61656379699707,2.006514310836792,0.1782638132572174,0.33994650000000004,-0.2864958,9.238216,-81.05205,-8.267922,STN
7652599400000.0,2.0411503314971924,-0.15997356176376343,8.552018165588379,2.0064775943756104,0.1424594521522522,0.30695978,-0.28130344,9.098666999999999,-81.079254,-8.184567,STN
7652604600000.0,2.0461511611938477,-0.10755527764558792,8.474931716918945,2.029982566833496,0.10779815912246704,0.21563543,-0.27183503,8.976275,-81.10206,-8.100284,STN
7652609400000.0,2.0511507987976074,-0.05750330165028572,8.386146545410156,2.0755176544189453,0.07296567410230637,0.08857546,-0.26175576,8.874222,-81.1167,-8.010644000000001,STN
7652614600000.0,2.056152820587158,-0.014572997577488422,8.29541015625,2.1056571006774902,0.03793856129050255,-0.021685716,-0.26694809999999997,8.793864,-81.12536999999999,-7.921777199999999,STN
7652620000000.0,2.061171054840088,0.020270222797989845,8.204824447631836,2.1118836402893066,0.0026132562197744846,-0.0711658,-0.26694809999999997,8.73208,-81.129715,-7.828162700000001,STN
7652624600000.0,2.0661702156066895,0.05032053217291832,8.115678787231445,2.1069376468658447,-0.03200143948197365,-0.052839845,-0.26236662,8.703880999999999,-81.074844,-7.7492766,STN
7652630000000.0,2.0711686611175537,0.07562863081693649,8.027660369873047,2.090658664703369,-0.06442959606647491,-0.0076358155,-0.26725355,8.680721,-81.0229,-7.6886152999999995,STN
7652634500000.0,2.0761687755584717,0.0989399179816246,7.93859338760376,2.0673251152038574,-0.09446219354867935,0.013744468000000001,-0.27458394,8.658648,-80.966324,-7.6276197,STN
7652640000000.0,2.081164836883545,0.1207614615559578,7.848334789276123,2.038059949874878,-0.1224222257733345,0.0015271631,-0.28680122,8.633094,-80.905396,-7.569934,STN
7652644500000.0,2.0861639976501465,0.14181655645370483,7.754763603210449,2.0053164958953857,-0.14856664836406708,0.0015271631,-0.2947425,8.61102470829171,-80.8767446033966,-7.55163954595405,STN
7652649700000.0,2.091160774230957,0.16227352619171143,7.657795429229736,1.9698642492294312,-0.1733991503715515,0.01160644,-0.31306845,8.589392,-80.84866,-7.533707000000001,STN
7652654400000.0,2.096160650253296,0.18078237771987915,7.558248519897461,1.9387965202331543,-0.1963222771883011,0.021685716,-0.32070425,8.548684,-80.79574000000001,-7.495331299999999,STN
7652659700000.0,2.1011581420898438,0.1973036676645279,7.456498146057129,1.9126381874084473,-0.21831674873828888,0.012217305,-0.3286455,8.507566,-80.74615,-7.466931,STN
7652664400000.0,2.10615873336792,0.2090742141008377,7.356358051300049,1.8838809728622437,-0.23904141783714294,-0.0076358155,-0.32345316,8.464698,-80.7075,-7.4377923,STN
7652669700000.0,2.111159086227417,0.2159934639930725,7.25832462310791,1.851686954498291,-0.2586778998374939,-0.022296581,-0.310625,8.422680999999999,-80.66843,-7.408198,STN
7652674400000.0,2.1161587238311768,0.21974174678325653,7.166229724884033,1.8113725185394287,-0.27746322751045227,-0.011301007,-0.29321529999999996,8.377822,-80.61107,-7.387736,STN
7652679600000.0,2.121157646179199,0.22077396512031555,7.080552577972412,1.762386441230774,-0.29449865221977234,0.015271631,-0.27030787,8.331766,-80.56201,-7.361595599999999,STN
7652684300000.0,2.1261582374572754,0.22105000913143158,7.0005669593811035,1.7105706930160522,-0.3107239007949829,0.051923547,-0.24495697,8.281622,-80.50968,-7.348298,STN
7652689600000.0,2.1311569213867188,0.22105728089809418,6.925860404968262,1.6574513912200928,-0.32517290115356445,0.076052725,-0.22418754,8.226643,-80.46876,-7.329599000000001,STN
7652695000000.0,2.1361563205718994,0.22263221442699432,6.856544017791748,1.6047614812850952,-0.3393564820289612,0.10751228,-0.21746802,8.151197,-80.45042,-7.31681,STN
7652699500000.0,2.1411569118499756,0.22612780332565308,6.792425155639648,1.55287504196167,-0.3530934453010559,0.15210545,-0.20891592,8.064411,-80.4418,-7.2980266,STN
7652705000000.0,2.146183490753174,0.22718891501426697,6.734237194061279,1.5129382610321045,-0.36787256598472595,0.21930063,-0.204029,7.95405,-80.43629,-7.2813954,STN
7652709500000.0,2.151181221008301,0.2253863513469696,6.681395530700684,1.4851231575012207,-0.38365456461906433,0.2855795,-0.20983220000000002,7.8317,-80.429955,-7.265744000000001,STN
7652715000000.0,2.156182050704956,0.22051675617694855,6.6339006423950195,1.4700510501861572,-0.4011998772621155,0.3304781,-0.21105394,7.687349,-80.42765,-7.240025500000001,STN
7652719500000.0,2.1611809730529785,0.21280238032341003,6.5914201736450195,1.466833472251892,-0.42083775997161865,0.36102137,-0.22052236,7.529572999999999,-80.41555,-7.2185397,STN
7652724700000.0,2.1661794185638428,0.19651737809181213,6.560880184173584,1.4786463975906372,-0.4427008330821991,0.36163223,-0.22540927,7.369901,-80.39352,-7.194491999999999,STN
7652729400000.0,2.1711788177490234,0.16939513385295868,6.544973373413086,1.5064771175384521,-0.4667193293571472,0.33505958,-0.23579398,7.2110520000000005,-80.35883000000001,-7.173261599999999,STN
7652734700000.0,2.176180362701416,0.12904465198516846,6.546218395233154,1.5468790531158447,-0.4922575056552887,0.2864958,-0.24709499,7.090805499999999,-80.22953000000001,-7.1789103,STN
7652740000000.0,2.1811869144439697,0.07488834112882614,6.565125942230225,1.5982980728149414,-0.5188600420951843,0.19639318,-0.26236662,6.991398299999999,-80.08877,-7.1851144,STN
7652744600000.0,2.1861844062805176,0.010605596005916595,6.60822057723999,1.6602424383163452,-0.5457051396369934,0.099571034,-0.2855795,6.9425669999999995,-79.87156,-7.235601400000001,STN
7652749300000.0,2.1911838054656982,-0.06276074796915054,6.679230213165283,1.7330472469329834,-0.5735285878181458,0.0015271631,-0.28283059999999993,6.919957000000001,-79.64755,-7.278322999999999,STN
7652754600000.0,2.1961827278137207,-0.14450056850910187,6.7879319190979,1.8132694959640503,-0.6030108332633972,-0.119729586,-0.26908615,6.973447999999999,-79.34808000000001,-7.373663400000001,STN
7652760000000.0,2.201181650161743,-0.23406367003917694,6.944324016571045,1.8976891040802002,-0.635805070400238,-0.21227567,-0.20769419,7.0445724,-79.04685,-7.449754700000001,STN
7652764500000.0,2.206181049346924,-0.33013013005256653,7.148360252380371,1.9804608821868896,-0.6714580655097961,-0.2501493,-0.12034045,7.1594996,-78.69700999999999,-7.548166800000001,STN
7652770000000.0,2.2111799716949463,-0.4316069781780243,7.3991875648498535,2.0573172569274902,-0.7099477648735046,-0.19639318,-0.0061086523,7.269218400000001,-78.34952,-7.619021000000001,STN
7652775000000.0,2.2162134647369385,-0.5364362001419067,7.693573474884033,2.1419591903686523,-0.751334547996521,-0.12950343,0.096516706,7.394757000000001,-77.99486,-7.6806396999999995,STN
7652780000000.0,2.221210479736328,-0.6406980752944946,8.011551856994629,2.238675832748413,-0.797775387763977,-0.08521569999999999,0.20463985,7.5029509999999995,-77.63906,-7.70755,STN
7652784500000.0,2.226207733154297,-0.7392800450325012,8.350520133972168,2.3369359970092773,-0.849505603313446,-0.06750060599999999,0.29138273,7.586525,-77.30404,-7.717359,STN
7652789700000.0,2.2312049865722656,-0.8264968991279602,8.701981544494629,2.4240832328796387,-0.9068617820739746,-0.06688975,0.36285394,7.6543746,-76.95748,-7.700701700000001,STN
7652794400000.0,2.2362008094787598,-0.8968149423599243,9.06234073638916,2.4950990676879883,-0.965377151966095,-0.01985312,0.39095375,7.703239999999999,-76.58726999999999,-7.671988000000001,STN
7652799700000.0,2.241199254989624,-0.9377326369285583,9.425600051879883,2.538587808609009,-1.0298405885696411,0.064446285,0.47769663,7.730098,-76.1855,-7.6085167,STN
7652804400000.0,2.246196746826172,-0.9526616334915161,9.789780616760254,2.558013916015625,-1.101367473602295,0.19211712,0.5513059,7.687255400000001,-75.80939000000001,-7.509224400000001,STN
7652809600000.0,2.251195192337036,-0.9447698593139648,10.152992248535156,2.5566844940185547,-1.180020809173584,0.35705075,0.59315014,7.6044106,-75.40063,-7.404575299999999,STN
7652814400000.0,2.2561938762664795,-0.9231305122375488,10.52161979675293,2.54209041595459,-1.2661045789718628,0.5357288,0.6096435,7.4075679999999995,-75.05434,-7.219022,STN
7652819600000.0,2.2611923217773438,-0.8983286619186401,10.903350830078125,2.5229427814483643,-1.3578391075134277,0.7669413,0.6017023,7.150641,-74.66265,-7.050278,STN
7652824300000.0,2.2661893367767334,-0.8869713544845581,11.29153823852539,2.5155296325683594,-1.4541257619857788,0.98746365,0.61758476,6.7906375,-74.32256,-6.8237777,STN
7652829600000.0,2.271188497543335,-0.9105361104011536,11.6784029006958,2.540867567062378,-1.5512222051620483,1.1478158,0.68477994,6.386712,-73.95012,-6.606509,STN
7652834300000.0,2.276184558868408,-0.9800034165382385,12.060428619384766,2.6061956882476807,-1.6453741788864136,1.1578951000000002,0.90316427,5.9435043,-73.60882600000001,-6.334212,STN
7652839500000.0,2.2811830043792725,-1.1221545934677124,12.431551933288574,2.730363607406616,-1.7297555208206177,0.95417154,1.2018773999999999,5.513905,-73.28222,-6.025847,STN
7652845000000.0,2.286198854446411,-1.3428550958633423,12.791587829589844,2.9019739627838135,-1.7975621223449707,0.70524395,1.4654657,5.1441349999999995,-72.87659000000001,-5.747955999999999,STN
7652849500000.0,2.2911972999572754,-1.6414766311645508,13.136821746826172,3.0824191570281982,-1.8467473983764648,0.35124752,1.5787811999999999,4.852837,-72.52149,-5.4137892999999995,STN
7652854700000.0,2.2962076663970947,-2.0211868286132812,13.46640682220459,3.2714743614196777,-1.8750971555709839,0.06291912,1.541213,4.7242809999999995,-72.04264,-5.207088,STN
7652859400000.0,2.3012049198150635,-2.435328960418701,13.755630493164062,3.4458062648773193,-1.888962984085083,-0.18112154,1.3930782,4.6761513,-71.6219,-4.977566,STN
7652864700000.0,2.3062212467193604,-2.8888254165649414,14.003826141357422,3.6056251525878906,-1.8931047916412354,-0.38820487,1.2070698,4.8237667,-71.21645,-4.946613,STN
7652869400000.0,2.311218023300171,-3.301879405975342,14.194375038146973,3.7263200283050537,-1.8896197080612183,-0.5213734999999999,1.0186177,5.024187,-70.87161,-4.9359126,STN
7652874600000.0,2.316214084625244,-3.66654372215271,14.324275970458984,3.8044090270996094,-1.877400279045105,-0.5702427,0.8772025,5.2640614999999995,-70.58184,-4.9470095999999995,STN
7652879400000.0,2.3212103843688965,-3.9142794609069824,14.371782302856445,3.8707330226898193,-1.857628345489502,-0.6178902,0.7770206000000001,5.6115923,-70.31475999999999,-5.102025,STN
7652884600000.0,2.326204538345337,-4.034775733947754,14.33587646484375,3.9330198764801025,-1.8319108486175537,-0.6407976,0.70157874,5.971417,-70.08605,-5.2765427,STN
7652889300000.0,2.3312020301818848,-4.088990688323975,14.271184921264648,3.9902923107147217,-1.804438591003418,-0.64568454,0.67103547,6.322203599999999,-69.858604,-5.422994999999999,STN
7652894600000.0,2.3361976146698,-4.097030162811279,14.19402027130127,4.042522430419922,-1.7734007835388184,-0.6267477,0.605062,6.6763387000000005,-69.67353,-5.595333,STN
7652900000000.0,2.341196060180664,-4.072502613067627,14.103376388549805,4.088031768798828,-1.7389709949493408,-0.61300325,0.56016344,6.936319,-69.486855,-5.585126,STN
7652904500000.0,2.3461906909942627,-4.021831035614014,13.999943733215332,4.126647472381592,-1.700972080230713,-0.5852089,0.5369505,7.1870084,-69.3295,-5.593735,STN
7652910000000.0,2.351189374923706,-3.945601224899292,13.883885383605957,4.158604621887207,-1.6594150066375732,-0.5476406999999999,0.5332854,7.3845644,-69.17788,-5.53437,STN
7652914500000.0,2.356189250946045,-3.8454370498657227,13.75604248046875,4.184301376342773,-1.614033818244934,-0.50976706,0.52687126,7.572778,-69.058655,-5.488844,STN
7652920000000.0,2.361187696456909,-3.742685556411743,13.60621452331543,4.1908793449401855,-1.5650159120559692,-0.45723262,0.52290064,7.738441000000001,-68.960915,-5.4518642,STN
7652924500000.0,2.366182327270508,-3.641842842102051,13.433456420898438,4.176654815673828,-1.5134015083312988,-0.40561453,0.51923543,7.891335499999999,-68.89204000000001,-5.423909,STN
7652929700000.0,2.3711814880371094,-3.5481321811676025,13.22730541229248,4.1362528800964355,-1.458791971206665,-0.32009340000000003,0.5164866,7.971032000000001,-68.84143,-5.3063335,STN
7652934400000.0,2.3761799335479736,-3.46352219581604,12.985599517822266,4.068984031677246,-1.4017049074172974,-0.21013765,0.49449542,8.028825,-68.815765,-5.2063565,STN
7652939700000.0,2.381179094314575,-3.3878822326660156,12.721749305725098,3.98525071144104,-1.3440628051757812,-0.06597344599999999,0.44348818,8.054389,-68.83192,-5.1322093,STN
7652944400000.0,2.3861775398254395,-3.320777654647827,12.43930435180664,3.887737512588501,-1.2873603105545044,0.10170906,0.37201694,8.045859,-68.86514,-5.08565,STN
7652949600000.0,2.391177177429199,-3.2603955268859863,12.147232055664062,3.7872602939605713,-1.2337610721588135,0.26450464,0.28955013,8.001636999999999,-68.86846,-5.082754,STN
7652954300000.0,2.396176338195801,-3.2053630352020264,11.852072715759277,3.691338539123535,-1.1852807998657227,0.3839288,0.20097467,7.933295200000001,-68.86581,-5.11407,STN
7652959600000.0,2.4011754989624023,-3.1533074378967285,11.566641807556152,3.6062095165252686,-1.1429001092910767,0.4605924,0.12339478,7.855239,-68.820984,-5.18674,STN
7652965000000.0,2.4061760902404785,-3.103034257888794,11.296670913696289,3.534543037414551,-1.105805516242981,0.49541172,0.054367005999999996,7.7682686,-68.762245,-5.2885823,STN
7652969500000.0,2.41117525100708,-3.0554912090301514,11.046612739562988,3.477240562438965,-1.0736665725708008,0.52290064,0.006414085,7.6872110000000005,-68.65387,-5.4129887000000005,STN
7652975000000.0,2.4161744117736816,-3.0112149715423584,10.818922996520996,3.4347221851348877,-1.0441519021987915,0.5195409000000001,-0.008857545999999999,7.6136193,-68.54001600000001,-5.54691,STN
7652979500000.0,2.4211740493774414,-2.9695191383361816,10.60983943939209,3.40088152885437,-1.0147615671157837,0.5103779,-0.031154128,7.548196000000001,-68.38880999999999,-5.6891446,STN
7652985000000.0,2.4261739253997803,-2.9297780990600586,10.415905952453613,3.370180130004883,-0.9829006791114807,0.516792,-0.043066,7.4857645,-68.249626,-5.832813,STN
7652989500000.0,2.431173086166382,-2.8916122913360596,10.236227035522461,3.3365490436553955,-0.9499217867851257,0.54641896,-0.04550946,7.42938,-68.07796,-5.974598,STN
7652994700000.0,2.4361777305603027,-2.854738235473633,10.07008171081543,3.296051025390625,-0.912531316280365,0.5739079,-0.055283304000000005,7.3790455,-67.94675,-6.120693,STN
7652999400000.0,2.4411768913269043,-2.818882465362549,9.907414436340332,3.2463481426239014,-0.8702155947685242,0.5934556,-0.05589417,7.3294625,-67.81979,-6.260176,STN
7653004700000.0,2.446176052093506,-2.7837398052215576,9.73880386352539,3.1846821308135986,-0.8232859373092651,0.63438356,-0.042455133,7.2709327,-67.72736,-6.4019737,STN
7653009400000.0,2.4511728286743164,-2.7500669956207275,9.564210891723633,3.112492561340332,-0.7727044820785522,0.6939429,-0.036651913,7.1953062999999995,-67.67649,-6.5478816,STN
7653014600000.0,2.4561753273010254,-2.719207763671875,9.382614135742188,3.0311546325683594,-0.7197564244270325,0.7507534,-0.0290161,7.1114497000000005,-67.65628000000001,-6.6916337,STN
7653019400000.0,2.461174249649048,-2.691365957260132,9.192708015441895,2.944336414337158,-0.6659351587295532,0.8005389,-0.020158553,7.006336,-67.67088000000001,-6.842441,STN
7653024600000.0,2.4661734104156494,-2.6672167778015137,8.990004539489746,2.8580033779144287,-0.6103430986404419,0.85918194,-0.016493361,6.886470299999999,-67.7142,-6.9971704,STN
7653030000000.0,2.471209764480591,-2.646139144897461,8.769942283630371,2.7694523334503174,-0.5547024011611938,0.83291477,-0.010690141499999998,6.773683500000001,-67.77995,-7.1552734,STN
7653034600000.0,2.4762074947357178,-2.627056360244751,8.538946151733398,2.6790833473205566,-0.49852731823921204,0.79290307,-0.036957346,6.654660000000001,-67.86568,-7.3233085,STN
7653040000000.0,2.4812045097351074,-2.6078851222991943,8.295063018798828,2.586733818054199,-0.44171610474586487,0.743423,-0.07574729,6.5566435,-67.94678499999999,-7.500897,STN
7653044500000.0,2.486201286315918,-2.586064100265503,8.040189743041992,2.493431568145752,-0.3850677013397217,0.691194,-0.11453723,6.475546400000001,-68.034676,-7.679373700000001,STN
7653050000000.0,2.4911983013153076,-2.5614466667175293,7.776305198669434,2.4002268314361572,-0.327254980802536,0.61850107,-0.16187929,6.421378,-68.133575,-7.879630000000001,STN
7653054500000.0,2.4961965084075928,-2.5336883068084717,7.506313800811768,2.3088459968566895,-0.2682911455631256,0.5271766999999999,-0.20311269,6.3920603,-68.23787,-8.080455,STN
7653059700000.0,2.501194715499878,-2.5023014545440674,7.231325626373291,2.2196004390716553,-0.20822125673294067,0.42119157,-0.2443461,6.3885074,-68.35053,-8.287766,STN
7653065000000.0,2.5062012672424316,-2.4663479328155518,6.952024936676025,2.1328647136688232,-0.14625784754753113,0.28588495,-0.2910773,6.4243207,-68.47614,-8.495399,STN
7653069700000.0,2.5111968517303467,-2.426457166671753,6.671443462371826,2.0497548580169678,-0.08216000348329544,0.15943582,-0.33536503,6.488298,-68.60396999999999,-8.702612,STN
7653074400000.0,2.5161945819854736,-2.382457971572876,6.3923492431640625,1.9725703001022339,-0.015927543863654137,0.03023783,-0.3744604,6.595430400000001,-68.74407,-8.9081545,STN
7653079600000.0,2.52119517326355,-2.334653615951538,6.114695072174072,1.8998509645462036,0.05198395997285843,-0.089491755,-0.41355577,6.73477,-68.89303000000001,-9.106709500000001,STN
7653084400000.0,2.526193857192993,-2.2836756706237793,5.838902950286865,1.8280220031738281,0.12228261679410934,-0.15668693,-0.42730024,6.8972754,-69.06135,-9.302991,STN
7653089600000.0,2.531191825866699,-2.230207681655884,5.566005706787109,1.7571910619735718,0.19168339669704437,-0.28710666,-0.44593164,7.115066000000001,-69.206184,-9.480675999999999,STN
7653094300000.0,2.536189317703247,-2.176403760910034,5.300301551818848,1.687929630279541,0.2638477087020874,-0.38912117,-0.48014009999999996,7.3466252999999995,-69.382065,-9.664746000000001,STN
7653099600000.0,2.5412180423736572,-2.122852325439453,5.041880130767822,1.6196978092193604,0.3398491144180298,-0.5131268,-0.52534413,7.6108475,-69.57627,-9.837817999999999,STN
7653105000000.0,2.546215057373047,-2.0727694034576416,4.795591831207275,1.5524390935897827,0.4226408898830414,-0.54244834,-0.54244834,7.877375999999999,-69.80246,-10.014567999999999,STN
7653109500000.0,2.5512123107910156,-2.0260491371154785,4.560579299926758,1.485758900642395,0.5046340227127075,-0.5635232,-0.5580254,8.166816,-70.02606,-10.195899,STN
7653115000000.0,2.55621600151062,-1.9767699241638184,4.3371429443359375,1.4232059717178345,0.5899893045425415,-0.5714644,-0.57879484,8.462104,-70.30022,-10.385405,STN
7653119500000.0,2.5612149238586426,-1.9243190288543701,4.126502990722656,1.364933729171753,0.6778438091278076,-0.56596667,-0.60903263,8.761034,-70.56736,-10.584566,STN
7653124700000.0,2.5662119388580322,-1.8654026985168457,3.9395174980163574,1.3114728927612305,0.7683573961257935,-0.5372560000000001,-0.62796944,9.044158,-70.87255,-10.805124000000001,STN
7653129500000.0,2.571213722229004,-1.7998669147491455,3.776017427444458,1.2624448537826538,0.8598094582557678,-0.47036624,-0.6267477,9.310244,-71.17926,-11.01549,STN
7653134700000.0,2.5762112140655518,-1.724082589149475,3.646677255630493,1.2150118350982666,0.9523941278457642,-0.34269542,-0.6035349,9.550189999999999,-71.49735,-11.235279,STN
7653139400000.0,2.581209421157837,-1.6382267475128174,3.550198554992676,1.1692649126052856,1.0462626218795776,-0.17715092,-0.5729916,9.767535,-71.76245,-11.386688000000001,STN
7653144700000.0,2.5862057209014893,-1.5412451028823853,3.4856746196746826,1.1276469230651855,1.1401582956314087,0.005192355,-0.55741453,9.940983000000001,-72.02898,-11.5484085,STN
7653150000000.0,2.5912208557128906,-1.4325768947601318,3.453599691390991,1.0900975465774536,1.2328752279281616,0.18417588,-0.5467244000000001,10.012841,-72.39931999999999,-11.640892,STN
7653154600000.0,2.596217632293701,-1.3166711330413818,3.451385736465454,1.0568759441375732,1.3226042985916138,0.36010507,-0.54183745,10.0314865,-72.762276,-11.741763,STN
7653159300000.0,2.60121488571167,-1.1929932832717896,3.4794294834136963,1.0279157161712646,1.4084466695785522,0.52931476,-0.5384777,9.941154,-73.23015600000001,-11.755982000000001,STN
7653164600000.0,2.6062169075012207,-1.0664288997650146,3.5420901775360107,1.014052391052246,1.4879400730133057,0.6921103,-0.5308419,9.801117,-73.67575,-11.773797,STN
7653170000000.0,2.611236810684204,-0.9370855093002319,3.6397650241851807,1.0161148309707642,1.5591765642166138,0.8173377,-0.49785519999999994,9.6217785,-74.10141,-11.786137,STN
7653174500000.0,2.616232395172119,-0.8091210126876831,3.776970863342285,1.0416415929794312,1.6202033758163452,0.93218035,-0.4541782999999999,9.346358,-74.593124,-11.704434,STN
7653180000000.0,2.6212317943573,-0.6822595000267029,3.9583144187927246,1.0935746431350708,1.6703438758850098,0.9841039,-0.38423425,9.051508,-75.062675,-11.603062,STN
7653184500000.0,2.6262288093566895,-0.5668405294418335,4.180151462554932,1.1678749322891235,1.708469033241272,1.1377366000000002,-0.34330627,8.675975,-75.516235,-11.414508,STN
7653190000000.0,2.6312215328216553,-0.46315518021583557,4.439924716949463,1.2629733085632324,1.7397443056106567,1.3475688,-0.23915374,8.265356,-75.97939000000001,-11.190178,STN
7653194500000.0,2.636220693588257,-0.370492160320282,4.74017858505249,1.386434555053711,1.759260892868042,1.5259413999999998,-0.13133603,7.8171144,-76.36910999999999,-10.884961,STN
7653199700000.0,2.641214609146118,-0.2879731357097626,5.077009201049805,1.5368930101394653,1.766668677330017,1.668273,-0.0018325957999999999,7.316352999999999,-76.76418000000001,-10.555860000000001,STN
7653204400000.0,2.646209716796875,-0.20578590035438538,5.441741943359375,1.7132649421691895,1.7621573209762573,1.7314975,0.12736541,6.7857785,-77.12844,-10.201577,STN
7653209700000.0,2.6512041091918945,-0.12295005470514297,5.831791877746582,1.9139291048049927,1.7459388971328735,1.690875,0.28619036,6.242703400000001,-77.48491999999999,-9.813525,STN
7653214400000.0,2.6562016010284424,-0.03740253299474716,6.186192035675049,2.15899920463562,1.7185558080673218,1.5418239,0.42943826,5.712398,-77.81891999999999,-9.39725,STN
7653219600000.0,2.66119647026062,0.050834693014621735,6.499208927154541,2.447749137878418,1.6784381866455078,1.3261883999999997,0.52320606,5.213229,-78.11545600000001,-8.962334,STN
7653224300000.0,2.666194200515747,0.10690123587846756,6.766242027282715,2.784430503845215,1.624588131904602,1.0903945,0.55863625,4.73241,-78.41158,-8.479216000000001,STN
7653229600000.0,2.671189546585083,0.12748801708221436,6.989280700683594,3.166168689727783,1.556174874305725,0.7687739,0.5558874,4.3394933,-78.63458,-7.9916053,STN
7653235000000.0,2.6761891841888428,0.09738156199455261,7.203721523284912,3.5465993881225586,1.4736489057540894,0.30451632,0.50885075,4.0580463,-78.74844,-7.510597,STN
7653239600000.0,2.6811890602111816,0.016542866826057434,7.417105197906494,3.9159209728240967,1.3771601915359497,-0.27580565,0.42943826,3.901875,-78.748695,-7.0387535,STN
7653245000000.0,2.6861886978149414,-0.14730747044086456,7.6356120109558105,4.192782878875732,1.2653855085372925,-0.81183994,0.30543262,3.9712843999999996,-78.4315,-6.762401,STN
7653250000000.0,2.6914544105529785,-0.50433748960495,7.880238056182861,4.245425701141357,1.1195416450500488,-0.77946407,-0.09437868,4.4012775,-77.29026,-6.5504947,STN
7653255300000.0,2.6967051029205322,-0.9430840611457825,8.130669593811035,4.190750598907471,0.9588283896446228,-0.029321532999999997,-0.40347649999999996,4.6240654,-76.45045,-6.666235400000001,STN
7653260500000.0,2.701939344406128,-1.4487781524658203,8.415894508361816,4.071537494659424,0.7880586981773376,0.86406887,-0.64934975,4.9048620000000005,-75.4871,-7.223002,STN
7653266000000.0,2.707159996032715,-2.013540267944336,8.749746322631836,3.909560203552246,0.6273826956748962,1.4694363000000001,-0.7611380999999999,5.057412,-74.524925,-7.824934,STN
7653271000000.0,2.7123684883117676,-2.599621534347534,9.123509407043457,3.743027687072754,0.501313328742981,1.5916093999999998,-0.66798115,5.231741400000001,-73.663124,-8.780796,STN
7653276000000.0,2.7175679206848145,-3.1837172508239746,9.531450271606445,3.5954647064208984,0.40151166915893555,1.4004086000000002,-0.5696318,5.304992700000001,-72.79531,-9.716851,STN
7653281500000.0,2.722754716873169,-3.713016986846924,9.891072273254395,3.464561939239502,0.34863361716270447,0.9315694999999999,-0.4092797,5.4616747000000005,-72.1437,-10.747513,STN
7653287000000.0,2.7279317378997803,-4.158721923828125,10.156744003295898,3.3488030433654785,0.32826346158981323,0.46517387,-0.42577308,5.626536,-71.533165,-11.708361,STN
7653292000000.0,2.7330989837646484,-4.482285976409912,10.337621688842773,3.283728837966919,0.3211706280708313,-0.13439035,-0.58368176,5.922951,-71.042366,-12.575498,STN
7653297000000.0,2.738257884979248,-4.663763523101807,10.44055461883545,3.288893222808838,0.3108747601509094,-1.1914927,-0.8677341000000001,6.4574169999999995,-70.588875,-13.358568,STN
7653302500000.0,2.743407964706421,-4.72258996963501,10.504411697387695,3.2337779998779297,0.2829132378101349,-2.6762006,-1.0424415,7.248982400000001,-70.144295,-13.975148,STN
7653307700000.0,2.748548984527588,-4.672512054443359,10.552074432373047,3.0458216667175293,0.2337837964296341,-3.9464947999999995,-0.8399397,8.258466,-69.69466,-14.478339000000002,STN
7653313000000.0,2.7536892890930176,-4.544595718383789,10.576531410217285,2.761155128479004,0.18151041865348816,-4.358829,-0.37995818,9.373949,-69.41608000000001,-14.630118,STN
7653318000000.0,2.7588279247283936,-4.36520528793335,10.573351860046387,2.410869598388672,0.15155565738677979,-3.9767327000000003,0.046120327,10.593169,-69.183784,-14.7059355,STN
7653323400000.0,2.7639520168304443,-4.176591873168945,10.599736213684082,2.1480307579040527,0.1484922617673874,-3.3414328,0.31612277,11.613,-69.30233,-14.452228,STN
7653328700000.0,2.769071102142334,-4.00980806350708,10.701385498046875,2.0941102504730225,0.16592252254486084,-2.871372,0.42363504,12.542732,-69.52606,-14.153560999999998,STN
7653334000000.0,2.7741827964782715,-3.8476004600524902,10.876701354980469,2.220057487487793,0.19235306978225708,-2.7800477000000003,0.5342017,13.294972,-70.01995,-13.682963,STN
7653339000000.0,2.7792880535125732,-3.654691696166992,11.129015922546387,2.4819202423095703,0.21013163030147552,-3.0491338,0.61086524,14.014574,-70.53619,-13.214029,STN
7653344400000.0,2.78438663482666,-3.4233176708221436,11.433158874511719,2.7011358737945557,0.20821122825145721,-3.0882292000000002,0.7635816,14.659251000000001,-70.8678,-12.748036,STN
7653349700000.0,2.7894821166992188,-3.1430835723876953,11.760554313659668,2.6634068489074707,0.19856375455856323,-2.4113905,0.8390234000000001,15.161807000000001,-71.19272,-12.337172500000001,STN
7653355000000.0,2.794604778289795,-2.8152129650115967,12.07262134552002,2.420775890350342,0.19530655443668365,-1.0903945,0.78801614,15.497617000000002,-71.4188,-11.815337,STN
7653359600000.0,2.799687385559082,-2.461115837097168,12.331046104431152,2.0907444953918457,0.1916043907403946,0.1255328,0.7715228,15.653342000000002,-71.58719,-11.325282000000001,STN
7653364300000.0,2.80476450920105,-2.101457118988037,12.527071952819824,1.7473434209823608,0.1806282252073288,0.8713993,0.72204274,15.409866000000001,-72.16765,-10.787623,STN
7653369600000.0,2.8098411560058594,-1.7776367664337158,12.652533531188965,1.527322769165039,0.15729652345180511,1.2852603999999999,0.6750060999999999,14.92821,-72.69622,-10.333194,STN
7653374300000.0,2.8149077892303467,-1.4952280521392822,12.712620735168457,1.3946579694747925,0.11487782001495361,1.3597860000000002,0.6621779000000001,14.322196,-73.32523,-9.789044,STN
7653379500000.0,2.8199775218963623,-1.2701411247253418,12.70661449432373,1.294065237045288,0.06820878386497498,1.1258247,0.58276546,13.715057,-73.922554,-9.294946000000001,STN
7653385000000.0,2.825037956237793,-1.0940972566604614,12.650214195251465,1.2153278589248657,0.02555694431066513,0.75441855,0.42913285,13.177976999999998,-74.24945,-8.901697,STN
7653389500000.0,2.830106258392334,-0.9587869644165039,12.565467834472656,1.1405231952667236,0.0003160719061270356,0.48075095,0.28252518,12.690673,-74.58738000000001,-8.525905999999999,STN
7653395000000.0,2.8351621627807617,-0.8627809882164001,12.461899757385254,1.0723826885223389,-0.005186238791793585,0.38759398,0.15882497,12.301653,-74.80665,-8.305027,STN
7653399500000.0,2.8402159214019775,-0.8123952746391296,12.353545188903809,1.017699956893921,0.005654150154441595,0.36438109999999996,0.0580322,11.979292999999998,-75.06132,-8.106502,STN
7653404700000.0,2.845264434814453,-0.8053054809570312,12.241087913513184,0.9764075875282288,0.030712934210896492,0.36743546,-0.008552114,11.721852,-75.32030999999999,-7.998686,STN
7653409400000.0,2.8503148555755615,-0.8440123796463013,12.126203536987305,0.952625572681427,0.06384457647800446,0.3747658,-0.09682214,11.478119,-75.60416,-7.921618,STN
7653414700000.0,2.855362892150879,-0.9218794107437134,12.009970664978027,0.945414125919342,0.10273067653179169,0.35155296,-0.19730948,11.286311999999999,-75.85206,-7.968051400000001,STN
7653419400000.0,2.8604073524475098,-1.0136737823486328,11.897872924804688,0.9552910923957825,0.14519266784191132,0.32467487,-0.24953845,11.098416,-76.11712,-8.020827,STN
7653424600000.0,2.8654823303222656,-1.1205497980117798,11.789502143859863,0.9831585884094238,0.18988429009914398,0.23060162,-0.2846632,10.980067,-76.293625,-8.204978,STN
7653430000000.0,2.8705217838287354,-1.2255630493164062,11.687333106994629,1.0148645639419556,0.23769591748714447,0.08002335,-0.31031954,10.893864,-76.47516,-8.389123,STN
7653434600000.0,2.8755528926849365,-1.3292241096496582,11.591080665588379,1.0507755279541016,0.2876148521900177,-0.06169739,-0.35888332,10.887208,-76.58491500000001,-8.612658999999999,STN
7653440000000.0,2.880587100982666,-1.4212816953659058,11.51579761505127,1.0837135314941406,0.3386172652244568,-0.16462818,-0.3744604,10.916644,-76.69784,-8.822839,STN
7653444600000.0,2.885615348815918,-1.499666452407837,11.464064598083496,1.111890435218811,0.38830146193504333,-0.20952678,-0.3839288,10.975715,-76.79448000000001,-9.0360775,STN
7653450000000.0,2.8906466960906982,-1.5524224042892456,11.44784927368164,1.133063793182373,0.4359075427055359,-0.18753563,-0.35246924,11.061162,-76.87868,-9.242803,STN
7653454500000.0,2.8956706523895264,-1.5782469511032104,11.467558860778809,1.1471408605575562,0.48079752922058105,-0.1133155,-0.29138273,11.145739,-76.952934,-9.44062,STN
7653460000000.0,2.900698184967041,-1.57578444480896,11.509047508239746,1.1563491821289062,0.523685872554779,-0.02565634,-0.23854288,11.204574000000001,-77.05190999999999,-9.598751,STN
7653464500000.0,2.90572190284729,-1.5467008352279663,11.566400527954102,1.1616926193237305,0.5629701018333435,0.08857546,-0.19303341,11.2335005,-77.14149,-9.743025999999999,STN
7653469700000.0,2.9107463359832764,-1.5010247230529785,11.621454238891602,1.170918345451355,0.5989399552345276,0.13225232,-0.1518,11.234972,-77.32096,-9.778348,STN
7653474400000.0,2.915766716003418,-1.4443268775939941,11.665811538696289,1.1874154806137085,0.6310558915138245,0.19303341,-0.13713925,11.198329,-77.485886,-9.812218,STN
7653479700000.0,2.920790433883667,-1.3914355039596558,11.67238712310791,1.2082585096359253,0.6601743698120117,0.25320363,-0.10445796,11.122710000000001,-77.737114,-9.738061,STN
7653484400000.0,2.9258100986480713,-1.3477228879928589,11.633602142333984,1.2320269346237183,0.6859179735183716,0.30757064,-0.07727446,11.030969,-77.97222,-9.664026,STN
7653489600000.0,2.930830240249634,-1.312804102897644,11.551137924194336,1.2586309909820557,0.7092804312705994,0.34025195,-0.05375614,10.925313000000001,-78.226906,-9.548311,STN
7653495000000.0,2.9358725547790527,-1.286733627319336,11.423619270324707,1.2882516384124756,0.7299491763114929,0.37843102,-0.043066,10.801999,-78.46965,-9.432058,STN
7653499600000.0,2.940887928009033,-1.2676465511322021,11.272385597229004,1.315117597579956,0.7487839460372925,0.40225476,-0.036651913,10.675239,-78.71398,-9.311511999999999,STN
7653505000000.0,2.9459025859832764,-1.2555983066558838,11.101983070373535,1.3363628387451172,0.7644988894462585,0.38240165,-0.043676864,10.550719,-78.94171,-9.193008,STN
7653509600000.0,2.950917959213257,-1.2489484548568726,10.917267799377441,1.3527021408081055,0.7787089347839355,0.36743546,-0.06383542,10.462353,-79.0852,-9.156448,STN
7653515000000.0,2.9559357166290283,-1.2467091083526611,10.721101760864258,1.364621639251709,0.7902247309684753,0.34910949999999996,-0.073303826,10.381148,-79.214905,-9.1174965,STN
7653519500000.0,2.960949659347534,-1.247284173965454,10.520357131958008,1.377079725265503,0.800247848033905,0.35216382,-0.094989546,10.31125,-79.31312,-9.115781,STN
7653525000000.0,2.9659628868103027,-1.2497575283050537,10.318737983703613,1.392972707748413,0.8075718879699707,0.30940324,-0.10354166,10.260639,-79.39898000000001,-9.110319,STN
7653529500000.0,2.9709744453430176,-1.2539862394332886,10.117971420288086,1.4108747243881226,0.8126011490821838,0.2510656,-0.11636983,10.223974,-79.45979,-9.133083000000001,STN
7653534700000.0,2.975985050201416,-1.2598464488983154,9.91968059539795,1.4294143915176392,0.8153928518295288,0.20861048,-0.14019357,10.196666,-79.50596,-9.159791,STN
7653539400000.0,2.98099422454834,-1.268985629081726,9.724072456359863,1.4496064186096191,0.8162940740585327,0.17134771,-0.16126843,10.188467,-79.52788000000001,-9.2053175,STN
7653544700000.0,2.9860024452209473,-1.2825762033462524,9.531234741210938,1.4721792936325073,0.8157474398612976,0.12950343,-0.18051068,10.195459,-79.53704,-9.255138,STN
7653549400000.0,2.99100923538208,-1.2977994680404663,9.342301368713379,1.4960442781448364,0.8139603137969971,0.10445796,-0.19883664,10.209086,-79.5258,-9.325244,STN
7653554700000.0,2.9960174560546875,-1.3119548559188843,9.158306121826172,1.520176649093628,0.8119428753852844,0.057726767000000005,-0.20708331,10.242367999999999,-79.50846,-9.395589,STN
7653559400000.0,3.001024007797241,-1.3217402696609497,8.982933044433594,1.5434153079986572,0.8087958693504333,0.032375857,-0.23243423,10.282052,-79.45211,-9.503592,STN
7653564600000.0,3.0060486793518066,-1.3234509229660034,8.819873809814453,1.5646061897277832,0.8038795590400696,0.013133603,-0.26389378,10.33502,-79.38725,-9.613864,STN
7653570000000.0,3.0110576152801514,-1.3159873485565186,8.671612739562988,1.5842018127441406,0.7976300716400146,0.0125227375,-0.29749137,10.389666,-79.31063,-9.73747,STN
7653574600000.0,3.0160651206970215,-1.2969413995742798,8.541175842285156,1.6025110483169556,0.7896464467048645,0.02321288,-0.3145956,10.448171,-79.22285,-9.86412,STN
7653580000000.0,3.021070718765259,-1.2669544219970703,8.427593231201172,1.6196030378341675,0.7800536155700684,0.033292156,-0.34086279999999997,10.49393,-79.14556999999999,-9.980086,STN
7653584500000.0,3.026076316833496,-1.2265301942825317,8.330032348632812,1.6355409622192383,0.7667561769485474,0.054367005999999996,-0.35918877,10.534673,-79.05596,-10.097788000000001,STN
7653590000000.0,3.0310802459716797,-1.1761246919631958,8.250052452087402,1.6519060134887695,0.7503259181976318,0.09560041,-0.38606682,10.566336,-78.95512,-10.226824,STN
7653594500000.0,3.036083459854126,-1.115780234336853,8.19340705871582,1.6727713346481323,0.7313205003738403,0.14263703,-0.40591997,10.5917015,-78.84364000000001,-10.357903,STN
7653600000000.0,3.0410869121551514,-1.0471200942993164,8.160212516784668,1.698134422302246,0.7081516981124878,0.1908954,-0.42271876,10.553563,-78.81195,-10.401219000000001,STN
7653604500000.0,3.046091079711914,-0.9724938869476318,8.151418685913086,1.7281290292739868,0.6805368661880493,0.22602014,-0.43218717,10.506538,-78.7702,-10.447061,STN
7653609700000.0,3.0510928630828857,-0.8922916650772095,8.16429328918457,1.761743426322937,0.6496569514274597,0.2593123,-0.42058071,10.418947,-78.76942,-10.4444,STN
7653614400000.0,3.056098699569702,-0.8065141439437866,8.196434020996094,1.797859787940979,0.6143187284469604,0.2968805,-0.4156938,10.320948,-78.75184,-10.445692,STN
7653619700000.0,3.061099052429199,-0.716398298740387,8.241402626037598,1.834479808807373,0.5756224989891052,0.3203988,-0.40286562,10.193089500000001,-78.7745,-10.399552,STN
7653624400000.0,3.0661025047302246,-0.6230325698852539,8.289948463439941,1.8683689832687378,0.5339750647544861,0.34697145,-0.39614612,10.054153999999999,-78.78556999999999,-10.354026,STN
7653629600000.0,3.071105718612671,-0.5298726558685303,8.335187911987305,1.8988949060440063,0.48901283740997314,0.37782016,-0.38423425,9.881530999999999,-78.83149,-10.261774,STN
7653634300000.0,3.0761075019836426,-0.4424048662185669,8.365893363952637,1.9248846769332886,0.44092872738838196,0.41050145,-0.3735441,9.701262,-78.86708,-10.169289,STN
7653639600000.0,3.0811092853546143,-0.36193546652793884,8.380497932434082,1.9464747905731201,0.39112621545791626,0.43401974,-0.35918877,9.493347,-78.92430999999999,-10.047334,STN
7653645000000.0,3.086111307144165,-0.29251936078071594,8.373562812805176,1.9636484384536743,0.3394852578639984,0.44379359999999995,-0.36957347,9.281098,-78.96256,-9.931242,STN
7653649500000.0,3.091113805770874,-0.23390057682991028,8.345438003540039,1.9766297340393066,0.28712934255599976,0.44532076,-0.37293324,9.064942,-78.99168,-9.8227,STN
7653655000000.0,3.096116304397583,-0.1893310695886612,8.288116455078125,1.9855375289916992,0.23504061996936798,0.41233405,-0.37659842,8.857023,-79.00774399999999,-9.717243,STN
7653659500000.0,3.1011180877685547,-0.1579735428094864,8.20378589630127,1.9910396337509155,0.18465353548526764,0.34972036,-0.39278635,8.672277000000001,-78.97968,-9.657335,STN
7653665000000.0,3.1061246395111084,-0.1388833224773407,8.09758186340332,1.9967414140701294,0.1368052214384079,0.28863382,-0.41538838,8.497615,-78.9452,-9.598745,STN
7653669500000.0,3.111130714416504,-0.1311522126197815,7.971273899078369,2.002948522567749,0.09253235161304474,0.2501493,-0.42180246,8.362001,-78.8596,-9.59318,STN
7653674700000.0,3.1161322593688965,-0.13123881816864014,7.832033634185791,2.0226147174835205,0.05117233842611313,0.14660765,-0.42852196,8.264038000000001,-78.768456,-9.588824,STN
7653680000000.0,3.1211764812469482,-0.13961708545684814,7.67957067489624,2.0556583404541016,0.01413257047533989,0.0015271631,-0.43096542,8.218788,-78.62953,-9.636989999999999,STN
7653684700000.0,3.126176118850708,-0.1520308405160904,7.5290703773498535,2.0910494327545166,-0.018328869715332985,-0.16982053,-0.44715336,8.212114999999999,-78.49134000000001,-9.684847,STN
7653689400000.0,3.131171464920044,-0.1690303087234497,7.379375457763672,2.129364490509033,-0.04777444154024124,-0.30940324,-0.45204028,8.268051,-78.29729499999999,-9.768297,STN
7653694600000.0,3.1361727714538574,-0.18997840583324432,7.2370100021362305,2.1656270027160645,-0.0745764672756195,-0.39645153,-0.45814893,8.358953999999999,-78.107925,-9.85112,STN
7653699400000.0,3.1411707401275635,-0.21430206298828125,7.103978633880615,2.1982100009918213,-0.09879444539546967,-0.45265114,-0.44868052,8.480668,-77.926956,-9.925817,STN
7653704600000.0,3.146170139312744,-0.2408064305782318,6.985313415527344,2.228742837905884,-0.12081025540828705,-0.49357912,-0.42119157,8.64097,-77.7169,-10.022788,STN
7653710000000.0,3.151169776916504,-0.2689341604709625,6.882332801818848,2.257901430130005,-0.1401878148317337,-0.5235115,-0.40042216,8.813907,-77.51446999999999,-10.116027,STN
7653714600000.0,3.156175136566162,-0.2977506220340729,6.80223274230957,2.282428026199341,-0.1582397073507309,-0.54458636,-0.36865717,8.999781,-77.31317,-10.211354,STN
7653720000000.0,3.1611745357513428,-0.3267766833305359,6.746098518371582,2.3014090061187744,-0.17570394277572632,-0.5540548000000001,-0.3286455,9.189243,-77.122826,-10.296788000000001,STN
7653724500000.0,3.1661741733551025,-0.35174623131752014,6.706695556640625,2.308638334274292,-0.1923188418149948,-0.54733527,-0.2941316,9.37964,-76.9414,-10.37857,STN
7653730000000.0,3.171177387237549,-0.37101808190345764,6.680552959442139,2.301896095275879,-0.20865054428577423,-0.52534413,-0.25503623,9.565646000000001,-76.768974,-10.44737,STN
7653734500000.0,3.176178216934204,-0.38377639651298523,6.668228626251221,2.2827160358428955,-0.22481182217597961,-0.49816059999999995,-0.20922135,9.7296,-76.62754,-10.499103,STN
7653739700000.0,3.1811790466308594,-0.3894498944282532,6.670171737670898,2.2520151138305664,-0.23921656608581543,-0.46944994,-0.16126843,9.883742999999999,-76.50043000000001,-10.539966999999999,STN
7653744400000.0,3.1861793994903564,-0.3878531754016876,6.679935932159424,2.2184407711029053,-0.2531629204750061,-0.41905355,-0.12950343,9.986768,-76.42775,-10.549969,STN
7653749700000.0,3.1912152767181396,-0.37810149788856506,6.694947719573975,2.1861062049865723,-0.267456591129303,-0.37079520000000005,-0.08368854,10.07805,-76.36992,-10.544265,STN
7653754400000.0,3.196213960647583,-0.36372071504592896,6.714217185974121,2.16188645362854,-0.2822256088256836,-0.31734450000000003,-0.045814894,10.113023,-76.37923,-10.505327000000001,STN
7653759600000.0,3.2012133598327637,-0.34489545226097107,6.738712787628174,2.150681734085083,-0.2988119125366211,-0.30451632,-0.008552114,10.142818,-76.389,-10.455332,STN
7653765000000.0,3.2062137126922607,-0.3235640823841095,6.776400089263916,2.156291961669922,-0.31918588280677795,-0.30573806,0.025350908,10.126965,-76.41663,-10.373867,STN
7653769600000.0,3.2112128734588623,-0.30102095007896423,6.831911087036133,2.180652618408203,-0.34415486454963684,-0.29779682,0.043066,10.102986999999999,-76.43474599999999,-10.289071,STN
7653775000000.0,3.2162117958068848,-0.28209176659584045,6.909560680389404,2.2128348350524902,-0.3713091015815735,-0.31734450000000003,0.07788532,10.084837,-76.44511,-10.166623,STN
7653779600000.0,3.221212148666382,-0.26918482780456543,7.011147499084473,2.2470622062683105,-0.40189939737319946,-0.2929099,0.098043874,10.05001,-76.42971999999999,-10.047812,STN
7653785000000.0,3.226210832595825,-0.27678486704826355,7.172634601593018,2.285552501678467,-0.43740296363830566,-0.19914207,0.12064589,9.997997,-76.376434,-9.90451,STN
7653789500000.0,3.231208324432373,-0.3135489225387573,7.415497303009033,2.329638719558716,-0.48086223006248474,-0.09162979,0.16920967,9.930683,-76.299355,-9.7528925,STN
7653795000000.0,3.2362051010131836,-0.37009888887405396,7.694839954376221,2.3798599243164062,-0.5314462780952454,-0.008552114,0.24556783,9.83562,-76.2066,-9.595188,STN
