acc_x,acc_y,acc_z,gyro_x,gyro_y,gyro_z,label
0.0,0.0,0.0,0.0,-0.05100725,0.015271631,1
-0.02123413048684597,0.2876711189746857,-0.006023228168487549,-0.0013798358850181105,-0.039095376,0.013744468,1
-0.07096999883651732,0.9746853709220886,-0.01863150857388973,-0.0047559221275150785,-0.040011674,0.01863139,1
-0.14152275025844574,1.9295734167099,-0.021760446950793263,-0.008904391899704933,-0.037873644,0.015882496,1
-0.21923238039016724,2.9945228099823,-0.050010059028863914,-0.014790197834372519,-0.027183503,0.024129177,1
-0.29793643951416016,4.047924995422363,-0.05880901589989662,-0.02192848920822144,-0.019242255,0.025045475,1
-0.3663409948348999,5.023396968841553,-0.07065360248088838,-0.028104685246944427,-0.0033597588,0.024129177,1
-0.4283855855464935,5.880967140197754,-0.0385090671479702,-0.03265747055411339,-0.013439035,0.032986723,1
-0.493394672870636,6.611785888671875,-0.008319923654198647,-0.036744754761457436,-0.008552114,0.025961773,1
-0.54234379529953,7.216869831085205,0.01449631620198488,-0.04140467569231987,-0.002443461,0.019242255,1
-0.5871399641036987,7.710686683654785,0.00931827537715435,-0.04866228997707367,0.010079277,0.016798794,1
-0.6202283501625061,8.112310409545897,-0.01813498325645924,-0.056771490722894676,0.02687807,0.013744468,1
-0.6402184367179871,8.442605018615723,-0.05608610808849335,-0.06646133959293365,0.036651913,0.027183503,1
-0.6524555087089539,8.705508232116701,-0.10475274920463562,-0.07718952000141144,0.028710667,0.03359759,1
-0.6629756093025208,8.92927074432373,-0.1563587635755539,-0.09136494249105452,0.06414085,0.027488936,5
-0.6553176641464233,9.122674942016602,-0.19362616539001465,-0.11327799409627914,0.09987647,0.010995574,5
-0.6297929286956787,9.283599853515623,-0.20901297032833102,-0.14547283947467804,0.11789699,0.030848695,5
-0.6071949005126953,9.404598236083984,-0.20744375884532928,-0.1891406923532486,0.1554652,0.07544186,5
-0.5867818593978882,9.501636505126953,-0.1749727576971054,-0.2365444451570511,0.20219639,0.13011430000000002,5
-0.5613641142845154,9.596471786499023,-0.13564161956310272,-0.2862730622291565,0.23701571,0.1572978,5
-0.5438441038131714,9.68182373046875,-0.09554401785135268,-0.3433557152748108,0.2666427,0.18600847,5
-0.518880307674408,9.755219459533693,-0.04041701927781105,-0.4102658927440643,0.3136793,0.22449298,5
-0.4655349254608154,9.815746307373047,0.03879546374082565,-0.4788325726985931,0.35643986,0.28924468,5
-0.3739701509475708,9.865182876586914,0.13827404379844666,-0.5454553961753845,0.37782016,0.40378192,5
-0.2425697296857834,9.910801887512207,0.2588920295238495,-0.613320529460907,0.42180246,0.5656611999999999,5
-0.07958053052425385,9.93763828277588,0.3825371563434601,-0.6780399084091187,0.47861293,0.70646566,5
0.08955583721399307,9.922950744628906,0.5148010849952698,-0.7446525692939758,0.43860126,0.81397796,5
0.2533070743083954,9.915117263793944,0.6342877745628357,-0.8094903230667114,0.47036624,0.87017757,5
0.3996987342834473,9.979070663452148,0.7815952301025391,-0.8653325438499451,0.6047566,0.9129381,5
0.4867219030857086,10.199113845825195,1.0245065689086914,-0.9130678176879884,0.7318166,0.9450085,5
0.5243914723396301,10.576727867126463,1.411050796508789,-0.9635993242263794,0.79198676,0.9783007,5
0.55994713306427,10.996053695678713,1.9137754440307615,-1.0340496301650999,0.7651087,1.0555751,5
0.5996622443199158,11.264451026916506,2.49394154548645,-1.1414580345153809,0.66767573,1.0341948,5
0.7005212903022766,11.26480197906494,3.0577664375305176,-1.2819362878799438,0.43096542,0.98899084,5
0.8472169637680054,11.138298034667967,3.3635613918304443,-1.4292033910751345,0.5983425,1.0134255,5
1.0391987562179563,11.02066707611084,3.4125430583953857,-1.5227789878845217,1.0671816,1.1123856,5
1.2692381143569946,10.881105422973633,3.4636778831481934,-1.5622018575668335,1.17897,1.1930199,5
1.4427895545959473,10.601515769958496,3.625231027603149,-1.5830588340759275,1.0891727,1.1517864,5
1.4833105802536009,10.123366355895996,3.8334476947784415,-1.6164304018020632,1.0827587,1.0458013000000002,5
1.3334579467773438,9.545701026916504,3.874431133270264,-1.647579550743103,1.4309518,0.91904676,5
1.1881592273712158,9.028923034667967,3.8574278354644775,-1.6410561800003052,1.217149,0.86437434,5
1.087973952293396,8.588840484619139,3.9439394474029537,-1.6175765991210938,0.9944886,0.77213365,5
0.9994524121284484,8.166524887084961,4.108932495117188,-1.5911618471145632,0.89919364,0.6808093000000001,5
0.9240899085998536,7.829050064086914,4.2690110206603995,-1.5538545846939087,0.9251554,0.5992588000000001,5
0.8990925550460815,7.574942588806152,4.44293737411499,-1.5074113607406616,0.87109387,0.5290093000000001,5
0.8914041519165039,7.355074405670166,4.614154815673828,-1.450639724731445,0.7825184000000001,0.43066,5
0.8742706775665283,7.125987529754639,4.786962032318115,-1.3852336406707764,0.7107416999999999,0.29168814,5
0.8521586656570435,6.930864810943604,5.000393867492676,-1.3094464540481567,0.61727935,0.22266038,5
0.8633660078048706,6.743908882141112,5.239358901977539,-1.2172210216522217,0.54367006,0.1994475,5
0.964435577392578,6.540774822235107,5.478811740875244,-1.1117489337921145,0.5564981999999999,0.20891592,5
1.0857769250869749,6.316384315490723,5.722383975982666,-0.9994991421699524,0.46700647,0.1881465,5
1.152002453804016,6.001619815826416,5.956338405609131,-0.8786620497703552,0.37598756,0.17684549,5
1.1530842781066897,5.668069362640381,6.129478931427003,-0.7559946179389954,0.33964106,0.16707164,5
1.1410192251205444,5.393711566925049,6.240455627441406,-0.6310551166534424,0.32375857,0.19394971,5
1.1382989883422852,5.1912760734558105,6.32250452041626,-0.5054015517234802,0.28160888,0.2180789,5
1.1502259969711304,5.045292854309082,6.397688388824463,-0.3847334682941437,0.18325958,0.25228736,5
1.1453245878219604,4.943076133728027,6.472695350646973,-0.2619279623031616,0.1777618,0.26878070000000004,5
1.1260974407196045,4.886152267456055,6.576078414916992,-0.1319057196378708,0.1563815,0.2648101,5
1.112612009048462,4.897694110870361,6.725454807281494,0.0023331458214670424,0.004886922,0.24862215,5
1.1287245750427246,5.088239192962647,6.955930233001709,0.11361632496118546,0.03756821,0.25350907,5
1.2533525228500366,5.500433921813965,7.3192315101623535,0.16105309128761292,0.04917465,0.37904188,5
1.4495829343795776,5.950702667236327,7.688080787658691,0.20440153777599332,-0.06688975,0.48563787,5
1.5191030502319336,6.272691249847412,7.950336933135986,0.29695069789886475,-0.30879238,0.47036624,5
1.406290888786316,6.42018985748291,7.859671592712402,0.3895484507083893,-0.31887165,0.40469822,5
1.3433558940887451,6.414186954498291,7.709027290344237,0.5138614773750305,-0.6169739000000001,0.48533243,5
1.301740646362305,6.482132911682129,7.6952571868896475,0.6801634430885315,-0.56321776,0.45845437,5
1.2820600271224976,6.80084228515625,7.807929039001465,0.8495579361915588,-1.0070114,0.28252518,5
1.2348999977111816,7.3366546630859375,7.580513954162598,1.0250459909439087,-0.9807441,0.043066,5
1.0612584352493286,7.9009599685668945,7.212872505187987,1.1769533157348633,-0.8597928,-0.32650748,5
0.8453295826911926,8.289518356323242,6.790963172912598,1.2707339525222778,-1.2275337,-0.6310238,5
0.6519578099250793,8.492329597473145,6.170796871185303,1.3389877080917358,-1.2965615,-0.8582656999999999,5
0.6016809940338135,8.604465484619139,5.5505194664001465,1.3857583999633791,-1.5118915000000002,-0.9416488000000002,5
0.7332178354263306,8.688847541809082,4.98244047164917,1.417388677597046,-1.7217237,-0.883922,5
0.9916141033172609,8.84804630279541,4.425149917602539,1.4483964443206787,-1.88849,-0.7461719,5
1.3204119205474854,9.120028495788574,3.9267213344573975,1.492248773574829,-2.0589213,-0.5849035,5
1.6205627918243408,9.365555763244627,3.5009944438934326,1.5368727445602417,-2.2858577,-0.5332854,5
1.7727699279785156,9.402850151062012,3.11102294921875,1.5675370693206787,-2.4223862,-0.6814201999999999,5
1.8011696338653564,9.277765274047852,2.6694700717926025,1.5578333139419556,-2.1242838,-0.8875871999999999,5
1.8692530393600464,9.145832061767578,2.268338680267334,1.4972258806228638,-1.6536123,-1.0940597,5
1.99785840511322,9.119257926940918,1.9275177717208865,1.4196040630340576,-1.2250903,-1.1441506,5
2.1356844902038574,9.13644027709961,1.6350880861282349,1.343480944633484,-0.820392,-1.0684034,5
2.215822458267212,9.086384773254396,1.3772811889648438,1.276689052581787,-0.5369505,-0.9584476,5
2.226743221282959,9.003362655639648,1.1663370132446291,1.236517310142517,-0.38789943,-0.8185594,5
2.144093990325928,8.977911949157715,1.1680580377578735,1.2243070602416992,-0.7583892,-0.7031059000000001,5
2.010148286819458,8.98843002319336,1.3076828718185425,1.203695297241211,-1.1129965,-0.5858198,5
2.0389442443847656,9.010066032409668,1.3801521062850952,1.1630066633224487,-0.9969321,-0.42760566,5
2.214597225189209,8.989371299743652,1.4212112426757812,1.099518895149231,-0.90194255,-0.34391713,5
2.435089588165283,8.912606239318848,1.4219712018966677,1.0205514430999756,-0.752586,-0.27977628,5
2.641910552978516,8.769204139709473,1.2401424646377563,0.9243865609169006,-0.53878313,-0.1423316,5
2.747213840484619,8.706269264221191,1.0244631767272951,0.8330556750297546,-0.24862215,-0.015882496,5
2.6723456382751465,8.71909236907959,1.0064104795455933,0.7015569806098938,-0.27672195,-0.015271631,5
2.4121778011322017,8.794223785400389,1.181194305419922,0.5869395136833191,-0.42913285,-0.17165314,5
2.1078686714172363,8.914003372192383,1.1967201232910156,0.4668826162815094,-0.73639804,-0.33475417,5
1.828847289085388,9.089078903198242,0.9794378876686096,0.3831024169921875,-0.6936375,-0.4269948,5
1.561248540878296,9.277054786682127,0.7519153952598572,0.3279241025447845,-0.6093381,-0.5332854,5
1.385966420173645,9.570342063903807,0.6037198305130005,0.2880440354347229,-0.70738196,-0.59131753,5
1.335533618927002,10.066558837890623,0.3384787142276764,0.2586991488933563,-0.65148777,-0.6337727,5
1.605642318725586,10.791008949279783,-0.04839133471250534,0.2427192181348801,-0.5510005,-0.5708536,5
1.8779768943786619,11.47072982788086,-0.14199943840503693,0.2635309100151062,-0.6750060999999999,-0.49938235,5
1.9225155115127563,12.103571891784668,-0.0320124588906765,0.24460603296756744,-0.6282749,-0.45570546,5
1.8489398956298828,12.768787384033205,0.1410125195980072,0.16080975532531738,-0.45112398,-0.22968534,5
1.7066848278045654,13.241077423095705,0.4522331953048706,0.025920923799276352,-0.28496864,0.0027488936,5
1.64723801612854,13.344160079956055,0.7754979133605957,-0.19397597014904025,-0.10323623,0.398895,5
1.7327921390533447,13.150601387023926,1.0742383003234863,-0.4666151404380798,0.05681047,0.8720101,5
1.95825457572937,12.883612632751465,1.2694828510284424,-0.737026572227478,0.09682214,1.3335188999999998,5
2.251872301101685,12.72206974029541,1.3047716617584229,-0.9845972657203674,0.19608775,1.6927075,5
2.485929012298584,12.702166557312012,1.1754601001739502,-1.1924254894256592,0.59864795,1.9113973,5
2.4158592224121094,12.67031478881836,0.8855519294738771,-1.3458707332611084,1.2275337,1.9443841,5
1.868341565132141,12.436283111572266,0.4071355164051056,-1.4342801570892334,2.0060816000000004,1.6844609,5
1.2964869737625122,12.139806747436525,0.10619308799505234,-1.4600520133972168,2.482251,1.6163495,5
0.9638047218322754,11.861634254455565,0.3512755036354065,-1.483405590057373,1.9098701,1.7522669999999998,5
0.8400487899780273,11.652629852294922,0.7587813138961792,-1.5293657779693604,1.4718798,1.8035797,5
0.7634869217872621,11.449321746826172,0.9296727776527404,-1.605784893035889,1.6120734,1.8463402,5
0.7338317036628723,11.173909187316896,0.8121194839477539,-1.6763298511505127,1.9691241,1.8756617,5
0.8114036321640015,10.678947448730467,0.7251493334770203,-1.7458257675170898,1.9960022,1.7507398,5
0.869249165058136,9.99224090576172,0.6753787994384766,-1.8157395124435425,2.3970351,1.5534303,5
0.7978261709213257,9.238686561584473,0.7326758503913879,-1.8797098398208616,2.634662,1.3759739,5
0.6475486755371094,8.381842613220215,0.8827565908432007,-1.9230393171310425,2.6435194,1.0064004999999998,5
0.5411435961723328,7.416815757751465,1.170360803604126,-1.9301756620407104,2.1203132,0.70188415,5
0.4905081987380981,6.488706111907959,1.4786024093627932,-1.8723613023757932,1.8454239,0.5503895999999999,5
0.4815352261066437,5.772408485412598,1.7798373699188232,-1.732349514961243,1.6939293000000002,0.5500841999999999,5
0.4951934814453125,5.2178239822387695,2.1195240020751958,-1.534411907196045,1.3771957,0.5296202,5
0.4892268180847168,4.734031200408936,2.58918833732605,-1.2870081663131714,1.0708468,0.47800204,5
0.4899865984916687,4.353945732116698,3.172852039337158,-1.0097198486328125,0.6435465,0.4196644000000001,5
0.5231696963310242,4.162195682525635,3.771846055984497,-0.7288203239440918,0.15088372,0.37659842,5
0.6277230381965637,4.13033390045166,4.345165252685547,-0.4648467898368835,-0.16340645,0.364992,5
0.9570451378822328,4.1927032470703125,4.993758201599121,-0.2138078808784485,-0.29657507,0.40378192,5
1.5608793497085571,4.3387794494628915,5.821768283843994,0.053737539798021317,-0.4361577999999999,0.37323865,5
2.201449155807495,4.828403949737549,6.7714881896972665,0.19845321774482727,0.18112154,0.23823744,5
2.4669673442840576,5.632332801818848,6.685469150543213,0.281642884016037,0.5195409000000001,0.26542094,5
2.251988649368286,6.422569274902344,6.870420932769775,0.4734535813331604,-0.17959438,-0.052534413,5
1.818938970565796,7.462372303009032,6.7608585357666025,0.6701534390449524,-0.57818395,-0.0018325958,5
1.6210001707077026,8.20758056640625,6.402148246765138,0.9145622849464417,-0.82344633,-0.007330383,5
1.4810580015182495,8.57515811920166,6.243793487548827,1.1199644804000854,-1.3903292,-0.17104226,5
1.1494238376617432,8.743454933166504,5.9251861572265625,1.283169865608215,-1.536326,-0.5338961999999999,5
0.8906645178794861,8.902726173400879,5.488836288452148,1.3873571157455444,-1.736079,-0.8081746999999999,5
0.9181724786758424,9.025235176086426,4.895726203918457,1.4472932815551758,-1.8219056,-1.0384709,5
1.030245661735535,9.105380058288574,4.390465259552002,1.4738513231277466,-1.9639318,-1.0705414,5
1.2051976919174194,9.17219352722168,3.9134111404418954,1.49256694316864,-2.208278,-1.0705414,5
1.4095886945724487,9.354310989379883,3.374430656433105,1.5099831819534302,-2.2968533,-1.0403035,5
1.6162450313568115,9.598151206970217,2.8851258754730225,1.529157280921936,-2.3243423,-0.96761054,5
1.787954568862915,9.691361427307127,2.483658790588379,1.537062406539917,-2.526844,-1.0586295,5
1.9373135566711424,9.629457473754883,2.0449607372283936,1.510836124420166,-2.1184807,-1.2470814,5
2.090708017349243,9.540263175964355,1.6448006629943848,1.4489504098892212,-1.575116,-1.2977833,5
2.2784740924835205,9.475041389465332,1.2255784273147583,1.3607003688812256,-0.88239485,-1.2983941,5
2.448909044265747,9.411545753479004,0.939433753490448,1.2818000316619873,-0.782213,-1.2238685,5
2.5005724430084233,9.29010772705078,0.6686243414878845,1.2238812446594238,-0.505491,-1.0839803,5
2.441873550415039,9.19245719909668,0.3169298768043518,1.194043517112732,-0.4089743,-0.8368853999999999,5
2.2795746326446533,9.152633666992188,0.23783691227436066,1.210197925567627,-0.7473936,-0.6224717,5
2.045049905776977,9.142176628112793,0.3462572395801544,1.2205779552459717,-0.8713993,-0.55863625,5
1.832572102546692,9.134873390197754,0.459357738494873,1.2158684730529783,-0.7492262,-0.64568454,5
1.7998244762420654,9.100630760192873,0.5482191443443298,1.1878761053085327,-0.7296785,-0.72601336,5
1.8928325176239011,9.00692081451416,0.544744610786438,1.1274161338806152,-0.5467244000000001,-0.70280045,5
2.0566768646240234,8.901105880737305,0.4477598667144776,1.0445095300674438,-0.34055737,-0.6420194,5
2.275893449783325,8.876612663269043,0.4047839641571045,0.9478812217712402,-0.24831672,-0.5372560000000001,5
2.5171830654144287,9.005342483520508,0.5738046169281006,0.8440564870834351,-0.31520647,-0.37934732,5
2.6225874423980717,9.215746879577637,0.7673928737640381,0.7199376225471497,-0.32406402,-0.22357668,5
2.540532350540161,9.366193771362305,0.8170862793922424,0.6007874011993408,-0.33567044,-0.22571471,5
2.3411235809326167,9.447539329528807,0.7068309187889099,0.5046242475509644,-0.3998113,-0.29901853,5
2.0366311073303223,9.576205253601074,0.419725239276886,0.434589833021164,-0.44593164,-0.29565877,5
1.8119473457336424,9.956727981567383,-0.05612732470035553,0.37081626057624817,-0.34605515,-0.24587326,5
1.6877168416976929,10.483147621154783,-0.3746732771396637,0.3177828788757324,-0.64812803,-0.17592919,5
1.5495120286941528,11.144071578979492,-0.4766958951950073,0.24971751868724826,-0.5546656,-0.106901415,5
1.5075335502624512,11.834268569946287,-0.4613219797611237,0.13985158503055573,-0.23945917,-0.009773844,5
1.4764055013656616,12.38653564453125,-0.3114170730113983,-0.00950680673122406,-0.10170906,0.14782938,5
1.4173153638839722,12.67913055419922,-0.12484387308359145,-0.21578051149845126,0.015271631,0.35643986,5
1.3461177349090576,12.778972625732422,0.11029797792434692,-0.4589119255542755,0.2910773,0.6606508000000001,5
1.3330928087234497,12.88225555419922,0.44192880392074585,-0.7124854326248169,0.49541172,1.0699303999999998,5
1.423938512802124,13.03685474395752,0.7615886926651001,-0.9757477641105652,0.5128214,1.5683966,5
1.569008469581604,13.234493255615234,0.9460216164588928,-1.2155975103378296,0.49754974,1.9040669,5
1.6542760133743286,13.42860221862793,1.0381758213043213,-1.4194152355194092,0.7657196,2.0491474,5
1.5981345176696775,13.521624565124512,1.0314167737960815,-1.5972328186035156,1.1255191999999998,1.9932534,5
1.3832697868347168,13.4030179977417,0.9245483875274658,-1.7185434103012085,1.0861185,1.6670512,5
0.9651591181755066,13.054814338684082,0.7052284479141235,-1.7798278331756592,1.0442741,1.4682146,5
0.5122909545898438,12.503905296325685,0.4076831638813019,-1.8115675449371336,1.539075,1.3521502,5
0.220271959900856,11.891997337341307,0.3206615447998047,-1.8292908668518064,1.9007072,1.3747523,5
0.3400821685791016,11.437731742858887,0.46698197722435,-1.8376648426055908,1.7434093999999998,1.6423112000000002,5
0.700454831123352,10.970169067382812,0.70147305727005,-1.854274153709412,1.6655241000000005,1.6664404,5
0.9354416728019714,10.293987274169922,0.811268150806427,-1.8735097646713257,1.9062049,1.5659530000000002,5
1.0578618049621582,9.428902626037598,0.7524231076240541,-1.8780965805053709,2.1398609,1.412015,5
1.1853656768798828,8.594943046569824,0.6456266045570374,-1.8427072763442995,2.4019222,1.3087788,5
1.1665109395980835,7.800166606903076,0.6780439019203186,-1.7779502868652344,2.3796256,1.0812315,5
0.940725803375244,7.116443157196045,0.8822965025901794,-1.6971286535263062,2.1762075000000003,0.93401295,5
0.729181706905365,6.457123756408691,1.2576391696929932,-1.5898922681808472,1.9462167,0.88025683,5
0.7156727313995361,5.889400959014893,1.75171959400177,-1.4294214248657229,1.5375478,0.8341365,5
0.6842251420021057,5.507120609283447,2.3524441719055176,-1.231498122215271,0.99082345,0.67347896,5
0.6022893786430359,5.321936130523682,2.9424314498901367,-1.0360465049743652,0.60139686,0.52564955,5
0.5692659616470337,5.310725688934326,3.4081881046295166,-0.8463801145553589,0.3933972,0.49205196,5
0.6790813803672789,5.382891178131104,3.889718770980835,-0.6451439261436462,0.36254853,0.5128214,5
0.8986896872520447,5.357327461242676,4.496843338012695,-0.43849533796310425,0.22143865,0.4886922,5
1.1365822553634644,5.169586658477783,5.158449172973633,-0.2162531167268753,-0.0842994,0.36377025,5
1.3539098501205444,4.91324520111084,5.708988666534424,0.02603966929018497,-0.6444628000000001,0.13927728,5
1.4867492914199831,4.762518405914307,6.1789984703063965,0.2628839015960693,-0.8542950999999999,-0.10567969,5
1.63676655292511,5.223425388336182,6.652751445770264,0.37739428877830505,-0.14630222,0.022907447,5
1.9545872211456297,6.208270072937013,6.863880157470702,0.5115683674812317,-0.80970186,0.087659165,5
1.955474138259888,7.274007797241211,6.8086838722229,0.6728422045707703,-0.81000733,-0.29962940000000005,5
1.6277347803115845,8.01936149597168,6.3986639976501465,0.8537755608558655,-0.91629785,-0.35033122,5
1.4702982902526855,8.153068542480469,6.0399227142333975,1.0204418897628784,-1.5357152,-0.65087694,5
1.2833088636398315,8.147060394287111,5.477973937988281,1.1756571531295776,-1.6597209,-0.9450085,5
1.2434792518615725,8.350435256958008,4.7996320724487305,1.2999080419540403,-1.6756034,-1.094976,5
1.3768771886825562,8.825141906738281,4.1723270416259775,1.3949397802352903,-1.6362026,-1.1111639,5
1.524683713912964,9.404719352722168,3.6399822235107417,1.4615931510925293,-1.7650951,-1.0650436,5
1.6435670852661133,9.85086154937744,3.1408095359802246,1.5007449388504028,-1.7910568999999998,-1.0262536,5
1.8066345453262331,9.977547645568848,2.7080743312835693,1.5131987333297732,-1.9941696,-0.9618073,5
1.9823514223098757,9.805938720703123,2.375491142272949,1.5092405080795288,-2.2434027000000003,-1.0345002,5
2.0723111629486084,9.532093048095703,2.0122976303100586,1.4788790941238403,-2.2360723,-1.1224649,5
2.0790860652923584,9.393102645874023,1.6008874177932741,1.4293266534805298,-1.7553213,-1.187522,5
2.1450412273406982,9.4373779296875,1.2331501245498655,1.3650882244110107,-1.3741413,-1.1640037,5
2.209963798522949,9.494649887084961,1.0036388635635376,1.3015966415405271,-1.1630874,-1.1163563,5
2.2185275554656982,9.451983451843262,0.7834801077842712,1.2253197431564329,-0.8594874,-1.1044444,5
2.226323127746582,9.337858200073242,0.5243639349937439,1.1563278436660769,-0.70921457,-0.9923506,5
2.209289789199829,9.266075134277344,0.27022242546081543,1.1297718286514282,-0.6417139000000001,-0.72082096,5
2.149856805801392,9.212580680847168,0.17845724523067474,1.1119319200515747,-0.7635816,-0.51343226,5
2.1345167160034184,9.12286376953125,0.2885998785495758,1.0881831645965576,-0.9251554,-0.41080686,5
2.187032699584961,8.973335266113281,0.397797167301178,1.0545709133148191,-0.93554014,-0.35827246,5
2.242274761199951,8.850301742553711,0.4263596832752228,0.9980955719947816,-0.6942484,-0.33414328,5
2.32646107673645,8.804643630981445,0.3845652937889099,0.910273551940918,-0.419359,-0.3387248,5
2.407798290252685,8.79488468170166,0.3065473139286041,0.8015681505203247,-0.2003638,-0.30390546,5
2.406834125518799,8.835050582885742,0.30166536569595337,0.6962580680847168,-0.28496864,-0.30848694,5
2.3495373725891118,8.926313400268555,0.4241773188114166,0.6182827353477478,-0.5103779,-0.32589662,5
2.299267292022705,9.09619426727295,0.5596718192100525,0.5452792048454285,-0.6759224,-0.27855456,5
2.233396291732788,9.313790321350098,0.5710045099258423,0.4707309901714325,-0.5317582,-0.24495697,5
2.0944764614105225,9.5261812210083,0.4719280302524567,0.4050896465778351,-0.3472769,-0.26328292,5
1.927550196647644,9.813278198242188,0.4215867221355438,0.3418755829334259,-0.4831944,-0.25411993,5
1.9282538890838623,10.34235954284668,0.2444257438182831,0.26710933446884155,-0.5170974,-0.20525073,5
2.063718318939209,10.888154029846193,0.08791819214820862,0.177871435880661,-0.75747293,-0.058643065,5
2.1126043796539307,11.505376815795898,0.027430178597569462,0.0855708047747612,-0.6588182,0.09010262,5
2.1388721466064453,12.33457088470459,0.14754372835159302,-0.04405733197927475,-0.39858958,0.2415972,5
2.120553731918335,13.125008583068848,0.4454484581947327,-0.2209008038043976,-0.3203988,0.46731192,5
2.082799434661865,13.500188827514648,0.6988111138343811,-0.4540594816207886,-0.14508049,0.70341134,5
2.0796983242034908,13.479907989501953,0.9258187413215636,-0.723612904548645,0.07513642,1.0118983,5
2.172920227050781,13.330965995788574,1.1116082668304443,-0.9863876700401306,0.2761111,1.4514158,5
2.306084156036377,13.235804557800293,1.2058051824569702,-1.1907479763031006,0.5311473000000001,1.8280143,5
2.377183437347412,13.223843574523926,1.2227333784103394,-1.3345210552215576,0.7113526,1.9269744,5
2.378798246383667,13.188295364379885,1.1073648929595947,-1.4566313028335571,0.8933904,1.9926424,5
2.2364373207092285,12.991544723510742,0.8119189143180847,-1.5566620826721191,1.1850786,1.9651535,5
1.9825172424316408,12.709380149841307,0.4183956980705261,-1.625836968421936,1.9547688,1.885741,5
1.7345569133758545,12.32724380493164,0.1906713843345642,-1.6376409530639648,2.3212879,1.8399261,5
1.5804767608642578,11.795331001281738,0.28668907284736633,-1.6525632143020632,2.1297817,1.7363845000000002,5
1.585223913192749,11.216434478759766,0.4995788931846618,-1.6967445611953735,2.1679606,1.7669277,5
1.6733994483947754,10.60082721710205,0.6515639424324036,-1.722696304321289,2.2635612000000003,1.7037032,5
1.7909293174743652,9.935044288635254,0.6950652599334717,-1.7479960918426514,2.2941043,1.568091,5
1.8411012887954712,9.15023708343506,0.7227407693862915,-1.7759734392166138,2.4666739,1.3121386,5
1.7383579015731812,8.34867000579834,0.7892383337020874,-1.7852542400360107,2.7708848,1.0421360999999998,5
1.4695950746536257,7.5771546363830575,0.9741597771644592,-1.7707474231719968,2.917187,0.6637050999999999,5
1.1514155864715576,6.718862056732178,1.1549520492553709,-1.7311124801635742,2.6569583,0.30176744,5
0.8221360445022583,5.870518207550049,1.495144963264465,-1.6222577095031738,2.021964,0.08704830000000001,5
0.5262077450752258,5.172807693481445,2.0412976741790767,-1.4446094036102295,1.1945469,0.018936822,5
0.322883665561676,4.7646355628967285,2.581784009933472,-1.2165974378585815,0.8151997,0.023823744,5
0.3876396119594574,4.640279769897461,3.0996553897857666,-0.975971817970276,0.6417139000000001,0.18509217,5
0.6599472165107727,4.645946979522705,3.6364381313323975,-0.7345672845840454,0.35979962,0.39736784,5
0.9769437909126282,4.62580680847168,4.231305122375488,-0.4831940531730652,0.13561209,0.56779927,5
1.2235115766525269,4.59133243560791,4.869470596313477,-0.22757308185100555,-0.30085114,0.60994893,5
1.43844735622406,4.7368597984313965,5.745805740356445,-0.0009122090996243061,-0.59131753,0.52503866,5
1.6423733234405518,5.235056877136231,6.317184448242188,0.09479325264692308,-0.5372560000000001,0.42424592,5
1.6569448709487915,5.719065189361572,6.032847881317139,0.2599958777427673,-0.20433442,0.26572640000000003,5
1.7595574855804443,6.456345081329347,6.178611278533936,0.4752783179283142,-0.47678033,-0.0421497,5
1.6314647197723389,7.435258865356445,6.442518711090088,0.6223230361938477,-0.8390234000000001,-0.27580565,5
1.4666186571121216,8.018941879272461,6.3418636322021475,0.8241251707077026,-1.1371256,-0.33383787,5
1.4883054494857788,8.27653980255127,6.090238571166992,1.0340561866760254,-1.4123205,-0.45845437,5
1.4344409704208374,8.50345516204834,5.708042621612549,1.2107095718383791,-1.5867225,-0.59681535,5
1.3046844005584717,8.782502174377441,5.176121234893799,1.33918297290802,-1.7125608,-0.66553766,5
1.249009370803833,8.996153831481934,4.626201152801514,1.419797420501709,-1.8435913,-0.7131852,5
1.313830852508545,9.10921573638916,4.089639663696288,1.4691518545150757,-1.8203784,-0.8188649,5
1.5237114429473877,9.199901580810547,3.5964815616607666,1.4979453086853027,-1.9425515,-0.8720101,5
1.7882122993469238,9.304560661315918,3.0536608695983887,1.5179364681243896,-1.9517145,-0.91721416,5
2.03794264793396,9.40831470489502,2.552354097366333,1.5248266458511353,-1.8493946,-0.9837985,5
2.2498345375061035,9.4512300491333,2.1739327907562256,1.5062878131866455,-1.9031507,-1.2183707,5
2.3655869960784908,9.486413955688477,1.8186682462692259,1.4649746417999268,-1.6997325,-1.2040153999999998,5
2.327797174453736,9.526464462280273,1.5277018547058103,1.4054341316223145,-1.2464706,-1.2147056,5
2.2532551288604736,9.57730770111084,1.299163818359375,1.330652356147766,-1.0867293,-1.065349,5
2.1798858642578125,9.577845573425293,1.0650182962417605,1.2653814554214478,-0.7877107,-0.9370673,5
2.1214923858642583,9.475997924804688,0.8561205863952637,1.1972603797912598,-0.6035349,-0.84788096,5
2.078989028930664,9.304707527160645,0.6727337837219238,1.1618112325668335,-0.51923543,-0.7993172,5
1.9991627931594849,9.1929292678833,0.5349346399307251,1.1379806995391846,-0.4831944,-0.7089091,5
1.9434431791305544,9.129385948181152,0.6497549414634705,1.100308179855347,-0.7147123000000001,-0.6563747,5
1.982621431350708,9.080945014953613,0.7865085601806641,1.0493464469909668,-0.8756753,-0.5842925999999999,5
2.1427929401397705,9.034579277038574,0.8829711079597473,0.9902745485305786,-0.86651236,-0.5329799,5
2.410165548324585,8.989794731140137,0.9190019369125366,0.920579731464386,-0.6407976,-0.48808134,5
2.69805645942688,8.94701862335205,0.8011519312858582,0.8309854865074158,-0.2452624,-0.41233405,5
2.88600754737854,8.896888732910156,0.6318795084953308,0.7387199401855469,0.09132435,-0.32589662,5
2.904425382614136,8.865973472595215,0.5476696491241455,0.6517021656036377,0.02321288,-0.29749137,5
2.759438753128052,8.953601837158203,0.5417617559432983,0.5836628675460815,-0.20799962,-0.36682457,5
2.535406351089477,9.1563081741333,0.5107461810112001,0.5220337510108948,-0.4129449000000001,-0.40378192,5
2.3001158237457275,9.425750732421877,0.4031486511230469,0.4578048884868622,-0.43004912,-0.36865717,5
2.065636157989502,9.760435104370117,0.28290560841560364,0.39641427993774414,-0.43004912,-0.35277468,5
1.816771149635315,10.134963035583496,0.18914227187633514,0.3363611698150635,-0.48808134,-0.39522982,5
1.8113052845001218,10.571104049682617,0.006077068857848643,0.248862162232399,-0.5119051,-0.36163223,5
1.982391715049744,11.043416023254396,-0.12857690453529358,0.1627092957496643,-0.8008443000000001,-0.17745635,5
2.1527252197265625,11.61367416381836,-0.1884254664182663,0.059521529823541634,-0.57635134,0.0061086523,5
2.2517244815826416,12.274279594421387,-0.06437305361032486,-0.08166646957397461,-0.33353242,0.15454891,5
2.1459715366363525,12.808222770690918,0.261822909116745,-0.26691967248916626,-0.25259277,0.33108896,5
1.98341965675354,13.039963722229006,0.5959241390228271,-0.509028434753418,-0.14599679999999998,0.6062838,5
1.9059518575668333,13.056653022766113,0.9023404121398926,-0.7660537958145142,0.05497787,1.0424415,5
1.9591637849807741,13.034725189208984,1.0609241724014282,-0.9991232752799988,0.42119157,1.5259413999999998,5
2.128258228302002,13.055635452270508,1.1006577014923096,-1.1982152462005615,0.84482664,1.8866574,5
2.2814710140228267,13.119420051574707,1.1370635032653809,-1.3778878450393677,1.0839803,2.0152445,5
2.286339282989502,13.133150100708008,1.056970238685608,-1.5211333036422732,1.1297953,1.960572,5
1.9355461597442627,12.981719017028807,0.7667813301086426,-1.6083532571792605,1.6316211,1.7293595000000002,5
1.3685835599899292,12.65006160736084,0.3520819842815399,-1.6714271306991575,2.3829854,1.5204436,5
0.9677359461784364,12.22451114654541,0.3258383870124817,-1.677273154258728,2.0592268,1.5497651,5
0.8079489469528198,11.842019081115724,0.6479713916778564,-1.6991180181503296,1.6484199000000002,1.6859881,5
0.8131142258644104,11.50377368927002,0.8718268275260925,-1.7285014390945437,1.7938058,1.813659,5
0.8275981545448303,11.090409278869627,0.9809439778327942,-1.7777626514434814,1.9086485,1.840537,5
0.8682621717453003,10.489416122436523,1.0105782747268677,-1.8437631130218504,1.9917262,1.7055358,5
0.9790937900543212,9.61532497406006,0.9683467745780944,-1.89400577545166,2.3802364,1.4816537,5
1.0084956884384155,8.70360279083252,0.9644834399223328,-1.9356969594955444,2.7159069,1.2003502,5
0.9353535771369934,7.700210094451903,1.092695951461792,-1.948291063308716,2.7375927000000004,0.79290307,5
0.7508648633956909,6.700979709625244,1.4156982898712158,-1.925679087638855,2.445599,0.42210788,5
0.5654739737510681,5.800488471984862,1.8551509380340576,-1.8455730676651,2.074193,0.26542094,5
0.5001475214958191,5.067357540130615,2.2766451835632324,-1.6826976537704468,1.640784,0.21044308,5
0.4754175245761871,4.569235801696777,2.638571262359619,-1.4370025396347046,1.2699889,0.20677789,5
0.3978036642074585,4.246183395385741,3.0723767280578613,-1.1593273878097534,0.8268061,0.24770586,5
0.324228972196579,4.043813705444337,3.586965084075928,-0.8709390163421631,0.23640485,0.32406402,5
0.3437545299530029,3.9738068580627437,4.134561538696288,-0.5684356093406677,-0.16310102,0.43860126,5
0.4772247672080994,4.049122333526611,4.681962966918945,-0.2773515582084656,-0.25259277,0.5329799,5
0.731155514717102,4.196803569793701,5.284507751464844,0.004595352802425623,-0.34788775,0.59986967,5
1.1254335641860962,4.439201354980469,6.10312032699585,0.2406579852104187,-0.75686204,0.52473325,5
1.420903563499451,5.05347204208374,6.651331901550293,0.3131251335144043,-0.48472157,0.38912117,5
1.6089314222335815,5.8961429595947275,6.545030117034912,0.41393396258354187,0.094989546,0.17440203,5
1.3584283590316772,6.574707984924316,6.53404426574707,0.5775917172431946,-0.3707952000000001,-0.28985557,5
0.7148686051368713,7.0986995697021475,6.6812801361083975,0.7209017872810364,-1.1236867,-0.4728097,5
0.5377414822578429,7.350263118743896,6.572360515594482,0.8978353142738342,-1.7880026000000002,-0.34208453,5
0.4886149764060974,7.661856174468994,6.326016426086426,1.1004791259765625,-2.098933,-0.4196644000000001,5
0.4289031326770783,8.164731979370117,5.916512489318848,1.2510913610458374,-2.2956316,-0.64751714,5
0.5624789595603943,8.775117874145508,5.3125,1.3518747091293335,-2.1456642,-0.8561276,5
0.9376322031021118,9.260031700134276,4.607137203216553,1.4163570404052734,-2.085494,-0.9828822,5
1.346141338348389,9.4078369140625,3.8995301723480233,1.4621461629867554,-1.9685133,-1.0647382,5
1.7492418289184568,9.338366508483887,3.2493209838867188,1.499763250350952,-1.8573358,-1.0451905,5
2.1221265792846684,9.32278537750244,2.6825697422027592,1.5431246757507324,-1.7217237,-0.9505063,5
2.40063214302063,9.420797348022461,2.2132363319396973,1.5665521621704102,-1.5387696000000002,-0.9202685,5
2.540619134902954,9.497498512268066,1.958503484725952,1.5417059659957886,-1.7314975,-1.0800097,5
2.4945991039276123,9.429570198059082,1.8213365077972408,1.4887503385543823,-1.6826283,-1.1960741,5
2.372742176055908,9.310670852661133,1.5176289081573486,1.423643946647644,-1.1863003,-1.1869112,5
2.2899038791656494,9.201807022094727,1.3499749898910522,1.3382205963134766,-1.2483031999999998,-1.210124,5
2.3003437519073486,9.227417945861816,1.1112672090530396,1.270309329032898,-1.040609,-1.119716,5
2.3799548149108887,9.298934936523438,0.8113325238227844,1.2118018865585327,-0.77946407,-0.9596693,5
2.4473462104797363,9.30948257446289,0.4905637204647064,1.1688753366470337,-0.46211955,-0.7104363,5
2.4508118629455566,9.240971565246582,0.3049740195274353,1.1525872945785522,-0.28802297,-0.42760566,5
2.355534315109253,9.13921356201172,0.3182085454463959,1.1296954154968262,-0.47158796,-0.34483343,5
2.2020888328552246,9.061882019042967,0.388732373714447,1.0932269096374512,-0.60231316,-0.34055737,5
2.0859417915344243,9.044041633605957,0.4528925716876984,1.035289287567139,-0.6068946,-0.39461896,5
2.0648143291473393,9.067456245422363,0.5154951810836792,0.9566672444343568,-0.61178154,-0.42852196,5
2.111316680908203,9.059370040893556,0.5363935828208923,0.8611786961555481,-0.45173484,-0.41416663,5
2.1584749221801762,9.045363426208496,0.4648545682430267,0.7579879760742188,-0.19608775,-0.38423425,5
2.1872098445892334,9.04366683959961,0.38119614124298096,0.6698687076568604,-0.005192355,-0.39675698,5
2.223919153213501,9.061172485351562,0.3907923102378845,0.5984296798706055,-0.0720821,-0.36926803,5
2.2253305912017822,9.132633209228516,0.4315133690834045,0.5485411882400513,-0.21899518,-0.355829,5
2.1591506004333496,9.304729461669922,0.4530253112316132,0.5012326240539551,-0.34147367,-0.33994650000000004,5
2.0022425651550293,9.552160263061523,0.3916783034801483,0.4532493650913239,-0.3295618,-0.37751472,5
1.7750290632247925,9.850136756896973,0.2646339535713196,0.4083564579486847,-0.32253686,-0.4175264,5
1.53546142578125,10.198957443237305,0.04797818884253502,0.35526183247566223,-0.38728857,-0.40469822,5
1.48680317401886,10.606270790100098,-0.2535741925239563,0.2973536252975464,-0.41874814,-0.37843102,5
1.5170201063156128,11.02885913848877,-0.4643332064151764,0.2484472841024399,-0.6068946,-0.32009340000000003,5
1.5245243310928345,11.486083984375,-0.5493132472038269,0.2043783962726593,-0.56321776,-0.24404067,5
1.4867956638336182,11.92261028289795,-0.556906521320343,0.13460654020309448,-0.4361577999999999,-0.15454891,5
1.363681077957153,12.247703552246096,-0.5121979117393494,0.0278504490852356,-0.3277292,-0.0571159,5
1.1711775064468384,12.487797737121582,-0.3728167414665222,-0.10723903030157088,-0.083383106,0.09865474,5
1.0136685371398926,12.641851425170898,-0.08595748990774155,-0.29384005069732666,0.08735373,0.33353242,5
0.927165687084198,12.74017333984375,0.3148612082004547,-0.5402041673660278,0.2761111,0.7101309,5
1.0101079940795898,12.826491355895994,0.7819736003875732,-0.8453758955001831,0.5161811,1.2339478000000002,5
1.3946222066879272,12.959718704223633,1.1750417947769165,-1.1400011777877808,0.16432275,1.7489072,5
1.9063513278961184,13.09887409210205,1.1986024379730225,-1.3285090923309326,0.027794369,2.255009,5
2.2246510982513428,13.1238431930542,0.888870120048523,-1.45537269115448,0.9691377,2.4098635,5
2.25909423828125,12.967710494995115,0.5579514503479004,-1.5588878393173218,1.5427402,2.141999,5
1.986272215843201,12.585679054260256,0.3174218833446503,-1.636261820793152,1.7394387999999998,1.8099937,5
1.457805871963501,12.03504467010498,0.12482523918151855,-1.6908280849456787,2.1135938,1.6065756000000002,5
1.1091803312301636,11.51523208618164,0.16609609127044678,-1.7366431951522827,2.3032675,1.6368134,5
1.029443621635437,11.185678482055664,0.4118610322475433,-1.782959222793579,2.3576342999999995,1.8429805,5
1.0495572090148926,10.836858749389648,0.7167658805847168,-1.8774209022521973,2.2876904,1.8622227,5
1.0233656167984009,10.352127075195312,0.8970237374305725,-1.977946639060974,2.293188,1.7458528000000002,5
0.9429476261138916,9.785428047180176,0.9086573719978333,-2.0735454559326167,2.4788911,1.5705346000000002,5
0.8980740308761597,9.22354221343994,0.9339566230773926,-2.1599168777465816,2.586098,1.3695598999999998,5
0.8525726795196533,8.673063278198242,1.0607205629348757,-2.2425458431243896,2.7189612000000003,1.0430524,5
0.7832732200622559,7.956600666046143,1.3338106870651243,-2.3040692806243896,2.5919013,0.5314528000000001,5
0.6444739699363708,7.157105922698975,1.733568787574768,-2.312730073928833,2.3218987,0.226631,5
0.5157681107521057,6.38008451461792,2.209169626235962,-2.249143362045288,1.822211,0.07666359,5
0.398524671792984,5.736024379730225,2.742516279220581,-2.1089916229248047,1.1701124,-0.05009095,5
0.3298221826553345,5.325600624084473,3.268174648284912,-1.907310128211975,0.7174611999999999,-0.055283304000000005,5
0.3255256414413452,5.047123908996582,3.7669582366943364,-1.676667332649231,0.45356745,0.046731193,5
0.3679861128330231,4.799387454986572,4.210154533386231,-1.428413152694702,0.22937989,0.17073683,5
0.4970658719539642,4.585189342498778,4.58668851852417,-1.1795493364334106,0.27152961,0.23518312,5
0.6410669088363647,4.36774206161499,4.9816932678222665,-0.9579159021377563,0.36774087,0.30970868,5
0.7791351675987244,4.08853816986084,5.433949947357178,-0.7482855916023254,0.15149458,0.29993483,5
0.922226905822754,3.8435428142547607,5.903990745544434,-0.541407585144043,-0.105068825,0.27397305,5
1.043500900268555,3.6222774982452393,6.255166053771973,-0.3362483084201813,-0.124311075,0.21930063,5
1.1428186893463137,3.4111342430114746,6.557830333709718,-0.10458646714687347,-0.16920967,0.18081611,5
1.2366583347320557,3.386096954345703,7.110669136047362,0.1275869458913803,-0.24129178,0.10781772,5
1.5141096115112305,4.231970310211182,8.316926956176758,0.2053430825471878,-0.118507855,0.24953845,5
1.740295171737671,5.442554950714111,8.672186851501465,0.16138780117034912,0.8304713,0.36010507,5
1.534852385520935,5.814270496368407,8.520998954772951,0.31038254499435425,0.46089783,0.098043874,5
1.1506432294845579,5.987123966217041,8.498959541320799,0.4508802592754364,-0.34208453,-0.015882496,5
1.0791773796081543,6.1770873069763175,8.371590614318848,0.6465674042701721,-0.7049385,0.05100725,5
1.1165258884429932,6.632453441619872,8.061246871948242,0.8633098006248474,-0.729984,0.08643743400000001,5
1.126335382461548,7.200001239776611,7.695028305053711,1.0681458711624146,-0.8594874,-0.046120327,5
1.0849845409393308,7.70742654800415,7.2604618072509775,1.2285903692245483,-0.8756753,-0.14935656,5
1.1135669946670532,7.957858085632324,6.77445125579834,1.3471404314041138,-0.9410379,-0.28038713,5
1.167824149131775,7.925987243652344,6.2681946754455575,1.4429677724838257,-1.1478158,-0.41416663,5
1.1987768411636353,7.779978275299072,5.762711048126222,1.5279827117919922,-1.4162911,-0.48502702,5
1.1955437660217283,7.716289043426514,5.295008659362793,1.6016210317611694,-1.7033978,-0.42760566,5
1.1823573112487793,7.82726526260376,4.896117687225342,1.6602832078933716,-1.9523253,-0.4034765,5
1.186120867729187,8.112655639648438,4.47678279876709,1.6948821544647217,-1.9856175,-0.41447207,5
1.3083546161651611,8.519845962524414,4.026838779449463,1.7026468515396118,-1.9339994,-0.4364632000000001,5
1.541921615600586,8.829878807067871,3.607330799102783,1.6781679391860962,-1.6948457,-0.5186246,5
1.8054658174514768,8.902417182922363,3.25403904914856,1.6219886541366575,-1.4443909,-0.6123924,5
1.9849872589111328,8.737481117248535,2.9372358322143555,1.5428749322891235,-1.1554517,-0.7669413,5
2.1157026290893555,8.554261207580566,2.631955146789551,1.4479072093963623,-0.8713993,-0.9437868,5
2.233406543731689,8.597310066223145,2.328191041946411,1.3683518171310425,-0.6979135000000001,-0.95081174,5
2.3427774906158447,8.907127380371094,1.9714341163635252,1.3257195949554443,-0.4813618,-0.79137594,5
2.3924014568328857,9.174012184143066,1.66290283203125,1.3036105632781982,-0.3463606,-0.6081163,5
2.4001600742340092,9.30398654937744,1.4117136001586914,1.3034888505935671,-0.36865717,-0.5039638,5
2.312000274658203,9.298968315124512,1.188694953918457,1.3102421760559082,-0.44226643,-0.4905248,5
2.1416659355163574,9.23534107208252,1.0172743797302246,1.2953519821166992,-0.54428095,-0.56138515,5
1.9609774351119995,9.205692291259766,0.8906503915786743,1.2609132528305054,-0.5864305999999999,-0.56596667,5
1.8260208368301392,9.198951721191406,0.7723302245140076,1.209416389465332,-0.6200281999999999,-0.5390885999999999,5
1.759103775024414,9.191136360168457,0.6829144358634949,1.149588108062744,-0.59040123,-0.4728097,5
1.7533164024353027,9.222938537597656,0.6455984115600586,1.08739972114563,-0.52198434,-0.3707952000000001,5
1.742586612701416,9.268798828125,0.6285973787307739,1.0248510837554932,-0.4804455,-0.35888332,5
1.7106938362121582,9.290619850158693,0.59075528383255,0.9567191600799559,-0.47494772,-0.4089743,5
1.6767802238464355,9.345731735229492,0.5016528367996216,0.88274085521698,-0.45570546,-0.38912117,5
1.6271135807037354,9.45360279083252,0.3949586749076843,0.8055549263954163,-0.5213734999999999,-0.3903429,5
1.559500217437744,9.556863784790039,0.29488980770111084,0.7258346676826477,-0.6356053,-0.36774087,5
1.4699234962463381,9.61859130859375,0.1722850352525711,0.6465871930122375,-0.66553766,-0.30543262,5
1.351686954498291,9.64987564086914,-0.035469163209199905,0.574570894241333,-0.5012149,-0.27763826,5
1.2565644979476929,9.680956840515137,-0.26846998929977417,0.5160859227180481,-0.33933565,-0.30451632,5
1.2279118299484253,9.720429420471193,-0.5164674520492554,0.4628925919532776,-0.32192600000000005,-0.33505958,5
1.1921886205673218,9.782740592956543,-0.7806435823440552,0.4117661714553833,-0.24190263,-0.2678644,5
1.070323824882507,9.84044075012207,-0.9793317317962646,0.35901010036468506,-0.1160644,-0.17867808,5
0.8487946391105652,9.868782043457033,-1.0739433765411377,0.304507315158844,-0.116675265,-0.10903945,5
0.5649366974830627,9.87534236907959,-1.0403679609298706,0.2544078826904297,-0.15485434,-0.07391469,5
0.3106944262981415,9.8513822555542,-0.9456801414489746,0.2036469131708145,-0.28496864,-0.06261369,5
0.17202870547771454,9.80517864227295,-0.8612689375877379,0.1525086760520935,-0.47433686,-0.048258353,5
0.14370237290859222,9.773624420166016,-0.8451451659202576,0.10019739717245102,-0.5564981999999999,-0.02321288,5
0.14049795269966125,9.782238960266113,-0.9052813053131104,0.059999842196702964,-0.45631635,-0.015577064,5
0.14999443292617798,9.838193893432617,-0.9588395953178406,0.02799232117831707,-0.32650748,0.0030543262,5
0.14480333030223844,9.883692741394043,-0.9996067881584167,0.0015050079673528671,-0.2574797,-0.0033597588,5
0.11850643903017045,9.891708374023438,-1.036763310432434,-0.01886843703687191,-0.25961772,-0.0067195175,5
0.05832169950008392,9.8489990234375,-1.0566660165786743,-0.034384265542030334,-0.22479841,-0.024740042,5
-0.0026388876140117645,9.782267570495604,-1.0639190673828125,-0.04253170266747475,-0.22113322,-0.019242255,5
-0.044431671500206,9.74639129638672,-1.0595326423645022,-0.04080891609191895,-0.18967366,-0.026267206,5
-0.061985161155462265,9.739136695861816,-1.0496721267700195,-0.03888949379324913,-0.1572978,-0.044898596,1
-0.06735023111104965,9.751664161682127,-1.0569710731506348,-0.0412689745426178,-0.08857546,-0.051618114000000014,1
-0.06879957020282745,9.772103309631348,-1.061694860458374,-0.04336603358387947,-0.12736541,-0.04734206,1
-0.07597440481185913,9.801103591918944,-1.041844129562378,-0.04006873816251755,-0.09621128,-0.05375614,1
-0.06546273082494736,9.839624404907227,-1.000167965888977,-0.035497773438692086,-0.13500121,-0.040317107000000005,1
-0.0586666613817215,9.856103897094727,-0.977249801158905,-0.03272165358066559,-0.14874569,-0.0030543262,1
-0.06306856870651245,9.846247673034668,-0.9590715169906616,-0.031113674864172932,-0.15760323,0.008552114,1
-0.07194072008132935,9.832324028015137,-0.9531527161598206,-0.035527326166629784,-0.18020524,0.02107485,1
-0.09127654135227203,9.826699256896973,-0.9633117914199828,-0.04037898406386376,-0.15882497,0.03970624,1
-0.10249312967061996,9.831319808959961,-0.9707112312316896,-0.04603681340813637,-0.16707164,0.05009095,1
-0.10504511743783952,9.83891773223877,-0.9742220044136048,-0.049594469368457794,-0.17409660000000002,0.0290161,1
-0.09261491894721983,9.843362808227539,-0.9706311225891112,-0.05091272294521332,-0.21868975,0.01160644,1
-0.06301375478506087,9.846274375915527,-0.973067581653595,-0.05279376357793808,-0.21838433,-0.007330383,1
-0.010901237837970257,9.84406280517578,-0.96869558095932,-0.05076804012060165,-0.25350907,-0.013133603,1
0.045880015939474106,9.850789070129396,-0.9739359617233276,-0.04728949069976807,-0.25076020000000004,-0.004276057,1
0.09045872092247008,9.865478515625,-0.9683074951171876,-0.04347581043839455,-0.204029,0.0070249503,1
0.14015091955661774,9.875950813293457,-0.9256083965301514,-0.038715317845344537,-0.25289822,0.015577064,1
0.1809506863355637,9.88196849822998,-0.8773003816604614,-0.0368821918964386,-0.26206118,0.026267206,1
0.2265920639038086,9.883963584899902,-0.8312065601348877,-0.04003339633345604,-0.22479841,0.038179077,1
0.2947978675365448,9.89051628112793,-0.7878289818763733,-0.0440361462533474,-0.183565,0.050396383,1
0.3732163012027741,9.900599479675293,-0.7645373344421387,-0.04982281103730202,-0.1386664,0.05955936,1
0.43175071477890015,9.897761344909668,-0.751434326171875,-0.05448867753148079,-0.052534413,0.06688975,1
0.4670961499214173,9.87847900390625,-0.7296963334083557,-0.057408370077610016,-0.024740042,0.06627888,1
0.4873227775096893,9.849532127380373,-0.7179691791534424,-0.057604636996984475,0.006414085,0.05375614,1
0.4878873527050018,9.83033847808838,-0.7219856977462769,-0.05710889399051666,0.06658431,0.046120327,1
0.4817914664745331,9.829605102539062,-0.7351991534233093,-0.05489987134933472,0.13775012,0.039095376,1
0.4682115018367767,9.834920883178713,-0.7356001734733582,-0.05108792334794998,0.11911872,0.024129177,1
0.445519745349884,9.835290908813477,-0.729218602180481,-0.04912663623690605,0.12461651,0.02321288,1
0.40900471806526173,9.834253311157227,-0.7299765348434448,-0.050681959837675095,0.15027285,0.0290161,1
0.3874126374721527,9.827413558959961,-0.7410743236541748,-0.0525205098092556,0.18173242,0.032070424,1
0.3709597289562225,9.817676544189453,-0.7359341979026794,-0.05563958734273911,0.22143865,0.03145956,1
0.3557979166507721,9.816089630126953,-0.7293187379837036,-0.057588648051023476,0.23335053,0.029626964,1
0.34307995438575745,9.814603805541992,-0.7384927868843079,-0.05932380259037018,0.24404067,0.019547688,1
0.33274906873703003,9.808624267578123,-0.7586260437965393,-0.0557357482612133,0.23945917,0.0030543262,1
0.3243496417999268,9.800848960876463,-0.7678645253181458,-0.04978828132152557,0.23426682,-0.022907447,1
0.32013094425201416,9.795476913452148,-0.7680628895759583,-0.04113142937421799,0.26572640000000003,-0.019242255,1
0.3247129321098328,9.7969331741333,-0.7619496583938599,-0.031477242708206184,0.2846632,-0.03359759,1
0.3276926577091217,9.80458927154541,-0.7619946002960205,-0.024857474491000172,0.27214047,-0.044593163,1
0.3247700035572052,9.814448356628418,-0.7631146907806396,-0.021997446194291115,0.28893927,-0.06047566,1
0.3178446888923645,9.82373046875,-0.7510058283805847,-0.020060844719409943,0.2941316,-0.055283304000000005,1
0.3201367259025574,9.829909324645996,-0.7432067990303041,-0.019273821264505383,0.28985557,-0.05009095,1
0.3233359456062317,9.834300994873047,-0.7408746480941772,-0.019768066704273224,0.30757064,-0.04886922,1
0.3229001462459564,9.839288711547852,-0.7432329654693604,-0.01915956847369671,0.29138273,-0.036651913,1
0.30601322650909424,9.847003936767578,-0.7520174384117126,-0.0202141497284174,0.28496864,-0.022602014,1
0.27738285064697266,9.856514930725098,-0.7596309185028076,-0.019304437562823296,0.269697,-0.020158553,1
