acc_x,acc_y,acc_z,gyro_x,gyro_y,gyro_z,label
0.0,0.0,0.0,0.0,0.09865474,0.0015271631,1
-0.002501067705452442,0.289479523897171,-0.032194733619689934,-0.0003416144463699311,0.07299839999999999,-0.019547688,1
-0.010245206765830515,0.9791539311408995,-0.11100884526968002,-0.002907381393015385,0.063224554,-0.021991149,1
-0.023780032992362976,1.932677149772644,-0.2233191281557083,-0.0072767939418554315,0.06047566,-0.0030543262,1
-0.042517855763435364,2.999342203140259,-0.3532093167304993,-0.011135178618133068,0.05131268,0.008552114,1
-0.06525824964046477,4.058072566986084,-0.4870312809944153,-0.012668601237237452,0.021991149,-0.011911872,1
-0.09073690325021744,5.032914638519287,-0.6156187653541565,-0.01632179506123066,-0.018936822,-0.020463986,1
-0.11793797463178635,5.88779354095459,-0.7341268658638,-0.02228975296020508,-0.047647487,-0.028099801,5
-0.14598384499549866,6.6138973236083975,-0.840627908706665,-0.027781721204519272,-0.017715093,-0.024740042,5
-0.15665563941001892,7.24367094039917,-0.9104329347610474,-0.02965158969163895,0.025961773,-0.017104227,5
-0.12126143276691435,7.8321123123168945,-0.9049237966537476,-0.031186351552605632,0.07238753,-0.007941248,5
-0.04711052775382996,8.384006500244139,-0.8359205722808838,-0.03969095274806023,0.13561209,0.017104227,5
0.058276358991861336,8.903464317321777,-0.7154927253723145,-0.05846145004034041,0.16126843,0.06597344599999999,5
0.18896254897117612,9.395482063293457,-0.5533152222633362,-0.08916694670915604,0.2415972,0.14569137,5
0.3401815891265869,9.864888191223145,-0.3572252094745636,-0.14304852485656738,0.3726278,0.2510656,5
0.5076355934143066,10.31525421142578,-0.13422289490699768,-0.2318096160888672,0.38423425,0.35613444,5
0.6882002949714661,10.750188827514648,0.11051718145608902,-0.3487342894077301,0.111177474,0.45631635,5
0.8792406916618347,11.172511100769043,0.37265005707740784,-0.5009989738464355,-0.06352998,0.6273586,5
1.0786678791046145,11.584592819213867,0.6487196683883667,-0.6927633881568909,0.3323107,0.89736104,5
1.2571377754211426,11.936607360839846,0.9280738234519958,-0.9540289640426636,0.79901177,1.2797627,5
1.3409608602523804,12.094794273376465,1.187825083732605,-1.3028175830841064,1.1368201999999998,1.2690725,5
1.3440396785736084,12.088438987731935,1.4305416345596311,-1.6774985790252686,1.4630222,0.59712076,5
1.282235860824585,11.949861526489258,1.6595633029937744,-2.0696356296539307,1.2757921,0.38423425,5
1.167865753173828,11.704147338867188,1.8778090476989744,-2.393892526626587,2.1664336,0.6621779000000001,5
1.0121644735336304,11.374227523803713,2.08691954612732,-2.574946641921997,3.2424726,0.59803706,5
0.8230045437812805,10.976133346557617,2.288825273513794,-2.654907703399658,2.987131,0.38240165,5
0.6067934632301331,10.52291202545166,2.485034704208374,-2.7165560722351074,2.3142629,-0.02443461,5
0.3685276508331299,10.024733543395996,2.676839828491211,-2.76819920539856,2.2489004,-0.32925636,5
0.11331208795309068,9.492033004760742,2.8647007942199707,-2.738445281982422,2.0039434,-0.41386122,5
-0.10520456731319427,8.990154266357422,3.015012264251709,-2.651114225387573,2.024102,-0.2773328,5
-0.241435781121254,8.630029678344728,3.1678149700164795,-2.5654964447021484,1.7993035,-0.19517145,5
-0.3966610729694367,8.339413642883299,3.3480195999145512,-2.473782539367676,1.5283848,-0.077579886,5
-0.6563003063201904,7.894745826721191,3.7515904903411865,-2.347131729125977,1.1841623,0.012217305,5
-0.8537238836288452,7.404531002044678,4.116485595703125,-2.195322275161743,0.8750645,-0.00061086525,5
-1.0625048875808716,6.869508266448975,4.387303829193115,-2.0195386409759517,0.7892378999999999,-0.028099801,5
-1.2130095958709717,6.434866428375244,4.629256725311278,-1.8279783725738523,0.79290307,-0.062308256,5
-1.2926024198532104,6.099250793457031,4.892049789428711,-1.6385191679000854,0.5882632,-0.04734206,5
-1.360438585281372,5.799049377441406,5.155479431152344,-1.4420533180236816,0.46761733,0.0036651916,5
-1.4573060274124146,5.557962417602539,5.439281463623047,-1.2373276948928833,0.43127087,0.064751714,5
-1.6116796731948853,5.335877895355225,5.66961669921875,-1.0350008010864258,0.30543262,0.098043874,5
-1.7971715927124023,5.1058998107910165,5.813050270080566,-0.8454036712646484,0.18936823,0.098043874,5
-1.9819051027297971,4.915355682373047,5.962825298309326,-0.6759160757064819,0.033292156,0.124005646,5
-2.1057691574096684,4.741901397705078,6.136293411254883,-0.5222222805023193,-0.12095132,0.21166481,5
-2.1760811805725098,4.553132057189941,6.308133602142334,-0.3849870562553406,-0.13164146,0.27366763,5
-2.2048087120056152,4.3938236236572275,6.472862720489503,-0.2515068054199219,-0.16340645,0.36163223,5
-2.208904981613159,4.3001928329467765,6.559713363647461,-0.12408343702554706,-0.09162979,0.49510628,5
-2.2468318939208984,4.213300704956056,6.652946949005128,0.0017983916914090516,-0.23396139,0.5751295999999999,5
-2.3972625732421875,4.263928890228272,6.865249156951903,0.11210406571626663,-0.35705075,0.49541172,5
-2.585780620574951,4.625280380249023,7.2748985290527335,0.12915755808353424,-0.06658431,0.15118915,5
-2.807509183883667,5.07667350769043,7.564915657043457,0.1224478930234909,0.16829337,-0.13103059,5
-2.987888813018799,5.3587164878845215,7.842274665832519,0.14309093356132507,0.28588495,-0.34666604,5
-3.0171093940734863,5.517167091369629,7.848523139953612,0.16381382942199707,-0.36957347,-0.6200281999999999,5
-3.05644154548645,5.718008041381836,7.9597392082214355,0.2470439672470093,-0.93523467,-0.4868596,5
-2.9443764686584477,6.556309223175049,8.298061370849611,0.3435033857822418,-0.4111123,-0.02687807,5
-2.773733139038086,7.505142688751222,8.456791877746582,0.5303885340690613,-1.1200215,0.36377025,5
-2.52825140953064,8.156194686889647,8.45659065246582,0.7738085389137268,-2.2369885,0.5934556,5
-2.2366621494293213,8.451929092407228,8.069969177246094,1.0789796113967896,-2.6984973,0.7507534,5
-1.929840922355652,8.445502281188965,7.436141490936278,1.3967074155807495,-3.0473013,0.67164636,5
-1.6339172124862669,8.304390907287598,6.665472984313965,1.6702598333358765,-2.9385672,0.44837508,5
-1.27826189994812,8.139815330505371,5.8140220642089835,1.9024384021759035,-2.7559185,0.22204952,5
-0.9028524160385132,8.028292655944824,5.027181148529053,2.0732662677764893,-2.7843237000000003,-0.0711658,5
-0.521997332572937,8.106082916259767,4.315022468566895,2.209965229034424,-2.9196305,-0.20616703,5
-0.1864091753959656,8.357386589050293,3.7628674507141113,2.319495677947998,-3.2937853,-0.68844515,5
0.13903111219406128,8.752731323242188,3.0351564884185787,2.3900668621063232,-2.4397957000000003,-1.1496483999999998,5
0.5276669263839722,9.150304794311523,2.257354974746704,2.399618148803711,-1.2574661,-1.0146471,5
0.8654159903526306,9.337767601013184,1.6626886129379272,2.369833707809448,-0.14569137,-0.66859204,5
1.0394586324691772,9.22827434539795,1.4251548051834106,2.2750086784362797,-0.17531833,-0.6976081000000001,5
1.0102388858795166,9.062768936157227,1.3875064849853516,2.1730620861053467,-0.7846564,-0.93279123,5
0.8838167786598206,9.033147811889648,1.2242400646209717,2.0586607456207275,-0.9804387,-0.9923506,5
0.842446506023407,9.25847053527832,1.079339861869812,1.9347292184829712,-0.86742866,-0.3866777,5
0.8173312544822693,9.417398452758787,1.2197015285491943,1.8211801052093504,-1.5888605,-0.07269296,5
0.810479462146759,9.410452842712402,1.4006943702697754,1.696674346923828,-1.9333885,-0.22449298,5
0.8761062622070312,9.324856758117676,1.314686298370361,1.5739192962646484,-1.4920383999999998,-0.089186326,5
0.939046025276184,9.104371070861816,1.1978671550750732,1.4190269708633425,-1.3487904,-0.12095132,5
0.9945825338363647,8.872662544250488,0.9144917130470276,1.2367209196090698,-0.9764681,-0.26236662,5
1.182769775390625,8.825662612915039,0.533068835735321,1.0340369939804075,-0.8396343000000001,-0.24495697,5
1.396757960319519,8.905925750732422,0.30032679438591003,0.8493322730064392,-0.54153204,-0.26358834,5
1.5807424783706665,8.89323616027832,0.22786709666252136,0.7019749283790588,-0.31429017,-0.25717425,5
1.7280371189117432,8.907175064086914,0.19951316714286804,0.5948449373245239,-0.70432764,-0.113926366,5
1.6273534297943115,9.098957061767578,0.13143621385097504,0.5726744532585144,-0.63132924,-0.16584991,5
1.4278546571731567,9.363296508789062,0.22056445479393005,0.6032732725143433,-0.28405234,-0.36010507,5
1.3035935163497925,9.670990943908693,0.4669984877109528,0.637431800365448,-0.51159966,-0.50671273,5
1.2882561683654783,10.258816719055176,0.5689094662666321,0.6610875725746155,-0.9954049,-0.51251596,5
1.3562893867492676,11.22757339477539,0.20451079308986664,0.6899327039718628,-0.6444628000000001,-0.46761733,5
1.3187063932418823,12.339517593383787,-0.2387317717075348,0.6995080709457397,-0.39003745,-0.40011674,5
1.0267419815063477,13.219449043273926,-0.4968110620975494,0.59867924451828,-0.017104227,-0.2751948,5
0.6488076448440552,13.718461990356445,-0.3503192067146301,0.3828676044940949,0.34788775,-0.08307768,5
0.4839698672294617,13.735280990600586,0.06868959963321686,0.07139749825000763,0.38606682,0.24037547,5
0.5162146091461182,13.302260398864744,0.54875648021698,-0.30314236879348755,1.0558805,0.5552765000000001,5
0.7864137291908264,13.024606704711914,1.2450484037399292,-0.691551148891449,2.6349673,0.75655663,5
1.3088834285736084,13.182442665100098,2.306375026702881,-1.12469482421875,2.7091873,0.5717699,5
1.8723088502883911,13.43449592590332,3.400078296661377,-1.567914605140686,-0.20708331,0.5934556,5
2.1582705974578857,13.526325225830078,3.486059188842773,-1.8560407161712649,-1.6850718,0.79412484,5
2.081876277923584,13.35814094543457,2.260950803756714,-2.0366470813751216,-1.1667526,0.7461719,5
1.639760136604309,13.055146217346193,0.20006680488586426,-2.1696627140045166,0.5516113,0.9297369,5
0.8070244193077087,12.698090553283693,-1.858442306518555,-2.201632261276245,3.800498,0.79168135,5
-0.3177480399608612,12.312485694885256,-1.6525683403015137,-2.3830130100250244,5.490762,0.29840767,5
-0.8132275938987732,12.40239143371582,0.4091409742832184,-2.8219358921051025,1.8142698,1.3209959999999998,5
-0.9319616556167604,12.148486137390135,0.7729175090789795,-2.9798798561096187,2.3985624,1.4269812,5
-0.8176059722900391,11.34253215789795,0.1822120100259781,-3.159876823425293,3.271489,0.9477574,5
-0.5331689119338989,10.121038436889648,-0.14688780903816226,-3.345363140106201,2.9437597,0.5543602,5
-0.30364733934402466,8.749095916748049,-0.21982161700725555,-3.4072773456573486,2.9416215,0.03756821,5
-0.425765872001648,7.214771747589111,-0.072498619556427,-3.355306386947632,2.7320948,-0.2611449,5
-0.7482948899269104,5.7292518615722665,0.37633636593818665,-3.1875400543212886,1.9761491,-0.35185838,5
-1.040995478630066,4.687936305999756,0.9714121818542479,-2.885120391845703,1.368949,-0.2284636,5
-1.2776049375534058,4.1513004302978525,1.5599218606948853,-2.4959912300109863,0.73456544,-0.087659165,5
-1.5297950506210327,3.983019351959229,1.9843350648880005,-2.0935227870941158,0.364992,0.2275473,5
-1.6939163208007812,3.9348452091217037,2.4361860752105717,-1.7133220434188845,0.124311075,0.37323865,5
-1.6288533210754397,3.760807275772095,3.0182373523712163,-1.3388937711715698,-0.06841691,0.34422258,5
-1.4467273950576782,3.599939584732056,3.6903905868530273,-0.9601973891258241,0.038789943,0.5589417,5
-1.201759696006775,3.523794889450073,4.423666000366211,-0.5520891547203064,0.10751228,0.8347474,5
-0.9680341482162476,3.4931094646453857,5.2838096618652335,-0.11586012691259386,-0.13255776,0.9068295,5
-1.2164808511734009,3.68670392036438,6.224019527435303,0.19844038784503934,-0.8200866,0.39614612,5
-1.6629681587219238,4.854994773864746,6.387063026428223,0.4666662812232971,-0.029932396,0.28588495,5
-2.475734233856201,6.331825256347656,6.720912456512451,0.7604613900184631,-0.7302894,0.08704830000000001,5
-2.58620023727417,8.04015064239502,6.7690110206604,1.0292133092880251,-1.0195341,0.14110987,5
-2.192638397216797,8.99446964263916,6.555340766906737,1.3336037397384644,-1.9425515,0.29382620000000004,5
-1.9282208681106567,9.328192710876463,6.169191837310791,1.6472371816635132,-1.8961257,0.59315014,5
-1.652478575706482,9.425576210021973,5.615894794464111,1.9163818359375,-2.2721133,0.63499445,5
-1.4375734329223633,9.405996322631836,4.904990196228027,2.1741456985473637,-2.7437012000000003,0.4129449000000001,5
-1.325937271118164,9.326654434204102,4.235924243927002,2.3768956661224365,-2.6936102,0.07971791,5
-1.140446424484253,9.222586631774902,3.5216188430786133,2.530217170715332,-2.6349673,-0.33628133,5
-0.848710834980011,9.225568771362305,2.80956506729126,2.646683692932129,-2.7250697999999995,-0.80481493,5
-0.4822806715965271,9.517996788024902,2.065829038619995,2.698939085006714,-2.118786,-1.144456,5
0.02608002722263336,10.15290641784668,1.3572574853897097,2.6160459518432617,-0.60048056,-0.5332854,5
0.4758504629135132,10.462870597839355,0.9712388515472412,2.4537718296051025,0.18081611,-0.063224554,5
0.6622776389122009,10.247844696044922,1.0019551515579224,2.3582189083099365,-0.37812558,-0.019547688,5
0.5907359123229979,9.872827529907227,1.2430003881454468,2.3246665000915527,-1.4361442,-0.08521569999999999,5
0.37599846720695496,9.394329071044922,1.199110746383667,2.205714702606201,-0.98440933,-0.46792278,5
0.14267952740192413,8.879738807678223,0.9714110493659972,2.0266382694244385,-0.47586402,-0.6948592,5
0.00832372810691595,8.656875610351562,0.9898152351379396,1.890113115310669,-1.2021828,-0.73945236,5
0.2274017930030823,8.779451370239258,0.905098795890808,1.7277401685714722,-0.94989544,-0.5006041,5
0.6957765817642212,8.948539733886719,1.0378292798995972,1.604576826095581,-0.93462384,-0.21105394,5
1.16094708442688,9.071043968200684,1.4018335342407229,1.4778094291687012,-1.3139712,-0.12797627,5
1.5737203359603882,9.155691146850586,1.587576389312744,1.2774279117584229,-1.9453003,-0.016798794,5
1.6947088241577148,9.163622856140137,0.7516499757766724,0.992142915725708,-0.2782491,0.070249505,5
1.7066951990127563,9.131563186645508,0.02408377826213837,0.7849999070167542,1.2522738000000002,0.0030543262,5
2.0109288692474365,9.069246292114258,0.0331747941672802,0.5991612672805786,0.5946773,0.012217305,5
2.203293800354004,9.054171562194824,0.14156296849250793,0.4519346952438354,-0.56138515,0.1142318,5
1.8659396171569824,9.060952186584473,-0.015115979127585888,0.3906280696392059,0.074830994,-0.16798794,5
1.2929699420928955,9.493040084838867,-0.17682980000972748,0.4719823598861694,-0.28160888,-0.6750060999999999,5
1.0604450702667236,10.44737148284912,-0.491417646408081,0.558854341506958,-0.42730024,-0.72692966,5
0.8525421619415283,11.71646499633789,-0.8438323140144348,0.6035962104797363,-0.1151481,-0.6640105,5
0.562262237071991,12.898294448852539,-1.0278838872909546,0.5344965457916261,0.4999932,-0.49205196,5
0.3224813044071197,13.743478775024414,-0.6284892559051514,0.3135983049869537,0.95203346,-0.13133603,5
0.20337899029254916,13.913124084472654,0.1928649991750717,-0.04209515824913978,1.0864239,0.2321288,5
0.21747419238090515,13.553265571594238,1.1202707290649414,-0.4555476307868958,1.0473285,0.6114761,5
0.42534300684928894,13.17932415008545,1.9657988548278809,-0.8887497186660767,1.2232577,0.8723155999999999,5
0.7845650911331177,13.2725191116333,2.7066664695739746,-1.3384699821472168,1.2895365,0.86742866,5
1.1111479997634888,13.677658081054688,3.35485577583313,-1.725219964981079,-0.008552114,0.7901541999999999,5
1.2341636419296265,13.8474702835083,3.261171817779541,-1.96746039390564,-1.4892895,0.8491027,5
1.2082566022872925,13.738625526428224,1.7337558269500732,-2.0471179485321045,0.015882496,1.0598511999999998,5
0.9770776033401488,13.350456237792967,0.21452295780181885,-2.0674505233764653,0.99173975,1.0225884,5
0.3986493647098541,12.738731384277346,-0.7119221687316895,-2.230775117874145,2.3674083,0.77274454,5
-0.5187028050422668,12.149595260620115,-1.1480199098587036,-2.5284547805786133,4.291939299999999,0.535118,5
-1.17136549949646,11.648483276367188,-0.7568399310112,-2.8089923858642583,3.8698313,0.80878556,5
-1.082692265510559,11.296659469604492,0.242427721619606,-3.008950471878052,2.9639182,1.0543534,5
-0.7026829719543457,10.858129501342773,0.5724954605102539,-3.1491734981536865,3.0622675,0.752586,5
-0.5767261385917664,10.104333877563477,0.3168061375617981,-3.2655436992645264,3.0586023,0.4196644000000001,5
-0.7510470747947693,8.756969451904299,0.22394543886184687,-3.3252897262573238,2.869234,-0.03970624,5
-0.810344934463501,7.4012184143066415,0.42594173550605774,-3.2780365943908687,2.4141395,-0.1994475,5
-0.930286467075348,6.2777419090271,0.8640856146812439,-3.1449816226959233,1.9129245,-0.18234327,5
-1.226481556892395,5.5336503982543945,1.320893168449402,-2.9125030040740967,1.4172074,-0.112399206,5
-1.6333051919937134,5.121978759765625,1.670798897743225,-2.604342222213745,1.0995574,0.03176499,5
-1.9984155893325808,4.944909572601318,2.0445723533630367,-2.266324758529663,0.59742624,0.19364429,5
-2.2574777603149414,4.77429723739624,2.494220733642578,-1.9236718416213991,-0.04153884,0.31581733,5
-2.362199068069458,4.45554780960083,2.993229389190674,-1.5938552618026731,-0.35643986,0.35827246,5
-2.303746461868286,4.036212921142578,3.5776398181915283,-1.251932144165039,-0.7165449,0.3903429,5
-2.1812975406646733,3.615155696868897,4.229692459106444,-0.8561815023422241,-0.8378017,0.38881573,5
-1.9884486198425293,3.309812068939209,5.018316745758057,-0.3761969804763794,-0.44257188,0.51343226,5
-1.876404047012329,3.2441554069519043,6.045372486114503,0.09230044484138487,-0.63041294,0.4905248,5
-2.225738763809204,3.8015232086181636,6.8494300842285165,0.4142963886260986,-0.3662137,0.23060162,5
-2.7450668811798096,5.160994052886963,6.9728875160217285,0.7996496558189392,-0.5161811,0.31887165,5
-3.0575072765350337,7.203228950500487,7.22028636932373,1.1205724477767944,-1.063211,0.23793201,5
-2.639627695083618,8.865833282470703,7.057030200958253,1.3700259923934937,-1.8698585,0.22815818,5
-2.161837339401245,9.209080696105957,6.339690208435059,1.665730595588684,-2.521041,0.5384777,5
-2.0898447036743164,8.666670799255371,5.772542953491211,1.9362334012985232,-2.4840834,0.5140431,5
-2.1372973918914795,8.011984825134277,5.143846035003662,2.177051305770874,-2.7143798,0.39553526,5
-2.136930227279663,7.6930341720581055,4.4681057929992685,2.425975799560547,-3.2653801,0.07971791,5
-2.00700044631958,7.878420829772949,3.770851612091065,2.637441635131836,-3.8166862,-0.56107974,5
-1.7262489795684814,8.467626571655272,2.9795937538146973,2.7690298557281494,-3.7473528,-1.2140946,5
-1.3046419620513916,9.25367832183838,2.0670952796936035,2.83675479888916,-3.1297681,-1.53205,5
-0.6188203692436218,10.069294929504396,1.1405860185623171,2.806479215621948,-1.4095715,-0.754724,5
0.1817571073770523,10.382078170776367,0.5032695531845093,2.6471726894378658,0.01282817,-0.1142318,5
0.7057372927665709,9.877242088317873,0.4004335999488831,2.474555492401123,0.16737708,-0.69058317,5
1.03195321559906,9.330753326416016,0.6494506597518921,2.323012590408325,-0.6881397,-0.6976081000000001,5
1.2728482484817505,9.141533851623537,0.781773567199707,2.1854751110076904,-1.0983357,-0.63713247,5
1.38181471824646,9.179798126220703,0.7337048053741455,2.0344409942626958,-1.1166617,-0.33017266,5
1.2427047491073608,9.22286891937256,0.7646753787994385,1.926767349243164,-0.7431175999999999,0.04062254,5
0.9345763325691224,9.148056030273438,1.0797446966171265,1.7887321710586548,-0.9016371,-0.083383106,5
0.7291353344917297,9.06184196472168,1.4400755167007446,1.6309019327163696,-1.0482447,0.031154128,5
0.6888979077339172,9.021907806396484,1.6770987510681152,1.4334533214569092,-1.3274102,-0.06963864,5
0.816399872303009,9.100489616394043,1.5565329790115356,1.1866456270217896,-1.2592987,-0.08216137400000001,5
1.0172677040100098,9.271876335144043,1.1139390468597412,0.910599946975708,-0.8747590000000001,-0.05131268,5
1.2312171459197998,9.351375579833984,0.4940045773983002,0.6872454285621643,-0.07696902,-0.13713925,5
1.5044866800308228,9.348676681518556,-0.025519989430904392,0.5904930233955383,0.26175576,-0.27214047,5
1.7149752378463743,9.510457992553713,-0.181399405002594,0.5844675302505493,0.15241088,-0.35735616,5
1.6691015958786009,10.034881591796877,-0.11986380070447923,0.6552212834358215,-0.11789699,-0.4456262,5
1.2814593315124512,10.846254348754883,-0.07268412411212921,0.7500596046447754,-0.5155702999999999,-0.5320636,5
0.5851277112960815,11.693486213684082,-0.22517018020153048,0.8004571199417114,-0.03481932,-0.75319684,5
-0.153903990983963,12.467480659484865,-0.2309579998254776,0.7360085844993591,-0.11056661,-0.945314,5
-0.4922589957714081,13.216148376464846,-0.13413836061954498,0.5222935676574707,0.12064589,-0.74464476,5
-0.3639689683914185,13.476049423217773,0.11342372745275495,0.1904801428318024,0.50671273,-0.13194689,5
-0.030954012647271163,13.20840835571289,0.5367863178253174,-0.20789183676242828,0.97097033,0.48716503,5
0.4257988035678864,13.115553855895994,1.0318233966827393,-0.6674122810363771,1.6899587,1.1731668,5
0.9665114879608154,13.462162017822266,1.5485954284667969,-1.155990481376648,1.9569068,1.5008959,5
1.368563532829285,13.882194519042967,1.9586374759674072,-1.6135143041610718,0.86590147,1.2855659,5
1.4991931915283203,14.029775619506836,2.0654146671295166,-1.9259212017059328,-0.14935656,0.9071349,5
1.3316832780838013,13.999187469482422,1.990522146224976,-2.020303249359131,-0.7910705,0.88239485,5
0.5859324932098389,13.614862442016602,0.7768517732620239,-2.062214136123657,1.4413365,0.68294734,5
-0.5887134671211243,12.765765190124512,-1.342363953590393,-2.2081372737884517,3.520722,0.0888809,5
-1.5466169118881226,11.812366485595705,-2.0230875015258794,-2.583231210708618,3.5399642,-0.16279559,5
-1.5529378652572632,11.606029510498047,-0.6603023409843445,-3.0943288803100586,2.187203,0.93645644,5
-1.2152374982833862,11.487933158874512,0.23882122337818146,-3.267607927322388,3.029586,0.906524,5
-0.8824135661125183,11.100726127624512,0.07643364369869232,-3.4069199562072754,3.3157766000000004,0.6805039,5
-0.7163287997245789,10.227530479431152,-0.2553323805332184,-3.5647268295288086,3.2446108,0.4111123,5
-0.7507990002632141,8.876923561096191,-0.37285858392715454,-3.62270450592041,2.9391782,-0.03634648,5
-0.9500893354415894,7.320235729217528,-0.20132218301296234,-3.5460188388824463,2.4627032000000004,-0.20922135,5
-1.1878782510757446,6.150796413421631,0.2611703872680664,-3.3283679485321045,1.7250835,-0.16523905,5
-1.5074025392532349,5.559047222137451,0.7899031043052673,-3.0104656219482417,1.2122620000000002,-0.11911872,5
-1.856045365333557,5.2545127868652335,1.2415571212768557,-2.665806770324707,0.8219192,-0.007330383,5
-2.177335262298584,4.963018894195557,1.6832430362701416,-2.29317307472229,0.5751295999999999,0.13408493,5
-2.3406405448913574,4.575906276702881,2.2598676681518555,-1.9158898591995241,0.13194689,0.24953845,5
-2.300884962081909,4.161176681518556,3.071852922439575,-1.514868974685669,-0.5907066999999999,0.49480084,5
-2.2873375415802,3.630928754806519,4.007646083831787,-1.0686956644058228,-0.8155051,0.5751295999999999,5
-2.260928153991699,3.161248207092285,4.8028225898742685,-0.5937502980232239,-0.6927211999999999,0.6747006999999999,5
-2.4347083568573,2.902388572692871,5.442944049835205,-0.21738412976264954,-0.77946407,0.90469146,5
-2.7436554431915283,3.237229108810425,5.97869873046875,0.13972611725330353,-0.625526,0.82558435,5
-2.867783308029175,4.522108554840088,6.153715133666992,0.6299187541007996,-1.0488556999999998,0.63591075,5
-3.057417631149292,6.552476406097412,6.309174537658691,1.0496217012405396,-1.035722,0.17409660000000002,5
-3.0015642642974854,8.640810966491701,6.7557311058044425,1.3736268281936646,-1.7418822,0.43982297,5
-2.5587286949157715,9.47775173187256,6.447245597839356,1.6354737281799316,-1.8041905,0.68386364,5
-2.4348154067993164,9.124749183654783,5.787097930908202,1.9234480857849119,-2.2742512,0.46822822,5
-2.6190638542175293,8.528712272644043,5.227655410766602,2.210331916809082,-2.7546968,0.20738874,5
-2.7488934993743896,8.200924873352049,4.534887313842773,2.507368803024292,-3.6654968,-0.118202426,5
-2.710874319076538,8.27568531036377,3.680550575256348,2.791391134262085,-4.600731400000001,-0.64599,5
-2.577145338058472,8.751453399658201,2.652173519134521,2.997443675994873,-4.317901,-1.4712689,5
-2.2643229961395264,9.799796104431152,1.4786159992218018,3.0504705905914307,-2.9061913,-1.7162258999999995,5
-1.5157002210617063,10.9256591796875,0.3694574534893036,2.8458855152130127,-0.56199604,-0.55833083,5
-0.5146962404251099,10.531087875366213,0.33146145939826965,2.638070583343506,-0.18234327,-0.6230826,5
0.16808001697063446,9.881756782531738,0.643828809261322,2.4929561614990234,-1.1826351000000002,-0.34819320000000004,5
0.4409550428390503,9.24124240875244,0.8068376779556274,2.3248775005340576,-1.4511104,-0.5143485,5
0.4420630931854248,8.891403198242188,0.8740413784980774,2.1423051357269287,-1.1835514,-0.22876903,5
0.3346837162971497,8.764352798461914,0.8566452264785767,1.9700849056243896,-1.187522,-0.3933972,5
0.4946655035018921,8.835465431213379,0.8754772543907166,1.789704442024231,-1.2519683,-0.23457226,5
0.7518966197967529,8.88175106048584,0.9647436141967772,1.6180623769760132,-1.2272283000000002,0.08002335,5
0.9224528670310974,8.920372009277344,1.0437397956848145,1.409435510635376,-0.8155051,0.11178834,5
1.1761153936386108,9.083500862121582,1.06147301197052,1.1654566526412964,-0.47494772,0.13836098,5
1.4993358850479126,9.257623672485352,0.8880190253257751,0.8974477052688599,-0.5540548000000001,0.16829337,5
1.6794780492782593,9.335180282592773,0.4968836605548858,0.6673836708068848,-0.36102137,0.16646078,5
1.7188173532485962,9.312957763671877,0.1431349664926529,0.5308331847190857,0.18173242,0.014660766,5
1.61336088180542,9.39714813232422,-0.016170021146535873,0.5013418793678284,0.28619036,-0.2761111,5
1.2686505317687988,9.90851593017578,0.012580912560224531,0.5575210452079773,0.018325957,-0.43310347,5
0.7509573101997375,10.78175449371338,0.08789245039224625,0.6405139565467834,0.03359759,-0.52106804,5
0.3010580241680145,11.690627098083494,0.08996780961751938,0.7013202309608461,0.04734206,-0.8151997,5
0.14102140069007876,12.605548858642578,0.010618341155350208,0.6268048286437988,-0.21624629,-0.75319684,5
-0.014913815073668957,13.398136138916016,0.04201950505375862,0.4458698034286499,-0.01282817,-0.48747048,5
-0.10924399644136427,13.942646026611328,0.11966545879840852,0.15302586555480954,0.5329799,-0.093767814,5
-0.09051736444234848,14.00449275970459,0.35838907957077026,-0.21585561335086825,0.6545420999999999,0.32528573,5
0.032592304050922394,13.595229148864744,0.8177040815353394,-0.6332197189331055,1.1447614,0.8237518,5
0.3978075385093689,13.468480110168455,1.4643839597702026,-1.0685418844223022,1.7779233,1.2257011,5
0.938970983028412,13.690152168273926,2.0742616653442383,-1.4918606281280518,0.79259765,1.2846496,5
1.4452533721923828,13.870199203491213,2.098297357559204,-1.7325489521026611,0.07941248,1.4731014999999998,5
1.666608810424805,13.805583000183105,1.623798370361328,-1.7673051357269287,-0.31123585,1.6728544,5
1.3329882621765137,13.386109352111815,0.6706020832061768,-1.7645417451858518,0.6075055,1.3054191000000002,5
0.4728997349739074,12.70431423187256,-0.647229790687561,-1.891859769821167,2.6395488,0.4288274,5
-0.6099994778633118,11.918689727783205,-1.568827748298645,-2.292941093444824,3.6737435,-0.17287487,5
-1.268144130706787,11.363402366638185,-1.0981980562210083,-2.822798728942871,2.8429668,0.51068336,5
-1.4034348726272583,11.027677536010742,0.0055595566518604755,-3.146185398101806,2.5604417,1.1120802,5
-1.1418460607528689,10.64864444732666,0.39537063241004944,-3.274418592453003,3.2827900000000003,0.79901177,5
-0.7790453433990479,10.200662612915039,0.278374582529068,-3.4062900543212886,3.1789427000000003,0.63224554,5
-0.7419070601463318,9.483762741088867,0.10422776639461516,-3.5133087635040283,3.0069842,0.13164146,5
-1.0177319049835205,8.25493049621582,0.15382085740566254,-3.5257489681243896,2.7577512000000004,-0.22937989,5
-1.2470320463180542,6.772136211395264,0.6351008415222168,-3.436342716217041,1.9547688,-0.44104472,5
-1.3949037790298462,5.774794101715088,1.1772987842559814,-3.2151923179626465,1.2516629,-0.37934732,5
-1.6097373962402344,5.322909355163574,1.6181906461715698,-2.8966991901397705,0.91690874,-0.18875736,5
-1.8997545242309568,5.089606285095215,1.964109182357788,-2.5255048274993896,0.6914994999999999,0.06352998,5
-2.1625103950500493,4.856921195983887,2.329355478286743,-2.1361024379730225,0.45631635,0.25503623,5
-2.3144819736480717,4.50410270690918,2.8002703189849854,-1.7579095363616943,0.13103059,0.2837469,5
-2.3405239582061768,3.991543292999268,3.4035043716430664,-1.3649429082870483,-0.3277292,0.17928895,5
-2.2485876083374023,3.5187971591949463,4.073528289794922,-0.9412925243377686,-0.5204572000000001,0.1685988,5
-2.106421947479248,3.132965564727783,4.895913124084473,-0.4649311006069183,-0.4822781,0.04062254,5
-1.7662419080734253,3.2237768173217773,5.864112854003906,-0.0037161470390856266,-0.37934732,0.35246924,5
-1.9451453685760496,3.758233308792114,6.57533073425293,0.3040183484554291,0.08216137400000001,0.024129177,5
-2.2103545665740967,5.134744167327881,6.890531063079834,0.6071570515632629,0.30970868,0.63804877,5
-2.7190115451812744,7.097291946411133,7.499938488006593,0.8570166230201721,-0.15302174,0.6246096999999999,5
-2.7497572898864746,9.031204223632812,7.852923393249513,1.0678263902664185,-1.0351112,0.5870415,5
-2.3450474739074707,9.66013240814209,7.428698062896728,1.3606781959533691,-2.2602015,0.9089675,5
-2.277961015701294,9.061939239501953,6.749206066131593,1.6515359878540041,-2.1917843999999995,0.7703011,5
-2.351515769958496,8.262025833129883,6.081379413604736,1.9561024904251096,-2.8365529,0.59956425,5
-2.346989393234253,7.990771293640138,5.249927043914795,2.2679431438446045,-3.5274413,0.569021,5
-2.264766931533813,8.270560264587402,4.418263912200928,2.546527147293091,-3.8621955,0.070554934,5
-2.0941872596740723,8.80019474029541,3.605632305145264,2.68594741821289,-3.5054502,-0.6444628000000001,5
-1.8073977231979368,9.210967063903807,2.8460636138916016,2.7354586124420166,-3.1511483,-1.2449434,5
-1.4648820161819458,9.409683227539062,2.182262659072876,2.731088399887085,-2.5518897000000003,-1.6441438000000002,5
-1.0462596416473389,9.607006072998047,1.44613516330719,2.6362779140472408,-1.003957,-1.3695598999999998,5
-0.5620698928833008,9.82398509979248,0.813607931137085,2.45639967918396,0.4266894,-0.52626044,5
-0.1142941117286682,9.735668182373047,0.5894272327423096,2.2651944160461426,0.33200526,-0.5439755000000001,5
0.4179137945175171,9.526305198669434,0.6966869831085205,2.1362063884735107,-0.56107974,-0.569021,5
0.9293584227561952,9.472249984741213,0.8303992748260498,2.0608465671539307,-1.2257011,-0.40439278,5
1.2085769176483154,9.496322631835938,0.958527147769928,1.9804807901382449,-1.498147,-0.08582657,5
1.2100745439529421,9.46568202972412,1.055781364440918,1.8751066923141482,-1.0873401000000005,0.099571034,5
0.9718791246414183,9.291099548339844,1.1172960996627808,1.7625889778137207,-0.75869465,-0.16554448,5
0.7548040151596069,9.19253921508789,1.2900261878967283,1.6412115097045898,-0.7825184000000001,-0.14569137,5
0.7107282280921936,9.225329399108887,1.49191153049469,1.5100640058517456,-1.0204504,-0.07391469,5
0.7686125040054321,9.18491268157959,1.480470895767212,1.3197035789489746,-0.9807441,-0.10873401,5
0.855621337890625,9.224188804626463,1.1547534465789795,1.075619101524353,-0.97585726,-0.064446285,5
0.8922672867774963,9.304017066955566,0.662451982498169,0.8594583868980408,-0.3652974,-0.07819075,5
0.9964475631713868,9.261100769042967,0.2581241726875305,0.7046170830726624,0.4801401,-0.18906279,5
1.1294288635253906,9.217774391174316,0.15283331274986267,0.5976679921150208,-0.101098195,-0.1994475,5
1.034286618232727,9.286615371704102,0.11467786133289334,0.5411170721054077,-0.5580254,-0.3136793,5
0.7612542510032654,9.49478816986084,-0.017901977524161342,0.5528713464736938,-0.21471913,-0.50701815,5
0.5110187530517578,9.841058731079102,-0.09798616915941237,0.6014114618301392,-0.093767814,-0.62949663,5
0.3542374670505524,10.445982933044434,-0.26088789105415344,0.6361141800880432,-0.2501493,-0.7171558000000001,5
0.2623530626296997,11.326334953308105,-0.5937350988388062,0.6352742910385132,-0.032986723,-0.7330383,5
0.11528115719556807,12.226462364196776,-0.8794777393341064,0.5563755631446838,0.17104226,-0.6160576,5
-0.032018255442380905,13.01523494720459,-0.9955257773399352,0.3842378854751587,0.50243664,-0.42424592,5
-0.11667288839817047,13.617969512939453,-0.7870548367500305,0.13303539156913755,0.376293,0.06566802,5
-0.2321489155292511,13.764431953430176,-0.4195168912410736,-0.18834072351455688,0.68233645,0.5516113,5
-0.29579979181289673,13.43727970123291,0.037188246846199036,-0.551110565662384,0.98715824,0.9114109,5
-0.21462400257587436,13.224384307861328,0.6380367875099182,-0.9289928078651428,1.6517797,1.1685852,5
0.062430992722511285,13.376945495605467,1.5013090372085571,-1.3635199069976809,1.8054122,1.0595458,5
0.39070770144462585,13.54976749420166,2.267580270767212,-1.8088303804397583,-0.0061086523,0.9098838,5
0.5850311517715454,13.533634185791016,2.315498352050781,-2.029675245285034,-1.219287,0.9789116,5
0.4950186908245087,13.435811996459961,1.5673900842666626,-1.9940589666366575,-0.7165449,1.2522738000000002,5
0.10821325331926346,13.15235710144043,0.3928209543228149,-2.0034291744232178,1.0396926,0.9877690999999998,5
-0.4762643873691559,12.704002380371096,-0.6830618381500244,-2.2589490413665767,2.3270912,0.7144069000000001,5
-1.0107336044311523,12.144081115722654,-1.2103304862976074,-2.63570237159729,3.2876768,0.59895337,5
-1.2626532316207886,11.394845008850098,-0.8547605276107788,-2.938545227050781,3.6850445,0.6582073,5
-1.1592600345611572,10.696356773376463,0.07053263485431671,-3.122694492340088,3.0137036,0.62858033,5
-0.8741856217384338,10.283405303955078,0.5318979620933533,-3.2780301570892334,2.9290988,0.55833083,5
-0.7919744849205017,9.916321754455566,0.585903525352478,-3.379647970199585,2.989269,0.39736784,5
-1.043344497680664,9.2431640625,0.5687806606292725,-3.4574379920959477,2.9746084,-0.028405234,5
-1.2904289960861206,8.262866020202638,0.8010331392288208,-3.498258352279663,2.5137105,-0.31306845,5
-1.4233009815216064,7.185535907745361,1.2520071268081665,-3.4425504207611084,2.094657,-0.34055737,5
-1.5627790689468384,6.25754976272583,1.7591599225997925,-3.2680864334106445,1.5076154,-0.2761111,5
-1.7897754907608032,5.66143274307251,2.0564498901367188,-3.027726411819458,1.1355985,-0.15210545,5
-2.054832935333252,5.244614601135254,2.3015315532684326,-2.7457716464996342,0.7593055000000001,-0.016493361,5
-2.220092296600342,4.894158363342285,2.6305630207061768,-2.413714647293091,0.42455134,0.12980886,5
-2.3719725608825684,4.546996116638184,3.0394058227539062,-2.045861959457397,0.094989546,0.23548855,5
-2.5692007541656494,4.1429643630981445,3.475505113601685,-1.6998292207717896,-0.31703907,0.25137106,5
-2.68433165550232,3.7788047790527344,3.9144961833953857,-1.374091863632202,-0.41263947,0.25900686,5
-2.684420585632324,3.4802541732788086,4.361820697784424,-1.0480674505233765,-0.5345071,0.30115658,5
-2.5510988235473637,3.2602427005767822,4.809073925018311,-0.7452523112297058,-0.51068336,0.4718934,5
-2.26042914390564,3.0809478759765625,5.238081455230713,-0.4610393047332764,-0.49388456,0.79534656,5
-1.86943519115448,2.891664743423462,5.8292741775512695,-0.14818042516708374,-0.514654,1.0906999,5
-1.6033145189285278,2.7445285320281982,6.8212928771972665,0.17535963654518127,-0.8564331000000001,1.0778716999999998,5
-1.8865644931793213,3.203202724456787,8.112138748168945,0.3974197506904602,-0.8491027,0.55863625,5
-2.534875869750977,4.9974942207336435,9.290226936340332,0.4924147129058838,-0.17715092,0.0143553335,5
-2.664620876312256,7.1487579345703125,9.364916801452637,0.6749584078788757,0.22907446,0.15851954,5
-2.7053756713867188,7.687175273895264,8.949732780456543,0.8935046195983887,0.06780604,0.5561928,5
-2.7510061264038086,7.186140060424805,8.648040771484375,1.1690090894699097,-0.89827734,0.22968534,5
-2.6364896297454834,7.201131343841553,7.912773132324219,1.4935903549194336,-1.2748758,0.15485434,5
-2.6040754318237305,7.684031963348389,6.89571475982666,1.7611864805221558,-1.2516629,0.13713925,5
-2.676795959472656,8.187349319458008,6.082944393157959,1.958534598350525,-1.4813483,0.1908954,5
-2.790581703186035,8.49990177154541,5.50076961517334,2.1240622997283936,-2.1465805,0.15943582,5
-2.9004421234130864,8.549331665039062,4.97948694229126,2.2736117839813232,-3.0234776,0.029932396,5
-2.9308300018310547,8.452204704284668,4.467148303985597,2.4172203540802,-3.5289686,-0.10567969,5
-2.737946033477783,8.373386383056639,3.895954370498657,2.5505125522613525,-3.488346,-0.30482176,5
-2.230652093887329,8.429075241088867,3.2437927722930913,2.642982006072998,-2.9636127999999995,-0.43279803,5
-1.5164448022842407,8.626169204711914,2.60732650756836,2.6691515445709233,-2.6300802000000005,-0.5693264,5
-0.7089709043502808,8.922356605529785,2.0011255741119385,2.649026870727539,-2.1939225,-0.9263771,5
0.13468083739280698,9.141315460205078,1.4048235416412354,2.549569845199585,-1.4175128,-1.0714576,5
0.9495919942855836,9.278244018554688,0.8556283116340637,2.387024164199829,-0.35979962,-0.6017023,5
1.6405903100967407,9.272379875183104,0.4794372022151947,2.20595645904541,0.50488013,-0.14630222,5
1.8578808307647705,9.044960975646973,0.5205686688423157,2.0562944412231445,0.46517387,-0.08063421400000001,5
1.6767762899398804,8.99808406829834,0.7106922268867493,1.9425424337387085,0.23273966,0.058948494,5
1.22041916847229,9.081613540649414,1.0027929544448853,1.818779706954956,-0.010995574,0.06963864,5
0.6141391396522522,9.119549751281738,1.3003419637680054,1.62550687789917,-0.2452624,-0.25259277,5
0.07117577642202377,9.124506950378418,1.4159287214279177,1.371519923210144,-0.04428773,-0.50793445,5
-0.2305891662836075,9.217272758483887,1.3832184076309204,1.121021389961243,0.13469578,-0.5158757,5
-0.2398678958415985,9.393088340759276,1.30311918258667,0.9035264253616332,-0.10995574,-0.34177909999999995,5
-0.024744637310504917,9.538341522216797,1.1250838041305542,0.756407618522644,-0.70066243,-0.12614368,5
0.2565509080886841,9.629929542541504,0.7907049655914307,0.6506636142730713,-0.73761976,-0.009773844,5
0.4787774980068207,9.683797836303713,0.41609835624694813,0.5974238514900208,-0.18997909,-0.025961773,5
0.7056015133857727,9.74643325805664,0.14989420771598816,0.5824912190437317,-0.025350908,-0.02076942,5
0.919342279434204,9.855459213256836,0.1147477924823761,0.5595773458480835,-0.33261612,-0.022296581,5
0.9913721680641174,9.977495193481444,0.254782110452652,0.5294991135597229,-0.6056729000000001,0.043982297,5
0.873947024345398,10.044754028320312,0.38097140192985535,0.5256334543228149,-0.68508536,0.10415252,5
0.5823793411254883,9.992506980895996,0.3934667110443115,0.533794105052948,-0.7370089,0.061086524,5
0.2153136134147644,9.89653491973877,0.2627577483654022,0.5137702226638794,-0.5476406999999999,-0.019547688,5
-0.06663856655359268,9.837246894836426,0.1106214076280594,0.4513983428478241,-0.59620446,-0.116980694,5
-0.1950666606426239,9.82957649230957,-0.02807240560650825,0.3642257452011109,-1.0555751,-0.05681047,5
-0.2788702845573425,9.836200714111328,-0.3603244423866272,0.2778443992137909,-1.402852,0.023823744,5
-0.4421599209308624,9.866439819335938,-0.7752413749694824,0.2174532115459442,-1.3723087,0.025350908,5
-0.6310243606567383,9.890589714050293,-1.0988880395889282,0.17174401879310608,-1.1914927,-0.06627888,5
-0.7735623717308044,9.897366523742676,-1.2711331844329834,0.12295056134462355,-0.981355,-0.21624629,5
-0.8341427445411682,9.947576522827148,-1.3423734903335571,0.05520370230078697,-0.79351395,-0.34788775,5
-0.8228223323822021,10.08473300933838,-1.3025685548782349,-0.02263588085770607,-0.5885687,-0.27702740000000003,5
-0.7783303260803223,10.21107006072998,-1.2090028524398804,-0.08475910872220993,-0.54153204,-0.06719518,5
-0.7161707878112793,10.223885536193848,-1.0303109884262085,-0.13956379890441895,-0.68111473,0.13225232,5
-0.7255042791366577,10.156189918518066,-0.7804068922996521,-0.20126990973949432,-0.7651087,0.22602014,5
-0.8522258996963501,10.04666805267334,-0.5402114391326904,-0.2554997503757477,-0.75869465,0.17073683,5
-1.0976433753967283,9.866743087768556,-0.37729066610336304,-0.2914138436317444,-1.0433578,-0.04917465,5
-1.383785843849182,9.636698722839355,-0.4309352338314056,-0.2844661176204681,-1.3704761,-0.20463985,5
-1.6362614631652832,9.449682235717773,-0.7192326188087463,-0.2578526735305786,-0.99265605,-0.33475417,5
-1.845956563949585,9.316357612609863,-1.0120683908462524,-0.2124111503362656,-0.52534413,-0.40958515,5
-1.9513330459594729,9.214439392089844,-1.1010425090789795,-0.1636904627084732,-0.5516113,-0.47769663,5
-1.8820701837539675,9.22776699066162,-0.9533143639564514,-0.13313786685466766,-0.70371675,-0.4859433,5
-1.5927945375442505,9.49384880065918,-0.6915476322174072,-0.10029718279838562,-0.43066,-0.31306845,5
-1.156421184539795,9.925922393798828,-0.3908426761627197,-0.050356809049844735,-0.31031954,-0.058948494,5
-0.6449667811393738,10.05937385559082,-0.16808880865573886,0.013092088513076305,-0.64721173,0.2751948,5
-0.35501065850257874,9.90991497039795,-0.1840600222349167,0.10362869501113893,-1.1963795,0.40561453,5
-0.451703280210495,9.662261009216307,-0.4543097913265228,0.2185726910829544,-1.1527027,0.30695978,5
-0.8994985818862915,9.38937759399414,-0.7219544649124146,0.3453170359134674,-0.33658674,0.008857545999999999,5
-1.4985469579696655,9.16209602355957,-0.7336409687995911,0.3993821740150452,0.56107974,-0.43035457,5
-1.6689803600311282,9.16420078277588,-0.5853031873703003,0.3775757253170013,0.41508293,-0.6420194,5
-1.2995107173919678,9.41758632659912,-0.6291724443435669,0.3689903914928436,0.16737708,-0.48930305,5
-0.6882773041725159,9.79057502746582,-0.8157218694686891,0.4095691740512848,0.07788532,-0.15088372,5
-0.28293800354003906,10.05712890625,-0.9036241173744202,0.4131867587566376,0.040927973,-0.0033597588,5
-0.2419445812702179,10.149614334106444,-0.9220749735832214,0.3781306743621826,0.03268129,0.041233405,5
-0.4231547117233277,10.133551597595217,-0.8886569738388062,0.33868247270584106,-0.1554652,0.049480084,5
-0.7131633162498474,10.082023620605467,-0.7650211453437805,0.30313217639923096,-0.19730948,0.05009095,5
-1.0463708639144895,10.068299293518066,-0.5141089558601379,0.2632179260253906,-0.23884831,0.008857545999999999,5
-1.3132826089859009,10.084821701049805,-0.28348034620285034,0.2106667459011078,-0.35185838,-0.02443461,5
-1.4304438829421997,10.0703763961792,-0.2972520589828491,0.14701323211193085,-0.30970868,-0.046731193,5
-1.3910106420516968,9.996323585510254,-0.5560947060585022,0.09175053238868712,-0.20250183,-0.03634648,5
-1.2613275051116943,9.902501106262207,-0.8565352559089661,0.06781099736690521,-0.2275473,0.025961773,1
-1.1448678970336914,9.839117050170898,-1.0224075317382812,0.07074441015720367,-0.27366763,0.04642576,1
-1.0858950614929201,9.771059036254883,-1.1086173057556152,0.0851379781961441,-0.22418754,0.036651913,1
-1.0691567659378052,9.710650444030762,-1.1691327095031738,0.10015451908111572,-0.11148291,-0.010690141499999998,1
-1.0532711744308472,9.65323257446289,-1.2186355590820312,0.11347859352827072,0.090713486,-0.08582657,1
-0.9972426891326904,9.651830673217773,-1.2177009582519531,0.11833888292312622,0.13408493,-0.16676621,1
-0.9184768199920654,9.701662063598633,-1.2022868394851685,0.113026924431324,0.15790866,-0.15760323,1
-0.8486884832382202,9.7618989944458,-1.1702615022659302,0.10647733509540558,0.2134974,-0.10720685,1
-0.8125113844871521,9.815606117248537,-1.0988990068435671,0.09555315971374513,0.17806722,-0.053450707,1
-0.8129949569702148,9.884928703308104,-1.0420149564743042,0.08168540894985199,0.124005646,-0.0009162979,1
-0.8395627737045288,9.92524242401123,-1.0285440683364868,0.058835968375206,0.13194689,0.019547688,1
-0.8807501196861267,9.892200469970703,-1.0616011619567869,0.026570748537778854,0.14599679999999998,0.018936822,1
-0.9402098655700684,9.817365646362305,-1.1507773399353027,0.0047004492953419685,0.13958271,-0.005192355,1
-1.021843194961548,9.744134902954102,-1.2480944395065308,0.0019820439629256725,0.17470746,-0.03970624,1
-1.127318024635315,9.716320037841797,-1.300315499305725,0.0016210090834647415,0.17318029999999998,-0.064751714,1
-1.2522518634796145,9.72988224029541,-1.3035237789154053,0.0012274099281057715,0.18478674,-0.05589417,1
-1.3562452793121338,9.740334510803224,-1.301919937133789,0.00913845468312502,0.19608775,-0.04917465,1
-1.4087291955947876,9.752828598022461,-1.2995063066482544,0.017683060839772224,0.09865474,-0.008552114,1
-1.4575377702713013,9.780694007873537,-1.3007279634475708,0.023407787084579468,0.04520403,0.010995574,1
-1.4868849515914917,9.785842895507812,-1.2722111940383911,0.02692725509405136,0.049785517,0.0021380284,1
-1.4669464826583862,9.782756805419922,-1.2423089742660522,0.021075252443552017,-0.013744468,-0.004581489,1
-1.4248449802398682,9.786959648132324,-1.261115550994873,0.014508153311908243,-0.07391469,0.009162978,1
-1.398108959197998,9.774864196777344,-1.3195706605911257,0.011271819472312929,0.01985312,0.0021380284,1
-1.3581079244613647,9.753789901733398,-1.3395494222640991,0.008456025272607803,0.056199603,-0.018325957,1
-1.298719048500061,9.7550048828125,-1.336848258972168,-0.0008661486208438872,-0.0036651916,0.012217305,1
-1.250434160232544,9.77072811126709,-1.3540585041046145,-0.001971108606085181,-0.033292156,0.042760565999999986,1
-1.2641841173171997,9.760153770446776,-1.4014285802841189,0.005064750090241432,0.032986723,0.046731193,1
-1.3143609762191772,9.7349214553833,-1.4127737283706665,0.008277546614408493,0.0421497,0.018325957,1
-1.3522303104400637,9.736417770385742,-1.4022984504699707,0.004260415676981211,0.017715093,-0.00030543262000000003,1
-1.3530994653701782,9.744104385375977,-1.400593638420105,0.0018201565835624933,-0.021380283,-0.0036651916,1
-1.324793577194214,9.74826717376709,-1.406993746757507,-0.002387356013059616,-0.05131268,-0.005192355,1
-1.2953076362609863,9.741146087646484,-1.418031930923462,-0.004851568955928086,-0.010079277,-0.0076358155,1
-1.2734965085983276,9.731788635253906,-1.4124853610992432,-0.009214865043759346,-0.0061086523,-0.003970624,1
-1.2577024698257446,9.744061470031738,-1.4125375747680664,-0.01065931748598814,-0.009773844,-0.004276057,1
-1.2592287063598633,9.759552001953123,-1.4277111291885376,-0.007261929102241994,0.070554934,0.00580322,1
-1.2580407857894895,9.764116287231444,-1.412311315536499,-0.004166463855654,0.04642576,-0.0067195175,1
-1.237629532814026,9.763343811035156,-1.3717371225357056,-0.005766278598457575,-0.03390302,0.005497787,1
-1.22805917263031,9.766535758972168,-1.358924150466919,-0.007383603602647781,-0.058643065,0.015882496,1
-1.259967565536499,9.760050773620604,-1.3807104825973509,-0.0075483410619199285,0.0009162979,-0.006414085,1
-1.273168683052063,9.743094444274902,-1.3952430486679075,-0.013724821619689465,0.015271631,-0.014049901000000002,1
-1.25895094871521,9.750313758850098,-1.394808053970337,-0.022438500076532364,-0.04062254,-0.0061086523,1
-1.2607799768447876,9.756875991821287,-1.3897839784622192,-0.02322025597095489,-0.036651913,0.00030543262000000003,1
-1.2610679864883425,9.74059772491455,-1.391138195991516,-0.02324158884584904,-0.0070249503,-0.013439035,1
-1.241602063179016,9.723057746887207,-1.402554631233215,-0.022267300635576248,0.004581489,-0.018325957,1
-1.2258983850479126,9.717421531677246,-1.402066349983215,-0.01858816109597683,0.00061086525,-0.00030543262000000003,1
-1.233012557029724,9.72833251953125,-1.3955070972442627,-0.013139053247869016,-0.0027488936,-0.006414085,1
-1.251056432723999,9.743706703186037,-1.3766648769378662,-0.006673921365290879,0.028099801,-0.010995574,1
-1.248009443283081,9.743024826049805,-1.338761806488037,-0.006576104555279017,0.035430185,-0.015577064,1
-1.2168813943862915,9.746588706970217,-1.303862452507019,-0.011167668737471105,0.022602014,0.004276057,1
-1.1885119676589966,9.743242263793944,-1.280297875404358,-0.017284296452999115,-0.0021380284,0.002443461,1
-1.1722168922424316,9.746849060058594,-1.2961395978927612,-0.028536703437566764,0.018325957,0.015271631,1
-1.1812033653259275,9.74754810333252,-1.2988557815551758,-0.03801092877984047,-0.014660766,0.026267206,1
-1.235389232635498,9.771613121032717,-1.3175759315490725,-0.03656841441988945,0.011911872,0.01160644,1
-1.2853742837905884,9.77696418762207,-1.3419764041900637,-0.03212198242545128,0.116980694,-0.010690141499999998,1
-1.2881044149398804,9.758334159851074,-1.330897569656372,-0.030641784891486168,0.07391469,-0.010995574,1
-1.28544282913208,9.73692512512207,-1.3125420808792114,-0.03103892505168915,0.016187929,0.008552114,1
-1.3081943988800049,9.72096347808838,-1.3270398378372192,-0.03184248134493828,0.0015271631,0.013133603,1
-1.3432419300079346,9.722525596618652,-1.35029399394989,-0.03148619458079338,0.009162978,0.012217305,1
-1.3709557056427002,9.734997749328613,-1.349710464477539,-0.0286425705999136,0.017104227,-0.013439035,1
-1.369670867919922,9.74986171722412,-1.3308387994766235,-0.02447490021586418,0.04337143,-0.007941248,1
-1.344324231147766,9.752942085266113,-1.3137670755386353,-0.023025577887892727,0.04428773,0.006414085,1
-1.3189157247543335,9.747106552124023,-1.301699995994568,-0.024316895753145214,0.020158553,0.018936822,1
-1.3044694662094116,9.7369384765625,-1.3077654838562012,-0.02776469476521015,0.01160644,0.016187929,1
-1.303696870803833,9.74217128753662,-1.3268647193908691,-0.030555881559848782,0.003970624,0.014049901000000002,1
-1.3080940246582031,9.754902839660645,-1.3592605590820312,-0.03122303076088428,0.049480084,0.028099801,1
-1.3147414922714231,9.7682466506958,-1.3650776147842407,-0.03070031479001045,0.04642576,0.028710667,1
