acc_x,acc_y,acc_z,gyro_x,gyro_y,gyro_z,label
0.0,0.0,0.0,0.0,-0.054367006,0.008246681,1
-0.09232032299041748,0.2715973556041717,-0.04967450350522995,-0.0004699546843767166,-0.0421497,0.008857545999999999,1
-0.3146248161792755,0.9188851714134216,-0.17021118104457855,-0.0011600736761465669,-0.018325957,0.0018325958,1
-0.6257601380348206,1.814138412475586,-0.34038138389587397,-0.000647155218757689,0.0009162979,0.00061086525,1
-0.9786122441291808,2.816045045852661,-0.5352064967155457,0.00020820971985813233,0.004886922,-0.01160644,1
-1.3343956470489502,3.8109829425811768,-0.7337512969970703,0.0008961758576333524,0.002443461,-0.008552114,1
-1.6680436134338381,4.727625370025635,-0.9221960306167604,0.00019499838526826352,0.009162978,0.005192355,1
-1.9670666456222532,5.53205156326294,-1.093433141708374,-0.0009863105369731784,0.013133603,0.0009162979,1
-2.227731466293335,6.215868949890138,-1.2450973987579346,-0.0015668472042307258,-0.01160644,0.011301007,1
-2.449049472808838,6.785937309265138,-1.3614150285720823,-0.0029547803569585085,-0.0421497,0.016798794,1
-2.625266790390014,7.252277851104736,-1.447500467300415,-0.0056665604934096345,-0.076358154,0.021685716,1
-2.7531769275665283,7.63057804107666,-1.5174119472503662,-0.008669950999319553,-0.10567969,0.0143553335,1
-2.8255929946899414,7.943836688995361,-1.626793622970581,-0.012515944428741932,-0.12003502,0.01740966,1
-2.861846208572388,8.19349479675293,-1.7094959020614624,-0.016764501109719276,-0.113926366,0.024740042,1
-2.893660306930542,8.386895179748535,-1.736710786819458,-0.02066410891711712,-0.10354166,0.0290161,1
-2.9291582107543945,8.531046867370605,-1.715177059173584,-0.02360858954489231,-0.11301007,0.028405234,1
-2.9614219665527344,8.64930534362793,-1.677004337310791,-0.025143062695860863,-0.092240654,0.024740042,1
-2.990004062652588,8.749472618103027,-1.6524025201797483,-0.025615323334932327,-0.103847094,0.027488936,1
-3.0287079811096187,8.8314790725708,-1.6521749496459959,-0.025886587798595432,-0.10842858,0.032375857,1
-3.079156875610352,8.903013229370117,-1.6874959468841553,-0.025087133049964905,-0.027183503,0.028710667,1
-3.12174391746521,8.975289344787598,-1.731126070022583,-0.020060580223798752,0.032375857,0.04337143,1
-3.1486186981201167,9.048993110656738,-1.7641533613204956,-0.01280587911605835,0.10445796,0.026572637000000003,5
-3.149403810501098,9.163495063781738,-1.7497299909591677,-0.013711916282773018,-0.106901415,0.05009095,5
-3.1492156982421875,9.23056697845459,-1.882251739501953,-0.030740624293684963,-0.15393804,0.018325957,5
-3.263230800628662,9.051397323608398,-2.340881586074829,-0.04542564228177071,0.2724459,-0.12492194,5
-3.2837924957275386,8.925256729125977,-2.35492205619812,-0.06600843369960785,-0.15790866,-0.081855945,5
-3.227766275405884,9.006205558776855,-1.9930459260940552,-0.09867334365844728,-0.40378192,-0.06719518,5
-3.1220102310180664,9.038140296936037,-1.9164446592330933,-0.08826426416635512,-0.15577064,0.0027488936,5
-2.867286205291748,9.006223678588867,-1.884981393814087,-0.05493060126900673,0.062308256,-0.00030543262000000003,5
-2.658442258834839,9.07675838470459,-1.7860314846038818,-0.021140133962035183,0.16279559,-0.04917465,5
-2.5367908477783203,9.21612548828125,-1.6670860052108765,-0.0067010968923568726,0.16554448,-0.06566802,5
-2.5010383129119877,9.37106990814209,-1.5123637914657593,-0.012674831785261631,0.05222898,-0.10323623,5
-2.493696928024292,9.584905624389648,-1.3625848293304443,-0.045907985419034965,-0.0076358155,-0.08827003,5
-2.438640117645264,9.81455135345459,-1.2367713451385498,-0.09247906506061554,-0.029626964,-0.018325957,5
-2.364429235458374,9.908133506774902,-1.184212327003479,-0.1432008296251297,0.061086524,-0.01160644,5
-2.3089020252227783,9.881940841674805,-1.152023196220398,-0.20197877287864685,0.12644911,-0.03023783,5
-2.3035833835601807,9.82789134979248,-1.0856448411941528,-0.26360073685646057,0.14874569,-0.03634648,5
-2.334669589996338,9.812088012695312,-0.9028954505920409,-0.3324325680732727,-0.05375614,-0.014660766,5
-2.3948774337768555,9.826000213623047,-0.6557576656341553,-0.4082452952861786,-0.3735441,0.007330383,5
-2.529736280441284,9.780405044555664,-0.5253248810768127,-0.4967241287231445,-0.5644395000000001,-0.011911872,5
-2.7911503314971924,9.531862258911133,-0.4856947958469391,-0.6910421252250671,-0.45173484,-0.11362094,5
-3.0655591487884517,9.362340927124023,-0.4797419607639313,-0.8939180374145508,-0.19272798,-0.08582657,5
-3.4425947666168213,9.369499206542967,-0.3937546014785767,-1.1077744960784912,0.20250183,-0.14630222,5
-3.9667928218841553,9.754934310913086,-0.09796228259801863,-1.3521599769592283,0.30970868,-0.19853121,5
-4.4120073318481445,10.48182201385498,0.5657085776329039,-1.6690311431884766,0.070249505,0.01863139,5
-4.518913269042969,11.184565544128418,1.6410185098648071,-2.0494472980499268,-0.5870415,0.2932153,5
-4.383567333221436,11.807364463806152,2.514559507369995,-2.4317302703857417,-0.39675698,0.4914411,5
-3.9759674072265625,12.265417098999025,2.7953670024871826,-2.7258944511413574,-0.08277224,0.7293731,5
-3.4998533725738525,12.058942794799805,2.5940396785736084,-2.886934757232666,0.32925636,0.66248333,5
-3.1811347007751465,11.186089515686037,2.279634714126587,-2.94805645942688,0.8393288000000001,0.39553526,5
-3.0689120292663574,9.993419647216797,2.1950428485870357,-2.9572844505310063,1.2131784,0.07086037,5
-3.1627447605133057,8.819021224975586,2.527134418487549,-2.971135377883911,1.4413365,-0.29046643,5
-3.3516316413879395,7.927788257598878,2.985357999801636,-3.0099782943725586,1.3304645,-0.7049385,5
-3.3803720474243164,7.270253658294678,3.3367919921875,-3.0047218799591064,1.1023063999999998,-0.713796,5
-3.239831686019897,6.70506477355957,3.8014833927154537,-2.881220817565918,0.69058317,-0.45662177,5
-3.115814208984375,6.359879016876222,4.2891554832458505,-2.691413164138794,0.3885103,-0.34972036,5
-3.1286637783050537,6.049639225006104,4.480979442596436,-2.5041429996490483,0.50854534,-0.42302418,5
-3.1821379661560063,5.584788799285889,4.511567115783691,-2.2868578433990483,0.5705481,-0.4700608,5
-3.1783909797668457,5.082573890686035,4.552112579345703,-2.0208866596221924,0.43188173,-0.4129449000000001,5
-3.142134189605713,4.634900569915772,4.645057678222656,-1.7021386623382568,0.26419923,-0.23671028,5
-3.193561553955078,4.3144941329956055,4.775514602661133,-1.3531674146652222,0.22174409,-0.07849618,5
-3.3762948513031006,4.089860439300537,4.965653419494629,-0.9994250535964966,0.101098195,0.098043874,5
-3.5391845703125,3.91982626914978,5.220742702484131,-0.6446479558944702,-0.05375614,0.26878070000000004,5
-3.658806800842285,3.8030385971069336,5.662381649017334,-0.30866098403930664,-0.28985557,0.45234573,5
-3.693063497543335,3.9143223762512207,6.313178539276122,-0.034925416111946106,-0.61819565,0.7528914000000001,5
-3.672624349594116,4.459037780761719,7.029304504394531,0.1353800743818283,-1.0250319,0.95722586,5
-4.258494377136231,5.618541717529297,7.758615016937256,0.13500311970710754,-0.68600166,0.61483586,5
-5.222188472747803,6.581369400024414,7.970201015472412,0.057932049036025994,0.75625116,0.21594086,5
-5.40580415725708,6.5669593811035165,7.756744384765625,0.1944180279970169,0.50426924,0.59681535,5
-5.067341327667236,6.151399612426758,7.46866512298584,0.5574412941932678,-0.28130344,0.62125,5
-4.893728733062744,5.829474449157715,7.021845817565918,0.9921584725379944,-0.8197812,0.6123924,5
-5.107363700866699,6.118260860443115,6.873983383178711,1.373538613319397,-1.5106697,0.105374254,5
-5.370537757873535,7.757874011993407,6.530149459838867,1.6285077333450315,-1.1737776000000002,0.101098195,5
-5.382967948913574,9.33457851409912,5.7634100914001465,1.8448495864868164,-0.43982297,0.48075095,5
-4.730698585510254,9.25243091583252,5.385986804962158,2.0328614711761475,-0.78954333,0.64843345,5
-3.989510297775269,8.604188919067383,4.954434394836426,2.2497236728668213,-1.2299771000000002,0.70066243,5
-3.3993706703186035,8.091985702514647,4.246757984161377,2.487294435501098,-0.96852684,0.2846632,5
-3.0045473575592037,8.047813415527344,3.5907502174377437,2.665979146957397,-0.8765915999999999,-0.1908954,5
-2.810544013977051,8.449901580810549,3.0191724300384517,2.8085813522338867,-0.895223,-0.2910773,5
-2.7461190223693848,8.853513717651367,2.450893878936768,2.9417815208435063,-0.6768387,-0.022907447,5
-2.6231610774993896,8.818663597106934,1.988130807876587,3.006526470184326,-0.61727935,0.099571034,5
-2.492293357849121,8.412710189819336,1.7011116743087769,3.0210888385772705,-0.76083267,-0.099265605,5
-2.4339442253112797,7.95327615737915,1.3725008964538574,2.979264974594116,-0.5842925999999999,-0.21166481,5
-2.398712396621704,7.63905143737793,0.9577794671058656,2.8601703643798833,-0.31123585,-0.2932153,5
-2.3644428253173833,7.4779396057128915,0.5704168677330017,2.700951099395752,-0.23762658,-0.3866777,5
-2.3597145080566406,7.564426898956299,0.2631501853466034,2.5076534748077397,-0.030848695,-0.32345316,5
-2.355475664138794,7.783019065856934,0.18443450331687927,2.2726116180419917,-0.015882496,-0.22235495,5
-2.327564477920532,7.970833778381348,0.3198260068893433,2.0531296730041504,-0.2611449,-0.20158553,5
-2.2505970001220703,8.222453117370605,0.4030179381370544,1.8759770393371584,-0.42058071,-0.17195857,5
-2.0503387451171875,8.529746055603027,0.2669412791728973,1.6995397806167605,-0.35888332,-0.17470746,5
-1.764518141746521,8.928383827209473,-0.0598081573843956,1.5012809038162231,-0.19639318,-0.16279559,5
-1.7106313705444336,9.484756469726562,-0.3766148388385773,1.3079783916473389,-0.14263703,-0.18295415,5
-1.9838471412658687,9.984280586242676,-0.5790821313858032,1.136504054069519,-0.021685716,-0.2144137,5
-2.4905076026916504,10.352214813232422,-0.5095384120941162,0.9645068049430848,0.014660766,-0.43004912,5
-3.054503917694092,10.729164123535156,-0.20850427448749545,0.7940211892127991,-0.25992316,-0.7180721,5
-3.491644382476806,11.253342628479004,0.09701018035411836,0.6377007961273193,-0.7098253999999999,-0.8350528,5
-3.6520841121673584,11.893878936767578,0.11171208322048187,0.4595595002174378,-1.201572,-0.7415904000000001,5
-3.6073491573333736,12.53146743774414,-0.4423179030418396,0.20811940729618075,-0.8558222,-0.8063421,5
-3.710880279541016,12.99698543548584,-1.1171536445617676,-0.12282931804656982,-0.63224554,-0.86620694,5
-4.087467670440674,12.893601417541506,-1.2124687433242798,-0.4344969987869263,-0.48472157,-1.3200798,5
-4.553647518157959,12.375359535217285,-0.7058404088020325,-0.7641201615333557,-0.7611380999999999,-1.9465221,5
-4.920625686645508,12.027417182922365,0.13550281524658206,-1.206083059310913,-1.9385809,-1.9743165,5
-5.2746100425720215,12.084192276000975,0.7734599709510803,-1.768035054206848,-1.4462235,-1.1609493,5
-5.760833740234375,12.3140287399292,0.9311290383338928,-2.3313279151916504,-1.1670581,0.1142318,5
-6.0797505378723145,12.574044227600098,0.3855686187744141,-2.783168077468872,-0.13775012,0.8194756999999999,5
-5.985808372497559,12.466056823730467,-0.15122607350349426,-2.986924171447754,-0.13622294,0.84940815,5
-5.6083335876464835,11.5669584274292,-0.3194690942764282,-2.966587781906128,-0.31795537,0.6966918000000001,5
-5.2423248291015625,10.445960998535156,-0.4358978867530823,-2.985936403274536,-0.016798794,0.5717699,5
-5.056210517883301,9.31265926361084,-0.3622573912143707,-3.083379030227661,0.49541172,0.42821655,5
-4.9312477111816415,8.143163681030272,-0.12705567479133606,-3.175266027450561,0.64660084,0.02076942,5
-4.628043174743652,7.005708694458008,0.0944487452507019,-3.2544863224029537,0.6218608,-0.47158796,5
-4.2592387199401855,6.125550746917725,0.3626564145088196,-3.315256834030152,0.4868596,-0.7272350999999999,5
-3.981735467910767,5.703566551208496,0.7674983143806458,-3.3069880008697514,0.41386122,-0.7348709,5
-3.873380184173584,5.598410606384277,1.2472050189971924,-3.1864724159240723,0.24220806,-0.4841107,5
-3.868114471435547,5.381378173828125,1.5889403820037842,-2.974226951599121,0.39614612,-0.1872302,5
-3.8582682609558105,5.016632556915283,1.849726319313049,-2.7004072666168213,0.44990227,0.047647487,5
-3.817329645156861,4.6218295097351065,2.118039846420288,-2.358111619949341,0.4978552,0.30970868,5
-3.822632312774658,4.255223751068115,2.44336462020874,-1.962883710861206,0.60048056,0.54641896,5
-3.811028242111206,3.947916269302368,2.8891785144805913,-1.5472244024276731,0.5751295999999999,0.8384125,5
-3.733798265457153,3.643210649490357,3.4534914493560787,-1.1222538948059082,0.50885075,1.0781771999999998,5
-3.55505108833313,3.2820920944213867,3.90247106552124,-0.6773943305015564,0.47952923,1.2519683,5
-3.352693796157837,2.9496796131134038,4.354201316833496,-0.12866640090942386,-0.48258355,1.1585059,5
-3.772514343261719,4.132446765899658,5.199535846710205,0.10619257390499116,-0.37812558,0.552833,5
-5.255136489868164,6.108315944671631,5.0139427185058585,0.27956870198249817,1.2483031999999998,0.16432275,5
-6.173017978668213,7.38419246673584,5.264955520629883,0.5012083053588867,0.20463985,0.57818395,5
-6.086359977722168,7.436186790466309,5.1203460693359375,0.7567974925041199,0.086132,0.9251554,5
-5.717074394226074,6.950455665588379,4.946016788482666,1.0875581502914429,-0.06994407,0.8570439000000001,5
-5.395163059234619,6.766825675964356,4.565994739532472,1.4372014999389648,-0.06383542,0.267559,5
-5.299315929412842,7.149443626403809,3.992930412292481,1.7159154415130615,0.28710666,-0.13988814,5
-5.307887554168701,7.946395397186278,3.4142463207244877,1.9012192487716677,0.6585127,0.044898596,5
-5.191793918609619,8.590726852416992,3.095508813858032,2.035438537597656,0.5290093000000001,0.4175264,5
-5.010148525238037,8.582790374755861,2.906046152114868,2.1907687187194824,0.24770586,0.2932153,5
-4.837854862213135,8.112412452697754,2.668518543243408,2.382002592086792,0.2012801,0.039095376,5
-4.685741901397705,7.630419254302978,2.371471643447876,2.597697496414185,-0.16157386,-0.22235495,5
-4.521754741668701,7.309786796569824,1.94067645072937,2.7652182579040527,-0.23548855,-0.4016439000000001,5
-4.430565357208252,7.31288480758667,1.4095792770385742,2.777392864227295,-0.2556471,-0.23945917,5
-4.479220390319824,7.58172607421875,0.8829391598701477,2.574284315109253,0.0983493,-0.17898351,5
-4.508411884307861,7.85296630859375,0.5804165005683899,2.2599267959594727,0.5015204000000001,-0.05772676700000001,5
-4.470280647277832,7.943593025207519,0.6505643725395203,2.006641149520874,0.2180789,0.051618114000000014,5
-4.345264434814453,7.838871955871582,0.785110354423523,1.827850580215454,-0.03970624,0.05467244,5
-4.1644935607910165,7.655063152313232,0.64961177110672,1.6687068939208984,0.03268129,0.034513887,5
-4.075684070587158,7.62690544128418,0.4562052190303802,1.5035631656646729,0.15699236,-0.014049901000000002,5
-4.105428695678712,7.7636942863464355,0.32024022936820984,1.3519335985183716,0.056199603,-0.063224554,5
-4.169819355010986,7.971883296966553,0.2373676896095276,1.2390118837356567,-0.18234327,-0.035430185,5
-4.2125654220581055,8.18384838104248,0.1096036359667778,1.156421780586243,-0.19822577,-0.09621128,5
-4.30255126953125,8.429669380187987,-0.06636898219585419,1.0722033977508545,-0.032986723,-0.19975294,5
-4.450396060943604,8.774885177612305,-0.1759573519229889,0.9815232753753662,0.047036625,-0.29260445,5
-4.659153461456299,9.22846794128418,-0.1997486650943756,0.9059166908264159,0.03268129,-0.37507126,5
-4.899777412414551,9.672106742858887,-0.1809178441762924,0.8499172925949097,-0.058948494,-0.38056904,5
-5.158634662628174,10.051403999328613,-0.1616523414850235,0.7860485315322876,-0.13744467,-0.4260785,5
-5.4258456230163565,10.471048355102539,-0.15376485884189606,0.6931345462799072,-0.5314528000000001,-0.43066,5
-5.654232501983643,10.911748886108398,-0.22787052392959595,0.5538573861122131,-0.9272934000000002,-0.4896085,5
-5.99920129776001,11.28546142578125,-0.4278690218925476,0.3677831590175629,-1.0986412,-0.7357872,5
-6.443055629730225,11.35834503173828,-0.5794325470924377,0.1165480613708496,-1.0354166,-1.1808025,5
-6.849414348602295,11.085003852844238,-0.4745241105556488,-0.19037222862243647,-0.94134337,-1.4712689,5
-7.400173664093018,10.822267532348633,-0.0893065556883812,-0.5492161512374878,-0.80939645,-1.1563678999999998,5
-7.987135887145996,10.61082649230957,0.3825929760932921,-0.9583793878555298,-0.13103059,-0.17134771,5
-7.975724697113037,10.436788558959961,0.8703085780143738,-1.4935225248336792,-0.07269296,-0.26206118,5
-7.618180751800537,10.539227485656738,1.1939339637756348,-2.1239049434661865,-1.1890492,-0.119729586,5
-7.327147006988525,10.71414279937744,0.9542771577835084,-2.6536591053009038,-1.3322971,0.07452556,5
-7.039484977722168,10.546141624450684,0.5291725397109985,-2.8756105899810787,-0.7076874,0.26878070000000004,5
-6.6155924797058105,10.000603675842283,0.29370033740997314,-2.8710756301879883,-0.26145032,0.44501534,5
-6.207731246948242,9.201647758483887,0.2229914963245392,-2.8656392097473145,-0.3903429,0.38240165,5
-5.893232822418213,8.266045570373535,-0.0009881813311949372,-2.950401782989502,0.0143553335,0.24129178,5
-5.59438419342041,7.3481998443603525,-0.1474197804927826,-3.0308756828308105,0.605062,0.060170225999999986,5
-5.335776329040527,6.623124122619629,0.2499469220638275,-3.1091530323028564,0.16737708,-0.12950343,5
-5.1970248222351065,6.075411796569824,0.712998628616333,-3.210315227508545,0.24617869,-0.3979787,5
-5.101755619049072,5.58302640914917,1.0864936113357544,-3.239621639251709,0.31398472,-0.514654,5
-5.029760837554932,5.206818103790283,1.4840686321258545,-3.160567283630371,0.09743301,-0.45540005,5
-4.918179512023926,5.074417591094972,1.912740707397461,-2.996994733810425,-0.16462818,-0.27152961,5
-4.7693634033203125,4.831117153167725,2.262146234512329,-2.765964984893799,-0.113926366,-0.1151481,5
-4.689084053039551,4.378361701965332,2.5303709506988525,-2.489922285079956,0.12492194,0.042760565999999986,5
-4.713531970977783,3.961546659469605,2.847055196762085,-2.1710042953491206,0.29535335,0.2321288,5
-4.748701572418213,3.690909147262573,3.220576047897339,-1.802205801010132,0.38820487,0.5235115,5
-4.759511470794678,3.55225157737732,3.712456464767456,-1.4112279415130615,0.3717115,0.82650065,5
-4.749297142028809,3.354926347732544,4.379753589630127,-1.0018154382705688,0.24953845,1.1603385,5
-4.761022567749023,3.0123805999755864,5.038552284240723,-0.5858830809593201,0.19272798,1.2125676,5
-4.703929901123047,2.7157700061798096,5.536245822906494,-0.12714312970638275,-0.31734450000000003,1.278541,5
-5.313056468963623,3.2805731296539307,6.075772762298584,0.2551383078098297,-0.3894266,0.86498517,5
-6.76614236831665,4.938322067260742,5.9956769943237305,0.5154157876968384,0.5021312,0.81153446,5
-7.615477561950684,6.1759891510009775,5.848928451538086,0.7488012313842773,0.15760323,1.0965031,5
-7.603176593780518,6.379288673400879,5.424989700317383,1.057125687599182,0.2049453,1.071763,5
-7.1302008628845215,5.909199237823486,5.004806041717528,1.41676127910614,-0.28496864,1.0888673,5
-6.668031692504883,5.440086841583252,4.556123733520508,1.78161358833313,-0.35277468,0.60048056,5
-6.354337692260742,5.617879867553711,3.9801850318908687,2.125325918197632,-0.10751228,0.102319926,5
-6.2654523849487305,6.414430141448975,3.396702766418457,2.35818099975586,0.12308934,0.040317107000000005,5
-6.256223201751709,7.434022903442383,2.972318172454834,2.5163378715515137,0.19517145,0.3753767,5
-6.0599775314331055,7.812472343444824,2.7415876388549805,2.6334474086761475,0.105374254,0.376293,5
-5.811119079589844,7.704930305480957,2.567892551422119,2.7486369609832764,-0.129198,0.2415972,5
-5.57293176651001,7.424084186553955,2.3200173377990723,2.9068706035614014,-0.32528573,0.13897185,5
-5.344959259033203,7.261517524719237,1.9244548082351685,3.0609219074249268,-0.42088616,0.081855945,5
-5.186788082122803,7.384981632232666,1.4165698289871216,3.073464155197144,-0.30909783,0.105068825,5
-5.014151573181152,7.640636444091798,1.0141731500625608,2.8943512439727783,-0.48838675,0.22204952,5
-4.7422757148742685,7.7042059898376465,0.7396721839904785,2.5975122451782227,-0.27305678,0.23304509,5
-4.465782642364502,7.516708850860597,0.5965282320976257,2.3302266597747803,-0.017715093,0.20280726,5
-4.2101097106933585,7.239735603332519,0.5327804684638977,2.1428346633911133,-0.11056661,0.2171626,5
-3.970850944519043,6.971487522125244,0.4639898836612701,1.9717054367065432,-0.014966198,0.12003502,5
-3.7999026775360103,6.8847832679748535,0.3832167685031891,1.801787614822388,-0.06750060599999999,-0.0018325958,5
-3.7602574825286874,7.029075145721436,0.29025334119796753,1.6516146659851074,-0.2706133,-0.04795292,5
-3.809251546859741,7.265949726104736,0.12889298796653748,1.5377539396286009,-0.20066923,-0.016187929,5
-3.895786285400391,7.529356956481934,-0.017732590436935425,1.427665114402771,-0.18509217,-0.050701816,5
-4.021790504455566,7.834123134613037,-0.15668505430221558,1.3098915815353394,-0.27458394,-0.105374254,5
-4.24619722366333,8.149561882019043,-0.3601093590259552,1.2323263883590698,-0.105374254,-0.26297748,5
-4.613032817840576,8.526110649108888,-0.5482204556465149,1.147741675376892,0.09040806,-0.3830125,5
-5.036229610443115,9.06213665008545,-0.5293565988540649,1.0144397020339966,0.058643065,-0.42546764,5
-5.432024002075195,9.618000030517578,-0.30971968173980713,0.866424560546875,-0.23671028,-0.42180246,5
-5.805555820465088,10.171107292175293,-0.04423784837126732,0.7116671204566956,-0.52839845,-0.4352415,5
-6.037065982818604,10.774964332580566,0.15705615282058716,0.5513215661048889,-0.9388999,-0.42455134,5
-6.127467155456543,11.475953102111815,0.148708775639534,0.3584776520729065,-1.2822062,-0.47403142,5
-6.385122776031494,12.012667655944824,-0.11162375658750534,0.10707424581050873,-1.3683381,-0.47525316,5
-6.844039916992188,12.02603816986084,-0.2723659574985504,-0.2260912954807281,-1.1316278999999998,-0.46639562,5
-7.250413417816162,11.65530014038086,-0.19221854209899905,-0.5868023037910461,-1.0021244,-0.39614612,5
-7.53548526763916,11.157724380493164,0.05445002019405365,-0.9574827551841736,-0.6612616,-0.41783184,5
-7.672759532928468,10.822017669677734,0.4186903536319733,-1.386035442352295,-0.33964106,-0.3491095,5
-7.618410587310791,10.74657154083252,0.8430956602096558,-1.9551299810409544,-0.6658430999999999,-0.17745635,5
-7.418745994567871,11.003376007080078,0.9805764555931092,-2.5607926845550537,-0.84940815,0.17287487,5
-7.15123987197876,11.214713096618652,0.5694437623023987,-2.893295288085937,-0.08460484,0.16920967,5
-6.828469276428223,10.985671997070312,0.15189972519874573,-2.936642408370972,0.08277224,0.23273966,5
-6.369463920593263,10.359603881835938,0.04659944772720337,-2.949427843093872,0.04520403,0.28191432,5
-5.8530335426330575,9.57099723815918,0.19791755080223086,-3.0418496131896973,-0.051618114000000014,0.1881465,5
-5.464332580566406,8.709070205688478,0.3810857534408569,-3.1715240478515625,0.34391713,-0.03481932,5
-5.286205768585205,7.76844310760498,0.4826674163341522,-3.3072705268859863,0.46028697,-0.2519819,5
-5.084921360015869,6.909802436828612,0.4841747879981994,-3.399312734603882,0.40530908,-0.3817908,5
-4.749895095825195,6.209274768829347,0.4591242372989655,-3.403875827789306,0.41050145,-0.3753767,5
-4.38397741317749,5.5927700996398935,0.6376166343688965,-3.350278615951538,0.28771752,-0.48808134,5
-4.1754727363586435,5.082667350769043,0.973977506160736,-3.218949794769287,0.12064589,-0.47952923,5
-4.123017311096191,4.660686016082764,1.3342989683151243,-3.011787414550781,0.095294975,-0.32650748,5
-4.060378551483153,4.230205535888672,1.696052074432373,-2.7558002471923833,0.09682214,-0.12461651,5
-4.035053253173828,3.804601907730103,2.0659189224243164,-2.450109004974365,0.12339478,0.08307768,5
-4.115612983703613,3.5115151405334477,2.4186689853668213,-2.0846300125122066,0.28496864,0.36957347,5
-4.282202243804932,3.3552672863006587,2.844923496246338,-1.682593822479248,0.3652974,0.66859204,5
-4.468907356262207,3.288621187210083,3.4757077693939213,-1.2668867111206057,0.29901853,0.98532563,5
-4.619462966918945,3.2529001235961914,4.346817970275879,-0.8595566749572754,0.077579886,1.349096,5
-4.777707576751709,3.2328901290893555,5.250088691711426,-0.5021201968193054,-0.15760323,1.4563028,5
-5.176079273223877,3.2706923484802246,6.057890892028809,-0.18486450612545013,-0.43799037,0.915687,5
-6.3791255950927725,4.114792346954347,6.369211196899414,-0.03734008595347405,0.45723262,0.4868596,5
-7.241511821746826,5.153268337249756,6.277287483215332,0.17081741988658905,0.3839288,0.9923506,5
-7.104322910308838,5.5919222831726065,6.117141246795653,0.5300713181495667,-0.23762658,1.318858,5
-6.7577714920043945,5.513054847717285,5.636269569396973,1.0011898279190063,-0.03756821,1.2721269,5
-6.578063488006593,5.7336201667785645,5.110941410064697,1.3352940082550049,-0.15974127,0.8536841999999999,5
-6.5545592308044425,6.514413833618164,4.405791759490967,1.6763997077941897,0.18997909,0.36560285,5
-6.612416744232178,7.24868106842041,3.8557100296020512,1.9255625009536743,0.36193767,0.204029,5
-6.516831398010254,7.6401119232177725,3.588061809539795,2.0984430313110347,0.04062254,0.41355577,5
-6.243131160736084,7.550361633300781,3.366367816925049,2.317566394805908,-0.11209377,0.39614612,5
-5.909968852996826,7.167865753173827,3.1012632846832275,2.59981107711792,-0.18570304,0.14508049,5
-5.523996353149414,6.9539852142333975,2.7513599395751958,2.859896183013916,-0.31215215,0.101098195,5
-5.144735813140869,7.051875114440918,2.304142475128174,3.074007272720337,-0.4166101,0.08552113,5
-4.840093612670898,7.337338924407959,1.81659996509552,3.1770207881927486,-0.3222314000000001,0.17867808,5
-4.65662956237793,7.6287269592285165,1.410218596458435,3.097895860671997,-0.4025602,0.29016098,5
-4.495339870452881,7.6871161460876465,1.1684654951095579,2.877279043197632,-0.32589662,0.20952678,5
-4.326982498168944,7.51651668548584,1.0326439142227173,2.62427282333374,-0.03756821,0.17623462,5
-4.147049427032472,7.269117832183838,0.9239158034324646,2.4361276626586914,-0.062002823,0.11728613,5
-3.942069530487061,7.124709606170653,0.7576371431350708,2.2704195976257324,-0.050701816,0.04428773,5
-3.762558937072754,7.1898231506347665,0.5167286992073059,2.107776165008545,0.16096300000000002,-0.03390302,5
-3.7040510177612314,7.445845603942871,0.3321037292480469,1.9557509422302248,-0.08124508,-0.06291912,5
-3.8333251476287837,7.842667102813722,0.11996036767959595,1.8272140026092532,-0.25503623,-0.07391469,5
-4.030732154846191,8.267115592956543,-0.06424949318170547,1.681633472442627,0.0076358155,-0.028710667,5
-4.151623249053955,8.658298492431639,-0.09860914200544356,1.5045647621154783,0.08643743400000001,-0.058948494,5
-4.2598252296447745,9.09284782409668,-0.09728874266147614,1.31512188911438,-0.109650314,-0.103847094,5
-4.469117641448975,9.480146408081056,-0.17047801613807678,1.1325974464416504,-0.23823744,-0.18600847,5
-4.799034118652344,9.711470603942873,-0.2466021925210953,0.9503957033157348,-0.2947425,-0.301462,5
-5.217831611633301,9.875399589538574,-0.2686683535575867,0.7933080196380615,-0.18753563,-0.4120286,5
-5.619285583496094,10.142629623413086,-0.2601374983787537,0.6580056548118591,-0.24495697,-0.4279111,5
-5.7875823974609375,10.606293678283693,-0.2956316471099853,0.5069148540496826,-0.70371675,-0.51251596,5
-5.856184959411621,11.265091896057127,-0.5129213333129883,0.30945709347724915,-1.1826351000000002,-0.46761733,5
-6.218353271484375,11.685969352722168,-0.8507356643676758,0.04499856382608414,-1.0326678,-0.46700647,5
-6.745053291320801,11.582472801208494,-0.9860726594924928,-0.256699413061142,-0.8713993,-0.49021935,5
-7.1751465797424325,11.174022674560547,-0.8242566585540771,-0.5628425478935242,-0.88361657,-0.47219884,5
-7.379409313201903,10.821581840515137,-0.4475383162498474,-0.9004685878753662,-0.7067711,-0.4156938,5
-7.3591575622558585,10.716470718383787,-0.10120099782943726,-1.324495792388916,-0.31948254,-0.3707952000000001,5
-7.1818928718566895,10.881952285766602,0.10525624454021454,-1.88394558429718,-0.6062838,-0.20372356,5
-7.02185583114624,11.194211959838867,0.024443071335554126,-2.4721310138702397,-0.906524,0.14966199,5
-6.888476848602295,11.167643547058104,-0.246219739317894,-2.834540843963623,-0.21960606,0.20586158,5
-6.545118808746338,10.669575691223145,-0.2500915825366974,-2.964878559112549,-0.27030787,0.18906279,5
-6.013474464416504,9.997476577758787,-0.08046288043260574,-3.0341439247131348,-0.08002335,0.20433442,5
-5.610023021697998,9.31021213531494,0.16064341366291046,-3.133245944976806,0.00580322,0.19333886,5
-5.4332923889160165,8.567413330078125,0.2040330022573471,-3.238634824752808,0.38362336,0.015577064,5
-5.235250949859619,7.8560118675231925,0.2466171234846115,-3.316072940826416,0.5271766999999999,-0.07391469,5
-4.9476094245910645,7.227353096008301,0.6104646325111389,-3.3449816703796387,0.16554448,-0.122783914,5
-4.689298152923584,6.5903382301330575,0.9751145243644714,-3.3094997406005864,0.15302174,-0.3475823,5
-4.482287406921387,5.8859171867370605,1.1372947692871094,-3.24704647064209,0.39187005,-0.44868052,5
-4.288713455200194,5.26959753036499,1.3267698287963867,-3.125404357910156,0.2929099,-0.3277292,5
-4.1080665588378915,4.751267910003662,1.5824768543243408,-2.9463961124420166,0.14446963,-0.21288654,5
-3.966241836547852,4.309910297393799,1.8625334501266482,-2.714240074157715,0.13775012,-0.05497787,5
-3.928597688674927,3.962716817855835,2.1341865062713623,-2.4264073371887207,0.19058995,0.10415252,5
-4.0314297676086435,3.74036169052124,2.3961217403411865,-2.085956573486328,0.36926803,0.33841935,5
-4.203575611114502,3.5819568634033203,2.702877283096313,-1.6986424922943115,0.40469822,0.6056729000000001,5
-4.322494983673097,3.480730533599853,3.257520914077759,-1.2887699604034424,0.32895094,0.8713993,5
-4.3642663955688485,3.3992295265197754,4.065441131591797,-0.8580303192138672,0.15302174,1.185384,5
-4.3951778411865225,3.2761015892028813,4.889490127563477,-0.4448935389518738,0.02076942,1.3081678999999995,5
-4.463922500610352,3.1847028732299805,5.591341018676758,-0.036411818116903305,-0.5039638,1.2654073,5
-5.228564262390137,3.914504051208496,6.233842849731445,0.2381814271211624,-0.45570546,0.77488256,5
-6.735044479370117,5.6387715339660645,6.137143611907959,0.3904628753662109,0.8857546000000001,0.6114761,5
-7.4077091217041025,6.904214382171631,6.237422466278076,0.5655315518379211,0.13530666,0.95447695,5
-7.127716541290282,6.969234943389893,5.860671520233153,0.792077898979187,0.105068825,1.0268645,5
-6.510185241699219,6.3393378257751465,5.4009928703308105,1.1256693601608276,-0.30848694,1.3607023,5
-6.0188703536987305,5.922751426696777,4.984080314636231,1.4639811515808103,-0.47769663,0.9077458,5
-5.856190204620361,6.197417736053468,4.323499202728272,1.7780992984771729,-0.050396383,0.17989981,5
-5.933455467224121,7.000967979431152,3.7055356502532963,1.9572371244430544,0.31031954,0.118202426,5
-5.941298961639403,7.850566864013673,3.467890739440918,2.0658087730407715,0.06872234,0.50640726,5
-5.736827373504639,8.115707397460938,3.336674451828003,2.193564891815185,-0.08979719,0.4373795,5
-5.481436729431152,7.757411479949951,3.1958606243133545,2.367284059524536,-0.24220806,0.12492194,5
-5.234343528747559,7.2999372482299805,3.0161242485046387,2.546948909759521,-0.3408628,0.08155051,5
-4.913637161254883,7.224480628967285,2.6334261894226074,2.733948945999145,-0.5143485,0.07696902,5
-4.5788774490356445,7.3523383140563965,2.0997602939605717,2.8613669872283936,-0.37843102,0.00030543262000000003,5
-4.337815284729004,7.6634864807128915,1.5589338541030884,2.827110767364502,-0.27458394,0.032375857,5
-4.224596023559569,8.020685195922853,1.1307679414749146,2.615752696990967,-0.31826079999999995,0.16126843,5
-4.121565341949463,8.115950584411621,0.8296756744384766,2.345107316970825,0.07727446,0.24709499,5
-3.977168560028076,8.006037712097168,0.6776176691055298,2.1423985958099365,0.113926366,0.15882497,5
-3.875070810317993,7.903441905975343,0.6129752397537231,1.9801212549209597,-0.14294247,0.03634648,5
-3.862621068954468,7.820782661437987,0.6025217175483704,1.8193814754486084,-0.18325958,-0.0143553335,5
-3.9086272716522217,7.799009323120117,0.6285519599914551,1.6884255409240725,-0.17104226,-0.011301007,5
-3.995730876922608,7.892436504364014,0.6342032551765442,1.5859223604202268,-0.29626966,-0.01038471,5
-4.042936325073241,8.135994911193848,0.5057590603828429,1.4820579290390017,-0.3145956,-0.0125227375,5
-4.0279221534728995,8.434138298034668,0.2933478653430939,1.355225920677185,-0.16798794,-0.062002823,5
-4.009739875793457,8.74276065826416,0.12178774923086165,1.2309731245040894,-0.06750060599999999,-0.12064589,5
-4.1318607330322275,9.079503059387207,0.015375886112451553,1.1251674890518188,-0.016187929,-0.17043139999999998,5
-4.361375331878662,9.378384590148926,-0.003528854576870799,1.011169672012329,0.15302174,-0.21655174,5
-4.646080493927002,9.671375274658203,0.1051870658993721,0.8675597310066223,-0.013133603,-0.31703907,5
-4.949698448181152,10.03299331665039,0.2091873437166214,0.700628399848938,-0.08246681,-0.3555236,5
-5.175312519073486,10.47449779510498,0.3204869627952576,0.5097925662994385,-0.40653083,-0.37232238,5
-5.210137844085693,11.15488338470459,0.38956418633461,0.277948260307312,-1.0488556999999998,-0.4071417,5
-5.388885021209717,11.869513511657715,0.1925271153450012,-0.0002707633248064667,-1.6157386,-0.3145956,5
-5.9572296142578125,12.01036262512207,-0.09625411778688432,-0.263092041015625,-1.4141531,-0.38820487,5
-6.610049247741699,11.592817306518555,-0.25296685099601746,-0.4903785288333893,-0.59742624,-0.5137377000000001,5
-7.081264972686768,11.006928443908693,-0.16839881241321564,-0.7422549724578857,-0.41996986,-0.45937067,5
-7.238490581512451,10.551581382751463,0.13446789979934692,-1.0322990417480469,-0.5103779,-0.4279111,5
-7.206538677215576,10.314682006835938,0.376844733953476,-1.443715214729309,-0.06078109,-0.4083634,5
-7.034598350524902,10.341216087341307,0.4431647062301636,-2.010222911834717,0.15271631,-0.14538592,5
-6.7645769119262695,10.675447463989258,0.6059566140174866,-2.6665987968444824,-0.17440203,0.105374254,5
-6.429751396179199,11.046363830566406,0.6751282811164856,-3.080265760421753,-0.35002577,0.25686884,5
-6.054096698760986,11.07474422454834,0.8191962838172913,-3.1617960929870605,-0.29229903,0.44868052,5
-5.554450988769531,10.452272415161133,0.9198701977729796,-3.1365430355072017,-0.17348573,0.47678033,5
-5.212067127227783,9.560885429382324,0.98179292678833,-3.179050207138061,0.093462385,0.32009340000000003,5
-5.086840152740479,8.574248313903809,1.1261789798736572,-3.267568349838257,0.13988814,-0.061391957,5
-5.02368688583374,7.554160118103027,1.171762228012085,-3.371068239212036,0.464563,-0.33444872,5
-4.833486080169678,6.609832286834718,1.2953283786773682,-3.4342751502990723,0.56413406,-0.4914411,5
-4.562938213348389,5.902777671813965,1.484491944313049,-3.4145352840423584,0.56230146,-0.7079928000000001,5
-4.2600722312927255,5.508552551269531,1.7729859352111816,-3.3357410430908203,0.30726522,-0.6374379,5
-4.049544811248778,5.1499905586242685,2.1338531970977783,-3.1750950813293457,0.46120325,-0.5305365,5
-3.9512786865234375,4.743707180023193,2.603581666946411,-2.9828410148620605,0.5519168000000001,-0.50946164,5
-3.9995543956756587,4.3545312881469735,3.069919347763061,-2.7682206630706787,0.38789943,-0.44623706,5
-4.160423278808594,4.083388805389403,3.3952670097351074,-2.5164616107940674,0.3848451,-0.31245756,5
-4.3035502433776855,3.8690052032470703,3.6513733863830566,-2.233254194259644,0.37720928,-0.1020145,5
-4.400809288024902,3.648905277252197,3.8856201171875,-1.918814182281494,0.36346483,0.11148291,5
-4.464431285858153,3.4013454914093018,4.062788963317871,-1.5786038637161257,0.24801129,0.2742785,5
-4.4921226501464835,3.064095020294189,4.137976169586182,-1.2329065799713137,0.26328292,0.5045747,5
-4.434371948242188,2.755722761154175,4.27171802520752,-0.875054657459259,0.33536503,0.7684685,5
-4.3588647842407235,2.533222913742065,4.6820173263549805,-0.5296702384948729,0.2764165,0.9822713,5
-4.348543643951416,2.5630745887756348,5.338423728942871,-0.2494645118713379,0.06597344599999999,1.219287,5
-4.655683517456055,3.092973232269287,6.383944511413574,-0.0823589637875557,-0.5009095,1.0213667,5
-5.85342264175415,4.1670546531677255,7.508747577667236,-0.2036070078611374,-0.56199604,0.4156938,5
-7.014485359191895,4.715838432312012,7.289977550506593,-0.2948336899280548,0.9624182,0.35277468,5
-7.4745421409606925,4.127065658569337,6.644344806671143,-0.1006951630115509,0.82986045,0.42455134,5
-7.5782294273376465,3.6224052906036377,7.160200119018555,0.08133100718259811,-0.5018258,0.18081611,5
-7.1459293365478525,3.959814310073853,7.107922554016112,0.2597533166408539,-0.42394048,0.90010995,5
-6.874327659606934,4.815305709838867,6.6570801734924325,0.6183454394340515,0.22296582,0.9624182,5
-7.114360809326173,5.7361812591552725,6.739419937133789,0.7578766345977783,0.19272798,0.89888823,5
-7.087162971496582,6.060450553894043,6.401650905609131,0.9481374621391296,0.3387248,0.9016371,5
-6.690905570983888,6.121902942657472,6.053318500518799,1.192692518234253,0.13683382,0.86742866,5
-6.25880765914917,6.107908248901367,5.573479175567627,1.4376204013824463,0.15057829,0.74281216,5
-5.814187526702881,6.197470664978027,5.041497707366943,1.637651443481445,0.3032946,0.6612616,5
-5.412482738494873,6.449789047241211,4.605405807495117,1.8169999122619631,0.23182335,0.66889745,5
-5.13621187210083,6.795666694641112,4.219761371612549,1.98166823387146,0.26633725,0.7309003000000001,5
-4.976066112518311,7.010450839996338,3.972501516342163,2.1108660697937007,0.17348573,0.8940013000000001,5
-4.860575199127197,6.856156826019287,3.818436145782471,2.210867166519165,0.16523905,0.7461719,5
-4.73364782333374,6.514678478240968,3.6089763641357417,2.308642864227295,0.15974127,0.44684792,5
-4.5718727111816415,6.273379802703857,3.3140008449554443,2.416720151901245,0.22143865,0.31520647,5
-4.433129787445068,6.184666156768799,3.001914978027344,2.498627185821533,-0.10048734,0.16401732,5
-4.36600399017334,6.258766174316406,2.578775405883789,2.5137360095977783,0.06994407,0.13958271,5
-4.357770919799806,6.530367374420166,2.1244091987609863,2.4564085006713867,0.12614368,0.18784106,5
-4.344513416290283,6.8482160568237305,1.7993943691253662,2.3329644203186035,-0.048258353,0.29016098,5
-4.300629615783691,7.143128871917725,1.5632342100143433,2.186372995376587,0.00580322,0.33841935,5
-4.2215609550476065,7.410988807678223,1.3638862371444702,2.0629317760467534,-0.09254608,0.42455134,5
-4.1277289390563965,7.619405269622803,1.147568941116333,1.9684162139892576,-0.21410827,0.3109304,5
-4.0955114364624015,7.7700438499450675,0.9466160535812378,1.851237177848816,-0.31581733,0.15302174,5
-4.054291248321533,7.853734016418457,0.7413976788520813,1.710826396942139,-0.33108896,0.10995574,5
-3.954921722412109,7.987274169921875,0.4818146824836731,1.5723005533218384,-0.4352415,0.12308934,5
-3.8652327060699454,8.238956451416017,0.05877823755145072,1.452019453048706,-0.26236662,0.06719518,5
-3.925295352935791,8.633045196533201,-0.3894902467727661,1.3274132013320925,0.15424347,0.01985312,5
-4.119848728179932,9.044301986694336,-0.6408556699752808,1.168274998664856,0.55680364,0.048258353,5
-4.268431663513184,9.332842826843262,-0.4340555369853973,0.9951639771461488,0.053450707,0.14110987,5
-4.308920383453368,9.385828971862793,0.013474155217409134,0.8334687948226929,-0.56596667,0.09773844,5
-4.296004772186278,9.281533241271973,0.24585340917110446,0.7389907836914062,-0.7367035,0.095294975,5
-4.255831718444823,9.298932075500488,0.0336884967982769,0.6854702830314636,-0.5665775,0.087659165,5
-4.226696968078613,9.49367618560791,-0.5057623982429504,0.6043890714645386,-0.14538592,0.16432275,5
-4.147628784179688,9.465616226196287,-0.9045796990394592,0.4880100190639496,0.056199603,0.10720685,5
-4.089808464050293,9.250656127929688,-1.0547047853469849,0.3824893534183502,0.0021380284,-0.01282817,5
-4.061052322387694,8.979125022888184,-1.2499868869781494,0.28325945138931274,-0.027183503,-0.059864793,5
-4.0601515769958505,8.684286117553711,-1.3928018808364868,0.2372965961694717,-0.048563786,-0.06566802,5
-4.0823755264282235,8.447102546691895,-1.3648582696914673,0.2453579604625702,0.06505715,-0.08796459400000001,5
-4.086055278778076,8.313880920410156,-1.2343242168426514,0.2675793766975403,-0.020158553,-0.16768251,5
-4.085395812988281,8.410565376281737,-1.2080717086791992,0.28622713685035706,-0.15882497,-0.18295415,5
-4.157392501831056,8.702629089355469,-1.3813256025314329,0.3018881380558014,-0.046120327,-0.10293079,5
-4.279706954956056,8.982254028320312,-1.643782377243042,0.279817134141922,0.18417588,-0.02565634,5
-4.424429893493652,9.101136207580566,-1.8045947551727293,0.20845036208629608,0.29840767,0.018020526,5
-4.494688510894775,9.090731620788574,-1.769836187362671,0.1308901011943817,0.18081611,0.043982297,5
-4.527063846588135,8.992457389831543,-1.5778082609176636,0.07267916202545166,-0.19914207,0.053450707,5
-4.584695816040039,8.792389869689941,-1.3551576137542725,0.05426852032542229,-0.6252206,-0.013439035,1
-4.649906635284424,8.567955017089844,-1.3312534093856812,0.05689551308751106,-0.63041294,-0.0983493,1
-4.675906181335449,8.428186416625978,-1.530602216720581,0.05159321054816246,-0.28252518,-0.13347405,1
-4.606968879699707,8.411773681640625,-1.6696470975875854,0.04520031437277794,0.098043874,-0.14813483,1
-4.457738876342773,8.523926734924316,-1.6198043823242188,0.04316068813204765,0.06169739,-0.08552113,1
-4.350486278533936,8.65164852142334,-1.5438547134399414,0.04798312857747078,0.02687807,0.0030543262,1
-4.350133419036865,8.718052864074707,-1.528879165649414,0.0520668588578701,0.08216137400000001,0.01282817,1
-4.4399752616882315,8.745774269104004,-1.5675721168518066,0.041725292801857,0.19150625,-0.004886922,1
-4.547439098358153,8.746243476867676,-1.5649142265319824,0.017657725140452385,0.16432275,-0.019242255,1
-4.625555515289307,8.720771789550781,-1.5181632041931152,-0.005763233173638582,0.0580322,-0.018936822,1
-4.674413681030273,8.677628517150879,-1.4555709362030032,-0.014965634793043138,-0.10048734,-0.0036651916,1
-4.688141345977783,8.620750427246094,-1.4163854122161863,-0.015236026607453825,-0.21899518,0.00061086525,1
-4.689391613006592,8.561613082885742,-1.430561065673828,-0.01507571991533041,-0.21135938,-0.014966198,1
-4.70654296875,8.535769462585451,-1.503950834274292,-0.02059885114431381,-0.03390302,-0.018020526,1
-4.715561389923097,8.534666061401367,-1.564175724983215,-0.031151240691542625,0.038789943,-0.026572637000000003,1
-4.688200950622559,8.558106422424316,-1.5767534971237185,-0.04078291356563568,0.018020526,-0.0067195175,1
-4.65281867980957,8.593148231506348,-1.5459434986114502,-0.048909686505794525,0.022602014,0.010079277,1
-4.655317783355713,8.631587982177733,-1.4652558565139768,-0.057372841984033585,-0.002443461,0.02076942,1
-4.6903953552246085,8.663057327270508,-1.3847841024398804,-0.06493233889341354,-0.023823744,0.025961773,1
-4.696784496307373,8.669971466064451,-1.3020315170288086,-0.06831978261470795,-0.06597344599999999,0.023518313,1
-4.665264129638672,8.643424987792969,-1.2609829902648926,-0.06071234866976737,-0.11026118,-0.0036651916,1
-4.637326717376709,8.605448722839355,-1.2937068939208984,-0.04690244793891907,-0.06688975,-0.015882496,1
-4.6357994079589835,8.581211090087889,-1.3266744613647459,-0.03686916083097458,0.018936822,-0.030848695,1
-4.649150848388672,8.578857421875,-1.3236639499664309,-0.03709840029478073,0.047036625,-0.0143553335,1
-4.664573192596436,8.586702346801758,-1.2927769422531128,-0.03496536612510681,0.031154128,0.0009162979,1
-4.664191246032715,8.588123321533201,-1.2796761989593506,-0.029373396188020706,0.01863139,0.0070249503,1
-4.665074348449707,8.590450286865233,-1.2979816198349,-0.02451770752668381,0.04550946,-0.0012217305,1
-4.675803661346436,8.590831756591799,-1.321528673171997,-0.0199600737541914,0.07086037,0.0015271631,1
-4.687361717224121,8.570786476135254,-1.333920121192932,-0.014859477058053015,0.051923547,-0.0061086523,1
-4.6954498291015625,8.558231353759767,-1.3396885395050049,-0.01115493942052126,0.035430185,-0.0125227375,1
-4.703110694885254,8.562222480773926,-1.346831440925598,-0.007681031711399554,0.030848695,-0.0018325958,1
-4.697012901306152,8.579339981079103,-1.349177598953247,-0.006427275948226453,0.008246681,-0.011911872,1
-4.687699794769287,8.599260330200195,-1.3587267398834229,-0.005609335843473673,0.03634648,-0.0030543262,1
-4.675756931304932,8.618344306945799,-1.3431315422058103,-0.00841955840587616,0.046120327,0.0143553335,1
-4.6669020652771,8.640860557556152,-1.3052268028259275,-0.014568868093192576,0.03756821,0.020463986,1
-4.6510772705078125,8.645730972290039,-1.2771544456481934,-0.017279723659157753,0.005497787,0.024129177,1
-4.641101837158203,8.629905700683594,-1.2830331325531006,-0.013985117897391321,-0.019242255,0.016187929,1
-4.644720554351807,8.613905906677246,-1.3126174211502075,-0.011565947905182837,-0.007941248,0.018020526,1
-4.657058238983153,8.604759216308594,-1.332125186920166,-0.01266688760370016,0.008552114,0.0061086523,1
-4.662354946136475,8.608470916748049,-1.3348917961120603,-0.015411384403705597,0.016493361,0.012217305,1
-4.658118724822998,8.616436958312987,-1.3345412015914917,-0.018010271713137627,0.008857545999999999,0.014966198,1
-4.652365684509277,8.626709938049316,-1.3426659107208252,-0.02085262909531593,0.013744468,0.01985312,1
-4.649393081665039,8.63078784942627,-1.3486788272857666,-0.023473314940929413,0.018325957,0.019547688,1
-4.651118278503418,8.629238128662111,-1.349406361579895,-0.026545392349362373,0.00580322,0.018936822,1
-4.659323692321777,8.622481346130371,-1.3468183279037476,-0.027283407747745514,0.015271631,0.015271631,1
-4.665014266967773,8.618863105773926,-1.3456779718399048,-0.02854068949818611,0.009162978,0.01740966,1
-4.667638301849365,8.620800018310549,-1.3380367755889893,-0.02955813147127628,0.010079277,0.01985312,1
-4.6626296043396,8.619054794311522,-1.3385854959487915,-0.029056167230010036,0.023518313,0.016493361,1
-4.656880855560303,8.614772796630861,-1.3544366359710691,-0.028753679245710376,0.02107485,0.014966198,1
-4.6495537757873535,8.608763694763184,-1.371691107749939,-0.026938240975141525,0.028710667,0.011911872,1
-4.643775939941406,8.607126235961914,-1.3880033493041992,-0.02621137350797653,0.040317107000000005,0.012217305,1
-4.643437385559082,8.613204956054688,-1.391359567642212,-0.0256626196205616,0.053145275,0.017104227,1
-4.646618366241455,8.61630916595459,-1.3860567808151243,-0.02546853758394718,0.040317107000000005,0.01863139,1
-4.649537086486816,8.622296333312987,-1.3804303407669067,-0.02719939313828945,0.02443461,0.01863139,1
-4.655413627624512,8.625852584838867,-1.38055419921875,-0.029370388016104695,0.02107485,0.025045475,1
-4.662447452545166,8.630181312561035,-1.3838443756103516,-0.032837413251399994,0.027183503,0.01863139,1
-4.669503688812256,8.633745193481445,-1.3899415731430054,-0.03500744327902794,0.018325957,0.025045475,1
-4.66957950592041,8.637640953063965,-1.4012256860733032,-0.03666060045361519,0.003970624,0.016187929,1
-4.657956123352051,8.634228706359862,-1.413013219833374,-0.03940558433532715,0.010995574,0.020158553,1
-4.646461486816406,8.635312080383299,-1.4153355360031128,-0.04344993084669113,0.0027488936,0.016798794,1
-4.629528522491455,8.637947082519531,-1.4002491235733032,-0.04710768908262253,-0.0015271631,0.027183503,1
-4.614317417144775,8.637907981872559,-1.4096733331680298,-0.0510878935456276,0.004276057,0.021991149,1
-4.597909927368164,8.646112442016603,-1.4159380197525024,-0.053715772926807404,0.010079277,0.028405234,1
-4.5883445739746085,8.650937080383299,-1.4188581705093384,-0.054582159966230386,0.004886922,0.01985312,1
-4.586197376251222,8.648605346679688,-1.420756220817566,-0.056387476623058326,0.01160644,0.0143553335,1
-4.585460662841797,8.645641326904299,-1.4134255647659302,-0.05781277641654015,0.010690141499999998,0.0143553335,1
-4.586067199707031,8.643630981445312,-1.4023417234420776,-0.06058556213974953,0.02565634,0.014660766,1
-4.592649459838867,8.647302627563478,-1.398807168006897,-0.0646902322769165,0.028405234,0.014966198,1
-4.600178718566895,8.660561561584473,-1.3797061443328855,-0.0707690492272377,0.029932396,0.020158553,1
-4.5982747077941895,8.664516448974611,-1.3586256504058838,-0.07417657971382141,0.022296581,0.030543262,1
-4.593415260314941,8.665770530700684,-1.3447270393371582,-0.07589758187532425,0.0027488936,0.023823744,1
-4.596960544586182,8.670871734619139,-1.3347941637039185,-0.07744953036308289,0.01038471,0.032375857,1
-4.603343486785889,8.673107147216799,-1.325317144393921,-0.08076191693544388,0.0009162979,0.023823744,1
-4.605253219604492,8.670469284057617,-1.309114694595337,-0.08558818697929382,-0.0030543262,0.019547688,1
-4.607565879821777,8.662657737731934,-1.296594262123108,-0.09061945974826813,0.015882496,0.015882496,1
-4.6099281311035165,8.655623435974121,-1.28056001663208,-0.09487870335578917,0.010995574,0.020158553,1
-4.606349468231201,8.652063369750978,-1.260907530784607,-0.09743669629096983,0.00580322,0.01160644,1
-4.601859092712402,8.657291412353517,-1.2412209510803225,-0.10245392471551897,0.0076358155,0.01740966,1
-4.602834701538086,8.668935775756836,-1.2124505043029783,-0.1064888834953308,0.007330383,0.022907447,1
-4.6032371520996085,8.672806739807129,-1.1822659969329834,-0.10829241573810576,0.0076358155,0.025961773,1
-4.606364727020264,8.66796875,-1.1675693988800049,-0.10677137225866318,-0.015882496,0.02321288,1
-4.610942840576172,8.667281150817871,-1.1598955392837524,-0.10453595221042633,-0.010690141499999998,0.022296581,1
-4.617589473724365,8.662178993225098,-1.1547174453735352,-0.09926851838827133,-0.010690141499999998,0.020463986,1
-4.626906871795653,8.65350341796875,-1.1477773189544678,-0.09227550774812697,0.004276057,0.016493361,1
-4.6384477615356445,8.648401260375978,-1.1413000822067259,-0.08587660640478134,0.016798794,0.021380283,1
