acc_x,acc_y,acc_z,gyro_x,gyro_y,gyro_z,label
0.0,0.0,0.0,0.0,0.022296581,0.0033597588,1
-0.045877065509557724,0.2805997729301453,-0.04552441835403442,-0.0006840664427727461,0.027488936,-0.008246681,1
-0.1564263552427292,0.9496696591377258,-0.15333592891693115,-0.002316879574209452,0.0076358155,-0.003970624,1
-0.3112537860870361,1.875577688217163,-0.30136048793792725,-0.004518462810665369,0.015882496,-0.0012217305,1
-0.4869756102561951,2.9124605655670166,-0.4656372964382172,-0.006704207044094801,0.021685716,0.004276057,1
-0.6642929315567017,3.94290828704834,-0.6271833777427673,-0.010064682923257351,0.01985312,0.0027488936,1
-0.8307435512542725,4.893109321594238,-0.7742747068405151,-0.012537302449345587,0.016798794,-0.005497787,1
-0.9801021218299866,5.727879524230957,-0.9015044569969176,-0.014321400783956053,0.032070424,-0.0018325958,1
-1.1104445457458496,6.438426971435548,-1.0077558755874634,-0.014988450333476068,0.014966198,-0.0021380284,1
-1.218891143798828,7.031983852386475,-1.1055694818496704,-0.013890740461647509,0.011911872,0.00061086525,1
-1.3047500848770142,7.5193257331848145,-1.247281789779663,-0.013580067083239557,0.029626964,-0.00030543262000000003,1
-1.3842658996582031,7.918362140655518,-1.3094713687896729,-0.01370068546384573,0.04550946,-0.0030543262,1
-1.433213472366333,8.253230094909668,-1.3641260862350464,-0.015192287974059582,0.01863139,-0.0033597588,1
-1.4745482206344604,8.520801544189451,-1.3939589262008667,-0.016867436468601227,0.0143553335,-0.010079277,1
-1.5128291845321655,8.724425315856934,-1.3825442790985107,-0.016661716625094414,0.0125227375,-0.0061086523,1
-1.5438381433486938,8.881680488586426,-1.3514314889907837,-0.01636981032788754,0.027488936,-0.005192355,1
-1.5729926824569702,9.00482177734375,-1.3456687927246094,-0.01736176572740078,0.041233405,-0.0033597588,1
-1.6059187650680542,9.110174179077148,-1.37664532661438,-0.018492009490728382,0.106595986,-0.011911872,1
-1.6358963251113892,9.196897506713867,-1.4568063020706177,-0.02452516742050648,0.17745635,-0.029321533,1
-1.6299148797988892,9.258081436157227,-1.5706968307495115,-0.03370686247944832,0.20769419,-0.069027774,1
-1.584734320640564,9.323126792907717,-1.7413257360458374,-0.050781920552253716,0.21380283,-0.094989546,5
-1.52083158493042,9.411109924316406,-1.9309422969818115,-0.06588710844516754,0.20372356,-0.077579886,5
-1.4556756019592283,9.485400199890137,-2.056326389312744,-0.06405274569988251,0.20708331,-0.04428773,5
-1.4189457893371582,9.49655055999756,-2.0803663730621342,-0.05567746236920357,0.21868975,-0.03756821,5
-1.4136079549789429,9.484166145324707,-1.975555777549744,-0.05619502067565918,0.26053402,-0.074830994,5
-1.4125876426696775,9.50227165222168,-1.777626395225525,-0.06495759636163713,0.2764165,-0.1133155,5
-1.3909378051757812,9.578673362731934,-1.5357351303100586,-0.07567110657691956,0.20830505,-0.124311075,5
-1.3659088611602783,9.68228244781494,-1.3494702577590942,-0.08606602996587752,0.1020145,-0.10323623,5
-1.33757221698761,9.76663875579834,-1.2325423955917358,-0.09818723052740096,0.054061573,-0.06505715,5
-1.316498875617981,9.811141967773438,-1.2076722383499146,-0.11135921627283096,0.11453723,-0.03176499,5
-1.3044074773788452,9.860835075378418,-1.2480134963989258,-0.1369009166955948,0.25534168,-0.019242255,5
-1.2927634716033936,9.945183753967283,-1.2865822315216064,-0.1826603263616562,0.35308012,-0.0012217305,5
-1.2875680923461914,10.057761192321776,-1.25455641746521,-0.2584187090396881,0.45112398,0.025961773,5
-1.274329662322998,10.171634674072266,-1.1257061958312988,-0.3747077584266663,0.43371433,0.05681047,5
-1.2628703117370603,10.27556324005127,-0.9139294028282166,-0.5428134799003601,0.42149702,0.108123146,5
-1.2565871477127075,10.366331100463867,-0.6619660258293152,-0.7601323127746582,0.63132924,0.21685717,5
-1.2929452657699585,10.545655250549316,-0.2872049510478973,-1.0131468772888184,0.7602218000000001,0.398895,5
-1.532684087753296,11.119179725646973,0.3711327016353607,-1.3086286783218384,0.85918194,0.5021312,5
-1.7967098951339722,11.823637962341307,1.189546823501587,-1.6807700395584106,0.5555819000000001,0.5198463,5
-1.9796314239501955,12.404703140258787,2.073358058929444,-2.112227201461792,-0.12492194,0.3827071,5
-1.847719669342041,12.811541557312012,2.837531089782715,-2.493426561355591,0.31520647,0.31948254,5
-1.2265034914016724,13.243337631225586,2.9993009567260738,-2.8297028541564937,1.1600331,0.5714644,5
-0.6439292430877686,13.344593048095705,2.5560390949249268,-3.029226064682007,1.5674802,0.4877759,5
-0.785470724105835,12.673895835876465,1.700548529624939,-3.2297976016998287,2.1560488,-0.10629055,5
-1.4372290372848509,11.566306114196776,1.174523949623108,-3.4223401546478267,2.2162192000000003,-0.35216382,5
-1.9781407117843628,10.49513053894043,1.6754705905914309,-3.5938656330108643,0.99082345,-0.5897904,5
-2.2462403774261475,9.627486228942873,2.230730533599853,-3.64052414894104,0.91507614,-0.7156286000000001,5
-2.3468422889709477,9.008402824401855,2.606023073196411,-3.5760035514831543,0.87781334,-0.42821655,5
-2.319481611251831,8.482612609863281,2.8360416889190674,-3.44132137298584,1.1239921,-0.39645153,5
-2.2403504848480225,7.940846443176269,2.987914562225342,-3.277730226516724,1.1884383,-0.35827246,5
-2.277628183364868,7.1932454109191895,3.1454265117645264,-3.0590217113494877,0.9569204,-0.40103304,5
-2.3724958896636963,6.330933094024657,3.2651073932647705,-2.774237632751465,0.74464476,-0.29901853,5
-2.3799421787261963,5.387516975402832,3.3894195556640625,-2.42563796043396,0.51251596,-0.116675265,5
-2.3105382919311523,4.549734115600586,3.6007599830627437,-2.0148351192474365,0.28771752,0.105374254,5
-2.23286509513855,3.9437217712402335,4.009897708892821,-1.5606600046157837,-0.31245756,0.24617869,5
-2.1519758701324463,3.5278565883636475,4.421504020690918,-1.135696530342102,-0.50976706,0.43890667,5
-2.0064308643341064,3.2732901573181152,5.012624263763428,-0.7608088254928589,-0.8206975000000001,0.68661255,5
-1.9280450344085691,3.1235806941986084,5.695879459381104,-0.4244459867477417,-0.7644979000000001,0.7993172,5
-1.843796133995056,3.077296495437622,6.1964454650878915,-0.12377622723579408,-0.7147123000000001,0.947452,5
-1.8179459571838381,3.080582618713379,6.925241470336914,0.1521214246749878,-0.98990715,0.7275404999999999,5
-2.2724549770355225,3.5237061977386475,7.5244483947753915,0.3395459055900574,-0.58368176,0.3109304,5
-2.757802963256836,4.557438373565674,7.761949062347412,0.5077036619186401,-0.42638394,0.4120286,5
-2.3072543144226074,5.1343040466308585,7.793839931488037,0.7101121544837952,-1.2641857,0.59712076,5
-2.0781111717224117,5.423818111419678,7.5309104919433585,0.9610424637794496,-1.6206254999999998,0.70096785,5
-2.388491630554199,6.250241756439209,7.175153255462647,1.1368247270584106,-1.0842858999999998,0.73975784,5
-2.7653112411499023,7.552248477935791,7.017086982727051,1.3569921255111694,-1.9233092,0.54550266,5
-3.0559661388397217,8.499916076660156,6.528618335723878,1.5859893560409546,-2.0030272,0.3304781,5
-3.09121036529541,8.88444709777832,5.950626850128174,1.7799471616744995,-1.9865338,0.18325958,5
-2.8673248291015625,9.044246673583984,5.4726176261901855,1.9488929510116575,-2.2702806,-0.020463986,5
-2.55460524559021,9.264982223510742,4.913229465484619,2.101490259170532,-2.225382,-0.24617869,5
-2.1960668563842773,9.555335998535156,4.364672660827637,2.238243103027344,-2.436436,-0.4352415,5
-1.8778393268585205,9.790627479553224,3.693395376205444,2.346565723419189,-1.9193386,-0.63346726,5
-1.5995898246765137,9.927273750305176,2.8858017921447754,2.4033665657043457,-1.6847663,-0.63529986,5
-1.3909969329833984,9.90083122253418,2.3438453674316406,2.4425411224365234,-1.8643607,-0.64904433,5
-1.2024582624435425,9.820552825927734,1.6710549592971802,2.49751615524292,-1.3341297,-0.8356636999999999,5
-0.8168754577636719,9.731897354125977,0.9366820454597472,2.526577472686768,-0.10262536,-0.93218035,5
-0.18660160899162287,9.646551132202148,0.5122138857841492,2.4629201889038086,0.61941737,-0.72784597,5
0.30570080876350403,9.426166534423828,0.5523968338966371,2.3862509727478027,0.4202753,-0.56107974,5
0.5080810785293579,9.036087036132812,0.9106264710426332,2.369215965270996,-0.41355577,-0.4361577999999999,5
0.5900335311889648,8.59952449798584,1.1744967699050903,2.372053861618042,-0.64660084,-0.3408628,5
0.7758876085281372,8.254961013793945,1.3388670682907104,2.319230318069458,-0.8231409,-0.2593123,5
1.0296807289123535,8.156037330627441,1.4117493629455566,2.2129480838775635,-1.0800097,-0.2012801,5
1.1893502473831177,8.310441970825195,1.3876094818115234,2.070137023925781,-0.95386606,-0.26358834,5
1.2078341245651243,8.642159461975098,1.4315853118896484,1.8731765747070312,-0.6881397,-0.3747658,5
1.2035924196243286,9.136109352111816,1.6155351400375366,1.6128721237182615,-1.2586879,-0.26511553,5
1.1661980152130127,9.736128807067873,1.4621905088424685,1.3473316431045532,-0.09712757,-0.12858713,5
1.1635574102401731,10.18956470489502,1.2882899045944214,1.1584336757659912,-0.28680122,-0.099265605,5
1.156036138534546,10.433353424072266,1.2067724466323853,1.0167642831802368,-0.95233893,-0.098043874,5
0.7947132587432861,10.780529022216797,0.9857224822044371,0.8803764581680298,-0.9224065,-0.21135938,5
0.09047646075487137,11.453638076782227,0.6155537366867065,0.6723780035972595,-0.75961095,-0.3136793,5
-0.6380422711372375,12.546810150146484,0.15759769082069394,0.4002841413021088,0.8866709,-0.20341812,5
-0.8125700950622559,13.791422843933105,0.2533454895019531,-0.008133015595376492,1.2880094,-0.025961773,5
-0.7071530222892761,14.681641578674315,1.0359225273132324,-0.5415220856666565,0.95356065,0.18661933,5
-0.5975524187088013,15.129515647888185,2.2780749797821045,-1.190424561500549,-1.2186762,0.43188173,5
-0.5630984902381897,15.191332817077635,2.9939053058624268,-1.7836880683898926,-2.111761,1.0574077,5
-0.660309910774231,15.150744438171387,2.744209289550781,-2.10159683227539,-1.2315043,1.1951579,5
-0.5992293357849121,14.919363021850586,1.421816349029541,-2.2477352619171143,0.5491679,1.3759739,5
-0.5723357796669006,14.258386611938475,-0.45431864261627203,-2.4260694980621342,1.5940529,1.4193454,5
-0.8388974666595459,13.188319206237793,-1.9583177566528318,-2.6233935356140137,3.0503557,1.0473285,5
-1.2568496465682983,12.208026885986328,-1.3441344499588013,-2.8674986362457275,2.8081474,0.6637050999999999,5
-1.725817322731018,11.525297164916992,-0.12983328104019165,-3.1117331981658936,1.4068227,0.48349985,5
-1.967382311820984,10.852553367614746,0.19282126426696775,-3.2046449184417725,1.1914927,0.47647488,5
-2.0496900081634517,9.96662712097168,0.24190478026866916,-3.250473499298096,1.4391985,0.30390546,5
-2.057454824447632,8.960792541503906,0.2655115127563477,-3.247899293899536,1.5891659,0.006414085,5
-2.002734422683716,8.118732452392576,0.2836627662181854,-3.1977355480194087,1.3316863,-0.016493361,5
-1.8744388818740845,7.375258922576903,0.29557588696479803,-3.05124831199646,1.5604553,-0.116675265,5
-1.635499358177185,6.651212215423584,0.33769601583480835,-2.8559000492095947,1.8353447,-0.087659165,5
-1.3974584341049194,5.847194194793701,0.5017944574356079,-2.600005626678467,1.593442,0.018325957,5
-1.2838668823242188,4.963383674621582,0.8658444285392761,-2.2662346363067627,0.7779369,0.07422013,5
-1.2821420431137085,4.106804847717285,1.400610327720642,-1.8954896926879885,0.17318029999999998,0.11575896,5
-1.1427448987960815,3.6297125816345215,1.9883852005004885,-1.5138063430786133,0.21288654,0.3659083,5
-0.8724792003631592,3.5728063583374023,2.85555362701416,-1.1445189714431765,0.344528,0.6765333,5
-0.5531237721443176,3.7201316356658936,4.005928039550781,-0.7542364001274109,-0.014660766,1.0711522,5
-0.3576425015926361,3.812558889389038,4.838535785675049,-0.3043367266654968,-0.2171626,1.1704178,5
-0.3868593871593475,3.584677457809448,4.674043655395508,0.2638559639453888,-1.0546589,0.9966267,5
-0.8520753383636475,3.6389667987823486,5.53502082824707,0.8045255541801453,-2.9422324,0.4990769000000001,5
-1.515987753868103,5.319705009460449,6.351025104522705,1.0600458383560178,-0.19211712,0.65057147,5
-1.6599738597869873,7.645468711853027,6.601471424102782,1.3789517879486084,-2.2574525000000003,0.4529566,5
-1.6726781129837036,9.09829044342041,6.134768486022949,1.5536556243896484,-1.385137,0.37659842,5
-1.727999210357666,9.041988372802734,5.433562755584717,1.7164595127105713,-1.2479976000000002,0.1020145,5
-1.7547366619110107,8.494207382202147,4.778246402740479,1.8763283491134644,-1.5189165,-0.32986724,5
-1.665341854095459,8.51166820526123,4.218369007110597,2.0294406414031982,-1.3026701,-0.5488624,5
-1.6191552877426147,9.196481704711914,3.70273232460022,2.1427993774414062,-1.2021828,-0.7049385,5
-1.6463797092437744,9.8186616897583,3.233651161193848,2.1836822032928467,-1.4501941,-0.7165449,5
-1.4706597328186035,9.932011604309082,2.822925806045532,2.2719042301177983,-1.7592918999999998,-0.559858,5
-1.1255342960357666,9.760802268981934,2.211343765258789,2.3758885860443115,-1.4214833999999998,-0.57971114,5
-0.6872460246086121,9.574560165405273,1.423370599746704,2.438661336898804,-0.54336464,-0.6053675000000001,5
-0.20131587982177732,9.46904754638672,0.8391705751419067,2.426078081130981,0.50915617,-0.50915617,5
0.12011536955833435,9.306337356567383,0.7249297499656677,2.3410160541534424,0.52626044,-0.58368176,5
0.17784032225608826,9.06149673461914,0.8805953860282898,2.234455347061157,0.18478674,-0.76144356,5
0.14475861191749573,8.834388732910156,1.1038511991500854,2.1229851245880127,-0.03604105,-0.7516696999999999,5
0.2273077517747879,8.649861335754395,1.2692630290985107,2.0144777297973637,-0.1777618,-0.52656585,5
0.433016300201416,8.535579681396483,1.411288142204285,1.9045467376708984,-0.691194,-0.23671028,5
0.6223902702331543,8.563036918640138,1.3897913694381714,1.7910163402557373,-0.91813046,-0.08216137400000001,5
0.7653923034667969,8.672073364257812,1.164101243019104,1.6691453456878662,-0.5036584,-0.12308934,5
0.8873907327651978,8.830190658569336,1.0023293495178225,1.5418459177017212,-0.7171558000000001,-0.14049901,5
0.9429281949996948,9.152753829956056,0.9148111939430236,1.4083187580108645,-0.6817255999999999,-0.12705997,5
0.9472395181655884,9.666433334350586,0.7242602109909058,1.252899169921875,-0.46609017,-0.15485434,5
0.9170634746551514,10.104124069213867,0.470202773809433,1.1103607416152954,-0.074830994,-0.102319926,5
0.7902475595474243,10.370595932006836,0.4501754641532898,1.0152944326400757,-0.12064589,-0.18478674,5
0.6108182668685913,10.719085693359377,0.5397837162017822,0.9142309427261353,-0.4474588,-0.20952678,5
0.30053961277008057,11.25497055053711,0.4027460813522339,0.7500984668731691,-0.29046643,-0.24953845,5
-0.10281578451395036,12.007002830505373,0.13546861708164215,0.5224139094352722,0.022296581,-0.20066923,5
-0.4336039125919342,12.860932350158693,0.08424399048089981,0.257126659154892,0.1554652,-0.06719518,5
-0.598222017288208,13.678145408630373,0.3149458169937134,-0.05592713877558708,-0.04795292,0.17623462,5
-0.6584370136260986,14.32608413696289,0.697979748249054,-0.4627299904823303,-0.25411993,0.40133846,5
-0.714069128036499,14.596985816955565,1.1822831630706787,-0.9996532201766968,-0.41141775,0.44226643,5
-0.602341890335083,14.956547737121582,1.7650558948516846,-1.645409345626831,-0.87017757,1.0665708,5
-0.6180287003517151,15.37734317779541,1.9301754236221316,-2.086883068084717,-1.4114041000000002,1.4957036,5
-0.7290812134742737,15.410486221313475,1.1017599105834959,-2.253977537155152,0.70524395,1.5137241,5
-0.7162414193153381,14.929523468017578,0.005687792785465717,-2.401987314224243,1.679574,1.3457361,5
-0.7271066904067993,14.088615417480467,-0.9782590866088868,-2.5742290019989014,1.5968018,1.0998629,5
-1.0085105895996094,13.070186614990234,-1.731696844100952,-2.7270123958587646,2.9691105,0.72784597,5
-1.3962093591690063,12.036953926086426,-1.3045324087142944,-2.974285125732422,2.2992969,0.41355577,5
-1.6573259830474854,11.289609909057615,-0.4490031898021698,-3.1647424697875977,1.3991868,0.5693264,5
-1.786953687667847,10.554235458374023,-0.2709486186504364,-3.247465848922729,1.6261233,0.6740898,5
-1.839811444282532,9.529701232910156,-0.2664799392223358,-3.3013129234313965,1.452943,0.3827071,5
-1.8427613973617556,8.441367149353027,-0.26796382665634155,-3.3058907985687256,1.5705346000000002,0.08521569999999999,5
-1.8021628856658936,7.479979038238525,-0.2313394099473953,-3.256230115890503,1.5247196,-0.051618114000000014,5
-1.605068564414978,6.678286552429199,-0.16348686814308167,-3.0963375568389893,1.7531831999999998,-0.06719518,5
-1.35781991481781,5.855590343475343,-0.04320959001779556,-2.8722143173217773,1.8894062,-0.12064589,5
-1.2255359888076782,5.12078857421875,0.3180502951145172,-2.5751078128814697,1.5815301000000002,-0.060170225999999986,5
-1.3138835430145264,4.410658836364746,0.9968727231025696,-2.2005207538604736,0.6582073,-0.015882496,5
-1.4808098077774048,3.873160600662232,1.7210131883621216,-1.7870279550552368,0.2171626,0.13133603,5
-1.4280436038970947,3.72937273979187,2.584564208984375,-1.393646240234375,-0.116675265,0.45570546,5
-1.1794672012329102,3.879641056060791,3.6472318172454834,-0.9974870085716248,-0.31031954,0.73731434,5
-0.9240146279335022,4.035975456237793,4.686325073242188,-0.5593258738517761,-0.24831672,0.8698720999999999,5
-0.8023868203163147,3.997215032577514,5.0733842849731445,-0.03548721969127655,-0.6270532,0.7654141999999999,5
-0.8727703690528871,3.9075531959533687,5.3939247131347665,0.5293846130371094,-2.2464569,0.5366451,5
-1.2804672718048096,4.621450901031494,5.9920597076416025,0.9136281609535216,-1.0790935,0.46486846,5
-1.4482321739196775,6.7798218727111825,6.2745747566223145,1.266611933708191,-1.844813,0.46120325,5
-1.547623872756958,8.430194854736326,6.076200485229492,1.540527582168579,-1.7330247,0.49632803,5
-1.7484922409057615,8.774455070495605,5.490747928619385,1.7629557847976685,-1.9709567,0.22785273,5
-1.8260867595672607,8.601766586303711,4.8315463066101065,1.958146810531616,-1.2412782,-0.16371189,5
-1.5513083934783936,8.645947456359862,4.3092923164367685,2.1233446598052983,-1.4022411,-0.43371433,5
-1.273188233375549,9.191932678222656,3.873172044754028,2.234623670578003,-1.0311406,-0.54825157,5
-1.253833293914795,9.77696418762207,3.457322359085083,2.261557102203369,-0.8866709,-0.8509353000000001,5
-1.2784976959228516,10.205453872680664,3.1333043575286865,2.296049833297729,-1.720502,-0.8622363000000001,5
-1.145230054855347,10.278874397277832,2.550503253936768,2.383074760437012,-1.575116,-0.83169305,5
-0.9112344980239868,10.165384292602539,1.8402818441390991,2.4599032402038574,-1.0885619,-0.7535023000000001,5
-0.5805719494819641,10.098493576049805,1.029654026031494,2.489179372787476,-0.0067195175,-0.6740898,5
-0.1928039789199829,10.092015266418457,0.4729672074317932,2.4543402194976807,0.5103779,-0.45478916,5
0.12938018143177032,10.00275421142578,0.4375718235969544,2.416247606277466,0.108123146,-0.3943135,5
0.3111375868320465,9.70218276977539,0.7107294201850891,2.390575170516968,-0.46639562,-0.45845437,5
0.3433886766433716,9.271017074584961,0.8871336579322815,2.3463294506073,-0.44532076,-0.4456262,5
0.3323589861392975,8.876265525817871,0.996078372001648,2.260339975357056,-0.6554584,-0.39645153,5
0.4263301193714142,8.612176895141603,1.1315908432006836,2.1303868293762207,-1.1478158,-0.36987892,5
0.518020510673523,8.523138999938965,1.144851565361023,1.9816865921020508,-1.097114,-0.3631594,5
0.6896372437477112,8.636075019836426,1.1676229238510132,1.812583923339844,-0.9462303,-0.30298916,5
0.9310925006866456,9.024800300598145,1.070862889289856,1.627627730369568,-1.0097603000000002,-0.23182335,5
1.0823711156845093,9.71252155303955,0.7142601013183594,1.412314772605896,-0.29749137,-0.14172074,5
1.0288702249526978,10.353996276855467,0.4844945669174194,1.1809494495391846,0.19364429,-0.09040806,5
0.8907244205474854,10.74180507659912,0.4633882939815521,0.9585898518562316,-0.05009095,-0.11789699,5
0.677597165107727,11.026546478271484,0.3291796147823334,0.7601090669631958,-0.33994650000000004,-0.15241088,5
0.31589266657829285,11.331598281860352,-0.00229884241707623,0.5813100337982178,-0.22143865,-0.12767084,5
-0.1690189391374588,11.755218505859375,-0.2833771705627441,0.4059089720249176,0.101098195,-0.08796459400000001,5
-0.5307435393333435,12.393965721130373,-0.38482046127319336,0.2108546942472458,0.34574974,-0.15577064,5
-0.6149808764457703,13.115473747253418,-0.302787184715271,-0.04049533233046532,0.29932398,0.0009162979,5
-0.6070470809936523,13.643027305603027,-0.05090278387069702,-0.35876259207725525,0.30115658,0.23671028,5
-0.6143143177032471,13.96592903137207,0.4284890592098236,-0.7528042793273926,0.21655174,0.3576616,5
-0.5487107038497925,14.14938259124756,1.0599327087402344,-1.2455463409423828,-0.09407325,0.50946164,5
-0.27464842796325684,14.513550758361815,1.6159870624542236,-1.7510552406311035,-1.0064004999999998,1.0247264,5
-0.15262602269649506,14.924188613891602,1.6996870040893557,-2.046730756759644,-1.29198,1.1487321,5
-0.4437929391860962,14.855497360229492,0.4992365837097168,-2.171245574951172,0.22785273,1.2977833,5
-0.7197311520576477,14.47991943359375,-0.6040536761283875,-2.264481782913208,0.945314,1.3106114,5
-1.01683509349823,13.90272331237793,-1.2658807039260864,-2.440823793411255,1.8310685,1.3371841,5
-1.4624452590942385,13.098458290100098,-1.7425450086593628,-2.686166286468506,3.1908545,0.9315695,5
-1.585471272468567,12.314237594604492,-1.094782829284668,-2.934832096099853,2.4782803,0.7134906,5
-1.4075697660446167,11.646190643310547,-0.15150916576385498,-3.143336534500122,1.2183707,0.75655663,5
-1.2436918020248413,10.814115524291992,-0.08680029213428497,-3.2260303497314453,1.8414533,0.69913524,5
-1.229053258895874,9.653203010559082,-0.31554096937179565,-3.317840099334717,2.2748623,0.46395215,5
-1.3924111127853394,8.317510604858397,-0.3089835345745087,-3.367878198623657,2.1725423,0.092240654,5
-1.5842466354370115,7.122711658477782,-0.2144008576869965,-3.3426103591918945,2.1557433999999995,-0.093462385,5
-1.605987310409546,6.139939308166504,-0.13294638693332672,-3.216374635696411,1.9401081,-0.025961773,5
-1.498973727226257,5.215939998626709,0.04045842960476875,-3.0113821029663086,1.7974709,-0.05222898,5
-1.3443818092346191,4.43687105178833,0.3150315582752228,-2.7170212268829346,1.7018706,-0.0067195175,5
-1.2852524518966677,3.869261741638184,0.8579238653182983,-2.368079423904419,0.74067414,0.10323623,5
-1.336179494857788,3.5140264034271236,1.6057754755020142,-1.967389702796936,0.11148291,0.2959642,5
-1.3704845905303955,3.4556314945220947,2.4525301456451416,-1.5379918813705444,0.01038471,0.56077427,5
-1.1975692510604858,3.6208498477935787,3.647637128829956,-1.0797355175018308,-0.2660318,0.73273283,5
-0.9933025240898132,3.726342678070069,4.6982035636901855,-0.5754662752151489,-0.7122689,0.8735373,5
-1.0016690492630005,3.6516811847686768,5.171935081481934,0.010275831446051598,-1.3451253,0.8359690999999999,5
-1.4097508192062378,4.065793514251709,5.814011573791504,0.5073955059051514,-1.7644843,0.5131268,5
-1.7064720392227173,5.960428237915039,6.396700382232666,0.8168716430664062,-0.61117065,0.5164866,5
-1.5452055931091309,7.837016582489014,6.426618099212647,1.0867854356765747,-1.7947221000000002,0.61453044,5
-1.6545839309692385,8.524340629577638,6.067988395690918,1.316830039024353,-1.2837333999999998,0.4801401,5
-2.097200632095337,8.343866348266603,5.6631712913513175,1.5440692901611328,-1.5384641,0.095294975,5
-2.3394811153411865,8.304154396057129,5.233412742614746,1.7905231714248655,-2.1633792,-0.21471913,5
-2.317734956741333,8.71519660949707,4.703073501586914,1.9886624813079836,-1.7935003,-0.50640726,5
-2.1840574741363525,9.452221870422363,4.229801654815674,2.08352279663086,-1.3203851999999998,-0.6160576,5
-1.8899046182632449,10.090179443359377,3.8668506145477295,2.1525545120239262,-1.564426,-0.77182823,5
-1.5863479375839231,10.267865180969238,3.41849946975708,2.2014825344085693,-1.488984,-0.89675015,5
-1.2604646682739258,10.124471664428713,2.84590220451355,2.247764110565185,-1.5665639999999998,-0.8723155999999999,5
-0.8621754050254822,9.984268188476562,2.1292452812194824,2.3244123458862305,-1.1795808,-0.9443977,5
-0.3791386187076569,10.0946044921875,1.4036369323730469,2.3600189685821533,-0.19914207,-0.7687739,5
0.16124489903450012,10.315300941467283,0.9470706582069396,2.346107482910156,0.48624873,-0.5335908,5
0.5790387988090515,10.309142112731934,0.8669981360435486,2.291919946670532,0.40103304,-0.3359759,5
0.7198005914688109,9.896544456481934,0.929154098033905,2.233466386795044,0.22388211,-0.35277468,5
0.6446317434310913,9.22733211517334,1.039754033088684,2.1818106174468994,-0.0888809,-0.41325033,5
0.5100634694099426,8.628545761108397,1.1346902847290041,2.1185710430145264,-0.18600847,-0.3484986,5
0.489508867263794,8.301253318786621,1.2539546489715576,2.052876234054565,-0.8213083000000001,-0.26878070000000004,5
0.5607656240463257,8.287510871887207,1.2746171951293943,1.9835293292999268,-1.1282681,-0.18203785,5
0.5786840915679932,8.405335426330566,1.146270513534546,1.8789438009262085,-0.85062987,-0.30848694,5
0.6053417325019836,8.575401306152344,0.974238932132721,1.7276071310043335,-0.6374379,-0.3213151,5
0.6304746270179749,8.882915496826172,0.8358651399612427,1.550159573554993,-0.24037547,-0.2764165,5
0.7142606973648071,9.374987602233887,0.8732768297195435,1.3347100019454956,-0.2779437,-0.13439035,5
0.9136356115341188,9.873217582702637,0.8098899722099304,1.14048969745636,-0.48747048,0.032070424,5
0.9595240354537964,10.2002534866333,0.5315262675285339,0.9637427926063538,-0.05681047,-0.03023783,5
0.8027685284614563,10.487085342407227,0.34584641456604004,0.7545952796936035,0.2049453,-0.08032878,5
0.55616694688797,10.887290000915527,0.32080408930778503,0.5601204633712769,-0.014966198,-0.018325957,5
0.23911052942276,11.394989967346193,0.30211329460144043,0.3883358836174011,-0.1872302,-0.0027488936,5
-0.10440409928560256,11.979153633117676,0.2589574754238129,0.18214847147464752,-0.05681047,-0.11636983,5
-0.3520760238170624,12.698845863342285,0.2830789387226105,-0.0875273272395134,-0.06352998,-0.17195857,5
-0.4949617981910706,13.545547485351562,0.3486596047878265,-0.4065397083759308,-0.14141529999999994,-0.0076358155,5
-0.6965632438659668,14.19445514678955,0.5340287685394287,-0.7857557535171509,-0.34513888,0.17348573,5
-1.0214033126831057,14.451116561889648,0.943266212940216,-1.2716389894485474,-0.32650748,0.28802297,5
-1.213744044303894,14.570828437805176,1.378087282180786,-1.8148887157440183,0.17928895,0.45448375,5
-0.9303346872329712,14.827105522155762,1.781639814376831,-2.1735765933990483,-0.49632803,1.2180653,5
-0.5722519755363464,15.04325008392334,1.812928915023804,-2.344203233718872,-0.6356053,1.3836098,5
-0.4859597682952881,14.877156257629395,0.9388496875762941,-2.394202709197998,0.050701816,1.3075571,5
-0.4597567915916443,14.375448226928713,-0.1648869514465332,-2.436115264892578,0.7797695,1.2391402,5
-0.7923314571380615,13.64296817779541,-1.13069486618042,-2.5790998935699463,3.404352,1.210124,5
-1.203636884689331,12.658299446105955,-0.9160609245300292,-2.8104686737060547,2.8017335,0.73761976,5
-1.3235445022583008,11.74636173248291,0.031153853982687,-3.004056692123413,1.5454891000000002,0.6765333,5
-1.3799079656600952,10.760197639465332,0.4091978967189789,-3.0611913204193115,1.4899003999999998,0.61636305,5
-1.503843903541565,9.580904960632324,0.4102192223072052,-3.0769169330596924,1.7928895,0.4111123,5
-1.6746609210968018,8.424519538879395,0.4298887848854065,-3.0946364402771,1.5424347,0.11942416,5
-1.7666784524917605,7.520210742950439,0.4392876923084259,-3.0519449710845947,1.3402383,0.01160644,5
-1.6422255039215088,6.8749427795410165,0.481552928686142,-2.955265045166016,1.4559973,0.05009095,5
-1.4378104209899902,6.2654666900634775,0.6005415320396423,-2.8007493019104004,1.6071864,0.10751228,5
-1.2344886064529421,5.600764751434326,0.7589417695999146,-2.589953184127808,1.7492126,0.09682214,5
-1.0935834646224976,4.9057044982910165,1.1146550178527832,-2.3135051727294917,1.2000448,0.17684549,5
-1.0880106687545776,4.191831111907959,1.6117424964904783,-1.9687156677246092,0.5516113,0.19303341,5
-1.1978474855422974,3.5825541019439697,2.269031286239624,-1.5972148180007937,-0.06841691,0.22571471,5
-1.1445233821868896,3.348696231842041,3.0790083408355717,-1.2265583276748655,-0.058337633,0.3717115,5
-0.9453145861625672,3.4128406047821045,4.1007843017578125,-0.8634915947914124,-0.24007004,0.6569856,5
-0.8407691121101379,3.5047452449798584,5.206401824951172,-0.4647476375102997,-0.49877146,0.8206975000000001,5
-0.887790858745575,3.6704819202423096,6.40661096572876,-0.04781655594706535,-0.6389651,0.63224554,5
-1.164088249206543,4.405443668365479,6.9056334495544425,0.3102535009384155,-1.4040737,0.21685717,5
-1.4369686841964722,5.835869312286378,7.075342655181885,0.5696445107460022,-0.7012733,0.3155119,5
-1.3933976888656616,6.930668830871582,7.020891189575195,0.7910702228546143,-1.1016954,0.35246924,5
-1.6512398719787598,7.300396919250487,6.545066833496094,1.0303943157196045,-1.3420709,0.1282817,5
-2.0632867813110347,7.589314937591553,6.166004180908202,1.2646479606628418,-1.672549,0.0021380284,5
-2.2506802082061768,8.099812507629395,5.715465068817139,1.5163341760635376,-2.2299635,-0.09040806,5
-2.2736279964447017,8.919835090637207,5.062824726104736,1.7396225929260254,-1.9724839,-0.32253686,5
-1.9876550436019895,9.68063259124756,4.503528594970703,1.8853241205215452,-1.7281377,-0.33383787,5
-1.5076106786727903,10.053193092346193,4.128124713897705,1.9746403694152832,-2.012801,-0.3295618,5
-1.0686753988265991,10.02907657623291,3.8287079334259033,2.0532655715942383,-2.2018638,-0.36377025,5
-0.7098867893218994,9.803609848022461,3.4442658424377437,2.1020195484161377,-1.750129,-0.5708536,5
-0.3899002075195313,9.692370414733887,3.0704665184021,2.130288362503052,-1.6994271,-0.58276546,5
-0.19436056911945346,9.705013275146484,2.48096776008606,2.1370391845703125,-0.85062987,-0.9239337,5
0.0017039683880284429,9.841362953186037,1.8330583572387693,2.0889580249786377,0.14202617,-0.86559606,5
0.34447264671325684,9.997695922851562,1.3497776985168457,2.006516695022583,0.41263947,-0.68783426,5
0.645987868309021,9.907947540283203,1.212339997291565,1.9718440771102903,0.12675454,-0.58184916,5
0.8426544666290283,9.733055114746094,1.1020681858062744,1.9657855033874512,0.19272798,-0.41141775,5
0.8383070230484009,9.45208740234375,1.165949821472168,1.9477388858795168,0.069027774,-0.4034765,5
0.7410263419151306,9.217426300048828,1.291059494018555,1.9160814285278318,-0.17195857,-0.3622431,5
0.7034460306167603,9.06877326965332,1.3776603937149048,1.878694772720337,-0.38789943,-0.30085114,5
0.72299724817276,8.922750473022461,1.3763455152511597,1.8167316913604736,-0.4269948,-0.23518312,5
0.7885061502456665,8.763964653015138,1.2905005216598509,1.7263609170913696,-0.21471913,-0.2556471,5
0.8471062779426575,8.711743354797362,1.2761635780334473,1.593691349029541,-0.23609942,-0.31031954,5
0.87701016664505,8.850777626037598,1.3557220697402954,1.4479045867919922,-0.66706485,-0.28313604,5
0.8481296300888062,9.108774185180664,1.3417232036590576,1.3017178773880005,-0.8051204000000001,-0.29168814,5
0.8022116422653198,9.417312622070312,1.0806717872619631,1.1447365283966064,-0.37690386,-0.2883284,5
0.7663861513137817,9.666232109069824,0.6768215298652649,0.9827383160591124,0.09315695,-0.25870144,5
0.7231589555740356,9.80088710784912,0.3554813861846924,0.8579645752906799,0.12889257,-0.2489276,5
0.4976014792919159,9.88892936706543,0.08158983290195465,0.7716431617736816,-0.032375857,-0.2846632,5
-0.03215063363313675,10.192647933959961,-0.2749481201171875,0.6936635375022888,-0.22266038,-0.30573806,5
-0.4227556884288788,10.812311172485352,-0.8734209537506104,0.6324377059936523,0.21685717,-0.28344148,5
-0.5092324018478394,11.406451225280762,-1.2403249740600586,0.5684940814971924,0.21533,-0.24037547,5
-0.8304422497749329,11.827320098876953,-1.177877426147461,0.4938368201255798,-0.6988298000000001,-0.16523905,5
-1.2702449560165403,12.15447235107422,-1.2260544300079346,0.379623293876648,-0.35399640000000004,-0.29779682,5
-1.4809976816177368,12.410447120666506,-1.277106523513794,0.24153442680835724,-0.07819075,-0.22327125,5
-1.5250972509384155,12.518845558166506,-1.1231048107147217,0.09512654691934586,-0.08857546,-0.14019357,5
-1.370909333229065,12.549481391906738,-0.8870725631713867,-0.10134897381067276,0.07696902,-0.028099801,5
-1.0466775894165041,12.531341552734375,-0.6309129595756531,-0.37234678864479065,0.43218717,0.06780604,5
-0.6250943541526794,12.505090713500975,-0.18739283084869385,-0.7247085571289062,0.33536503,0.25961772,5
-0.1210983470082283,12.522375106811525,0.3997495174407959,-1.0890433788299558,-0.70066243,0.6444628000000001,5
0.15623044967651367,12.520408630371096,0.616252601146698,-1.3388381004333496,-1.6175711000000002,0.74372846,5
-0.1450658142566681,12.162555694580078,0.19609230756759646,-1.4140270948410034,-1.3041973,0.569021,5
-0.8288190364837646,11.509363174438475,-0.570074200630188,-1.4334350824356081,-0.20555615,0.548557,5
-1.6050157546997068,10.714018821716307,-1.4319182634353638,-1.4868992567062378,0.63132924,0.38606682,5
-1.9976043701171875,9.935723304748537,-2.1982243061065674,-1.519021987915039,1.3017538999999998,0.21380283,5
-2.0919945240020748,9.334213256835938,-2.2401697635650635,-1.5151207447052002,1.5879441,0.0036651916,5
-2.1703810691833496,9.047128677368164,-1.3669768571853638,-1.476187229156494,0.7480045,0.04886922,5
-2.1919603347778316,8.894742012023926,-0.8393689393997192,-1.394054651260376,0.1695151,0.08735373,5
-2.1548490524291988,8.756636619567871,-0.6271138191223145,-1.2690106630325315,0.04337143,0.07452556,5
-2.085674524307251,8.559873580932617,-0.5222594738006592,-1.117411732673645,-0.22968534,0.095294975,5
-1.9817907810211184,8.284780502319336,-0.5504473447799683,-0.9405921697616576,-0.10903945,0.084910266,5
-1.873363971710205,7.9582953453063965,-0.5813879370689392,-0.764141321182251,0.058948494,0.037873644,5
-1.7989100217819214,7.6313862800598145,-0.5726463794708252,-0.5977063775062561,0.14172074,-0.02107485,5
-1.791158676147461,7.375319957733153,-0.5503252148628235,-0.427832156419754,0.15790866,-0.124005646,5
-1.846699595451355,7.182050704956055,-0.516743540763855,-0.255355566740036,0.024740042,-0.29840767,5
-1.8528318405151367,7.053008079528809,-0.4578362703323364,-0.0820603296160698,0.027794369,-0.42210788,5
-1.7093888521194458,7.02715539932251,-0.3602640330791473,0.09419302642345427,0.21319197,-0.4175264,5
-1.3832753896713257,7.168457984924316,-0.18003083765506744,0.2596093714237213,0.3640757,-0.35399640000000004,5
-0.995688796043396,7.4915103912353525,0.09483103454113008,0.4174422025680542,0.32895094,-0.31123585,5
-0.7096620798110962,7.980350971221924,0.4368364214897156,0.5550583600997925,0.38148534,-0.26358834,5
-0.6539666056632996,8.462791442871094,0.8311747312545776,0.649001955986023,0.28496864,-0.16065755,5
-0.6398586630821228,8.791975975036621,1.1740007400512695,0.7235804200172424,-0.21594086,-0.07238753,5
-0.642369270324707,9.005778312683105,1.2996941804885864,0.7859083414077759,-0.67164636,0.0033597588,5
-0.7821816205978394,9.238162994384766,1.0598130226135254,0.8338556885719299,-0.46883908,0.042760565999999986,5
-1.1372002363204956,9.675999641418457,0.701050877571106,0.8757565021514893,-0.18325958,0.021991149,5
-1.52082097530365,10.280674934387207,0.4566293060779572,0.8911852836608887,0.090713486,0.011911872,5
-1.633822679519653,10.636966705322266,0.4725591838359833,0.8571794033050537,0.2864958,-0.014966198,5
-1.5697121620178225,10.631097793579102,0.7428978681564331,0.7834559082984924,-0.29168814,-0.003970624,5
-1.5494414567947388,10.379398345947266,0.8450681567192078,0.6671875715255737,-0.46517387,-0.029321533,5
-1.6093795299530032,10.059971809387207,0.6099996566772461,0.5511350035667419,-0.25503623,-0.105374254,5
-1.6107083559036257,9.818421363830566,0.19892196357250214,0.4559645354747772,-0.021380283,-0.11362094,5
-1.4745612144470217,9.761311531066896,-0.2346279323101044,0.4127068519592285,0.109650314,-0.015271631,5
-1.2997678518295288,9.861459732055664,-0.5202873349189758,0.4075706303119659,0.10903945,0.089491755,5
-1.1955176591873171,9.94301700592041,-0.5855507254600525,0.4164360165596008,0.0027488936,0.13316862,5
-1.188255786895752,9.94373893737793,-0.6239408850669861,0.4287611544132233,-0.13713925,0.13255776,5
-1.2647626399993896,9.874324798583984,-0.8292640447616577,0.44772642850875854,-0.10140363,0.11484267,5
-1.38947594165802,9.710397720336914,-1.1695641279220579,0.4726383686065674,0.12736541,0.034208454,5
-1.5109039545059204,9.46285629272461,-1.5745890140533447,0.4983968436717987,0.4382958,-0.070249505,5
-1.6039623022079468,9.291007995605467,-1.8838844299316408,0.5161232948303223,0.55680364,-0.1432479,5
-1.6685545444488523,9.25930881500244,-1.995109796524048,0.5269003510475159,0.4596761,-0.13194689,5
-1.713901162147522,9.296914100646973,-1.9467257261276243,0.5337680578231812,0.29016098,-0.108123146,5
-1.756507158279419,9.393196105957033,-1.8299731016159055,0.528378963470459,0.18784106,-0.07360926,5
-1.792531967163086,9.587645530700684,-1.6567518711090088,0.4882920980453491,0.258396,-0.03756821,5
-1.7533844709396362,9.841055870056152,-1.3733710050582886,0.4177261292934418,0.11789699,0.01160644,5
-1.6059818267822266,10.070444107055664,-1.0958542823791504,0.329237163066864,-0.064446285,0.09560041,5
-1.4048093557357788,10.19016933441162,-0.948001742362976,0.2356809824705124,-0.22357668,0.15607607,5
-1.2337079048156738,10.183218955993652,-0.9939924478530884,0.15032246708869934,-0.15363261,0.15913039999999998,5
-1.132285475730896,10.071636199951172,-1.1997733116149902,0.08150351047515869,0.037873644,0.15393804,5
-1.1702468395233154,9.938899040222168,-1.4608795642852783,0.031679850071668625,0.24923302,0.11789699,5
-1.3062288761138916,9.868484497070312,-1.6250991821289062,0.0037987786345183854,0.45814893,0.089491755,5
-1.3734484910964966,9.809737205505373,-1.6675649881362915,0.00031917658634483814,0.17989981,0.07849618,5
-1.4095258712768557,9.74652862548828,-1.767229676246643,0.011914119124412537,-0.11728613,0.09896017,5
-1.4604427814483645,9.679654121398926,-1.8780611753463743,0.012361958622932434,-0.007941248,0.05497787,5
-1.4326146841049194,9.638565063476562,-1.8761557340621948,0.005268675275146961,0.03756821,0.044593163,5
-1.327600359916687,9.637657165527344,-1.7870174646377563,-0.008180643431842327,-0.010995574,0.03848451,5
-1.2399486303329468,9.655298233032227,-1.6993091106414795,-0.02270026318728924,-0.15149458,0.038789943,5
-1.2067673206329346,9.668931007385254,-1.6900877952575684,-0.020935652777552605,-0.19120082,0.03145956,1
-1.173702597618103,9.62938404083252,-1.7847492694854736,-0.005147948395460844,-0.1908954,0.0012217305,1
-1.1196911334991455,9.553035736083984,-1.9524067640304563,0.012348638847470284,-0.037873644,-0.023823744,1
-1.0743433237075806,9.512797355651855,-2.0582165718078613,0.02540975995361805,0.14660765,-0.036651913,1
-1.0243109464645386,9.53274631500244,-2.0589466094970703,0.037959225475788116,0.17195857,-0.025350908,1
-0.9983895421028136,9.57724380493164,-2.009871244430542,0.04854896292090416,0.15913039999999998,-0.010995574,1
-1.0435236692428589,9.63242244720459,-1.918081283569336,0.050846140831708915,0.15393804,-0.02321288,1
-1.089096188545227,9.685266494750977,-1.7883868217468262,0.044629618525505066,0.03176499,-0.015577064,1
-1.0971453189849854,9.732132911682127,-1.6694397926330566,0.030678508803248405,-0.038179077,0.023518313,1
-1.0849252939224243,9.769854545593262,-1.6023904085159302,0.009036871604621409,-0.040317107000000005,0.0290161,1
-1.0677486658096311,9.789058685302734,-1.5754115581512451,-0.01609889417886734,-0.03940081,0.035124752999999995,1
-1.0529600381851196,9.794608116149902,-1.5637154579162598,-0.03693042322993279,-0.034513887,0.027488936,1
-1.0506466627120972,9.782580375671387,-1.557759404182434,-0.051110543310642235,-0.08277224,0.03604105,1
-1.0685098171234129,9.75147533416748,-1.5634305477142334,-0.05663834884762764,-0.09468412,0.030848695,1
-1.0954413414001465,9.717769622802734,-1.6062666177749634,-0.057462010532617576,-0.053145275,0.022907447,1
-1.1093571186065674,9.691361427307127,-1.6512807607650757,-0.05662679672241211,0.002443461,0.0061086523,1
-1.1152898073196411,9.674888610839844,-1.6876051425933838,-0.0537867434322834,0.00580322,0.0009162979,1
-1.117835521697998,9.661979675292967,-1.7073941230773926,-0.047145623713731766,-0.011301007,-0.003970624,1
-1.1338664293289185,9.656801223754883,-1.71651029586792,-0.03457193821668625,-0.02107485,0.0027488936,1
-1.1593708992004397,9.654659271240234,-1.708560347557068,-0.022491350769996643,-0.05467244,-0.0030543262,1
-1.1742002964019775,9.660693168640137,-1.695536494255066,-0.011488757096230984,-0.100792766,-0.007941248,1
-1.1795762777328491,9.669326782226562,-1.6794462203979492,-0.005366065539419651,-0.10720685,-0.01160644,1
-1.176598310470581,9.67933750152588,-1.6535569429397583,-0.004845100454986095,-0.15302174,-0.0018325958,1
-1.1693050861358645,9.685469627380373,-1.6572613716125488,-0.004660908132791519,-0.1966986,-0.0030543262,1
-1.1545448303222656,9.697526931762695,-1.683979630470276,-0.0024954937398433685,-0.17715092,-0.005192355,1
-1.148740530014038,9.70909595489502,-1.6989372968673706,-0.00271608354523778,-0.15699236,-0.025961773,1
-1.1569809913635254,9.737759590148926,-1.6975706815719604,-0.005915519781410694,-0.1386664,-0.016187929,1
-1.1651517152786257,9.771946907043457,-1.6765401363372805,-0.012800553813576698,-0.112704635,-0.00030543262000000003,1
-1.1609165668487549,9.776738166809082,-1.63034987449646,-0.020313242450356483,-0.10567969,0.019242255,1
-1.1455200910568235,9.771507263183594,-1.5908048152923584,-0.025439046323299408,-0.10476339,0.03390302,1
-1.1183855533599854,9.766962051391602,-1.5588793754577637,-0.031278762966394424,-0.14049901,0.03023783,1
-1.1067758798599243,9.758537292480467,-1.552929401397705,-0.03996431827545166,-0.12980886,0.023823744,1
-1.1337918043136597,9.739123344421387,-1.5797756910324097,-0.049980614334344864,-0.07941248,0.007941248,1
-1.168861746788025,9.708731651306152,-1.6072319746017456,-0.05795454606413841,-0.06627888,0.005192355,1
-1.1801174879074097,9.683740615844727,-1.628634333610535,-0.060278914868831635,-0.05497787,0.0027488936,1
-1.182084560394287,9.665696144104004,-1.663962960243225,-0.05718230828642845,-0.024740042,0.011301007,1
-1.1904520988464355,9.657519340515137,-1.7036453485488892,-0.05155184492468834,0.016187929,-0.0061086523,1
-1.2058591842651367,9.663294792175293,-1.7122358083724976,-0.045827027410268784,0.047036625,-0.0125227375,1
-1.2168166637420654,9.67529010772705,-1.685019612312317,-0.040145006030797965,0.019547688,-0.007330383,1
-1.226571559906006,9.686059951782227,-1.6575765609741209,-0.03554759919643402,0.007330383,-0.00061086525,1
-1.2376408576965332,9.688990592956543,-1.636776328086853,-0.03158818930387497,0.006414085,-0.007330383,1
-1.2510578632354736,9.684393882751463,-1.6293172836303709,-0.026819813996553418,0.010079277,-0.0061086523,1
-1.261629581451416,9.673441886901855,-1.644970417022705,-0.02383604645729065,0.012217305,-0.012217305,1
-1.2735055685043335,9.668604850769043,-1.6701059341430664,-0.022237293422222137,-0.007330383,-0.0061086523,1
-1.28713858127594,9.667886734008787,-1.6844522953033447,-0.0212958324700594,-0.008857545999999999,-0.0061086523,1
-1.2925785779953003,9.678925514221193,-1.6757006645202637,-0.0198923833668232,-0.014966198,0.00061086525,1
-1.2902355194091797,9.684741020202637,-1.6741949319839478,-0.021069681271910667,-0.015882496,0.014966198,1
-1.286205172538757,9.686286926269533,-1.6663255691528318,-0.02337966859340668,-0.02687807,0.0036651916,1
-1.2916085720062256,9.681968688964844,-1.6776208877563477,-0.025739919394254684,-0.03359759,0.008552114,1
-1.2944060564041138,9.682514190673828,-1.7026046514511108,-0.0271940752863884,-0.0015271631,0.0015271631,1
-1.292451024055481,9.685608863830566,-1.7201354503631592,-0.027147555723786358,0.004276057,0.0061086523,1
-1.2928682565689087,9.694397926330566,-1.7254896163940432,-0.02648351900279522,0.010079277,0.0125227375,1
-1.2960350513458252,9.704565048217773,-1.720309495925903,-0.02744780294597149,0.021991149,0.009162978,1
-1.2956140041351318,9.708589553833008,-1.7092034816741943,-0.0301752295345068,0.004886922,0.011301007,1
-1.3020308017730713,9.716262817382812,-1.7102220058441162,-0.034400418400764465,0.0015271631,0.014049901000000002,1
-1.3174095153808594,9.71524429321289,-1.7108246088027954,-0.03621266782283783,-0.007330383,0.013439035,1
-1.324022650718689,9.703149795532227,-1.7246149778366089,-0.03635112941265106,-0.027183503,0.016493361,1
-1.329198122024536,9.685542106628418,-1.7311981916427612,-0.03616715967655182,-0.011911872,0.0125227375,1
-1.3297429084777832,9.678759574890137,-1.739526867866516,-0.03744560480117798,0.006414085,0.011301007,1
-1.322832703590393,9.683367729187012,-1.7347259521484375,-0.03744956105947495,0.018936822,0.0061086523,1
-1.3077582120895386,9.68614387512207,-1.7259145975112915,-0.03629445284605026,-0.0030543262,0.008246681,1
-1.306883454322815,9.681036949157717,-1.7170379161834717,-0.036136668175458915,-0.010690141499999998,0.009773844,1
-1.3134523630142212,9.682537078857422,-1.713743805885315,-0.036250259727239616,0.0030543262,0.013133603,1
-1.3069462776184082,9.684483528137207,-1.6998643875122068,-0.037492036819458015,-0.009468411,0.010079277,1
-1.3022928237915041,9.680201530456543,-1.6914451122283936,-0.03762966766953468,-0.009162978,0.008857545999999999,1
-1.3032389879226685,9.673996925354004,-1.691195011138916,-0.03935107216238976,-0.0061086523,0.015577064,1
-1.307297945022583,9.672728538513184,-1.693837285041809,-0.03938819095492363,0.004581489,0.018325957,1
-1.3120726346969604,9.669998168945312,-1.6938965320587158,-0.038822051137685776,0.014049901000000002,0.008246681,1
-1.3111516237258911,9.662419319152832,-1.6927814483642578,-0.03771181032061577,-0.00580322,0.002443461,1
-1.3017826080322266,9.656521797180176,-1.6981408596038818,-0.035753749310970306,-0.008857545999999999,0.007941248,1
-1.302161455154419,9.652600288391113,-1.7045313119888306,-0.034238401800394065,0.007941248,0.008857545999999999,1
-1.3089927434921265,9.66005039215088,-1.6883033514022827,-0.03426268324255943,0.014660766,0.0030543262,1
-1.309036135673523,9.672843933105467,-1.6729830503463743,-0.03447765484452248,-0.003970624,0.00030543262000000003,1
-1.3056719303131104,9.680333137512207,-1.6606200933456419,-0.034920305013656616,0.005192355,0.007941248,1
-1.3004170656204224,9.686919212341307,-1.647893309593201,-0.035746272653341286,0.024129177,0.008552114,1
-1.2977147102355957,9.68616008758545,-1.6415559053421018,-0.036665312945842736,0.031154128,0.009468411,1
-1.294331669807434,9.684340476989746,-1.6313563585281372,-0.036794207990169525,0.016493361,0.011301007,1
-1.2992323637008667,9.692956924438477,-1.6315457820892334,-0.03702892735600472,0.03390302,0.0125227375,1
-1.3027746677398682,9.698213577270508,-1.631177544593811,-0.03754635527729988,0.039095376,0.015882496,1
-1.296573042869568,9.701651573181152,-1.6244995594024658,-0.03766223043203354,0.02321288,0.009468411,1
-1.2949421405792236,9.70162582397461,-1.6282674074172974,-0.0385860949754715,0.023823744,0.0076358155,1
-1.29630708694458,9.697388648986816,-1.6294091939926147,-0.040745288133621216,0.03390302,0.01160644,1
-1.297514796257019,9.692230224609377,-1.62818706035614,-0.04128541052341461,0.027488936,0.008552114,1
-1.2966352701187134,9.687859535217283,-1.6285195350646973,-0.04169132560491562,0.0125227375,0.017715093,1
-1.2975538969039917,9.683534622192383,-1.6216567754745483,-0.041578691452741616,0.004581489,0.016798794,1
-1.3028565645217896,9.679790496826172,-1.6200159788131714,-0.042088743299245834,0.006414085,0.017104227,1
-1.3048391342163086,9.682318687438963,-1.6167981624603271,-0.043426234275102615,0.009468411,0.012217305,1
-1.30618417263031,9.684102058410645,-1.6162892580032349,-0.043203990906476974,0.017104227,0.015271631,1
-1.3029776811599731,9.683075904846193,-1.6139100790023804,-0.04283004626631737,0.0067195175,0.014049901000000002,1
-1.2962586879730225,9.680129051208496,-1.6090761423110962,-0.04187992215156555,0.01160644,0.021685716,1
-1.2936707735061646,9.682393074035645,-1.6061697006225586,-0.0417327880859375,0.019242255,0.021685716,1
-1.2972729206085205,9.688472747802734,-1.6067450046539309,-0.04072751849889755,0.018020526,0.0143553335,1
-1.2988499402999878,9.69007396697998,-1.6033637523651123,-0.038918819278478615,0.0036651916,0.014049901000000002,1
-1.298494577407837,9.68957805633545,-1.602569580078125,-0.038205552846193314,0.008857545999999999,0.021991149,1
-1.3007268905639648,9.686349868774414,-1.5992292165756226,-0.03873419761657715,0.0067195175,0.01160644,1
-1.2961655855178833,9.682040214538574,-1.5977836847305298,-0.03895317763090134,0.013133603,0.015271631,1
-1.288738250732422,9.67817211151123,-1.5963263511657717,-0.039750587195158005,0.007941248,0.009468411,1
-1.281825304031372,9.672186851501463,-1.599212884902954,-0.04026394709944725,0.0061086523,0.015271631,1
-1.274737000465393,9.666585922241213,-1.605998158454895,-0.039585676044225686,0.015882496,0.016493361,1
-1.270905613899231,9.667407035827637,-1.6081470251083374,-0.03918875753879547,0.028099801,0.007941248,1
-1.275288701057434,9.676478385925293,-1.6053673028945925,-0.039913054555654526,0.028099801,0.011301007,1
-1.269679069519043,9.684534072875977,-1.6024113893508911,-0.039212897419929504,0.02107485,0.009162978,1
-1.262983798980713,9.682289123535156,-1.599333882331848,-0.03945936262607575,0.018936822,0.013439035,1
-1.2690006494522097,9.679689407348633,-1.6015381813049316,-0.039756570011377335,0.021380283,0.013744468,1
-1.2738804817199707,9.682860374450684,-1.6072767972946167,-0.03966207057237625,0.01740966,0.01038471,1
-1.2799874544143677,9.683652877807617,-1.6072207689285278,-0.040952909737825394,0.01160644,0.0070249503,1
-1.281099796295166,9.678771018981934,-1.6063307523727417,-0.041317444294691086,0.004276057,0.009773844,1
-1.2808502912521362,9.669418334960938,-1.6138370037078855,-0.041491255164146416,0.011911872,0.014966198,1
-1.2835437059402466,9.664772987365724,-1.6137020587921145,-0.04117812961339951,0.017104227,0.012217305,1
-1.2907973527908323,9.664719581604004,-1.6127580404281616,-0.040506899356842034,0.01160644,0.013133603,1
