timestamp,rel_time,acc_x,acc_y,acc_z,gyro_x,gyro_y,gyro_z,azimuth,pitch,roll,label
0.0,0.0,0.0,0.0,0.0,0.0,-0.019547688,0.008246681,253.08469,-72.93336500000001,-16.931265,STD
2412385500.0,1.5047856322780717e-05,-0.0061621577478945255,0.028955982998013496,-0.00045950961066409945,-8.039303065743297e-05,-0.030543262,0.014660766,253.11912999999998,-72.968864,-16.902639999999998,STD
7201280500.0,7.452363206539303e-05,-0.018398620188236237,0.08643310517072678,-0.0013729773927479982,-0.00017995692905969918,-0.024129177,0.012217305,253.08325,-73.045586,-16.834503,STD
14296197000.0,0.0002073196228593588,-0.036533087491989136,0.17158111929893494,-0.0027282475493848324,-0.0004223476571496576,-0.025961772999999997,0.02076942,253.05374,-73.124306,-16.762604,STD
23594543000.0,0.00044418152538128197,-0.060307517647743225,0.2831641435623169,-0.0045071374624967575,-0.000704167119693011,-0.013439035,0.007941248,253.0191,-73.195305,-16.699092999999998,STD
34965148000.0,0.0008013154729269445,-0.08938902616500854,0.4196053147315979,-0.006685399916023016,-0.0009245939436368644,-0.018020526000000002,0.012217305,252.99066000000002,-73.271675,-16.62947,STD
48252670000.0,0.0013041723286733031,-0.12338419258594513,0.5790362358093262,-0.009234589524567127,-0.0012242579832673073,-0.014049901000000002,0.013133603,252.95697,-73.34154000000001,-16.566011,STD
63282495000.0,0.0019725372549146414,-0.16184966266155243,0.7593581080436707,-0.012122350744903088,-0.0016176956705749035,-0.016493361,0.015882496,252.92734,-73.41174000000001,-16.502012,STD
79865980000.0,0.0028209832962602377,-0.20430557429790497,0.958304226398468,-0.015313430689275265,-0.0022834918927401304,-0.020463986,0.014355333500000001,252.89784,-73.479065,-16.44032,STD
97805660000.0,0.0038618191611021757,-0.2502492666244507,1.1735026836395264,-0.01877080462872982,-0.002619196893647313,-0.014049901000000002,0.010995574,252.86678999999998,-73.54568499999999,-16.379739999999998,STD
116900290000.0,0.005105703603476286,-0.299168199300766,1.402536153793335,-0.022456657141447067,-0.003025882178917527,-0.010995574,0.014966198,252.83867,-73.61162,-16.318742999999998,STD
136949440000.0,0.00655594514682889,-0.35055097937583923,1.642998218536377,-0.026333006098866463,-0.003550561610609293,-0.0070249503,0.015882496,252.80922999999999,-73.67456999999999,-16.260883,STD
157757540000.0,0.008216160349547863,-0.403898686170578,1.8925408124923706,-0.03036280907690525,-0.003981208894401789,0.003970624,0.016798794,252.77759,-73.73725,-16.203207,STD
179137270000.0,0.010086658410727978,-0.4587329924106598,2.1489152908325195,-0.034510448575019836,-0.004816186148673296,-0.0036651915999999997,0.010995574,252.75116,-73.79630999999999,-16.148335,STD
200912270000.0,0.012165827676653862,-0.5146033763885498,2.4100048542022705,-0.0387423150241375,-0.005825584754347801,-0.0070249503,0.013744468000000001,252.72101,-73.85685,-16.092085,STD
222919160000.0,0.014448495581746101,-0.5710919499397278,2.673848867416382,-0.04302710294723511,-0.0066237784922122955,-0.014049901000000002,0.013744468000000001,252.6951,-73.91351999999999,-16.039381,STD
245008900000.0,0.016928505152463913,-0.6278173327445984,2.938659191131592,-0.047336190938949585,-0.007309379987418652,-0.01740966,0.0067195175,252.66988999999998,-73.96741,-15.989082000000002,STD
267047530000.0,0.019613757729530334,-0.6844384670257568,3.202826976776123,-0.051644451916217804,-0.008005375042557716,-0.014660766,0.01863139,252.64555,-74.025406,-15.934507,STD
288916470000.0,0.022466246038675308,-0.7406476736068726,3.4649338722229004,-0.05592767894268036,-0.008671246469020844,-0.01740966,0.0061086523,252.62472999999997,-74.07321999999999,-15.889963,STD
310512350000.0,0.025491410866379738,-0.7961817383766174,3.723738431930542,-0.06016644835472107,-0.00904850009828806,-0.021991148999999998,0.009773844,252.60419,-74.12782,-15.838527,STD
331746500000.0,0.028678633272647858,-0.8508127927780151,3.978177547454834,-0.06434343010187149,-0.009850825183093548,-0.013744468000000001,0.014966198,252.58136000000002,-74.17779,-15.791319,STD
352544200000.0,0.032024361193180084,-0.9043495655059814,4.227355003356934,-0.06844425946474075,-0.010489512234926224,-0.016493361,0.010079277,252.56384,-74.225044,-15.746909,STD
372843680000.0,0.03550903871655464,-0.9566319584846497,4.470531940460205,-0.07245634496212006,-0.010730592533946037,-0.02107485,0.007941248,252.54506,-74.27325,-15.701327,STD
392595180000.0,0.03912753611803055,-1.0075321197509766,4.707111835479736,-0.0763699933886528,-0.010812190361320972,-0.008857545999999999,0.017715093,252.52267,-74.322266,-15.654785,STD
411759700000.0,0.04287052899599075,-1.0569493770599365,4.936628341674805,-0.08017738908529282,-0.011527515947818756,-0.004581489,0.013439035,252.50473,-74.36541,-15.613783999999999,STD
430308030000.0,0.046727828681468964,-1.104807734489441,5.158731460571289,-0.08387252688407898,-0.011832489632070065,-0.01160644,0.01863139,252.48709,-74.413246,-15.568291,STD
448219400000.0,0.05069024860858917,-1.1510530710220337,5.37317419052124,-0.08745107054710388,-0.012112450785934925,-0.011911871999999999,0.014660766,252.4669,-74.4558,-15.527660000000001,STD
465480700000.0,0.05474865809082985,-1.195650577545166,5.579799175262451,-0.09091011434793472,-0.012573452666401863,-0.007330383,0.014355333500000001,252.44794,-74.49983,-15.48546,STD
482085200000.0,0.05889727547764778,-1.2385823726654053,5.77852725982666,-0.09424813836812973,-0.012853401713073254,-0.00061086525,0.015882496,252.42905,-74.54227,-15.444815,STD
498031760000.0,0.06312644481658936,-1.2798444032669067,5.969346046447754,-0.09746450930833817,-0.013032224029302597,-0.0009162978999999999,0.014049901000000002,252.4115,-74.582535,-15.406120999999999,STD
513323960000.0,0.06742894649505615,-1.3194448947906494,6.152299404144287,-0.10055959224700928,-0.0132339708507061,-0.008246681,0.011911871999999999,252.3947,-74.62214,-15.367977999999999,STD
527969320000.0,0.07179924100637436,-1.3574023246765137,6.327478885650635,-0.10353457182645798,-0.013427180238068104,-0.009773844,0.011911871999999999,252.37689,-74.66085,-15.330634,STD
541978600000.0,0.07623161375522614,-1.3937433958053589,6.49501371383667,-0.10639125108718872,-0.013596643693745136,-0.009773844,0.024129177,252.36992624662497,-74.6797859945995,-15.3122254257426,STD
555365200000.0,0.08071902394294739,-1.4285013675689697,6.655065536499023,-0.10913187265396118,-0.014669840224087238,-0.015271631,0.014660766,252.363,-74.69861999999999,-15.293916000000001,STD
568144500000.0,0.08525828272104263,-1.4617153406143188,6.807821273803711,-0.1117592379450798,-0.014669379219412804,-0.0125227375,0.012217305,252.34769,-74.7343,-15.259529999999998,STD
580333700000.0,0.08984299749135971,-1.4934282302856445,6.953486442565918,-0.11427632719278336,-0.01515271421521902,-0.00030543262000000003,0.02107485,252.33163,-74.77269,-15.221947,STD
591951100000.0,0.09446928650140762,-1.5236862897872925,7.092281341552734,-0.11668644845485687,-0.015425276011228561,-0.009468411,0.017104227,252.32169,-74.80609,-15.189483,STD
603015900000.0,0.09913696348667145,-1.5525383949279785,7.224437236785889,-0.11899325251579285,-0.016015315428376198,-0.005192355,0.017715093,252.30462999999997,-74.84227,-15.154053,STD
613547800000.0,0.1038341149687767,-1.5800336599349976,7.350192070007324,-0.12119998037815094,-0.01705065742135048,-0.008857545999999999,0.021991148999999998,252.29315,-74.8775,-15.119467000000002,STD
623566900000.0,0.10855862498283386,-1.6062229871749878,7.469788074493408,-0.12331035733222961,-0.017861317843198776,-0.01282817,0.016493361,252.28099999999998,-74.90929,-15.088293,STD
633093550000.0,0.11331205815076828,-1.6311583518981934,7.583467960357666,-0.12532830238342285,-0.01844147965312004,-0.0018325957999999999,0.015271631,252.26592999999997,-74.94261,-15.055477999999999,STD
642147800000.0,0.11809127032756805,-1.654890775680542,7.691473960876465,-0.12725752592086792,-0.01875397190451622,-0.004581489,0.011301007,252.25656,-74.972786,-15.025743499999999,STD
650749740000.0,0.1228938028216362,-1.6774710416793823,7.794045925140381,-0.1291017085313797,-0.018891222774982452,0.0015271631,0.015882496,252.16975,-75.048096,-14.950985000000001,STD
658918900000.0,0.12771612405776978,-1.698948860168457,7.891421318054199,-0.1308644413948059,-0.018893610686063766,0.004886922,0.015271631,252.08597000000003,-75.119,-14.880501,STD
666674700000.0,0.13256247341632843,-1.7195518016815186,7.983240604400635,-0.13233409821987152,-0.019024066627025604,0.013439035,0.014966198,251.96362000000002,-75.215866,-14.783953,STD
674035860000.0,0.1374235451221466,-1.7393537759780884,8.06964111328125,-0.13348083198070526,-0.01893923431634903,0.049480084,0.015577064,251.83287,-75.31100500000001,-14.688982999999999,STD
681020700000.0,0.14229625463485718,-1.7589855194091797,8.150482177734375,-0.13670353591442108,-0.0190194733440876,0.06169739,0.016493361,251.69025,-104.58272,-14.582689000000002,STD
687646900000.0,0.14718559384346008,-1.7786234617233276,8.225900650024414,-0.14255182445049286,-0.01930481381714344,0.076052725,0.013439035,251.53625,-104.478966,-14.478744500000001,STD
693931540000.0,0.15208323299884796,-1.7989258766174316,8.29667854309082,-0.1484767496585846,-0.01960766315460205,0.08552113,0.010995574,251.36319,-104.368996,-14.368388000000001,STD
699891200000.0,0.15699048340320587,-1.8200570344924927,8.363166809082031,-0.15384441614151,-0.020072268322110176,0.11728613,0.008552114,251.17865,-104.26127,-14.260071,STD
705541700000.0,0.16190525889396667,-1.841964840888977,8.425578117370605,-0.15868358314037323,-0.020157555118203163,0.14141529999999997,0.011911871999999999,250.98302999999999,-104.15033000000001,-14.148131,STD
710898300000.0,0.16683167219161987,-1.8646429777145386,8.484103202819824,-0.16301603615283966,-0.01976979337632656,0.15027285,0.005497787,250.78156,-104.04420999999999,-14.040712,STD
715975600000.0,0.1717638075351715,-1.8915152549743652,8.53923225402832,-0.1636556088924408,-0.01933758333325386,0.1441642,0.012217305,250.56036,-103.923546,-13.918398000000002,STD
720787700000.0,0.17670351266860962,-1.9235578775405884,8.591224670410156,-0.15970930457115173,-0.01865288056433201,0.13897185,0.020463986,250.33502000000001,-103.80574,-13.798523999999999,STD
725347800000.0,0.18168048560619354,-1.960962176322937,8.639144897460938,-0.14966420829296112,-0.016919193789362907,0.1020145,0.004276057,250.08767999999998,-103.6903,-13.680543,STD
729668800000.0,0.1866321712732315,-2.001943588256836,8.683218955993652,-0.13482727110385895,-0.013915648683905602,0.06017022599999999,-0.016187929,249.8417,-103.575356,-13.562628,STD
733762800000.0,0.19158793985843658,-2.0437397956848145,8.725038528442383,-0.11704546958208084,-0.01058376394212246,0.022602014,-0.029626964,249.55527,-103.457695,-13.442231,STD
737641560000.0,0.1965455263853073,-2.0849609375,8.765352249145508,-0.0974130854010582,-0.009016470983624458,0.02321288,-0.048258353,249.2678,-103.3485,-13.330339000000002,STD
741316100000.0,0.20150874555110931,-2.1237637996673584,8.804018020629883,-0.07777974754571915,-0.008553807623684406,0.041233405,-0.052534412999999995,248.87617000000003,-103.205414,-13.184467999999999,STD
744797000000.0,0.206476092338562,-2.15860652923584,8.840916633605957,-0.059728942811489105,-0.008748453110456467,0.08368854,-0.05100725,248.47485,-103.06745,-13.043922,STD
748094200000.0,0.2114461064338684,-2.190643310546875,8.87562084197998,-0.04264431074261665,-0.00959837157279253,0.116675265,-0.043066,247.9168,-102.85263,-12.826015,STD
751217340000.0,0.2164192646741867,-2.2204835414886475,8.907987594604492,-0.026211941614747047,-0.011101565323770046,0.16462818,-0.025350908,247.34047999999999,-102.63792,-12.608231,STD
754175440000.0,0.22139479219913483,-2.2494609355926514,8.93801212310791,-0.01160543691366911,-0.014003206975758076,0.19150625,-0.014355333500000001,246.53696000000002,-102.30212,-12.267328,STD
756977200000.0,0.2263733446598053,-2.278311252593994,8.965742111206055,0.0005851187743246555,-0.01899304799735546,0.23090707,-0.010995574,245.71759,-101.96993,-11.930425999999999,STD
759630660000.0,0.23135346174240112,-2.3070311546325684,8.991411209106445,0.010929548181593418,-0.025294579565525055,0.26145032,-0.013439035,244.60063,-101.48727,-11.440128,STD
762143700000.0,0.2363358587026596,-2.335627317428589,9.015253067016602,0.02002580091357231,-0.032773371785879135,0.28221974,-0.015882496,243.48467999999997,-101.01564,-10.962088,STD
764523700000.0,0.2413197010755539,-2.36356782913208,9.037418365478516,0.027385197579860687,-0.04053806886076927,0.27916542,-0.02443461,242.19942999999998,-100.47694,-10.415036,STD
766777600000.0,0.24630522727966309,-2.38948130607605,9.058135032653809,0.03163403272628784,-0.04821575805544853,0.26908615,-0.031154128,240.92548,-99.95425999999999,-9.885334,STD
768912200000.0,0.2513127326965332,-2.411649703979492,9.078950881958008,0.03153112158179283,-0.05579467490315437,0.26847526,-0.04795292,239.44152999999997,-99.34499,-9.26742,STD
770933600000.0,0.256299763917923,-2.428698778152466,9.101288795471191,0.026616014540195465,-0.06264577805995941,0.27214047,-0.049785517,237.98389,-98.75519,-8.670036999999999,STD
772847800000.0,0.26128658652305603,-2.4399843215942383,9.125633239746094,0.016794659197330475,-0.06929544359445572,0.2678644,-0.04917465,236.50192,-98.16349,-8.071052,STD
774660600000.0,0.26627638936042786,-2.4438986778259277,9.153017044067383,0.002349179470911622,-0.07448568940162659,0.27397305,-0.0421497,235.04176,-97.59429,-7.4947944,STD
776377300000.0,0.27126315236091614,-2.4419946670532227,9.182483673095703,-0.015470894984900951,-0.07811500877141953,0.27091873,-0.022907447,233.46117999999998,-96.95296,-6.842958500000001,STD
778002900000.0,0.27625489234924316,-2.4363629817962646,9.21268081665039,-0.03489597886800766,-0.0807054415345192,0.26053402,-0.009468411,231.91477999999998,-96.33993000000001,-6.22046,STD
779542300000.0,0.2812468707561493,-2.428341865539551,9.242704391479492,-0.05439405515789986,-0.0823284238576889,0.24281894,0.008552114,230.20757999999998,-95.62841999999999,-5.4938912,STD
781000100000.0,0.2862395942211151,-2.4202470779418945,9.270879745483398,-0.07110337167978287,-0.08240087330341339,0.21227567,0.018020526000000002,228.55305,-94.954,-4.8039594,STD
782380560000.0,0.2912297248840332,-2.412518262863159,9.296435356140137,-0.08531779050827026,-0.08134685456752777,0.1994475,0.020463986,226.90201000000002,-94.288536,-4.1188720000000005,STD
783687800000.0,0.2962246239185333,-2.4062600135803223,9.317188262939453,-0.09745164215564728,-0.07891713082790375,0.1826487,0.025045475,225.30562,-93.66028,-3.4677477,STD
784925800000.0,0.3012167513370514,-2.401346206665039,9.332988739013672,-0.10727527737617493,-0.07634013146162033,0.18112154,0.03481932,223.78238,-93.07939,-2.8644702,STD
786098100000.0,0.3062121570110321,-2.3976871967315674,9.342982292175293,-0.11409280449151993,-0.0736074224114418,0.19028452,0.038179077,222.29892999999998,-92.53801999999999,-2.2945375,STD
787208300000.0,0.31120625138282776,-2.395273208618164,9.348160743713379,-0.11905179917812347,-0.0709388479590416,0.20463985,0.058337633,220.89406,-92.05086,-1.7745018,STD
788259600000.0,0.3162030577659607,-2.394270658493042,9.35049819946289,-0.1250295788049698,-0.06870527565479279,0.24465153,0.06872234,219.51082999999997,-91.60504,-1.2843213,STD
789255200000.0,0.32121822237968445,-2.3958301544189453,9.350038528442383,-0.13116559386253357,-0.0672578513622284,0.28771752,0.09132435,218.18579,-91.19666,-0.82102364,STD
790198100000.0,0.3262137472629547,-2.4017791748046875,9.347367286682129,-0.13563300669193268,-0.06593633443117142,0.32070425,0.106901415,216.87936000000002,-90.86352,-0.38230553,STD
791090950000.0,0.3312118649482727,-2.4120383262634277,9.342682838439941,-0.13787288963794708,-0.06525480002164841,0.35369098,0.118202426,215.58467000000002,-90.67078000000001,0.033343267,STD
791936570000.0,0.3362087309360504,-2.424940824508667,9.337757110595703,-0.13484063744544983,-0.06552093476057053,0.36468655,0.11881329,214.3129,-90.70248000000001,0.42594478,STD
792737400000.0,0.34120845794677734,-2.440319299697876,9.33271312713623,-0.12690973281860352,-0.06645643711090088,0.35094208,0.11026118,213.13927,-90.86469,0.7401126,STD
793495860000.0,0.3462062180042267,-2.4571101665496826,9.328929901123047,-0.11642585694789886,-0.06818840652704239,0.33108896,0.11209377,211.98402000000002,-91.08825999999999,1.0379566999999998,STD
794214200000.0,0.3512163758277893,-2.4752273559570312,9.32656478881836,-0.10369716584682465,-0.07126033306121826,0.29168814,0.105068825,210.95537000000002,-91.270905,1.2564228000000002,STD
794894470000.0,0.3562130928039551,-2.4928436279296875,9.327459335327148,-0.09303933382034302,-0.07451039552688599,0.27122417,0.10323623,209.94034,-91.46341,1.462328,STD
795538800000.0,0.3612236976623535,-2.5100343227386475,9.331768035888672,-0.08448817580938339,-0.07747337967157364,0.23793201,0.106901415,208.99878,-88.37448,1.6232878000000002,STD
796149100000.0,0.3662203550338745,-2.5267727375030518,9.338974952697754,-0.07778275012969971,-0.08024594932794571,0.21105394,0.10720685,208.07187,-88.214516,1.7708416,STD
796727100000.0,0.37121355533599854,-2.543100595474243,9.34904670715332,-0.07287833094596863,-0.08319631963968277,0.18539760000000002,0.10995574,207.15645,-88.04951,1.9140893,STD
797274600000.0,0.3762100040912628,-2.5578322410583496,9.361166000366211,-0.0701029822230339,-0.08603832870721817,0.16676621,0.11301007,206.25734,-87.88911,2.0460732,STD
797793200000.0,0.3812066316604614,-2.5708160400390625,9.375046730041504,-0.06940112262964249,-0.08868008106946945,0.14172074,0.11789699,205.37798,-87.732704,2.1683017999999996,STD
798284400000.0,0.3862040936946869,-2.583559513092041,9.389400482177734,-0.0730583444237709,-0.09079043567180634,0.13103059,0.12308934,204.47162,-87.56985,2.2945302000000005,STD
798749700000.0,0.3912009298801422,-2.5966179370880127,9.403735160827637,-0.08173906803131104,-0.09337429702281952,0.11911872,0.12705997,203.58498,-87.41266999999999,2.4099736000000003,STD
799190500000.0,0.3961995542049408,-2.6114325523376465,9.418259620666504,-0.09610088169574738,-0.09616228938102722,0.124311075,0.13408493,202.65872,-87.23026999999999,2.5469213,STD
799608000000.0,0.4011957347393036,-2.6285617351531982,9.43304443359375,-0.11616366356611252,-0.09919235855340958,0.13469578,0.14202617,201.74905,-87.05611999999999,2.67167,STD
800003600000.0,0.40619373321533203,-2.6481454372406006,9.446810722351074,-0.13772839307785034,-0.10132851451635361,0.14782938,0.14996742,200.7998,-86.87718000000001,2.8049557000000003,STD
800378300000.0,0.4111919105052948,-2.6701180934906006,9.459107398986816,-0.1591247171163559,-0.10356243699789047,0.17043139999999998,0.15485434,199.86221,-86.70682,2.9245994,STD
800733400000.0,0.4161894619464874,-2.6948537826538086,9.469735145568848,-0.1798848956823349,-0.10577498376369476,0.17501289,0.15668693,198.8729,-86.53791,3.049371,STD
801069800000.0,0.4211881160736084,-2.7225236892700195,9.478615760803223,-0.19977504014968872,-0.10744642466306686,0.17165314,0.16615535,197.90105,-86.381714,3.1609623,STD
801388560000.0,0.42618632316589355,-2.752934455871582,9.48574161529541,-0.22004643082618713,-0.10946827381849289,0.16737708,0.16920967,196.96213,-86.25219,3.2395816,STD
801690550000.0,0.4311862289905548,-2.785959482192993,9.491076469421387,-0.24206066131591797,-0.11112195253372192,0.16982053,0.17318029999999998,196.04109,-86.13561999999999,3.3069415,STD
801976750000.0,0.4361814558506012,-2.8207874298095703,9.494915008544922,-0.26576536893844604,-0.11249218136072159,0.17806722,0.17318029999999998,195.16629,-86.05846,3.3318129,STD
802247930000.0,0.44118037819862366,-2.8559160232543945,9.497740745544434,-0.2914418578147888,-0.11439163982868195,0.1826487,0.17562376,194.30759,-85.987495,3.3473449,STD
802504970000.0,0.4461793005466461,-2.891254186630249,9.49983024597168,-0.31932532787323,-0.11649914085865021,0.18325958,0.18387043,193.4269,-85.92441600000001,3.3537202000000006,STD
802748560000.0,0.4511788785457611,-2.9267148971557617,9.501585960388184,-0.34995704889297485,-0.11885242909193039,0.19975294,0.17989981,192.55762,-85.871025,3.3457199999999996,STD
802979450000.0,0.45617789030075073,-2.9620749950408936,9.503024101257324,-0.38315942883491516,-0.1213570237159729,0.22510384,0.17562376,191.69698,-85.833046,3.3235476000000004,STD
803198300000.0,0.461176335811615,-2.9947917461395264,9.504132270812988,-0.41864049434661865,-0.12441178411245346,0.2284636,0.172264,190.85433999999998,-85.80138000000001,3.2903678,STD
803405700000.0,0.4661829471588135,-3.0248725414276123,9.5048246383667,-0.4563392400741577,-0.12696193158626556,0.24892759999999997,0.17501289,189.98737,-85.78153,3.2502277000000004,STD
803602370000.0,0.47118207812309265,-3.051448106765747,9.504212379455566,-0.4951993525028229,-0.12981566786766052,0.27488935,0.17562376,189.13528,-85.76590999999999,3.1982157000000004,STD
803788800000.0,0.47618088126182556,-3.074655532836914,9.502330780029297,-0.5352416634559631,-0.13251732289791107,0.30024028,0.17287487,188.25449,-85.74715,3.154568,STU
803965570000.0,0.4811805784702301,-3.092754364013672,9.499991416931152,-0.5796032547950745,-0.13419602811336517,0.3368922,0.17806722,187.38237,-85.73714,3.1018734,STU
804133200000.0,0.4861777722835541,-3.105306386947632,9.497522354125977,-0.6292378306388855,-0.1352318525314331,0.37323865,0.17898351,186.52206,-85.73569,3.0364802,STU
804292130000.0,0.49117720127105713,-3.1075878143310547,9.498055458068848,-0.68513423204422,-0.13539861142635345,0.41874814,0.18631389999999998,185.62341,-85.724625,2.9890263,STU
804442870000.0,0.4961813986301422,-3.098133087158203,9.502673149108887,-0.7474885582923889,-0.13475890457630157,0.4822781,0.20066923,184.73102,-85.72383,2.931418,STU
804585870000.0,0.5011807084083557,-3.0831971168518066,9.511484146118164,-0.8116471171379089,-0.1332905888557434,0.54733527,0.20586158,183.86548,-85.7477,2.869855,STU
804721500000.0,0.5061999559402466,-3.0664517879486084,9.525035858154297,-0.874991774559021,-0.13111920654773712,0.60048056,0.22388211,183.00279,-85.77691,2.8057017,STU
804850200000.0,0.5111972689628601,-3.052048921585083,9.541220664978027,-0.9345250725746155,-0.1283961832523346,0.6713409,0.23640485,182.27742,-85.8641,2.7206992999999997,STU
804972270000.0,0.5161957740783691,-3.0413975715637207,9.559776306152344,-0.9893936514854431,-0.12472768872976303,0.7272350999999999,0.2501493,181.54955,-85.95566600000001,2.6358203999999996,STU
805088130000.0,0.5211940407752991,-3.0365381240844727,9.580286979675293,-1.037777066230774,-0.11943163722753525,0.78954333,0.25076020000000004,180.798,-86.049934,2.5562508,STU
805198040000.0,0.5261910557746887,-3.0384867191314697,9.6024751663208,-1.0787960290908813,-0.1124645471572876,0.84665924,0.26450464,180.04077,-86.14749,2.4786294,STU
805302400000.0,0.531193196773529,-3.0470054149627686,9.623567581176758,-1.110386610031128,-0.1038503646850586,0.90102625,0.26572640000000003,179.2534,-86.254295,2.3885005,STU
805401400000.0,0.5361928939819336,-3.0615453720092773,9.64191722869873,-1.131794810295105,-0.0936768651008606,0.9450084999999999,0.25809056,178.46336000000002,-86.37148,2.294009,STU
805495440000.0,0.5411904454231262,-3.0814433097839355,9.657442092895508,-1.143292784690857,-0.0822550356388092,0.979217,0.24373524,177.60019,-86.47548,2.1931872,STU
805584760000.0,0.5461971759796143,-3.103637456893921,9.66822338104248,-1.1427093744277954,-0.06963511556386948,1.0235047,0.2049453,176.737,-86.59803000000001,2.0761182000000002,STU
805669600000.0,0.5511981248855591,-3.1256015300750732,9.67471694946289,-1.132219672203064,-0.055360086262226105,1.0439687,0.18600847,175.79553,-86.686714,1.9569883000000001,STU
805750100000.0,0.5561987161636353,-3.1400628089904785,9.677064895629883,-1.115196943283081,-0.04069012030959129,1.0995574,0.13530666,174.8533,-86.79558,1.8087881000000001,STU
805826660000.0,0.5611969232559204,-3.1459453105926514,9.675627708435059,-1.093427062034607,-0.024099914357066154,1.1441506000000001,0.07696902,173.99318,-86.94269,1.6172466,STU
805899340000.0,0.5661972761154175,-3.137777805328369,9.670960426330566,-1.0723085403442383,-0.004650058690458536,1.2021828,0.03145956,173.12837,-87.10376,1.4109359,STU
805968400000.0,0.5711968541145325,-3.115283966064453,9.663047790527344,-1.0520988702774048,0.017995372414588928,1.2324207,-0.018325957,172.3022,-87.26949,1.2009184,STU
806034100000.0,0.5762062668800354,-3.073554039001465,9.650959014892578,-1.0339878797531128,0.04544030502438545,1.2327261,-0.06627888,171.48077,-87.461464,0.9768108,STU
806096540000.0,0.5812147855758667,-3.0147252082824707,9.634055137634277,-1.0172892808914185,0.07926829904317856,1.2153163999999999,-0.094989546,170.6339,-87.63701999999999,0.80325526,STU
806155900000.0,0.5862157344818115,-2.942086696624756,9.607312202453613,-0.9990939497947693,0.12019722163677216,1.1582005,-0.13103059,169.81396,-87.85001,0.61141133,STU
806212400000.0,0.5912237167358398,-2.855823040008545,9.570363998413086,-0.9795711636543274,0.16789746284484863,1.0552697,-0.15882497,169.02133,-88.071625,0.4873915,STU
806266140000.0,0.5962257981300354,-2.762057065963745,9.520623207092285,-0.9615727663040161,0.22236627340316772,0.9224065,-0.20555615,168.26826,-88.34239000000001,0.34482118,STU
806317300000.0,0.6012424230575562,-2.660397529602051,9.457883834838867,-0.9454288482666016,0.2831290066242218,0.782213,-0.27214047,167.6297,-88.655136,0.23341382,STU
806366000000.0,0.6062391996383667,-2.5557305812835693,9.389841079711914,-0.9385706186294556,0.34955722093582153,0.6261369000000001,-0.36254853,167.04156,-89.01087,0.10125419,STU
806412350000.0,0.6112337708473206,-2.447650194168091,9.31619644165039,-0.9410693049430847,0.4202258884906769,0.47647488,-0.46975538,166.53351999999998,-89.403885,-0.018027856999999998,STU
806456500000.0,0.6162304878234863,-2.343942403793335,9.247773170471191,-0.9728579521179199,0.4950229227542877,0.35918877,-0.58032197,166.06406,-89.76604499999999,-0.16394056,STU
806498600000.0,0.6212233304977417,-2.2459917068481445,9.186450004577637,-1.0358763933181763,0.573923647403717,0.2941316,-0.70341134,165.62425,-90.45360600000001,-0.34346405,STU
806538700000.0,0.626220703125,-2.1578848361968994,9.150687217712402,-1.1346495151519775,0.6553095579147339,0.26267207,-0.80939645,165.2722,-90.986694,-0.53437823,STU
806576900000.0,0.6312236189842224,-2.0815958976745605,9.149805068969727,-1.2703660726547241,0.737941324710846,0.24923302,-0.8885035,164.93044,-91.5796,-0.7505273,STU
806613350000.0,0.6362194418907166,-2.0138437747955322,9.185205459594727,-1.4205386638641357,0.8215083479881287,0.23609942,-0.91782504,164.64952,-92.33240500000001,-1.0096037,STU
806648150000.0,0.6412171721458435,-1.9532321691513062,9.258378028869629,-1.576412558555603,0.9073118567466736,0.21685717,-0.91690874,164.36775,-93.11561999999999,-1.278399,STU
806681440000.0,0.6463185548782349,-1.909844994544983,9.392897605895996,-1.736322283744812,0.9980160593986511,0.06261369,-0.8671232,164.11383,-94.05024,-1.5750636999999998,STU
806713100000.0,0.6513118147850037,-1.8803935050964355,9.555376052856445,-1.8892598152160645,1.0944015979766846,0.015577064,-0.83260936,163.82727,-95.01061999999999,-1.8688566999999998,STU
806743400000.0,0.6563038229942322,-1.8713163137435913,9.76602840423584,-2.0365543365478516,1.189866304397583,-0.17470746,-0.77396625,163.60155,-95.99955,-2.1515737,STU
806772400000.0,0.6613970398902893,-1.889391303062439,9.986309051513672,-2.1774444580078125,1.2893750667572021,-0.52290064,-0.7095199999999999,163.42836,-97.041504,-2.4238202999999996,STU
806800060000.0,0.6663864254951477,-1.9187281131744385,10.199136734008789,-2.311302423477173,1.3924355506896973,-0.6579019,-0.69974613,163.24158,-98.08242,-2.6899624,STU
806826500000.0,0.6713734865188599,-1.9640089273452759,10.398618698120117,-2.4453396797180176,1.4912245273590088,-0.8561276,-0.66859204,163.11342,-99.08252,-2.990966,STU
806851800000.0,0.6763631701469421,-2.024134874343872,10.582538604736328,-2.5818488597869873,1.5830883979797363,-0.9483683,-0.63285637,162.98783999999998,-100.08337,-3.2830197999999995,STU
806875960000.0,0.6813469529151917,-2.0977768898010254,10.751879692077637,-2.7203986644744873,1.6668825149536133,-0.9392053,-0.5830709,162.82378,-101.05788000000001,-3.6063597,STU
806899150000.0,0.6863314509391785,-2.1846187114715576,10.907302856445312,-2.8611056804656982,1.7411324977874756,-0.8436049000000001,-0.5314528000000001,162.65784,-101.98298,-3.9113413999999995,STU
806921400000.0,0.6913176774978638,-2.2745187282562256,11.038983345031738,-2.9913392066955566,1.8060539960861206,-0.65393126,-0.47464229999999996,162.46095,-102.859535,-4.18764,STU
806942700000.0,0.6963062882423401,-2.359865665435791,11.139856338500977,-3.10178542137146,1.8607442378997803,-0.40408736,-0.43676865,162.2183,-103.67652,-4.438441,STU
806963100000.0,0.701295018196106,-2.438875913619995,11.207915306091309,-3.1850008964538574,1.9051462411880493,-0.16462818,-0.40286562,161.81898,-104.50958,-4.7481947,STU
806982700000.0,0.7062838673591614,-2.5089643001556396,11.239367485046387,-3.2300167083740234,1.9371062517166138,0.028405233999999998,-0.37934732,161.36555,-105.26928000000001,-5.0288453,STU
807001500000.0,0.7112722396850586,-2.569997787475586,11.234798431396484,-3.24521541595459,1.9540644884109497,0.15088372,-0.3555236,160.83995,-105.92361000000001,-5.2851205000000006,STU
807019600000.0,0.7162650227546692,-2.6216163635253906,11.193767547607422,-3.2392420768737793,1.9562506675720215,0.23060162,-0.35857790000000006,160.27681,-106.5087,-5.5266585,STU
807037000000.0,0.7212555408477783,-2.6628365516662598,11.126306533813477,-3.226675510406494,1.9456239938735962,0.34697145,-0.37201694,159.55688,-106.92128000000001,-5.72107,STU
807053700000.0,0.7262533903121948,-2.692460298538208,11.039322853088379,-3.2193515300750732,1.9253740310668945,0.5015204000000001,-0.3903429,158.81956,-107.27245,-5.908633,STU
807069800000.0,0.7312492728233337,-2.714113235473633,10.939103126525879,-3.2181777954101562,1.898227334022522,0.66553766,-0.37751472,158.02184,-107.51903999999999,-6.071813,STU
807085340000.0,0.7362449765205383,-2.7310128211975098,10.830951690673828,-3.2242653369903564,1.8662768602371216,0.8219192,-0.38545597,157.20242,-107.72953999999999,-6.2370987,STU
807100300000.0,0.7412373423576355,-2.7458057403564453,10.715682983398438,-3.2389347553253174,1.8302669525146484,0.8885035,-0.3839288,156.38928,-107.95568,-6.3696684999999995,STU
807114700000.0,0.7462373971939087,-2.76786208152771,10.594063758850098,-3.2692034244537354,1.7937833070755005,0.98899084,-0.39584067,155.5461,-108.17193600000002,-6.49737,STU
807128600000.0,0.7512300610542297,-2.8018434047698975,10.4727783203125,-3.312899589538574,1.7554187774658203,1.0201449,-0.42638394,154.76183999999998,-108.41565,-6.631523,STU
807142000000.0,0.7562482357025146,-2.8615453243255615,10.364276885986328,-3.370121955871582,1.7178943157196045,0.9596693000000001,-0.5708536,153.98372,-108.674416,-6.803501,STU
807155000000.0,0.7612437009811401,-2.941173791885376,10.266862869262695,-3.4376022815704346,1.6846483945846558,0.8185594,-0.64476824,153.24498,-108.995834,-7.0004196,STU
807167600000.0,0.7662537097930908,-3.0430736541748047,10.1807279586792,-3.5167555809020996,1.6548019647598267,0.6178902,-0.82833326,152.531,-109.33606,-7.2790656,STU
807179800000.0,0.7712482810020447,-3.1632955074310303,10.104636192321777,-3.6053690910339355,1.631722331047058,0.35002577,-1.0693196000000003,151.87431,-109.7208,-7.612462,STU
807191600000.0,0.7762443423271179,-3.297621965408325,10.039669036865234,-3.7039148807525635,1.617116093635559,0.063224554,-1.3289373,151.26731999999998,-110.156494,-8.014836,STU
807203000000.0,0.7812421917915344,-3.4096148014068604,9.99474048614502,-3.812617301940918,1.6116060018539429,-0.19822577,-1.5402966999999999,150.71706,-110.647446,-8.488146,STU
807214060000.0,0.7862407565116882,-3.5005154609680176,9.96872615814209,-3.9308829307556152,1.613128423690796,-0.36285394,-1.6386459999999998,150.18741,-111.37953,-9.179857,STU
807224800000.0,0.7912386655807495,-3.546269416809082,9.946280479431152,-4.044448375701904,1.6182646751403809,-0.40194935,-1.6691893,149.67873,-112.15273,-9.908895,STU
807235300000.0,0.7962472438812256,-3.546128511428833,9.925158500671387,-4.151861190795898,1.6249339580535889,-0.30390546,-1.6303993,149.17055,-112.94881399999998,-10.632779,STU
807245450000.0,0.8012450337409973,-3.5147178173065186,9.89096736907959,-4.243926048278809,1.6303037405014038,-0.10598512,-1.5570955,148.58661999999998,-113.70546999999999,-11.2793665,STU
807255340000.0,0.8062584400177002,-3.451289415359497,9.842860221862793,-4.320389270782471,1.6326038837432861,0.14752395,-1.4944818000000002,148.10147,-114.4449,-11.797655,STU
807265000000.0,0.8112542629241943,-3.3769986629486084,9.781070709228516,-4.3812055587768555,1.6314283609390259,0.40591997,-1.4175128000000001,147.5667,-115.15364,-12.260346,STU
807274350000.0,0.8162487745285034,-3.2915453910827637,9.705327033996582,-4.426494121551514,1.6274343729019165,0.6291912,-1.3561208,147.06914,-115.82361000000002,-12.603856,STU
807283460000.0,0.8212451934814453,-3.206937074661255,9.618298530578613,-4.45619010925293,1.6210163831710815,0.8023715,-1.3200798,146.52017,-116.46071,-12.903528,STU
807292400000.0,0.8262385129928589,-3.1255788803100586,9.521306037902832,-4.4712114334106445,1.612905740737915,0.91751957,-1.2977833,145.93303999999998,-117.06983999999999,-13.165648000000001,STU
807301150000.0,0.8312807679176331,-3.058417558670044,9.407125473022461,-4.477699279785156,1.603908896446228,0.95325524,-1.2806790000000001,145.35912,-117.63819,-13.374795,STU
807309700000.0,0.836271345615387,-3.0030574798583984,9.283019065856934,-4.479513645172119,1.5950334072113037,0.9578367,-1.2889256000000002,144.7647,-118.19308500000001,-13.570124,STU
807318000000.0,0.8412674069404602,-2.9644696712493896,9.14795207977295,-4.486125469207764,1.585475206375122,0.906524,-1.318858,144.18307,-118.71892,-13.771317999999999,STU
807326100000.0,0.8462626338005066,-2.9418556690216064,9.003183364868164,-4.498349666595459,1.5760844945907593,0.84879726,-1.3393221000000002,143.6054,-119.23872,-13.968549,STU
807334100000.0,0.8512581586837769,-2.9367237091064453,8.853703498840332,-4.518372058868408,1.565631628036499,0.8002335,-1.3753631000000002,143.00636,-119.76977,-14.216249,STU
807341900000.0,0.8562496900558472,-2.9482421875,8.700675010681152,-4.546027660369873,1.554173231124878,0.77304995,-1.4104879,142.41742,-120.29494,-14.469379,STU
807349600000.0,0.8612444400787354,-2.974393844604492,8.546771049499512,-4.577974796295166,1.541242003440857,0.74189585,-1.4361442,141.7963,-120.871574,-14.774735,STU
807357100000.0,0.8662372827529907,-3.013916015625,8.392560958862305,-4.6134748458862305,1.5278441905975342,0.7360926,-1.4459181,141.17596,-121.44142,-15.080518,STU
807364500000.0,0.8712334036827087,-3.060743570327759,8.239657402038574,-4.649651050567627,1.5126211643218994,0.7538077,-1.4388931,140.50267,-122.04126000000001,-15.435077,STU
807371800000.0,0.8762291669845581,-3.1134960651397705,8.088353157043457,-4.686004161834717,1.4963048696517944,0.8176431,-1.3906348,139.82658,-122.62851,-15.770802,STU
807378940000.0,0.8812282085418701,-3.1696248054504395,7.936642646789551,-4.719540596008301,1.4783189296722412,0.9202684999999999,-1.3081678999999997,139.08997,-123.23013,-16.123089,STU
807385960000.0,0.886225163936615,-3.2278366088867188,7.783936977386475,-4.7491536140441895,1.4586708545684814,1.0192287,-1.1948524999999999,138.35603,-123.80636000000001,-16.442293,STU
807392900000.0,0.8912218809127808,-3.2849655151367188,7.631899833679199,-4.771299839019775,1.4378560781478882,1.1133018999999997,-1.0540479999999999,137.60273999999998,-124.38375,-16.745352,STU
807399700000.0,0.8962183594703674,-3.340310573577881,7.480905532836914,-4.785458087921143,1.4159531593322754,1.1731668,-0.9309586,136.85577,-124.9304,-17.011837,STU
807406500000.0,0.9012635946273804,-3.38763427734375,7.332015514373779,-4.788840293884277,1.3935084342956543,1.1777482,-0.8350528,136.12445,-125.472885,-17.261023,STU
807413100000.0,0.9062595963478088,-3.4278452396392822,7.187304496765137,-4.784739017486572,1.3704367876052856,1.149343,-0.74464476,135.41414,-125.98263500000002,-17.47573,STU
807419640000.0,0.9112533330917358,-3.457200050354004,7.04852819442749,-4.780259132385254,1.348057508468628,1.1252137,-0.6969972,134.72841,-126.484024,-17.683526999999998,STU
807426100000.0,0.9162493944168091,-3.4751389026641846,6.916186809539795,-4.777940273284912,1.3254873752593994,1.0894781,-0.6429357,134.07646,-126.9545,-17.87274,STU
807432500000.0,0.9212449193000793,-3.480250358581543,6.791333198547363,-4.780885219573975,1.302215576171875,1.0512991000000003,-0.58551437,133.4631,-127.392075,-18.042772,STU
807438800000.0,0.926241397857666,-3.47187876701355,6.674403667449951,-4.790786266326904,1.2783935070037842,1.0125091,-0.52198434,132.87585,-127.8113,-18.203464999999998,STU
807445000000.0,0.9312394857406616,-3.452984571456909,6.566357135772705,-4.807846546173096,1.2535946369171143,0.9651671000000001,-0.46639562,132.32398999999998,-128.20314,-18.33401,STU
807451160000.0,0.9362404942512512,-3.4255073070526123,6.467601776123047,-4.83207368850708,1.2281804084777832,0.9434814,-0.42424592,131.79085,-128.57768000000002,-18.455338,STU
807457260000.0,0.9412363767623901,-3.393686056137085,6.380294322967529,-4.864057540893555,1.20154869556427,0.9117164000000001,-0.39614612,131.29814,-128.93451000000002,-18.535475,STU
807463300000.0,0.9462347626686096,-3.360229730606079,6.30607795715332,-4.904551029205322,1.1758805513381958,0.8857546000000001,-0.355829,130.82433,-129.28082,-18.606571,STU
807469300000.0,0.9512311220169067,-3.3264858722686768,6.2446112632751465,-4.952348232269287,1.1501967906951904,0.8750645,-0.31642818,130.37218000000001,-129.61543,-18.630959,STU
807475300000.0,0.9562275409698486,-3.296093702316284,6.196775913238525,-5.005364894866943,1.1240261793136597,0.86742866,-0.27152961,129.93872,-129.93528999999998,-18.649744000000002,STU
807481200000.0,0.9612228870391846,-3.2697250843048096,6.160031795501709,-5.062528133392334,1.0974434614181519,0.8588764999999999,-0.23060162,129.52531000000002,-130.24652,-18.637821,STU
807487000000.0,0.9662203788757324,-3.2494897842407227,6.129139423370361,-5.121650695800781,1.0701450109481812,0.8888089,-0.16187929,129.12225,-130.53337,-18.605362,STU
807492850000.0,0.9712338447570801,-3.2324345111846924,6.098695278167725,-5.180334091186523,1.0406064987182617,0.9309586,-0.10720685,128.7312,-130.79414,-18.559735999999997,STU
807498600000.0,0.9762294292449951,-3.215210199356079,6.063405990600586,-5.2356743812561035,1.0071567296981812,0.9773844,-0.049480084,128.35007,-131.02286999999998,-18.493967,STU
807504300000.0,0.9812251329421997,-3.196403741836548,6.023841381072998,-5.287765979766846,0.9677903652191162,1.0274754000000001,0.011911871999999999,127.96271499999999,-131.22089,-18.41226,STU
807510000000.0,0.9862266778945923,-3.1709094047546387,5.982967376708984,-5.336511611938477,0.9226925373077393,1.067487,0.06627888,127.582085,-131.38287,-18.316174,STU
807515650000.0,0.991219699382782,-3.1396231651306152,5.940168857574463,-5.383058071136475,0.8726570010185242,1.1007791999999998,0.13041973,127.19436,-131.51404,-18.202621,STU
807521300000.0,0.9962216019630432,-3.1026296615600586,5.893802165985107,-5.429158687591553,0.8189560770988464,1.0961976999999998,0.18906279,126.82151999999999,-131.60558999999998,-18.08229,STU
807526860000.0,1.0012152194976807,-3.061380624771118,5.844590663909912,-5.480698585510254,0.7613945007324219,1.0491611,0.25350907,126.47458,-131.65193,-17.932935999999998,STU
807532400000.0,1.0062124729156494,-3.0174431800842285,5.792857646942139,-5.551609992980957,0.700812816619873,0.98349303,0.3203988,126.15026,-131.66386,-17.779420000000002,STU
807537930000.0,1.011208176612854,-2.975348711013794,5.740724563598633,-5.636494159698486,0.6370463967323303,0.9114109,0.39645153,125.84187,-131.6465,-17.595041000000002,STU
807543440000.0,1.0162062644958496,-2.9451725482940674,5.692642688751221,-5.72551155090332,0.5703464150428772,0.8597928,0.4474588,125.55708999999999,-131.5969,-17.415106,STU
807548900000.0,1.0212022066116333,-2.926119565963745,5.651224613189697,-5.82055139541626,0.5025619864463806,0.8313876,0.47433686,125.26355,-131.58178999999998,-17.218058,STU
807554300000.0,1.0262004137039185,-2.917745590209961,5.623659610748291,-5.927375793457031,0.43448343873023987,0.77549344,0.44135013,124.99141000000002,-131.54288,-17.042616,STU
807559760000.0,1.031199336051941,-2.917963743209839,5.607911109924316,-6.043240547180176,0.36521488428115845,0.7480045,0.45081854,124.70658999999999,-131.49796,-16.879444,STU
807565100000.0,1.0362015962600708,-2.9208498001098633,5.598773002624512,-6.160144329071045,0.2952592372894287,0.7675522,0.48014009999999996,124.42591000000002,-131.44026000000002,-16.725815,STU
807570500000.0,1.0412131547927856,-2.9263224601745605,5.596024036407471,-6.278195858001709,0.2282503992319107,0.8518515999999999,0.47922380000000003,124.10871000000002,-131.40332,-16.586486999999998,STU
807575900000.0,1.046212077140808,-2.9268603324890137,5.599544525146484,-6.394469738006592,0.1610688716173172,0.8713993,0.4654793,123.81016000000001,-131.33125,-16.456529999999997,STU
807581200000.0,1.0512065887451172,-2.920006036758423,5.60942268371582,-6.508365154266357,0.09531901031732559,0.9184359000000001,0.44501534,123.48948999999999,-131.26656,-16.3135,STU
807586500000.0,1.056204080581665,-2.9035263061523438,5.62041711807251,-6.602270603179932,0.028157386928796768,1.0091494,0.43737950000000003,123.14908,-131.18126,-16.16078,STU
807591800000.0,1.0611999034881592,-2.877682685852051,5.631575107574463,-6.674434185028076,-0.040910471230745316,1.1224649,0.44104472,122.79671499999999,-131.08646000000002,-16.0029,STU
807597100000.0,1.066197395324707,-2.8389952182769775,5.641482830047607,-6.714578151702881,-0.11188065260648727,1.2092078000000002,0.41966440000000005,122.43005,-130.95734,-15.814269,STU
807602360000.0,1.0711954832077026,-2.787386178970337,5.649911403656006,-6.722140312194824,-0.18754912912845612,1.2779301,0.41447207,122.051476,-130.78878999999998,-15.611042999999999,STU
807607600000.0,1.0761933326721191,-2.7203633785247803,5.660939693450928,-6.711869239807129,-0.27040013670921326,1.2901474,0.4465425,121.70298000000001,-130.52602,-15.371682,STU
807612840000.0,1.0811978578567505,-2.636726140975952,5.676426887512207,-6.69045877456665,-0.3593183755874634,1.2305881,0.4859433,121.36178999999998,-130.23169,-15.140254999999998,STU
807618100000.0,1.0861977338790894,-2.5378360748291016,5.710048198699951,-6.695157051086426,-0.45121338963508606,1.1304061,0.5729916,121.09686,-129.79655,-14.856823,STU
807623300000.0,1.0911954641342163,-2.4242231845855713,5.766206741333008,-6.738145351409912,-0.5381296873092651,1.0693196000000003,0.70616025,120.85666,-129.3488,-14.5655775,STU
807628500000.0,1.0961943864822388,-2.3007102012634277,5.846336364746094,-6.803808212280273,-0.6123078465461731,1.1194104999999999,0.8585710999999999,120.66932,-128.83562,-14.185162,STU
807633700000.0,1.1011929512023926,-2.1706247329711914,5.950464725494385,-6.881925582885742,-0.6712037920951843,1.2449434,1.0088439,120.50365,-128.33566000000002,-13.780826999999999,STU
807638860000.0,1.1061913967132568,-2.0571398735046387,6.063830852508545,-6.914239883422852,-0.7171946167945862,1.2806790000000001,1.1157454,120.35659,-127.87776000000001,-13.264902,STU
807644040000.0,1.111190915107727,-1.9654134511947632,6.18244743347168,-6.887881755828857,-0.7540932893753052,1.0900891000000001,1.1343768,120.24621,-127.46571000000002,-12.763525,STU
807649200000.0,1.1161887645721436,-1.9098131656646729,6.3110809326171875,-6.796736240386963,-0.7856398224830627,0.7415904000000001,1.058324,120.18608,-127.05729,-12.229392,STU
807654400000.0,1.1211880445480347,-1.8953286409378052,6.451540946960449,-6.639404773712158,-0.8173445463180542,0.39736784,0.91507614,120.163124,-126.67253999999998,-11.750959,STU
807659500000.0,1.1261873245239258,-1.912554383277893,6.61284065246582,-6.456122875213623,-0.8562307953834534,0.12064589,0.784351,120.2581,-126.13051999999999,-11.396275,STU
807664600000.0,1.131191372871399,-1.9580734968185425,6.797525405883789,-6.259440898895264,-0.9039505124092102,-0.10659598599999999,0.67103547,120.401665,-125.59173600000001,-11.126056,STU
807669700000.0,1.1361933946609497,-2.024817943572998,7.004099369049072,-6.075349807739258,-0.9580145478248596,-0.21135938,0.5849035,120.62718000000001,-124.86676000000001,-11.066055,STU
807674840000.0,1.1411917209625244,-2.109556198120117,7.231411457061768,-5.913119316101074,-1.012485384941101,-0.45570546,0.54153204,120.93632,-124.13923999999999,-11.069371,STU
807679950000.0,1.1461901664733887,-2.2079052925109863,7.48065710067749,-5.778520584106445,-1.0677645206451416,-0.6792821,0.44073927,121.24649,-123.31361399999999,-11.111574000000001,STU
807685060000.0,1.1511892080307007,-2.315751314163208,7.7524919509887695,-5.676400184631348,-1.1220835447311401,-0.82833326,0.344528,121.59128,-122.50356000000001,-11.180259,STU
807690240000.0,1.1562302112579346,-2.424989938735962,8.035622596740723,-5.603394508361816,-1.1748424768447876,-0.86406887,0.24770586,121.92456000000001,-121.7074,-11.316067,STU
807695350000.0,1.1612259149551392,-2.530876398086548,8.318070411682129,-5.549919605255127,-1.225229263305664,-0.7761043000000001,0.14385876,122.246544,-120.93996399999999,-11.469610000000001,STU
807700460000.0,1.1662222146987915,-2.629333734512329,8.582989692687988,-5.503659725189209,-1.2712867259979248,-0.63285637,0.05100725,122.52595500000001,-120.22336999999999,-11.646255499999999,STU
807705600000.0,1.1712191104888916,-2.7175827026367188,8.818122863769531,-5.454642295837402,-1.3083136081695557,-0.5174029,-0.017715093,122.77726000000001,-119.56288,-11.822136,STU
807710600000.0,1.176215648651123,-2.8004817962646484,9.007454872131348,-5.4012556076049805,-1.3334218263626099,-0.45265114,-0.048258353,122.97218000000001,-118.97256999999999,-11.98455,STU
807715700000.0,1.1812176704406738,-2.8807449340820312,9.142657279968262,-5.3425679206848145,-1.3474417924880981,-0.38362336,-0.03940081,123.13206000000001,-118.43852,-12.127807,STU
807720700000.0,1.1862168312072754,-2.9566431045532227,9.229532241821289,-5.280911922454834,-1.3560593128204346,-0.28130344,-0.015271631,123.24535,-117.94852,-12.250706,STU
807725760000.0,1.191213846206665,-3.027256488800049,9.271607398986816,-5.217582702636719,-1.3635176420211792,-0.16310102,-0.00580322,123.33599,-117.50283,-12.35709,STU
807730800000.0,1.196211814880371,-3.086862564086914,9.284303665161133,-5.153443813323975,-1.3728898763656616,-0.043676864,-0.004581489,123.35663600000001,-117.12361000000001,-12.478564,STU
807735850000.0,1.201209545135498,-3.1313486099243164,9.27993106842041,-5.089210510253906,-1.386255145072937,0.07544186,-0.0021380284,123.349075,-116.74746,-12.577908500000001,STU
807740900000.0,1.2062073945999146,-3.157848834991455,9.26338005065918,-5.028999328613281,-1.401870608329773,0.20128010000000002,0.0018325957999999999,123.271515,-116.42145,-12.688196000000001,STU
807745950000.0,1.2112040519714355,-3.1614739894866943,9.241808891296387,-4.979240417480469,-1.4185583591461182,0.31826079999999995,0.022602014,123.16953999999998,-116.08713,-12.777307,STU
807751000000.0,1.2162014245986938,-3.144258737564087,9.215360641479492,-4.939103603363037,-1.4357240200042725,0.42027529999999996,0.049785517,123.03441000000001,-115.741425,-12.822415,STU
807756040000.0,1.2211995124816895,-3.1083309650421143,9.184203147888184,-4.907733917236328,-1.4519097805023193,0.47616947,0.07880162,122.88701999999999,-115.40066499999999,-12.852202,STU
807761150000.0,1.2262401580810547,-3.056037664413452,9.151374816894531,-4.87757682800293,-1.466679573059082,0.4822781,0.10476339,122.71803999999999,-115.0425,-12.806695,STU
807766200000.0,1.2312430143356323,-2.995551109313965,9.120076179504395,-4.843756198883057,-1.4795228242874146,0.41630468,0.12614368,122.56411999999999,-114.69436,-12.757227,STU
807771240000.0,1.2362388372421265,-2.9281251430511475,9.094413757324219,-4.801182746887207,-1.4905259609222412,0.33628133,0.14477506,122.402534,-114.33414499999999,-12.644347,STU
807776300000.0,1.2412346601486206,-2.856304168701172,9.078880310058594,-4.744901180267334,-1.5004380941390991,0.15821409,0.19211712,122.30063,-113.97923999999999,-12.538176,STU
807781340000.0,1.2462310791015625,-2.7802205085754395,9.076411247253418,-4.678704738616943,-1.5081291198730469,-0.08246681,0.26878070000000004,122.24813,-113.59078999999998,-12.396939999999999,STU
807786400000.0,1.251227855682373,-2.7000210285186768,9.089920043945312,-4.606379985809326,-1.51430344581604,-0.32650748,0.37812558,122.26071,-113.19981399999999,-12.255108,STU
807791400000.0,1.256224513053894,-2.6217024326324463,9.116792678833008,-4.539456367492676,-1.5173652172088623,-0.5131268,0.5140431,122.34000400000001,-112.73977,-12.078364,STU
807796500000.0,1.26121985912323,-2.5528998374938965,9.153935432434082,-4.4926347732543945,-1.518310546875,-0.54825157,0.65668017,122.45951000000001,-112.27305,-11.880931,STU
807801500000.0,1.2662162780761719,-2.496417760848999,9.20100212097168,-4.468143463134766,-1.5173499584197998,-0.44684792,0.79137594,122.62486000000001,-111.74068,-11.617117,STU
807806570000.0,1.2712135314941406,-2.45596981048584,9.257582664489746,-4.469001770019531,-1.5172868967056274,-0.2321288,0.91599244,122.78094499999999,-111.1952,-11.314480999999999,STU
807811600000.0,1.2762104272842407,-2.4333767890930176,9.325942039489746,-4.489593029022217,-1.5177481174468994,0.02687807,1.0433578000000001,122.874825,-110.68172,-10.990076,STU
807816660000.0,1.2812105417251587,-2.432270050048828,9.41016960144043,-4.52243709564209,-1.518900990486145,0.2706133,1.1688906000000001,122.92499,-110.15683,-10.622789,STU
807821700000.0,1.286205768585205,-2.4539573192596436,9.50898265838623,-4.560324668884277,-1.5222874879837036,0.45570546,1.278541,122.88144,-109.68651000000001,-10.263097,STU
807826750000.0,1.291203260421753,-2.502998113632202,9.622321128845215,-4.592658519744873,-1.527674674987793,0.5653558000000001,1.3374895,122.80143999999999,-109.21538500000001,-9.880307,STU
807831800000.0,1.2962169647216797,-2.5866010189056396,9.753336906433105,-4.6178717613220215,-1.5371859073638916,0.6478225999999999,1.3414601000000002,122.63962,-108.76843999999998,-9.527306,STU
807836800000.0,1.3012144565582275,-2.718980312347412,9.906582832336426,-4.632220268249512,-1.5527501106262207,0.7110472,1.3087788,122.46166000000001,-108.31158400000001,-9.173608999999999,STU
807841800000.0,1.306229829788208,-2.902860403060913,10.08431625366211,-4.634839057922363,-1.5748096704483032,0.7476991,1.1921035,122.23431399999998,-107.86908000000001,-8.92485,STU
807846800000.0,1.3112248182296753,-3.090759754180908,10.271924018859863,-4.623729705810547,-1.6031649112701416,0.7302894,1.0094548,122.00492,-107.42178999999999,-8.710772,STU
807851800000.0,1.3162214756011963,-3.283630132675171,10.470512390136719,-4.598477363586426,-1.637219786643982,0.6215554,0.7901541999999999,121.76633000000001,-107.0228,-8.689403,STU
807856800000.0,1.3212196826934814,-3.4711458683013916,10.672518730163574,-4.559911727905273,-1.673561692237854,0.4465425,0.56688297,121.542946,-106.64173999999998,-8.724675,STU
807861800000.0,1.3262145519256592,-3.652637243270874,10.876906394958496,-4.50901460647583,-1.7124431133270264,0.33383787,0.35277468,121.32319,-106.270706,-8.818666,STU
807866800000.0,1.3312134742736816,-3.816467761993408,11.071090698242188,-4.465410232543945,-1.7537449598312378,0.071776666,0.14477506,121.18075,-105.89707,-9.013183999999999,STU
807871800000.0,1.336207389831543,-3.9622836112976074,11.253936767578125,-4.431061744689941,-1.7961012125015259,-0.22235495,0.052534412999999995,121.07847,-105.545975,-9.236251,STU
807876800000.0,1.341206669807434,-4.090681552886963,11.426009178161621,-4.405746936798096,-1.8404160737991333,-0.44135013,-0.12217305,121.02241000000001,-105.20713,-9.542365,STU
807881800000.0,1.346201777458191,-4.202922821044922,11.587918281555176,-4.388735771179199,-1.8815065622329712,-0.52015173,-0.25289822,121.01253999999999,-104.91628999999999,-9.860059,STU
807886800000.0,1.351199984550476,-4.289380073547363,11.737955093383789,-4.361932754516602,-1.9139450788497925,-0.46975538,-0.35827246,121.01825,-104.68902,-10.21021,STU
807891760000.0,1.3561943769454956,-4.349976062774658,11.876411437988281,-4.32273006439209,-1.9370533227920532,-0.36254853,-0.43951756,121.02936000000001,-104.52346999999999,-10.57827,STU
807896740000.0,1.3611921072006226,-4.383779525756836,12.003890037536621,-4.2514848709106445,-1.9536725282669067,-0.29901853,-0.5155702999999999,121.04255,-104.41067,-10.912175,STU
807901700000.0,1.3661887645721436,-4.39231538772583,12.121042251586914,-4.147449970245361,-1.9659878015518188,-0.35094208,-0.5555819000000001,121.06081999999999,-104.350975,-11.246257,STU
807906800000.0,1.3711875677108765,-4.382876396179199,12.2275390625,-4.011873722076416,-1.976507306098938,-0.45937067,-0.59131753,121.08465600000001,-104.26881,-11.536109,STU
807911750000.0,1.376185655593872,-4.357597827911377,12.323860168457031,-3.846810817718506,-1.9865150451660156,-0.5925393,-0.6105598000000001,121.13431499999999,-104.22006999999999,-11.824264999999999,STU
807916800000.0,1.38118577003479,-4.316102504730225,12.41338062286377,-3.6677534580230713,-1.998252034187317,-0.7339545999999999,-0.5870415,121.24646000000001,-104.07711,-12.039034,STU
807921800000.0,1.3861840963363647,-4.259092807769775,12.497600555419922,-3.481306314468384,-2.0124237537384033,-0.83260936,-0.5403103,121.38861999999999,-103.95663499999999,-12.24572,STU
807926800000.0,1.3911832571029663,-4.187180995941162,12.570036888122559,-3.313572883605957,-2.029388666152954,-0.8142834,-0.49296826,121.56731,-103.76095,-12.392292999999999,STU
807931800000.0,1.3961845636367798,-4.101069927215576,12.629597663879395,-3.1700551509857178,-2.0486721992492676,-0.6771441,-0.44837508,121.74408000000001,-103.58221400000001,-12.517113,STU
807936800000.0,1.4011839628219604,-4.010756015777588,12.673745155334473,-3.0715556144714355,-2.0708835124969482,-0.4896085,-0.42485678,121.91579399999999,-103.35905,-12.574299,STU
807941770000.0,1.4061824083328247,-3.919344425201416,12.702177047729492,-3.023022174835205,-2.0948410034179688,-0.26939157,-0.39125920000000003,122.0419,-103.15644,-12.605896000000001,STU
807946750000.0,1.4111804962158203,-3.8352911472320557,12.713118553161621,-3.031590223312378,-2.117912530899048,-0.099571034,-0.3368922,122.12395,-102.928154,-12.5544195,STU
807951800000.0,1.4161803722381592,-3.7607831954956055,12.70659065246582,-3.09759783744812,-2.1370849609375,0.0021380284,-0.31764993,122.166725,-102.733025,-12.49836,STU
807956800000.0,1.4211795330047607,-3.687267303466797,12.68762493133545,-3.2066245079040527,-2.1481549739837646,-0.0033597588,-0.31490102,122.11993999999999,-102.56770999999999,-12.4203205,STU
807961760000.0,1.426178216934204,-3.610245943069458,12.659065246582031,-3.3504045009613037,-2.144115686416626,-0.06047566,-0.30329459999999997,122.06756000000001,-102.42263,-12.334605999999999,STU
807966800000.0,1.4311816692352295,-3.5245556831359863,12.614160537719727,-3.4981720447540283,-2.116657018661499,-0.33292156,-0.29565877,122.01058,-102.36528,-12.300575,STU
807971850000.0,1.4361839294433594,-3.4289703369140625,12.551506042480469,-3.6383230686187744,-2.076500415802002,-0.7165449,-0.25625798,122.00828600000001,-102.30345,-12.256469000000001,STU
807976800000.0,1.4411828517913818,-3.329721212387085,12.4614839553833,-3.754124641418457,-2.0082077980041504,-1.0622946000000002,-0.21380283,122.02689,-102.30156,-12.246975,STU
807981800000.0,1.4461818933486938,-3.2286739349365234,12.34170913696289,-3.8411641120910645,-1.917641282081604,-1.3005321,-0.15790866,122.124374,-102.291824,-12.225319,STU
807986800000.0,1.4511812925338745,-3.1312568187713623,12.182520866394043,-3.90147066116333,-1.811733603477478,-1.4364496,-0.124005646,122.28478999999999,-102.28894,-12.19765,STU
807991800000.0,1.4561798572540283,-3.0438928604125977,11.97226333618164,-3.9371731281280518,-1.6969670057296753,-1.4877623,-0.10995574,122.482574,-102.29782,-12.164214999999999,STU
807996750000.0,1.461178183555603,-2.967285394668579,11.70988655090332,-3.95371150970459,-1.5780456066131592,-1.4367551,-0.09682214,122.69893,-102.31618,-12.130945,STU
808001800000.0,1.466179609298706,-2.903271198272705,11.390387535095215,-3.959759473800659,-1.4566069841384888,-1.2999213,-0.112399206,122.89506000000002,-102.36357,-12.104948,STU
808006840000.0,1.47118079662323,-2.8479108810424805,11.028438568115234,-3.9577102661132812,-1.332964301109314,-1.0992520000000001,-0.13041973,123.02141,-102.446915,-12.102477,STU
808011800000.0,1.4761793613433838,-2.7972819805145264,10.638453483581543,-3.949918270111084,-1.2093836069107056,-0.8750645,-0.13652839,123.08984,-102.55490999999999,-12.102189,STU
808016900000.0,1.4812272787094116,-2.74716854095459,10.230424880981445,-3.9335837364196777,-1.086512804031372,-0.6398814,-0.12767084,123.04046000000001,-102.735466,-12.15438,STU
808021850000.0,1.4862239360809326,-2.695913076400757,9.826884269714355,-3.910895824432373,-0.9645907282829285,-0.3930918,-0.11453723,122.91295,-102.94353000000001,-12.205124,STU
808026830000.0,1.4912192821502686,-2.6469295024871826,9.429191589355469,-3.8821568489074707,-0.8436481952667236,-0.14538592,-0.087659165,122.74525,-103.23084,-12.306318,STU
808031800000.0,1.4962174892425537,-2.6063807010650635,9.044843673706055,-3.8498847484588623,-0.7253909707069397,0.08552113,-0.07238753,122.50303999999998,-103.54324,-12.401757,STU
808036800000.0,1.5012121200561523,-2.5753793716430664,8.675004005432129,-3.8207571506500244,-0.6083574295043945,0.31581733,-0.07727446,122.22155,-103.89044,-12.496297,STU
808041800000.0,1.5062096118927002,-2.556607961654663,8.321748733520508,-3.8059232234954834,-0.4928242266178131,0.53969944,-0.09621128,121.86901,-104.26503000000001,-12.583005,STU
808046760000.0,1.5112048387527466,-2.548811435699463,7.9853835105896,-3.806528091430664,-0.37664416432380676,0.7470882,-0.12492194,121.47559,-104.71117,-12.704378,STU
808051800000.0,1.5162031650543213,-2.5501322746276855,7.669053554534912,-3.8297784328460693,-0.2581263482570648,0.8707884,-0.16279559,121.036,-105.20082,-12.826334,STU
808056800000.0,1.5211989879608154,-2.5569655895233154,7.373504638671875,-3.870696544647217,-0.13171455264091492,0.929126,-0.21288654,120.54521000000001,-105.82274,-12.994091000000001,STU
808061760000.0,1.5261969566345215,-2.5608413219451904,7.102901458740234,-3.9193367958068848,0.006239885464310646,0.9474520000000001,-0.23884831,120.02543999999999,-106.50908000000001,-13.157577499999999,STU
808066800000.0,1.5311963558197021,-2.5602128505706787,6.856908798217773,-3.9726319313049316,0.14615298807621002,0.979217,-0.23884831,119.44742,-107.30593,-13.34496,STU
808071860000.0,1.5362155437469482,-2.537652015686035,6.64519739151001,-4.004032135009766,0.2976216673851013,1.0632110000000001,-0.17867808,118.84673000000001,-108.21479,-13.510263,STU
808076900000.0,1.5412273406982422,-2.495201349258423,6.467374801635742,-4.0130767822265625,0.4641157388687134,1.1215485,-0.13683382,118.2044,-109.20228999999999,-13.663576999999998,STU
808081900000.0,1.5462238788604736,-2.4214236736297607,6.360231399536133,-3.9622914791107178,0.6273525357246399,1.3918563999999998,-0.038789943,117.48118000000001,-110.19536000000001,-13.754319,STU
808086900000.0,1.5512568950653076,-2.3111770153045654,6.332411766052246,-3.842829465866089,0.7868871688842773,1.6902641,0.074830994,116.6297,-111.10876499999999,-13.747865,STU
808091900000.0,1.556251883506775,-2.196743965148926,6.348395824432373,-3.692868709564209,0.9392707943916321,2.0076087,0.19120082,115.70523999999999,-112.0316,-13.68574,STU
808096900000.0,1.5612468719482422,-2.0832440853118896,6.408207416534424,-3.5137100219726562,1.0828498601913452,2.3484714,0.31887165,114.7053,-112.96396000000001,-13.556926,STU
808101900000.0,1.5662428140640259,-1.976269006729126,6.499387741088867,-3.309572458267212,1.2178981304168701,2.713158,0.43279803,113.933815,-113.58584599999999,-13.189713500000002,STU
808106850000.0,1.5712374448776245,-1.8778170347213745,6.615725517272949,-3.083218574523926,1.3449842929840088,3.0906727000000003,0.528093,113.08362,-114.20588000000001,-12.759323,STU
808111830000.0,1.576232671737671,-1.798626184463501,6.752106189727783,-2.830922842025757,1.4629374742507935,3.4413095,0.6032294,112.21113600000001,-114.62621000000001,-12.252056,STU
808116800000.0,1.5812320709228516,-1.7421977519989014,6.906275749206543,-2.5517308712005615,1.5692330598831177,3.7320812000000005,0.63407815,111.270775,-115.039825,-11.707686,STU
808121800000.0,1.5862301588058472,-1.7134076356887817,7.07794189453125,-2.248213768005371,1.6623926162719727,3.9522982000000004,0.60048056,110.25806000000001,-115.27702,-11.174849499999999,STU
808126840000.0,1.5912277698516846,-1.7140398025512695,7.266812324523926,-1.9217262268066406,1.7372562885284424,4.083634399999999,0.4908302,109.20853000000001,-115.48791999999999,-10.651449000000001,STU
808131900000.0,1.5962306261062622,-1.7433022260665894,7.472732067108154,-1.6337218284606934,1.7901926040649414,4.125173,0.2947425,108.225044,-115.54881999999999,-10.205060000000001,STU
808136900000.0,1.6012285947799683,-1.7987060546875,7.693894863128662,-1.4090477228164673,1.8169498443603516,4.0372086000000005,0.03176499,107.24225600000001,-115.55845,-9.824098,STU
808141850000.0,1.6062259674072266,-1.8520359992980957,7.971576690673828,-1.253067135810852,1.8178324699401855,3.1322113999999996,-0.3023783,106.6034,-115.44086000000001,-9.603168,STU
808146800000.0,1.6112253665924072,-1.888461947441101,8.326245307922363,-1.167015552520752,1.8368172645568848,1.2021828,-0.67256266,106.23105,-115.467445,-9.599375,STU
808151800000.0,1.616222620010376,-1.9019588232040405,8.726253509521484,-1.1633284091949463,1.9020109176635742,-1.2825116,-0.9963211999999999,106.15945,-115.69021599999999,-9.9255905,STU
808156860000.0,1.6212587356567383,-1.8859002590179443,9.16210651397705,-1.2606366872787476,2.0041306018829346,-3.7534616,-1.2195924999999999,106.57377,-116.00581000000001,-10.531651,STU
808161840000.0,1.6262527704238892,-1.8568251132965088,9.598739624023438,-1.4452227354049683,2.1202757358551025,-4.7314568,-1.2696834,107.16431999999999,-116.47418,-11.237214999999999,STU
808166800000.0,1.6312490701675415,-1.8262102603912354,10.007890701293945,-1.7609533071517944,2.231370687484741,-6.0035834,-1.2425,108.46088400000001,-117.04733,-12.254778,STU
808171800000.0,1.6362433433532715,-1.797919750213623,10.383489608764648,-2.156873941421509,2.325199842453003,-6.3649106,-1.176221,109.69001999999999,-117.79685,-13.101381,STU
808176800000.0,1.6412396430969238,-1.775439977645874,10.71982192993164,-2.589899778366089,2.3935678005218506,-5.979149,-1.1294898000000002,111.03228999999999,-118.47613999999999,-13.975253,STU
808181760000.0,1.6462345123291016,-1.7559312582015991,11.026779174804688,-3.046837091445923,2.431760311126709,-5.2018227999999995,-1.0839803,112.17735,-119.35146,-14.766906,STU
808186740000.0,1.6512291431427002,-1.7314610481262207,11.329629898071289,-3.493675708770752,2.44258975982666,-4.318206299999999,-0.9877690999999998,113.17736000000001,-120.09121999999999,-15.454270999999999,STU
808191700000.0,1.6562225818634033,-1.7019624710083008,11.632104873657227,-3.9144301414489746,2.433716297149658,-3.50881,-0.8756753,113.871605,-120.89125,-16.033714,STU
808196800000.0,1.6612178087234497,-1.6661804914474487,11.949040412902832,-4.242623329162598,2.4125704765319824,-3.0192015,-0.7761043000000001,114.41025,-121.56773999999999,-16.511847,STU
808201750000.0,1.6662119626998901,-1.6245288848876953,12.265579223632812,-4.517514228820801,2.3836803436279297,-2.8478537,-0.67347896,114.833145,-122.15258999999999,-16.877563000000002,STU
808206700000.0,1.6712074279785156,-1.5772517919540405,12.5581636428833,-4.7995195388793945,2.349135398864746,-2.6618452,-0.56596667,115.12871000000001,-122.65704,-17.150246,STU
808211800000.0,1.6762045621871948,-1.5335224866867065,12.809779167175293,-5.0838422775268555,2.3164801597595215,-2.1801782000000003,-0.48197266,115.46100600000001,-122.96596000000001,-17.333984,STU
808216760000.0,1.6811968088150024,-1.5092194080352783,12.99008846282959,-5.361902713775635,2.2879905700683594,-1.5726726,-0.48930305,115.70438999999999,-123.24708600000001,-17.469151999999998,STU
808221740000.0,1.6861895322799683,-1.5074046850204468,13.097997665405273,-5.630676746368408,2.2598798274993896,-1.0369438,-0.5342017,115.82311000000001,-123.55686000000001,-17.524960999999998,STU
808226800000.0,1.6911886930465698,-1.5518823862075806,13.111273765563965,-5.867877006530762,2.2260401248931885,-0.5720753000000001,-0.59773165,115.79326999999999,-123.850876,-17.51708,STU
808231760000.0,1.6961827278137207,-1.6404237747192383,13.048294067382812,-6.071903705596924,2.1816329956054688,-0.20861048,-0.6985244,115.55542,-124.251526,-17.538612,STU
808236740000.0,1.7011774778366089,-1.7755128145217896,12.92902946472168,-6.236886501312256,2.124096393585205,0.08002335,-0.79717916,115.20893000000001,-124.60741000000002,-17.522566,STU
808241700000.0,1.7061711549758911,-1.9468456506729126,12.765423774719238,-6.362647533416748,2.0529744625091553,0.32498032,-0.8735373,114.67049399999999,-125.00697,-17.596208999999998,STU
808246700000.0,1.7111660242080688,-2.138079881668091,12.5762939453125,-6.44622278213501,1.9679818153381348,0.50946164,-0.8909469999999999,114.07501,-125.33063999999999,-17.646475,STU
808251700000.0,1.7161613702774048,-2.3410322666168213,12.364683151245117,-6.4913330078125,1.869597315788269,0.6356053,-0.8390234000000001,113.4048,-125.64047,-17.801464000000003,STU
808256730000.0,1.721157193183899,-2.536691665649414,12.13591480255127,-6.503590106964111,1.760650634765625,0.6966918000000001,-0.786489,112.71458,-125.87933000000001,-17.941198,STU
808261800000.0,1.7261580228805542,-2.7218453884124756,11.890114784240723,-6.486016273498535,1.6498759984970093,0.7959574,-0.6377433000000001,112.07788000000001,-126.06663999999999,-18.113218,STU
808266760000.0,1.7311575412750244,-2.8868980407714844,11.627931594848633,-6.445744037628174,1.5326014757156372,0.8790351000000001,-0.46883908,111.45352,-126.15166,-18.258492,STU
808271800000.0,1.7361576557159424,-3.031919002532959,11.349689483642578,-6.3814005851745605,1.4127545356750488,0.93615097,-0.312763,110.95116399999999,-126.21445,-18.397129999999997,STU
808276800000.0,1.7411566972732544,-3.1537182331085205,11.054763793945312,-6.28319787979126,1.2923766374588013,0.904386,-0.17898351,110.48015,-126.21106,-18.501268,STU
808281830000.0,1.7461580038070679,-3.2526965141296387,10.744728088378906,-6.154730796813965,1.1744911670684814,0.7632760999999999,-0.09010262,110.09561000000001,-126.17258000000001,-18.598145000000002,STU
808286800000.0,1.7511571645736694,-3.3283679485321045,10.42416763305664,-6.00506067276001,1.061846375465393,0.53023106,-0.036651913,109.76281000000002,-126.10623999999999,-18.691874,STU
808291800000.0,1.7561564445495605,-3.381450891494751,10.093043327331543,-5.8381218910217285,0.9551559686660767,0.31398472,-0.0012217305,109.53638000000001,-125.99635,-18.79407,STU
808296800000.0,1.7611544132232666,-3.411858320236206,9.750653266906738,-5.665868282318115,0.8543466925621033,0.1441642,0.00030543262000000003,109.36203,-125.88614,-18.921136999999998,STU
808301760000.0,1.7661538124084473,-3.4207401275634766,9.398825645446777,-5.488354682922363,0.759333074092865,0.03390302,-0.014049901000000002,109.25783500000001,-125.75178999999999,-19.05278,STU
808306740000.0,1.7711528539657593,-3.410158157348633,9.047237396240234,-5.305397033691406,0.6682924032211304,-0.02107485,0.036957346,109.19333999999999,-125.60673500000001,-19.185959,STU
808311800000.0,1.77615487575531,-3.380988836288452,8.695443153381348,-5.116937160491943,0.5803130269050598,-0.049480084,0.122478485,109.174675,-125.46919,-19.323612,STU
808316800000.0,1.7811589241027832,-3.3364241123199463,8.337244987487793,-4.918290138244629,0.494515597820282,-0.057726767000000005,0.23609942,109.17623999999999,-125.31641,-19.447489,STU
808321900000.0,1.786163330078125,-3.277860641479492,7.973743438720703,-4.710267543792725,0.4113047122955322,-0.056199603,0.34636059999999996,109.21226499999999,-125.130196,-19.534874,STU
808326860000.0,1.7911617755889893,-3.208858013153076,7.608903884887695,-4.494593620300293,0.3290124535560608,-0.07513642,0.4474588,109.27086000000001,-124.91407,-19.601364,STU
808331840000.0,1.796163558959961,-3.130061149597168,7.243121147155762,-4.271533012390137,0.24872928857803345,-0.13316862,0.552833,109.361626,-124.65767,-19.623756,STU
808336800000.0,1.8011627197265625,-3.046107530593872,6.884028911590576,-4.0453410148620605,0.1703481525182724,-0.22204952,0.64568454,109.47797,-124.37530500000001,-19.632374,STU
808341860000.0,1.8061652183532715,-2.957380533218384,6.531272888183594,-3.8162028789520264,0.095834881067276,-0.37110063,0.70524395,109.65033000000001,-124.05881000000001,-19.624782999999997,STU
808346850000.0,1.8111639022827148,-2.868206739425659,6.188314914703369,-3.5889251232147217,0.023860225453972816,-0.5338961999999999,0.7318166,109.85786999999999,-123.72036000000001,-19.617199,STU
808351800000.0,1.8161609172821045,-2.778571844100952,5.854567527770996,-3.363332986831665,-0.04444147273898125,-0.6270532,0.72234815,110.09906000000001,-123.355484,-19.599426,STU
808356800000.0,1.821161150932312,-2.6881253719329834,5.530326843261719,-3.144544839859009,-0.10791493952274323,-0.81061816,0.70341134,110.40992,-122.98981,-19.611162,STU
808361800000.0,1.8261609077453613,-2.5969228744506836,5.215399742126465,-2.9334335327148438,-0.16735464334487915,-0.9450084999999999,0.6075055,110.72004,-122.639175,-19.650291,STU
808366830000.0,1.8311645984649658,-2.49357533454895,4.911471843719482,-2.7409098148345947,-0.22238954901695251,-0.98929626,0.45875978,111.05568999999998,-122.2908,-19.713285,STU
808371800000.0,1.8361625671386719,-2.3782479763031006,4.618378162384033,-2.5668070316314697,-0.27343347668647766,-0.9630291,0.26694809999999997,111.39033500000001,-121.97256499999999,-19.819614,STU
808376800000.0,1.841160774230957,-2.247746229171753,4.34445333480835,-2.387606143951416,-0.3214153051376343,-0.86559606,0.051923547,111.69636000000001,-121.68705,-19.960403,STU
808381840000.0,1.8461668491363525,-2.101139545440674,4.091714859008789,-2.1957743167877197,-0.3680771291255951,-0.7806858,-0.15943582,111.975555,-121.438675,-20.148032999999998,STU
808386800000.0,1.8511651754379272,-1.9417920112609863,3.8608503341674805,-1.996167540550232,-0.4186980426311493,-0.8072583999999999,-0.3680463,112.21563,-121.21413000000001,-20.341932,STU
808391800000.0,1.8561639785766602,-1.7718247175216675,3.654611349105835,-1.79361891746521,-0.4750203490257263,-0.93645644,-0.5308419,112.44221,-121.01377,-20.580023,STU
808396800000.0,1.8611623048782349,-1.595741629600525,3.4710538387298584,-1.6003615856170654,-0.5369680523872375,-1.0656544,-0.66920286,112.73875,-120.69077,-20.786482,STU
808401760000.0,1.8661617040634155,-1.4214301109313965,3.3078815937042236,-1.4396967887878418,-0.602369487285614,-1.0906999,-0.75594574,113.03504,-120.37028500000001,-21.020681,STU
808406750000.0,1.8711600303649902,-1.2517088651657104,3.164292573928833,-1.3148672580718994,-0.6696570515632629,-0.95356065,-0.8026769,113.37992,-119.94533999999999,-21.201632,STU
808411800000.0,1.8761670589447021,-1.0897271633148193,3.040104389190674,-1.2314138412475586,-0.7370210886001587,-0.6591236,-0.84940815,113.68588999999999,-119.526825,-21.384693,STU
808416800000.0,1.881162166595459,-0.9365893602371216,2.9473581314086914,-1.1780339479446411,-0.8000788688659668,-0.25778514,-0.8738427,113.9106,-119.147575,-21.517657999999997,STU
808421750000.0,1.8861582279205322,-0.7937191128730774,2.904052972793579,-1.1456667184829712,-0.8550556898117065,0.16310102,-0.8378017,114.054405,-118.77278999999999,-21.609118,STU
808426730000.0,1.89115309715271,-0.6602709293365479,2.9152960777282715,-1.1281335353851318,-0.9019590020179749,0.5335908,-0.70066243,114.10088999999999,-118.49298,-21.64891,STU
808431800000.0,1.8961514234542847,-0.5354613065719604,2.988027811050415,-1.1194230318069458,-0.94219571352005,0.8875871999999999,-0.47342056,114.04991000000001,-118.20188999999999,-21.612535,STU
808436760000.0,1.9011459350585938,-0.42047667503356934,3.1284499168395996,-1.1239666938781738,-0.9808903932571411,1.2479976000000002,-0.17256944,113.862175,-117.79951499999999,-21.414348999999998,STU
808441740000.0,1.9061427116394043,-0.3169706165790558,3.348459482192993,-1.1477253437042236,-1.0233339071273804,1.6423112000000002,0.17715092,113.59318,-117.33443999999999,-21.107609,STU
808446700000.0,1.9111377000808716,-0.23041047155857086,3.6650936603546143,-1.1951478719711304,-1.072533130645752,2.1633792,0.605062,113.27622,-116.676346,-20.585823,STU
808451700000.0,1.9161350727081299,-0.1726316660642624,4.12087345123291,-1.2771011590957642,-1.1300487518310547,2.4947736000000003,1.1273518,112.945885,-115.90095,-19.935489999999998,STU
808456700000.0,1.9211294651031494,-0.15568026900291443,4.6716790199279785,-1.388790488243103,-1.190603256225586,3.288593,1.393689,112.40458999999998,-114.9852,-19.076624,STU
808461700000.0,1.9261326789855957,-0.19967025518417358,5.2681779861450195,-1.5268360376358032,-1.2644684314727783,4.188092,1.8964311999999999,111.80691499999999,-113.852516,-18.005997,STU
808466800000.0,1.9311333894729614,-0.3124158978462219,5.891739845275879,-1.661637544631958,-1.3533114194869995,5.1718907,2.2385156000000004,111.02928999999999,-112.61305,-16.798246,STU
808471800000.0,1.936135172843933,-0.514680027961731,6.518544673919678,-1.7463300228118896,-1.4534040689468384,6.083607,2.4037547000000004,110.043304,-111.3106,-15.504118,STU
808476800000.0,1.941133975982666,-0.7982427477836609,7.132197856903076,-1.7609425783157349,-1.561314582824707,6.3869014,2.4181101000000003,108.90796,-110.107956,-14.352858,STU
808481850000.0,1.946142554283142,-1.158196210861206,7.695002555847168,-1.6475023031234741,-1.6742335557937622,5.629734,2.2656991,107.82641000000001,-108.91453999999999,-13.281589499999999,STU
808486800000.0,1.951141595840454,-1.5771231651306152,8.203634262084961,-1.4602134227752686,-1.792203426361084,3.8792996,1.9929477999999998,107.21394,-107.97816999999999,-12.771225,STU
808491800000.0,1.956142783164978,-2.0343472957611084,8.638486862182617,-1.3135976791381836,-1.9161757230758667,1.7324138999999998,1.6517796999999999,106.93158000000001,-107.091095,-12.412608,STU
808496800000.0,1.961142897605896,-2.5115113258361816,9.017507553100586,-1.2249503135681152,-2.044137716293335,-0.09987647,1.2253957,106.787025,-106.05340600000001,-12.266749,STU
808501800000.0,1.9661445617675781,-2.9550423622131348,9.38905143737793,-1.2590901851654053,-2.161536455154419,-1.103528,0.7461719,106.97335,-105.21860500000001,-12.303766,STU
808506750000.0,1.9711447954177856,-3.36682391166687,9.753374099731445,-1.4081590175628662,-2.249450922012329,-1.3167200000000001,0.29443705,107.25312,-104.83545,-12.675673,STU
808511800000.0,1.9761452674865723,-3.7484991550445557,10.110937118530273,-1.6667362451553345,-2.2956981658935547,-1.3319917,-0.10415252,107.74009,-104.70864,-13.173635500000001,STU
808516850000.0,1.9811828136444092,-4.099964618682861,10.463894844055176,-2.0371720790863037,-2.299715042114258,-1.5027285,-0.41386122,108.31191000000001,-104.82285999999999,-13.757991,STU
808521800000.0,1.9861822128295898,-4.415826797485352,10.809671401977539,-2.3518404960632324,-2.2715816497802734,-1.7531831999999998,-0.68233645,108.90324,-105.144424,-14.409354,STU
808526900000.0,1.9911986589431763,-4.693629264831543,11.150843620300293,-2.605450391769409,-2.2231523990631104,-1.8600846999999998,-0.8772025,109.5601,-105.90899999999999,-15.207882999999999,STU
808531850000.0,1.9961962699890137,-4.928948402404785,11.476066589355469,-2.8080453872680664,-2.1663818359375,-1.7617353,-0.9960158000000001,110.18361999999999,-106.68592,-15.995626999999999,STU
808536830000.0,2.0011913776397705,-5.122344970703125,11.78632640838623,-2.960036039352417,-2.109771966934204,-1.6578883000000002,-1.028697,110.79905,-107.36115,-16.702703,STU
808541800000.0,2.006190061569214,-5.2637810707092285,12.0783109664917,-3.0560460090637207,-2.059206485748291,-1.6096298999999998,-0.9786060999999999,111.374374,-108.00336000000001,-17.371976999999998,STU
808546800000.0,2.011186361312866,-5.354737281799316,12.352237701416016,-3.0987536907196045,-2.0154378414154053,-1.5512923,-0.84788096,111.89391,-108.59070600000001,-17.983528,STU
808551800000.0,2.016185760498047,-5.397640228271484,12.605838775634766,-3.109710693359375,-1.9786081314086914,-1.4850134,-0.6542366999999999,112.40293999999999,-109.01534,-18.46278,STU
808556760000.0,2.021182060241699,-5.396202564239502,12.839629173278809,-3.0956571102142334,-1.9463781118392944,-1.2183707000000001,-0.52931476,112.82186999999999,-109.395096,-18.890938000000002,STU
808561800000.0,2.0261807441711426,-5.364558219909668,13.057531356811523,-3.0823147296905518,-1.9257949590682983,-0.63194007,-0.22021692,113.16138500000001,-109.52488000000001,-19.094667,STU
808566850000.0,2.031182050704956,-5.3072028160095215,13.26108169555664,-3.0754120349884033,-1.924392819404602,0.18906279,0.070554934,113.34338000000001,-109.60613000000001,-19.243595000000003,STU
808571800000.0,2.0361812114715576,-5.228649616241455,13.433789253234863,-3.034780502319336,-1.9419959783554077,0.77824235,0.20708331,113.41897,-109.54658,-19.260773,STU
808576800000.0,2.0411789417266846,-5.130832672119141,13.571710586547852,-2.949413299560547,-1.9718945026397705,0.86376345,0.20922135,113.40527,-109.44175,-19.226889,STU
808581800000.0,2.0461785793304443,-5.0376667976379395,13.666424751281738,-2.8692450523376465,-2.004171371459961,0.6621779000000001,0.18600847,113.26716599999999,-109.25743,-19.10582,STU
808586840000.0,2.051189422607422,-4.9644856452941895,13.712218284606934,-2.82641863822937,-2.032921314239502,0.39095375,0.111177474,113.13053000000001,-109.09836000000001,-19.001998999999998,STU
808591800000.0,2.0561881065368652,-4.908979415893555,13.715333938598633,-2.8162038326263428,-2.0543606281280518,0.17256944,0.014355333500000001,113.07806000000001,-108.926506,-18.881907,STU
808596800000.0,2.0611863136291504,-4.870805740356445,13.67629623413086,-2.838181972503662,-2.0622053146362305,-0.015882496,-0.09773844,113.1035,-108.80508400000001,-18.791388,STU
808601800000.0,2.066185474395752,-4.842108249664307,13.60841178894043,-2.8993780612945557,-2.0491549968719482,-0.22418754,-0.18142697,113.17675,-108.72291000000001,-18.72194,STU
808606760000.0,2.0711841583251953,-4.817057132720947,13.5219144821167,-3.003892183303833,-2.009063482284546,-0.5170974,-0.24953845,113.33567,-71.31891,-18.679482,STU
808611800000.0,2.0761826038360596,-4.759025573730469,13.395779609680176,-3.103381872177124,-1.9409140348434448,-0.7806858,-0.2947425,113.40778,-71.20626,-18.788994,STU
808616800000.0,2.0811822414398193,-4.649331092834473,13.21962833404541,-3.1725454330444336,-1.8482692241668701,-0.94897914,-0.30268374,113.53808000000001,-71.09114,-18.902835999999997,STU
808621800000.0,2.086181402206421,-4.509066581726074,12.992188453674316,-3.2223966121673584,-1.7373991012573242,-1.022283,-0.29321529999999996,113.60988600000002,-70.940575,-19.05661,STU
808626800000.0,2.0911803245544434,-4.352999210357666,12.713034629821777,-3.260711908340454,-1.6164368391036987,-0.9963211999999999,-0.28191432,113.69373999999999,-70.79077,-19.209082000000002,STU
808631800000.0,2.096179962158203,-4.180844783782959,12.384589195251465,-3.2925994396209717,-1.490705966949463,-0.8866709,-0.29962940000000005,113.81008,-109.28735,-19.286306,STU
808636800000.0,2.101179599761963,-3.9922780990600586,12.009546279907227,-3.3238649368286133,-1.3603790998458862,-0.7275404999999999,-0.3109304,113.89483999999999,-109.3665,-19.358189000000003,STU
808641800000.0,2.1061787605285645,-3.798926830291748,11.605887413024902,-3.3519461154937744,-1.2249037027359009,-0.52015173,-0.28771752,113.94043,-109.44455,-19.419176,STU
808646800000.0,2.1111767292022705,-3.609534978866577,11.18744945526123,-3.3749778270721436,-1.085970163345337,-0.39828414,-0.26053402,113.95483,-109.53759,-19.4817,STU
808651800000.0,2.116176128387451,-3.431212902069092,10.760354042053223,-3.386807918548584,-0.9448696970939636,-0.14019357,-0.24556783,113.82815,-109.64183,-19.534998,STU
808656760000.0,2.121175765991211,-3.2692813873291016,10.329745292663574,-3.3829574584960938,-0.8068940043449402,0.092240654,-0.21533000000000002,113.663124,-109.75288400000001,-19.573948,STU
808661750000.0,2.1261744499206543,-3.126155138015747,9.909992218017578,-3.3687186241149902,-0.6677258014678955,0.27672195,-0.2049453,113.39931999999999,-109.913284,-19.63185,STU
808666800000.0,2.1311748027801514,-3.003636360168457,9.511845588684082,-3.3481123447418213,-0.527721643447876,0.38270709999999997,-0.18845193,113.07983,-110.08921000000001,-19.675652,STU
808671800000.0,2.136174440383911,-2.9003188610076904,9.137365341186523,-3.3305587768554688,-0.38830965757369995,0.49235737,-0.15515977,112.62908999999999,-110.32043999999999,-19.755135,STU
808676800000.0,2.141173839569092,-2.815032720565796,8.788041114807129,-3.3236300945281982,-0.2505325675010681,0.6267477,-0.11453723,112.13153,-110.57507,-19.822573000000002,STU
808681800000.0,2.1461727619171143,-2.7439990043640137,8.466024398803711,-3.3255202770233154,-0.11422189325094223,0.8206975000000001,-0.09315695,111.58081000000001,-110.878914,-19.904808,STU
808686800000.0,2.151172637939453,-2.681861162185669,8.175692558288574,-3.3337650299072266,0.023142123594880104,1.0983357,-0.086132,110.95865,-111.21188000000001,-19.968626,STU
808691760000.0,2.156172275543213,-2.621873617172241,7.923122406005859,-3.3395557403564453,0.1625288426876068,1.4202617,-0.12034045,110.24513,-111.63058999999998,-20.057164999999998,STU
808696740000.0,2.161170482635498,-2.5570788383483887,7.714778423309326,-3.3337819576263428,0.305376797914505,1.7647897000000001,-0.16554448,109.43548600000001,-112.09763999999998,-20.126995,STU
808701800000.0,2.1661689281463623,-2.4862194061279297,7.549777030944824,-3.3106143474578857,0.45081788301467896,2.047315,-0.16737708,108.53339,-112.61977399999999,-20.178928,STU
808706800000.0,2.171168804168701,-2.407715320587158,7.427577972412109,-3.262794017791748,0.5980628132820129,2.2660046,-0.12705997,107.54504399999999,-113.19885,-20.206247,STU
808711750000.0,2.176166296005249,-2.323014974594116,7.3491315841674805,-3.184924364089966,0.7456807494163513,2.399784,-0.042455133,106.58412,-113.75838999999999,-20.143942000000003,STU
808716800000.0,2.1811702251434326,-2.2333736419677734,7.3185625076293945,-3.067507743835449,0.890917181968689,2.4449883,0.05467244,105.58998999999999,-114.357475,-20.047466,STU
808721800000.0,2.186166763305664,-2.142106771469116,7.338596343994141,-2.9194772243499756,1.0288856029510498,2.4071145,0.15699236,104.75147,-114.87865,-19.838144,STU
808726800000.0,2.1911685466766357,-2.0534284114837646,7.4215288162231445,-2.7487432956695557,1.1551389694213867,2.3759604,0.26572640000000003,103.91185,-115.40735,-19.587002,STU
808731800000.0,2.1961669921875,-1.9725011587142944,7.561718463897705,-2.565396308898926,1.266508936882019,2.418721,0.37140608,103.21278000000001,-115.77523000000001,-19.247013,STU
808736850000.0,2.201169013977051,-1.9102277755737305,7.757016181945801,-2.3866055011749268,1.3630399703979492,2.5537221000000003,0.42424592,102.50822,-116.1327,-18.883326999999998,STU
808741800000.0,2.206165313720703,-1.8665014505386353,8.000639915466309,-2.220823287963867,1.4450346231460571,2.7751607999999997,0.41508293,101.891594,-116.32381000000001,-18.461807,STU
808746800000.0,2.211165428161621,-1.8437213897705078,8.288637161254883,-2.085007667541504,1.5153998136520386,2.8948902999999997,0.35369098,101.27119,-116.50426000000002,-18.041739,STU
808751800000.0,2.2161624431610107,-1.8418022394180298,8.613011360168457,-1.9816032648086548,1.576627254486084,3.0925052,0.29962940000000005,100.6207,-116.60542,-17.59936,STU
808756840000.0,2.221163511276245,-1.8642126321792603,8.961969375610352,-1.9218939542770386,1.632736086845398,3.057075,0.14630222,99.991,-116.73743400000001,-17.220263,STU
808761800000.0,2.226163148880005,-1.89934504032135,9.328282356262207,-1.9050341844558716,1.6849920749664307,2.5952610000000003,-0.09468412,99.41489,-116.89128000000001,-16.912022,STU
808766870000.0,2.231165885925293,-1.9252562522888184,9.700414657592773,-1.934179663658142,1.739883542060852,1.5048665,-0.38912117,99.00522,-117.11331000000001,-16.737799,STU
808771900000.0,2.236192464828491,-1.939267873764038,10.075149536132812,-2.00459885597229,1.8071178197860718,-0.093462385,-0.61819565,98.82938399999999,-117.47568000000001,-16.740274,STU
808776900000.0,2.241192579269409,-1.9397708177566528,10.441011428833008,-2.0978987216949463,1.8972359895706177,-1.8283197,-0.7031059000000001,98.97616,-117.93536,-16.917007,STU
808781900000.0,2.2461917400360107,-1.9262175559997559,10.799574851989746,-2.215505361557007,2.0125670433044434,-3.3319644999999998,-0.68936145,99.426285,-118.54233,-17.21396,STU
808786850000.0,2.2511892318725586,-1.9192661046981812,11.119529724121094,-2.364884376525879,2.139835834503174,-4.361883,-0.66339964,100.20745,-119.20743999999999,-17.66514,STU
808791830000.0,2.25618839263916,-1.924269676208496,11.393712997436523,-2.5473313331604004,2.2604033946990967,-4.816978,-0.65576386,101.23131,-119.90146000000001,-18.214367000000003,STU
808796800000.0,2.2611865997314453,-1.9529101848602295,11.62785530090332,-2.7724835872650146,2.359928607940674,-4.727792,-0.6750060999999999,102.343925,-120.62773999999999,-18.745491,STU
808801800000.0,2.2661843299865723,-2.010556936264038,11.825657844543457,-3.0443928241729736,2.4317033290863037,-4.2189407,-0.7067711,103.4506,-121.29828,-19.273664,STU
808806900000.0,2.2712886333465576,-2.090092897415161,12.02637767791748,-3.3825089931488037,2.4764902591705322,-3.4648277999999997,-0.7110472,104.361046,-122.01903999999999,-19.779022,STU
808811900000.0,2.2762811183929443,-2.17368483543396,12.228535652160645,-3.737013101577759,2.5005784034729004,-2.702468,-0.7012733,105.113304,-122.64834599999999,-20.215918,STU
808816900000.0,2.281276226043701,-2.2518954277038574,12.449666023254395,-4.086453437805176,2.51080060005188,-2.1933117,-0.6383542,105.597664,-123.34678999999998,-20.626162,STU
808821850000.0,2.2862708568573,-2.317826509475708,12.692977905273438,-4.409666538238525,2.5120787620544434,-2.031127,-0.56505036,105.96088400000001,-123.96591000000001,-20.972984,STU
808826800000.0,2.2912650108337402,-2.371319532394409,12.92194652557373,-4.6899542808532715,2.5052478313446045,-2.071444,-0.50946164,106.15907,-124.59839,-21.257182999999998,STU
808831800000.0,2.2962586879730225,-2.412639617919922,13.119564056396484,-4.920535564422607,2.4884448051452637,-2.1197022999999997,-0.52015173,106.31165,-125.17105,-21.518564,STU
808836860000.0,2.3012561798095703,-2.455371141433716,13.255802154541016,-5.108570098876953,2.4612083435058594,-2.0259346999999996,-0.6200281999999999,106.51411999999999,-125.64168500000001,-21.74672,STU
808841840000.0,2.3062548637390137,-2.5065059661865234,13.317389488220215,-5.259373664855957,2.421213150024414,-1.7690656999999999,-0.7492262,106.67473999999999,-126.05495,-21.9672,STU
808846800000.0,2.311249017715454,-2.567030191421509,13.306715965270996,-5.3802876472473145,2.3668603897094727,-1.5879441,-0.82650065,106.89376000000001,-126.382484,-22.210943,STU
808851800000.0,2.3162448406219482,-2.6376867294311523,13.224295616149902,-5.475181579589844,2.307054042816162,-1.1838568,-0.9947940999999999,106.94524399999999,-126.7178,-22.437662,STU
808856800000.0,2.3212404251098633,-2.7164759635925293,13.075318336486816,-5.544790267944336,2.2318625450134277,-0.72082096,-1.1728611999999998,106.91573000000001,-127.01563,-22.72779,STU
808861760000.0,2.3262360095977783,-2.800938367843628,12.864627838134766,-5.589300155639648,2.142073154449463,-0.30726522,-1.2825116,106.77171000000001,-127.2906,-22.984798,STU
808866800000.0,2.3312339782714844,-2.881258010864258,12.611625671386719,-5.608046531677246,2.0393753051757812,-0.034208454,-1.2983941,106.48416999999999,-127.59303,-23.307451,STU
808871850000.0,2.3362343311309814,-2.9496867656707764,12.332533836364746,-5.60093355178833,1.9265244007110596,0.14172074,-1.2089024,106.11073,-127.82483,-23.578056,STU
808876900000.0,2.3412563800811768,-3.0038902759552,12.004379272460938,-5.547440528869629,1.8071702718734741,0.25992316,-1.0406090000000001,105.64463,-128.04941000000002,-23.881764999999998,STU
808881900000.0,2.3462555408477783,-3.044665813446045,11.625544548034668,-5.4441022872924805,1.6844104528427124,0.35521814,-0.8542950999999999,105.15864599999999,-128.20273,-24.130384,STU
808886860000.0,2.351252555847168,-3.070474147796631,11.21284294128418,-5.298791885375977,1.5602006912231445,0.43188173,-0.6927211999999999,104.70266,-128.30603,-24.371937,STU
808891840000.0,2.3562495708465576,-3.0801992416381836,10.793103218078613,-5.125670909881592,1.4360343217849731,0.48288897,-0.5662721,104.258354,-128.35153,-24.562439,STU
808896800000.0,2.36124587059021,-3.074751138687134,10.366806030273438,-4.92634916305542,1.3135205507278442,0.5213734999999999,-0.45998153,103.92206,-128.36731,-24.766327,STU
808901800000.0,2.366243839263916,-3.05478835105896,9.934002876281738,-4.701860427856445,1.1921155452728271,0.5348125,-0.36743546,103.600204,-128.33887,-24.937504,STU
808906800000.0,2.371239185333252,-3.017306089401245,9.5011625289917,-4.459324836730957,1.0705393552780151,0.5506949999999999,-0.28893927,103.313416,-128.28326,-25.093367,STU
808911800000.0,2.3762383460998535,-2.9575352668762207,9.075028419494629,-4.205684185028076,0.9489802122116089,0.5549710999999999,-0.19730948,103.045906,-128.19284,-25.222141,STU
808916800000.0,2.381235361099243,-2.878109931945801,8.65737247467041,-3.9438164234161377,0.827860414981842,0.5186246,-0.08155051,102.9271,-127.99691999999999,-25.30856,STU
808921860000.0,2.386235475540161,-2.7809669971466064,8.249978065490723,-3.67625093460083,0.7075960040092468,0.38759398,0.054367005999999996,102.8512,-127.76053,-25.382202,STU
808926840000.0,2.3912298679351807,-2.6711068153381348,7.853879928588867,-3.4085938930511475,0.5915271043777466,0.15913039999999998,0.21777347,102.87002,-127.44128400000001,-25.407902,STU
808931900000.0,2.3962302207946777,-2.5537807941436768,7.469930171966553,-3.147693157196045,0.48060208559036255,-0.14263703,0.38056904,102.9669,-127.08165,-25.428562,STU
808936870000.0,2.401224136352539,-2.431576728820801,7.099376201629639,-2.895162582397461,0.3745468258857727,-0.4654793,0.5342017,103.19498,-126.640396,-25.415018,STU
808941850000.0,2.406221866607666,-2.30967116355896,6.74623966217041,-2.6558310985565186,0.2725808918476105,-0.6160576,0.7125743,103.48718000000001,-126.15718000000001,-25.369345000000003,STU
808946900000.0,2.4112319946289062,-2.188852071762085,6.408341407775879,-2.4324967861175537,0.17363996803760529,-1.0549643,0.9230174000000001,103.98711,-125.61091599999999,-25.331438000000002,STU
808951900000.0,2.4162304401397705,-2.071885824203491,6.0824174880981445,-2.232269763946533,0.07775816321372986,-1.2049317,1.0250318999999999,104.45761,-125.04633999999999,-25.252438,STU
808956900000.0,2.421245574951172,-1.958387017250061,5.766914367675781,-2.055314064025879,-0.013209165073931217,-1.4456125,1.2363913,105.1216,-124.40855,-25.138417999999998,STU
808961900000.0,2.4262447357177734,-1.8505053520202637,5.456573009490967,-1.9028936624526978,-0.09739158302545547,-1.5836681000000001,1.2730431999999998,105.78861,-123.78688000000001,-25.039972,STU
808966900000.0,2.4312422275543213,-1.7479188442230225,5.150507926940918,-1.7744920253753662,-0.1750204712152481,-1.6245961000000002,1.2681563,106.47222,-123.165474,-24.90055,STU
808971860000.0,2.4362435340881348,-1.6501085758209229,4.851699352264404,-1.6696258783340454,-0.2456963211297989,-1.5851953,1.1753048000000001,107.164635,-122.56586000000001,-24.772762,STU
808976840000.0,2.4412360191345215,-1.5567810535430908,4.56127405166626,-1.586403727531433,-0.3095943331718445,-1.4865406,1.0369438,107.84431000000001,-121.98663,-24.648222,STU
808981900000.0,2.4462361335754395,-1.4691258668899536,4.283071994781494,-1.5157195329666138,-0.36683157086372375,-1.3646729,0.86406887,108.41925,-121.50957,-24.551048,STU
808986900000.0,2.4512317180633545,-1.3873894214630127,4.018448829650879,-1.4530434608459473,-0.4179746210575104,-1.2147056,0.6908886,108.94068999999999,-121.075195,-24.47318,STU
808991850000.0,2.4562301635742188,-1.3122001886367798,3.7641072273254395,-1.3986225128173828,-0.46277856826782227,-1.0659598,0.49296826,109.35484,-120.757126,-24.443922,STU
808996800000.0,2.4612276554107666,-1.2435593605041504,3.518491506576538,-1.3521846532821655,-0.5034205317497253,-0.89949906,0.29016098,109.70063,-120.48687,-24.444359,STU
809001800000.0,2.466226577758789,-1.1735484600067139,3.288872003555298,-1.3117114305496216,-0.5431824922561646,-0.6462954000000001,0.076052725,109.94459499999999,-120.28878999999999,-24.486382,STU
809006800000.0,2.471223831176758,-1.0991872549057007,3.0775506496429443,-1.2761731147766113,-0.5863271951675415,-0.38606682,-0.083383106,110.12223,-120.12195,-24.55216,STU
809011840000.0,2.476222515106201,-1.0220657587051392,2.8909106254577637,-1.2505220174789429,-0.6337974667549133,-0.14049901,-0.20555615,110.18961999999999,-120.02377,-24.661479999999997,STU
809016900000.0,2.481224298477173,-0.9429202675819397,2.7309017181396484,-1.23654305934906,-0.6832141876220703,0.14385876,-0.28924468,110.15563999999999,-119.94944,-24.778168,STU
809021870000.0,2.486222267150879,-0.8634521961212158,2.607858419418335,-1.2362749576568604,-0.73256915807724,0.47922380000000003,-0.31215215,110.05094,-119.87058999999999,-24.873371,STU
809026850000.0,2.4912214279174805,-0.7845646739006042,2.528439998626709,-1.2511614561080933,-0.7799775004386902,0.8481864,-0.26511553,109.84963,-119.79246,-24.94621,STU
809031800000.0,2.496220588684082,-0.7061409950256348,2.5030810832977295,-1.272398591041565,-0.8229223489761353,1.2128729999999999,-0.15393804,109.65684499999999,-119.76846,-25.031712,STU
809036800000.0,2.5012192726135254,-0.6281108260154724,2.5360989570617676,-1.2951066493988037,-0.8618693947792053,1.543351,0.037873644,109.37508999999999,-119.7142,-25.053635,STU
809041800000.0,2.5062174797058105,-0.5526739954948425,2.6428284645080566,-1.3204748630523682,-0.8988547921180725,1.6982054,0.30390546,108.948326,-119.488495,-24.8615,STU
809046800000.0,2.511214017868042,-0.4820805490016937,2.838808298110962,-1.3497045040130615,-0.9354968667030334,2.035403,0.45540005,108.37743,-119.2472,-24.608835,STU
809051800000.0,2.516211748123169,-0.4280104637145996,3.153872489929199,-1.3851711750030518,-0.973457932472229,2.4636195,0.8038987,107.85248,-118.75698999999999,-24.107615,STU
809056800000.0,2.521209239959717,-0.39653152227401733,3.6005916595458984,-1.427978754043579,-1.0180230140686035,3.01462,1.1905763,107.21216000000001,-118.20608500000002,-23.524326000000002,STU
809061840000.0,2.526212215423584,-0.4089636206626892,4.139410972595215,-1.483735203742981,-1.0717862844467163,3.6438112,1.5748106000000002,106.56109,-117.40333600000001,-22.701754,STU
809066900000.0,2.531214475631714,-0.47680535912513733,4.73913049697876,-1.555294394493103,-1.1413869857788086,4.4290785999999995,1.9407188999999998,105.73835,-116.48172,-21.743738,STU
809071900000.0,2.5362155437469482,-0.6256921887397766,5.371492385864258,-1.6288142204284668,-1.2296110391616821,5.3279667,2.2156084,104.87297,-115.27521499999999,-20.56035,STU
809076850000.0,2.541212558746338,-0.8719988465309143,6.015377998352051,-1.694373607635498,-1.3375656604766846,6.008165,2.411696,103.86293,-113.983406,-19.310534,STU
809081800000.0,2.5462100505828857,-1.215653896331787,6.65767240524292,-1.7445361614227295,-1.4695872068405151,6.245792,2.4510967999999997,102.73526,-112.696754,-18.155098000000002,STU
809086800000.0,2.5512077808380127,-1.6540002822875977,7.288081169128418,-1.7740471363067627,-1.6323527097702026,6.0600886,2.2589796000000004,101.52691,-111.37416999999999,-17.058232999999998,STU
809091800000.0,2.5562052726745605,-2.1375679969787598,7.8716721534729,-1.8213602304458618,-1.8292045593261719,5.179832,1.8032742,100.50627,-110.34097,-16.482924,STU
809096840000.0,2.561234474182129,-2.635382652282715,8.379817962646484,-1.9188777208328247,-2.0414953231811523,3.0118709999999997,1.2147056,99.89482,-109.38765,-16.117773,STU
809101800000.0,2.5662312507629395,-3.115757703781128,8.832778930664062,-2.074573040008545,-2.2082901000976562,1.0216721,0.623388,99.65699000000001,-109.05878999999999,-16.3877,STU
809106800000.0,2.571227550506592,-3.5578112602233887,9.236937522888184,-2.315690279006958,-2.300809860229492,-0.30573806,0.016493361,99.819084,-108.94448,-16.845121,STU
809111800000.0,2.5762252807617188,-3.9729411602020264,9.610533714294434,-2.596461772918701,-2.3192203044891357,-0.79198676,-0.5885687,100.01796999999999,-109.24805,-17.55471,STU
809116800000.0,2.5812289714813232,-4.372031211853027,9.970955848693848,-2.8735687732696533,-2.2878012657165527,-0.86834496,-1.0464121,100.458496,-109.7616,-18.362633,STU
809121800000.0,2.5862276554107666,-4.749217510223389,10.321168899536133,-3.1310486793518066,-2.22971773147583,-0.97524637,-1.3735305,100.920456,-110.60536,-19.316246,STU
809126800000.0,2.59122371673584,-5.052984237670898,10.682289123535156,-3.242182731628418,-2.159705638885498,-1.2516629,-1.5244142,101.4181,-111.52011,-20.285559,STU
809131840000.0,2.596275806427002,-5.274818420410156,11.058700561523438,-3.1913368701934814,-2.0895180702209473,-1.7217237,-1.5338826,101.927216,-112.470146,-21.27076,STU
809136800000.0,2.601268768310547,-5.432984352111816,11.414695739746094,-3.1271657943725586,-2.0290448665618896,-1.9321668,-1.4428637,102.41524,-113.37498000000001,-22.206854,STU
809141800000.0,2.6062633991241455,-5.516716957092285,11.751265525817871,-3.0460009574890137,-1.9860533475875854,-2.1624630000000002,-1.3881912,103.26104000000001,-113.94341999999999,-22.938157999999998,STU
809146800000.0,2.611258029937744,-5.52333927154541,12.064814567565918,-2.9638540744781494,-1.9535893201828003,-2.1255057,-1.2223413,104.088326,-114.430824,-23.5692,STU
809151800000.0,2.61625337600708,-5.451901435852051,12.353273391723633,-2.891417980194092,-1.938172459602356,-1.8347337,-0.9627235999999999,104.90343500000002,-114.82651000000001,-24.118907999999998,STU
809156800000.0,2.621248483657837,-5.320992469787598,12.605342864990234,-2.8381640911102295,-1.937136173248291,-1.4489723,-0.6291912,105.63891000000001,-114.95206499999999,-24.399179999999998,STU
809161800000.0,2.6262433528900146,-5.1443681716918945,12.81355094909668,-2.81050705909729,-1.9480863809585571,-1.0564915000000001,-0.34941490000000003,106.283134,-115.0108,-24.595987,STU
809166800000.0,2.631240129470825,-4.94206428527832,12.973456382751465,-2.8104825019836426,-1.968479871749878,-0.62796944,-0.118202426,106.76338999999999,-114.844154,-24.54725,STU
809171800000.0,2.6362369060516357,-4.732593536376953,13.081764221191406,-2.8394527435302734,-1.9938092231750488,-0.13347405,0.09040806,107.10116000000001,-114.61568999999999,-24.413063,STU
809176800000.0,2.641233205795288,-4.541208744049072,13.144831657409668,-2.881474494934082,-2.018423557281494,0.33536503,0.2660318,107.2569,-114.280426,-24.145935,STU
809181800000.0,2.646228790283203,-4.379244804382324,13.16679859161377,-2.928757667541504,-2.0388123989105225,0.7339545999999999,0.35827246,107.27923,-113.92463000000001,-23.84059,STU
809186750000.0,2.6512231826782227,-4.252237796783447,13.15428352355957,-2.976241111755371,-2.0552337169647217,0.93309665,0.36651915,107.144745,-113.57108999999998,-23.519665,STU
809191740000.0,2.6562182903289795,-4.166015625,13.113422393798828,-3.0189428329467773,-2.0670359134674072,0.9379835999999999,0.30115658,106.94787600000001,-113.225555,-23.196499,STU
809196800000.0,2.6612141132354736,-4.109093189239502,13.049243927001953,-3.0549049377441406,-2.0728702545166016,0.67347896,0.21838433,106.71615,-112.977516,-22.962837,STU
809201800000.0,2.666220188140869,-4.068791389465332,12.966639518737793,-3.081490993499756,-2.067715644836426,0.18539760000000002,0.13011430000000002,106.554474,-112.75941,-22.75368,STU
809206800000.0,2.671215295791626,-4.031114101409912,12.863567352294922,-3.1018941402435303,-2.044881820678711,-0.38881573,0.040927973,106.45689399999999,-112.67638000000001,-22.67509,STU
809211800000.0,2.676210641860962,-3.9821009635925293,12.734768867492676,-3.11869215965271,-1.999402403831482,-0.8530733,-0.014355333500000001,106.47774,-112.61375,-22.613733,STU
809216800000.0,2.6812057495117188,-3.9173383712768555,12.57632064819336,-3.1304707527160645,-1.9318817853927612,-1.1261301000000001,-0.03481932,106.59103999999999,-67.38105,-22.618439000000002,STU
809221750000.0,2.68620228767395,-3.830761194229126,12.38233470916748,-3.1353049278259277,-1.8458712100982666,-1.2287555000000001,-0.035430185,106.79281599999999,-67.36623,-22.63247,STU
809226700000.0,2.6911983489990234,-3.721602201461792,12.151880264282227,-3.1335930824279785,-1.7465555667877197,-1.2241739,-0.040317107000000005,107.018974,-67.3473,-22.651234,STU
809231800000.0,2.696195363998413,-3.5841569900512695,11.876590728759766,-3.1255955696105957,-1.6395108699798584,-1.1771374,-0.041233405,107.258354,-67.330246,-22.668974,STU
809236760000.0,2.70119047164917,-3.4227960109710693,11.562153816223145,-3.1183922290802,-1.5275254249572754,-1.1459832,-0.038789943,107.49412,-67.33306999999999,-22.666845000000002,STU
809241740000.0,2.7061877250671387,-3.2422935962677,11.214120864868164,-3.1225292682647705,-1.4173084497451782,-1.0861185,-0.029932396,107.700195,-112.66421499999998,-22.663963,STU
809246700000.0,2.71118426322937,-3.0456316471099854,10.835278511047363,-3.137286901473999,-1.3027105331420898,-0.98532563,0.008246681,107.88585,-112.62743999999999,-22.624725,STU
809251770000.0,2.716184139251709,-2.8406825065612793,10.428633689880371,-3.1622507572174072,-1.181914210319519,-0.8374963,0.043066,108.03236000000001,-112.5935,-22.584426999999998,STU
809256750000.0,2.7211804389953613,-2.633023738861084,10.005043983459473,-3.1914560794830322,-1.0555915832519531,-0.6588182,0.08735373,108.11591999999999,-112.53929,-22.515669,STU
809261800000.0,2.7261791229248047,-2.435924768447876,9.588062286376953,-3.2099814414978027,-0.9238906502723694,-0.45112398,0.13561209,108.13786999999999,-112.48656499999998,-22.435837,STU
809266800000.0,2.7311789989471436,-2.2531495094299316,9.179411888122559,-3.2203586101531982,-0.7900117635726929,-0.23945917,0.19914207,108.01454,-112.47225,-22.377064,STU
809271800000.0,2.736196517944336,-2.0987279415130615,8.784601211547852,-3.229088068008423,-0.6569194793701172,-0.07391469,0.2556471,107.83166999999999,-112.46768,-22.306086999999998,STU
809276800000.0,2.741194009780884,-1.9715657234191895,8.404633522033691,-3.2402234077453613,-0.5247509479522705,0.06536258,0.28619036,107.56868999999999,-112.5075,-22.25777,STU
809281850000.0,2.7461953163146973,-1.8804972171783447,8.04028606414795,-3.2654237747192383,-0.39213845133781433,0.17287487,0.27977628,107.25500500000001,-112.56918,-22.202526000000002,STU
809286800000.0,2.7511935234069824,-1.8219748735427856,7.692224025726318,-3.3034260272979736,-0.2560617923736572,0.2864958,0.24984388,106.79135,-112.76652,-22.25822,STU
809291800000.0,2.7561917304992676,-1.7917276620864868,7.363969326019287,-3.353239059448242,-0.11530573666095734,0.40225476,0.19486602,106.284966,-113.00299,-22.317179,STU
809296800000.0,2.761190176010132,-1.7856334447860718,7.057030200958252,-3.410357713699341,0.03347763046622276,0.5152648,0.12095132,105.7998,-113.31561,-22.370163,STU
809301800000.0,2.766187906265259,-1.7924158573150635,6.7799482345581055,-3.459695816040039,0.19147197902202606,0.6337727,0.03573562,105.265976,-113.70198,-22.432417,STU
809306800000.0,2.771190643310547,-1.8092561960220337,6.535860061645508,-3.4970033168792725,0.35810503363609314,0.77274454,-0.011301007,104.683624,-114.21836,-22.521411999999998,STU
809311800000.0,2.776189088821411,-1.8062628507614136,6.376092910766602,-3.4680604934692383,0.531581699848175,0.9111055,-0.021685716,104.05698000000001,-114.82431000000001,-22.608091,STU
809316800000.0,2.7811877727508545,-1.7841850519180298,6.297312259674072,-3.3753533363342285,0.7058238387107849,1.0644327,0.008857545999999999,103.38318000000001,-115.510796,-22.699972,STU
809321760000.0,2.7861862182617188,-1.7511743307113647,6.273398399353027,-3.2352845668792725,0.8756145238876343,1.2308934999999999,0.064751714,102.660576,-116.26156599999999,-22.764252,STU
809326800000.0,2.791184902191162,-1.7132539749145508,6.284843921661377,-3.060197591781616,1.0366007089614868,1.3988813999999998,0.10873401,101.89013,-117.06347,-22.797245,STU
809331850000.0,2.796187400817871,-1.673734188079834,6.3344221115112305,-2.850663185119629,1.1858985424041748,1.6074919,0.1160644,101.32861,-117.59105,-22.681684,STU
809336800000.0,2.8011863231658936,-1.635791540145874,6.423145771026611,-2.6089208126068115,1.3202406167984009,1.6804903000000002,0.113926366,100.76196,-118.120346,-22.5478,STU
809341800000.0,2.806185483932495,-1.6037992238998413,6.550858974456787,-2.3358380794525146,1.4427191019058228,1.8322903000000001,0.10995574,100.27132399999999,-118.51735,-22.343569,STU
809346800000.0,2.811183214187622,-1.5804587602615356,6.716176509857178,-2.033146381378174,1.5467716455459595,1.9779817,0.087659165,99.76254,-118.885025,-22.137178,STU
809351800000.0,2.8161826133728027,-1.5662760734558105,6.923567771911621,-1.7141103744506836,1.6308408975601196,2.0882428,0.05681047,99.34458000000001,-119.09947,-21.919376,STU
809356800000.0,2.8211817741394043,-1.5614486932754517,7.175411701202393,-1.3899266719818115,1.6939897537231445,2.1499403,0.014049901000000002,98.89816,-119.27977,-21.70504,STU
809361800000.0,2.8261804580688477,-1.5721379518508911,7.481645107269287,-1.110728144645691,1.734875202178955,2.1749856,-0.037873644,98.53826,-119.27037,-21.526638000000002,STU
809366850000.0,2.831181287765503,-1.6023573875427246,7.848731994628906,-0.9094381332397461,1.753772258758545,2.0891593,-0.09743301,98.19093000000001,-119.218475,-21.373648,STU
809371800000.0,2.8361806869506836,-1.6500498056411743,8.26388168334961,-0.7913817167282104,1.7636375427246094,1.6533068,-0.17195857,98.04914000000001,-119.07538000000001,-21.284517,STU
809376800000.0,2.841179370880127,-1.7136424779891968,8.716842651367188,-0.7618368864059448,1.7851524353027344,0.6948592,-0.30695978,98.07172,-118.97516,-21.293298999999998,STU
809381860000.0,2.846233367919922,-1.7723835706710815,9.186005592346191,-0.8303756713867188,1.8336155414581299,-0.6740898,-0.5183192,98.2875,-118.99774,-21.338376999999998,STU
809386840000.0,2.8512284755706787,-1.8170368671417236,9.643035888671875,-0.957179605960846,1.9107158184051514,-2.1215349999999997,-0.6835581999999999,98.7867,-119.10326,-21.509525,STU
809391800000.0,2.8562235832214355,-1.8479081392288208,10.083375930786133,-1.15085768699646,2.014113187789917,-3.3121114,-0.7651087,99.452484,-119.43103,-21.757193,STU
809396800000.0,2.861219882965088,-1.8751955032348633,10.474615097045898,-1.3900058269500732,2.132249355316162,-4.136474,-0.79229224,100.40932,-119.85068000000001,-22.135262,STU
809401800000.0,2.8662140369415283,-1.8991119861602783,10.819661140441895,-1.6715667247772217,2.248386859893799,-4.561025,-0.79045963,101.39576,-120.43675,-22.494255,STU
809406800000.0,2.871211528778076,-1.9257776737213135,11.11694622039795,-1.9934438467025757,2.346566677093506,-4.548808,-0.7678576,102.482414,-121.02461000000001,-22.893185,STU
809411800000.0,2.876208543777466,-1.9562393426895142,11.368651390075684,-2.352597713470459,2.4172468185424805,-4.195728,-0.7324274000000001,103.58294000000001,-121.57179,-23.293446,STU
809416800000.0,2.881207227706909,-1.9903322458267212,11.576991081237793,-2.747434616088867,2.4590768814086914,-3.6306777,-0.63529986,104.437416,-122.18561000000001,-23.629177,STU
809421770000.0,2.8862051963806152,-2.0180838108062744,11.792016983032227,-3.1391916275024414,2.4775657653808594,-2.9727757,-0.5009095,105.16317,-122.70563500000002,-23.896214999999998,STU
809426800000.0,2.8912079334259033,-2.0392301082611084,12.018280982971191,-3.522035837173462,2.479736089706421,-2.3652701,-0.38423425,105.74322,-123.13056,-24.085003,STU
809431800000.0,2.896204948425293,-2.0603201389312744,12.250261306762695,-3.8637046813964844,2.472512722015381,-2.08977,-0.3023783,106.00313,-123.67461000000002,-24.22286,STU
809436800000.0,2.9011998176574707,-2.081369638442993,12.48786449432373,-4.166146278381348,2.462418794631958,-1.6795740000000001,-0.28619036,106.07242600000001,-124.163956,-24.240242000000002,STU
809441800000.0,2.906198024749756,-2.107347011566162,12.709366798400879,-4.416369915008545,2.4523909091949463,-1.5176947,-0.2864958,106.14916000000001,-124.61357,-24.24648,STU
809446800000.0,2.9111948013305664,-2.139829158782959,12.907103538513184,-4.612030029296875,2.442409038543701,-1.5470163000000001,-0.3191771,106.16811000000001,-125.05316,-24.240795000000002,STU
809451800000.0,2.916193723678589,-2.1820101737976074,13.045328140258789,-4.776368618011475,2.430436134338379,-1.6398678,-0.36621370000000003,106.27601000000001,-125.42319499999999,-24.241348000000002,STU
809456800000.0,2.9212121963500977,-2.235502243041992,13.109145164489746,-4.9181389808654785,2.4136321544647217,-1.6832392,-0.43829579999999996,106.37239,-125.78944399999999,-24.261333,STU
809461800000.0,2.9262092113494873,-2.3033580780029297,13.109256744384766,-5.044281482696533,2.38787579536438,-1.5790867,-0.5195409000000001,106.55507,-126.100204,-24.344765,STU
809466800000.0,2.9312076568603516,-2.3905060291290283,13.041769027709961,-5.157785415649414,2.3499982357025146,-1.314582,-0.59437186,106.69316,-126.38378,-24.429717999999998,STU
809471800000.0,2.9362053871154785,-2.4957542419433594,12.91076946258545,-5.259366989135742,2.298675775527954,-0.9972375,-0.689056,106.7532,-126.726395,-24.607025,STU
809476800000.0,2.9412031173706055,-2.6181788444519043,12.719521522521973,-5.349650859832764,2.232476234436035,-0.752586,-0.7440339,106.752205,-127.0083,-24.763887,STU
809481860000.0,2.94620418548584,-2.7523255348205566,12.494794845581055,-5.429571151733398,2.15279483795166,-0.55924714,-0.75777835,106.69333999999999,-127.24226000000002,-24.899796,STU
809486900000.0,2.951228618621826,-2.8932976722717285,12.263578414916992,-5.49974250793457,2.059113025665283,-0.37843102,-0.7128797,106.57036000000001,-127.397934,-25.000364,STU
809491960000.0,2.9562511444091797,-3.0385563373565674,12.028969764709473,-5.562969207763672,1.9544882774353027,-0.16707164,-0.6123924,106.22098999999999,-127.70071399999999,-25.287724,STU
809496940000.0,2.961247682571411,-3.1850552558898926,11.79467487335205,-5.623040199279785,1.842157006263733,0.13041973,-0.52626044,105.80196000000001,-127.93494399999999,-25.524181,STU
809501900000.0,2.9662463665008545,-3.3322689533233643,11.559126853942871,-5.67846155166626,1.7256062030792236,0.42119157,-0.40561453,105.35932,-128.13201999999998,-25.770570000000003,STU
809506960000.0,2.9712586402893066,-3.4661879539489746,11.319784164428711,-5.712765693664551,1.608446478843689,0.6792821,-0.28496864,104.85976000000001,-128.27553999999998,-25.953577,STU
809512000000.0,2.9762730598449707,-3.5871787071228027,11.076658248901367,-5.726718425750732,1.492647409439087,0.8552113000000001,-0.13805555,104.349594,-128.40549,-26.133224,STU
809517000000.0,2.981275796890259,-3.690850019454956,10.822770118713379,-5.712007522583008,1.380594253540039,0.93554014,0.01038471,103.8194,-128.49796,-26.256672,STU
809522040000.0,2.986318349838257,-3.77433180809021,10.553706169128418,-5.663113117218018,1.2714850902557373,0.929126,0.14569137,103.35838000000001,-128.54837,-26.362343,STU
809527100000.0,2.9913337230682373,-3.8362343311309814,10.275345802307129,-5.584082126617432,1.1656025648117065,0.8909469999999999,0.27030787,102.91089000000001,-128.56826999999998,-26.426338,STU
809532060000.0,2.996340751647949,-3.8764755725860596,9.98648452758789,-5.474164962768555,1.0621073246002197,0.82711154,0.38912117,102.58111600000001,-128.54891999999998,-26.5112,STU
809537040000.0,3.0013344287872314,-3.8910131454467773,9.685090065002441,-5.33640718460083,0.9614582061767578,0.7987063,0.4538729,102.26594,-128.51385,-26.577728000000004,STU
809542100000.0,3.006356716156006,-3.8771109580993652,9.367134094238281,-5.166841983795166,0.864886999130249,0.73761976,0.552833,102.00414,-128.4468,-26.618903999999997,STU
809547100000.0,3.011350154876709,-3.8283534049987793,9.013968467712402,-4.971253871917725,0.7708579897880554,0.6969972,0.62980205,101.84834000000001,-128.31886,-26.631190999999998,STU
809552050000.0,3.0163471698760986,-3.7391774654388428,8.615212440490723,-4.745803356170654,0.6781125068664551,0.6771441,0.67011917,101.71374499999999,-128.17577,-26.635176,STU
809557100000.0,3.0213773250579834,-3.622889995574951,8.193389892578125,-4.5084123611450195,0.5865984559059143,0.68966687,0.68630713,101.66309,-127.96876499999999,-26.600962,STU
809562140000.0,3.026411294937134,-3.4956443309783936,7.773951053619385,-4.2773003578186035,0.49587583541870117,0.7492262,0.70707655,101.61121,-127.74407,-26.55513,STU
809567200000.0,3.031419038772583,-3.362379789352417,7.36323356628418,-4.0549092292785645,0.40378642082214355,0.8384125,0.7131852,101.5212,-127.43588000000001,-26.390532,STU
809572200000.0,3.03641939163208,-3.2255184650421143,6.965010166168213,-3.8430652618408203,0.3139514923095703,0.93737274,0.7199047,101.414406,-127.12517,-26.215881,STU
809577150000.0,3.0414011478424072,-3.088336944580078,6.58182430267334,-3.640226364135742,0.22346748411655426,1.0415252000000002,0.7257079000000001,101.26459,-126.77429,-25.995844,STU
809582130000.0,3.046386241912842,-2.9536166191101074,6.215996742248535,-3.444368600845337,0.13181555271148682,1.1129965,0.72143185,101.09487,-126.41524,-25.771929999999998,STU
809587100000.0,3.0513756275177,-2.8215410709381104,5.86940336227417,-3.2545013427734375,0.038081299513578415,1.1594223,0.7101309,100.88656999999999,-126.028046,-25.516949,STU
809592100000.0,3.0563595294952393,-2.6925771236419678,5.544745922088623,-3.0696704387664795,-0.0570383183658123,1.1945469,0.68416905,100.65774499999999,-125.62727,-25.262585,STU
809597100000.0,3.0613439083099365,-2.566411256790161,5.241957664489746,-2.8875036239624023,-0.15270443260669708,1.2183707000000001,0.6270532,100.41427,-125.201355,-25.005312,STU
809602060000.0,3.0663304328918457,-2.442673683166504,4.9630913734436035,-2.7016217708587646,-0.24730901420116425,1.2229522,0.5732970000000001,100.16216999999999,-124.76466,-24.755291,STU
809607040000.0,3.0713160037994385,-2.3211441040039062,4.7082319259643555,-2.5105743408203125,-0.3399157226085663,1.1896601,0.5164866,99.92582,-124.29978999999999,-24.513545999999998,STU
809612000000.0,3.076305627822876,-2.2013347148895264,4.479221820831299,-2.3106822967529297,-0.429931104183197,1.1108584,0.45204028,99.69204,-123.838,-24.295826,STU
809617000000.0,3.0812950134277344,-2.0830321311950684,4.274700164794922,-2.1015734672546387,-0.5161422491073608,0.98715824,0.40133846,99.52322,-123.33572,-24.091991,STU
809622000000.0,3.086285352706909,-1.9656304121017456,4.093944072723389,-1.8807069063186646,-0.5980845093727112,0.7791585999999999,0.37079520000000005,99.394936,-122.83983,-23.92105,STU
809626960000.0,3.091275930404663,-1.8496309518814087,3.9355409145355225,-1.6546214818954468,-0.6767016053199768,0.63621616,0.34483343,99.3571,-122.28263999999999,-23.760834,STU
809631940000.0,3.0962672233581543,-1.7362698316574097,3.7979819774627686,-1.4378005266189575,-0.7523009181022644,0.35185838,0.33475417,99.41881,-121.731804,-23.643826,STU
809636900000.0,3.1012589931488037,-1.6266504526138306,3.6790366172790527,-1.2359325885772705,-0.8248642683029175,0.073303826,0.3387248,99.60427,-121.10171000000001,-23.524070000000002,STU
809641900000.0,3.1062510013580322,-1.5238267183303833,3.574775457382202,-1.064374566078186,-0.8948952555656433,-0.14813483,0.3286455,99.854515,-120.47882,-23.431353,STU
809646900000.0,3.1112418174743652,-1.4275133609771729,3.4846575260162354,-0.9228107929229736,-0.9617637991905212,-0.27183503,0.31856623,100.19539,-119.83438000000001,-23.337979999999998,STU
809651860000.0,3.1162354946136475,-1.3379228115081787,3.4099416732788086,-0.8192650675773621,-1.0248571634292603,-0.31031954,0.30268374,100.5768,-119.20186000000001,-23.256397,STU
809656840000.0,3.1212289333343506,-1.2541399002075195,3.352337598800659,-0.7493491768836975,-1.0820813179016113,-0.26267207,0.29321529999999996,100.9677,-118.66311999999999,-23.208579999999998,STU
809661800000.0,3.1262288093566895,-1.1736056804656982,3.322371482849121,-0.7033489346504211,-1.1310960054397583,-0.1441642,0.29046643,101.35169,-118.14639,-23.154804000000002,STU
809666900000.0,3.1312358379364014,-1.0965994596481323,3.3214056491851807,-0.6791849136352539,-1.1704504489898682,0.017104227,0.30573806,101.837685,-117.88508,-23.262665,STU
809671850000.0,3.136232614517212,-1.0269858837127686,3.3700754642486572,-0.6666808724403381,-1.2006595134735107,0.19272798,0.36193767,102.28631,-117.63148500000001,-23.336251999999998,STU
809676800000.0,3.1412274837493896,-0.9645494222640991,3.4690945148468018,-0.6640551090240479,-1.222145438194275,0.37018433,0.4538729,102.48011,-117.23563999999999,-23.191042000000003,STU
809681800000.0,3.146223783493042,-0.9095975756645203,3.6315531730651855,-0.6591238379478455,-1.2367241382598877,0.54550266,0.55833083,102.62886,-116.84451000000001,-23.013813,STU
809686860000.0,3.1512343883514404,-0.8626595735549927,3.858725070953369,-0.6518024206161499,-1.2452194690704346,0.6954701,0.6759224,102.7495,-116.381454,-22.729858,STU
809691840000.0,3.1562306880950928,-0.8316024541854858,4.155681610107422,-0.6414109468460083,-1.249192714691162,0.82833326,0.7779369,102.829575,-115.91521999999999,-22.41401,STU
809696800000.0,3.161226987838745,-0.8162906169891357,4.523054122924805,-0.6279292702674866,-1.2532309293746948,0.9239337,0.8536841999999999,102.968346,-115.32181000000001,-21.992929999999998,STU
809701800000.0,3.166224241256714,-0.8462120294570923,4.968498706817627,-0.644701361656189,-1.2663809061050415,1.0247264,0.8756753,103.06647,-114.7167,-21.559397,STU
809706800000.0,3.171219825744629,-0.9210741519927979,5.487852096557617,-0.6926202774047852,-1.3018136024475098,1.1664472,0.8426886,103.122765,-114.084946,-21.12246,STU
809711760000.0,3.176215887069702,-1.0249857902526855,6.031774520874023,-0.7998562455177307,-1.3594160079956055,1.3472633,0.79168135,103.222664,-113.34206999999999,-20.630636,STU
809716740000.0,3.1812117099761963,-1.1552201509475708,6.595108509063721,-0.9655846357345581,-1.4251148700714111,1.4492778,0.82833326,103.29825600000001,-112.5901,-20.137848,STU
809721800000.0,3.1862149238586426,-1.3059325218200684,7.138599395751953,-1.1532360315322876,-1.4779366254806519,1.4107933000000001,0.9211848,103.29245999999999,-111.91906999999999,-19.697702,STU
809726800000.0,3.191209316253662,-1.4734303951263428,7.655172824859619,-1.3531458377838135,-1.509566307067871,1.3414601000000002,1.0528263,103.258026,-111.25901999999999,-19.253075,STU
809731800000.0,3.1962099075317383,-1.667840600013733,8.099136352539062,-1.5485953092575073,-1.5296624898910522,1.1374311000000001,1.1166617,103.0748,-110.7584,-18.878323,STU
809736800000.0,3.2012040615081787,-1.8871527910232544,8.471108436584473,-1.7375742197036743,-1.5358449220657349,0.8765915999999999,1.1661416999999998,102.93611,-110.29236000000002,-18.492188,STU
809741800000.0,3.206202983856201,-2.127370834350586,8.780125617980957,-1.9301093816757202,-1.5424954891204834,0.6927211999999999,1.0283916,102.74964,-109.97301499999999,-18.24333,STU
