timestamp,rel_time,acc_x,acc_y,acc_z,gyro_x,gyro_y,gyro_z,azimuth,pitch,roll,label
0.0,0.0,0.0,0.0,0.0,0.0,-0.027183502999999998,0.032986722999999996,126.08774,-14.299492,36.58961,STD
139330490000.0,1.510169568064157e-05,0.007594614755362272,0.027535658329725266,0.0033265864476561546,0.00021377239318098873,-0.011911871999999999,0.027794369,126.83819,-15.116369,36.511383,STD
415917700000.0,7.473795267287642e-05,0.02260085567831993,0.08187952637672424,0.009913302026689053,0.0006308595766313374,-0.005192355,0.029321532999999997,127.563896,-15.918332000000001,36.427535999999996,STD
825688900000.0,0.00020750542171299458,0.044787075370550156,0.16225363314151764,0.02008492313325405,0.0012108313385397196,0.016187929,0.032986722999999996,128.2752,-16.712227,36.330757,STD
1362716900000.0,0.0004397879238240421,0.07385668903589249,0.26760298013687134,0.0338384248316288,0.0017630037618800998,0.01985312,0.029321532999999997,128.98561,-17.483083999999998,36.25308,STD
2019424900000.0,0.0007974068284966052,0.10954298824071884,0.39698344469070435,0.05086449161171913,0.0023539538960903883,0.04062254,0.027183502999999998,129.67888,-18.249582,36.1619,STD
2786839200000.0,0.0013006237568333745,0.1514514833688736,0.5489768981933594,0.07100177556276321,0.0030234861187636852,0.043066,0.020463986,130.37447,-19.002036999999998,36.077763,STD
3654874000000.0,0.0019690587650984526,0.1992301344871521,0.7223064303398132,0.09406083822250366,0.00383528764359653,0.042455133,0.021380282999999996,131.05602,-19.747572,35.986515000000004,STD
4612632300000.0,0.0028186754789203405,0.2525915503501892,0.915307343006134,0.1167948991060257,0.004690113477408886,0.048563786,0.02107485,131.73357,-20.493454,35.886387,STD
5648709300000.0,0.0038616913370788097,0.311724990606308,1.126555323600769,0.12882870435714722,0.005735479295253754,0.062308256,0.019547688,132.40022,-21.235373000000003,35.781665999999994,STD
6751481000000.0,0.005105417687445879,0.3760060667991638,1.3536733388900757,0.13403499126434326,0.00673293974250555,0.052534412999999995,0.024129177,133.10472,-21.968914,35.71471,STD
7909370500000.0,0.006557063199579716,0.44433701038360596,1.5932590961456299,0.15219634771347046,0.007940074428915977,0.0571159,0.02565634,133.79733000000002,-22.699483999999998,35.637806,STD
9111082000000.0,0.008220537565648556,0.5156326293945312,1.8427882194519043,0.18466345965862274,0.009116968140006065,0.06169739,0.034513887,134.5693,-23.444109,35.66435,STD
10345798000000.0,0.010093691758811474,0.5875794291496277,2.099025011062622,0.23210720717906952,0.01045701839029789,0.047647487,0.035430185,135.34015,-24.185305,35.689696999999995,STD
11603332000000.0,0.012177753262221813,0.6595956087112427,2.359917163848877,0.29204484820365906,0.012277607806026936,0.046120327,0.03573562,136.0834,-24.900757000000002,35.673922999999995,STD
12874247000000.0,0.014464929699897766,0.7325505614280701,2.6242754459381104,0.3288169205188751,0.013917818665504456,0.030848695,0.03573562,136.8252,-25.60446,35.662796,STD
14149935000000.0,0.016951771453022957,0.8059290647506714,2.8903064727783203,0.3441064655780792,0.015864722430706024,0.014355333500000001,0.03634648,137.50636,-26.287565,35.57614,STD
15422661000000.0,0.019624926149845123,0.8789526224136353,3.1559042930603027,0.37375393509864807,0.01808277517557144,0.013744468000000001,0.043066,138.17778,-26.958920000000003,35.49002,STD
16685576000000.0,0.022480163723230362,0.9511894583702087,3.4195470809936523,0.4177851378917694,0.020184697583317757,-0.003970624,0.037873644,138.93336000000002,-27.657457,35.500458,STD
17932711000000.0,0.025508668273687363,1.021924614906311,3.6786975860595703,0.4690530002117157,0.02252791076898575,-0.011301007,0.03481932,139.67981,-28.34938,35.506786,STD
19158943000000.0,0.02870311215519905,1.0909709930419922,3.9324326515197754,0.5246595144271851,0.02475341595709324,-0.026267206,0.04520403,140.3803,-29.011269,35.46734,STD
20359960000000.0,0.032049912959337234,1.1593798398971558,4.181732177734375,0.5529118776321411,0.027387944981455803,-0.032375857,0.050396382999999996,141.07721999999998,-29.669733,35.42442,STD
21532191000000.0,0.03556022793054581,1.2269796133041382,4.42584228515625,0.5524244904518127,0.030013952404260635,-0.04337143,0.05681047,141.74121,-30.301037,35.360558000000005,STD
22672767000000.0,0.03918322175741196,1.2923709154129028,4.661828517913818,0.5584575533866882,0.033264365047216415,-0.046731193,0.056505035999999995,142.39987,-30.928934,35.295063,STD
23779435000000.0,0.04292488843202591,1.355400562286377,4.889128684997559,0.5714111924171448,0.03627678006887436,-0.048563786,0.06750060599999999,143.14737,-31.578077,35.32488,STD
24850505000000.0,0.04678240790963173,1.4151372909545898,5.106856346130371,0.5892569422721863,0.039220988750457764,-0.036957346,0.07299839999999999,143.89116,-32.2236,35.347570000000005,STD
25884782000000.0,0.05074365809559822,1.4714105129241943,5.314752101898193,0.6114300489425659,0.04190416261553764,-0.03604105,0.07391469,144.63315,-32.857642999999996,35.370308,STD
26881506000000.0,0.054801903665065765,1.5251152515411377,5.513250827789307,0.6325510740280151,0.04481349512934685,-0.027488936000000002,0.07269296,145.3373,-33.469615999999995,35.36546,STD
27840290000000.0,0.058948952704668045,1.5763201713562012,5.702371597290039,0.652184784412384,0.04787963628768921,-0.008857545999999999,0.06963864,146.03583,-34.072323,35.35516,STD
28761070000000.0,0.06317814439535141,1.6257458925247192,5.883161544799805,0.6701406240463257,0.05056915432214737,-0.0012217305,0.07299839999999999,146.70937,-34.65383,35.32978,STD
29644053000000.0,0.06748595833778381,1.6734987497329712,6.0558180809021,0.6864100098609924,0.05332985892891884,0.018936822,0.06963864,147.37451000000001,-35.232079999999996,35.293746999999996,STD
30489673000000.0,0.07185710221529007,1.719577670097351,6.220475196838379,0.7010664343833923,0.056095726788043976,0.037873644,0.064446285,148.03036,-35.796062,35.256115,STD
31298550000000.0,0.076296366751194,1.7640186548233032,6.377249240875244,0.7141147255897522,0.058234818279743195,0.05131268,0.061086524,148.67987,-36.350722999999995,35.213135,STD
32071460000000.0,0.08078747987747192,1.8091018199920654,6.53151273727417,0.7216743230819702,0.06046413257718086,0.06719518,0.050396382999999996,149.32428000000002,-36.903366,35.161755,STD
32809295000000.0,0.08532585203647614,1.8552155494689941,6.684269428253174,0.723177433013916,0.06201768293976784,0.06566802,0.04428773,149.96625,-37.442917,35.109524,STD
33513043000000.0,0.08991028368473053,1.9009250402450562,6.833011627197266,0.7214053273200989,0.06393641978502274,0.07360926,0.040317107000000005,150.6077,-37.976963,35.060787,STD
34183762000000.0,0.09453665465116501,1.9453808069229126,6.976301670074463,0.7180606722831726,0.06587482243776321,0.07819075,0.03390302,151.2497,-38.501583000000004,35.00926,STD
34822560000000.0,0.0991985946893692,1.9886077642440796,7.114292621612549,0.7132282257080078,0.06814584136009216,0.061391957000000004,0.03359759,151.9325,-39.039833,34.978522999999996,STD
35430580000000.0,0.10389700531959534,2.0306572914123535,7.24718713760376,0.7069472074508667,0.06999161839485168,0.049785517,0.032986722999999996,152.61057,-39.56832,34.9419,STD
36008990000000.0,0.10862919688224792,2.0719828605651855,7.373227596282959,0.6977969408035278,0.07176332920789719,0.038179077,0.03573562,153.28808999999998,-40.09016,34.905770000000004,STD
36558946000000.0,0.11338306963443756,2.1126797199249268,7.492133140563965,0.6855873465538025,0.07341612130403519,0.016493361,0.047036625,153.96643,-40.6002,34.872665000000005,STD
37081620000000.0,0.11816254258155823,2.1515026092529297,7.602879524230957,0.6729720234870911,0.07506655156612396,0.014660766,0.04550946,154.65861999999998,-41.112865,34.84069,STD
37578160000000.0,0.12296652048826218,2.1878998279571533,7.705180644989014,0.6612297892570496,0.07685793936252594,0.009162978,0.053145275,155.35003999999998,-41.612328000000005,34.814842,STD
38049715000000.0,0.1277875453233719,2.221212863922119,7.798608779907227,0.6509319543838501,0.07846319675445557,0.002443461,0.050701816,156.06041000000002,-42.10212,34.802303,STD
38497386000000.0,0.13262668251991272,2.2510428428649902,7.882943630218506,0.6424384117126465,0.07982692867517471,0.0018325957999999999,0.06536258,156.76248,-42.577953,34.79206,STD
38922265000000.0,0.13748548924922943,2.277388095855713,7.958933353424072,0.6368085741996765,0.08055948466062546,0.008552114,0.07299839999999999,157.45862,-43.037341999999995,34.780167,STD
39325410000000.0,0.1423577219247818,2.300368547439575,8.027253150939941,0.6344921588897705,0.08183319866657257,0.013744468000000001,0.0693332,158.15207,-43.490852000000004,34.76613,STD
39707837000000.0,0.14724260568618774,2.3202731609344482,8.089103698730469,0.6349887847900391,0.08297708630561829,0.018936822,0.06780604,158.8254,-43.920696,34.748665,STD
40070540000000.0,0.15218082070350647,2.337031841278076,8.14484977722168,0.6383737325668335,0.08369137346744537,0.027488936000000002,0.076052725,159.49303,-44.34238,34.72848,STD
40414468000000.0,0.1570844054222107,2.3509762287139893,8.195367813110352,0.6439268589019775,0.08427190780639648,0.040317107000000005,0.07727446,160.14833000000002,-44.749065,34.70169,STD
40740540000000.0,0.16199834644794464,2.36140775680542,8.240195274353027,0.652259349822998,0.08493532240390778,0.049785517,0.07422013,160.8,-45.147346,34.67256,STD
41049640000000.0,0.166921466588974,2.3690223693847656,8.280915260314941,0.6645099520683289,0.08451386541128159,0.058337633,0.05955936,161.42748999999998,-45.531788,34.627359999999996,STD
41342610000000.0,0.17185530066490173,2.374262571334839,8.318522453308105,0.6813111901283264,0.0838233232498169,0.08368854,0.05467244,162.04426999999998,-45.911106,34.578053000000004,STD
41620255000000.0,0.17679275572299957,2.3774986267089844,8.351753234863281,0.7017290592193604,0.08362199366092682,0.09896017,0.041233405,162.63669,-46.285538,34.507557,STD
41883350000000.0,0.1817355751991272,2.3789846897125244,8.379630088806152,0.7251405119895935,0.08380363136529922,0.12125675400000001,0.04153884,163.216,-46.650913,34.43349,STD
42132635000000.0,0.1866859793663025,2.378943920135498,8.401469230651855,0.7521294355392456,0.0832953006029129,0.1423316,0.029932396,163.76428,-47.010727,34.3337,STD
42368812000000.0,0.1916404366493225,2.377805709838867,8.415562629699707,0.78402179479599,0.08205188065767288,0.15363261,0.02321288,164.30603,-47.36476,34.232956,STD
42592557000000.0,0.19659852981567383,2.375910520553589,8.422896385192871,0.8195457458496094,0.08014421910047531,0.18448131,0.015271631,164.80908,-47.702698,34.116707,STD
42804504000000.0,0.20156154036521912,2.373627185821533,8.42447280883789,0.8573465347290039,0.0775097981095314,0.20952678,-0.00030543262000000003,165.31111,-48.03673,33.99605,STD
43005264000000.0,0.20652656257152557,2.370788097381592,8.421306610107422,0.8975101113319397,0.0741867944598198,0.23701571,-0.016798794,165.7704,-48.345318,33.867653000000004,STD
43195420000000.0,0.21149584650993347,2.3670830726623535,8.414752006530762,0.9403775334358215,0.06982187181711197,0.25503623,-0.025961772999999997,166.2251,-48.64836,33.735622,STD
43375520000000.0,0.21646934747695923,2.3624467849731445,8.40583610534668,0.9841077327728271,0.06414518505334854,0.25900686,-0.04917465,166.65579,-48.932533,33.597378000000006,STD
43546090000000.0,0.22148816287517548,2.3565292358398438,8.396003723144531,1.0256624221801758,0.05774569511413574,0.27947086,-0.06811147,167.07593,-49.212543,33.454365,STD
43707626000000.0,0.22646307945251465,2.349827289581299,8.38569450378418,1.0651161670684814,0.04929704591631889,0.3023783,-0.08857546,167.47849,-49.473354,33.30383,STD
43860600000000.0,0.23144002258777618,2.342165946960449,8.374736785888672,1.1025985479354858,0.03962251543998718,0.32559118,-0.11575896,167.87805,-49.73655,33.145184,STD
44005463000000.0,0.23642154037952423,2.3335890769958496,8.363226890563965,1.1378228664398193,0.02927461639046669,0.3659083,-0.13530666,168.27425,-49.993840000000006,32.982952000000004,STD
44142640000000.0,0.24140305817127228,2.3242220878601074,8.351829528808594,1.1676918268203735,0.017216356471180916,0.38942659999999996,-0.14477506,168.67078,-50.244484,32.81688,STD
44272540000000.0,0.24639229476451874,2.314005136489868,8.340536117553711,1.1924587488174438,0.005342946853488684,0.4269948,-0.16310102,169.04112,-50.502790000000005,32.63021,STD
44395538000000.0,0.2513768672943115,2.3024086952209473,8.329482078552246,1.2132676839828491,-0.007444567512720823,0.45265114,-0.18478674,169.40977,-50.751841999999996,32.440636,STD
44512005000000.0,0.2563793361186981,2.2893404960632324,8.318624496459961,1.2301006317138672,-0.019861754029989243,0.46120325,-0.19730948,169.78056,-51.010044,32.247196,STD
44622280000000.0,0.26136499643325806,2.275127649307251,8.307998657226562,1.2435102462768555,-0.03259485587477684,0.464563,-0.21166481,170.14812,-51.264664,32.047306,STD
44726700000000.0,0.26639342308044434,2.259157657623291,8.2973051071167,1.2530784606933594,-0.045545656234025955,0.47922380000000003,-0.22479841,170.51633999999999,-51.518204,31.846474,STD
44825563000000.0,0.2713817358016968,2.239542245864868,8.284444808959961,1.2597929239273071,-0.058507289737463,0.52564955,-0.22602014,170.87396,-51.76705,31.643293,STD
44919170000000.0,0.2763696014881134,2.215731382369995,8.269079208374023,1.26341712474823,-0.07121879607439041,0.6056729000000001,-0.23823744,171.22835,-52.03658,31.420603000000003,STD
45007800000000.0,0.2813572883605957,2.1834983825683594,8.247627258300781,1.2678000926971436,-0.0849134549498558,0.6808093000000001,-0.26083946,171.57108,-52.30022,31.192784999999997,STD
45091712000000.0,0.28635093569755554,2.1410410404205322,8.218561172485352,1.274603009223938,-0.10025474429130554,0.7812967,-0.30726522,171.88553000000002,-52.56596,30.946666999999998,STD
45171160000000.0,0.2913423776626587,2.0907416343688965,8.184821128845215,1.2890509366989136,-0.11713878065347672,0.87017757,-0.37079520000000005,172.17248999999998,-52.848053,30.668594,STD
45246380000000.0,0.2963334023952484,2.0334632396698,8.147396087646484,1.3126469850540161,-0.13631324470043182,0.93187493,-0.41844269999999995,172.44058,-53.124672,30.37793,STD
45317597000000.0,0.3013248145580292,1.974785327911377,8.11437702178955,1.3460596799850464,-0.15763995051383972,0.9477574000000001,-0.47250426,172.64658,-53.420273,30.025888000000002,FOL
45385020000000.0,0.3063175082206726,1.9161863327026367,8.08768367767334,1.3891116380691528,-0.18069516122341156,0.8933904,-0.50976706,172.85977,-53.710724,29.670664000000002,FOL
45448857000000.0,0.31130948662757874,1.863218903541565,8.07361125946045,1.4446924924850464,-0.20379213988780975,0.7425067,-0.5467244000000001,173.03511,-54.00561999999999,29.26922,FOL
45509293000000.0,0.3163045048713684,1.8172754049301147,8.073640823364258,1.513386845588684,-0.2250734567642212,0.52656585,-0.56779927,173.25122,-54.297703000000006,28.879421,FOL
45566510000000.0,0.3213001489639282,1.7812961339950562,8.090197563171387,1.5848842859268188,-0.24315479397773743,0.27947086,-0.58093286,173.47713000000002,-54.592117,28.469675,FOL
45620685000000.0,0.32629406452178955,1.756140112876892,8.123686790466309,1.6548645496368408,-0.2572951018810272,0.089186326,-0.58123827,173.75417,-54.887432,28.079771,FOL
45671973000000.0,0.3312878906726837,1.7427144050598145,8.170997619628906,1.7048710584640503,-0.26706942915916443,-0.0125227375,-0.5671884,174.04654,-55.172173,27.690859999999997,FOL
45720530000000.0,0.33628347516059875,1.7410905361175537,8.230494499206543,1.7277783155441284,-0.27391451597213745,-0.029626964,-0.5534439,174.3731,-55.45638,27.318655,FOL
45766500000000.0,0.3412782847881317,1.7460088729858398,8.293681144714355,1.7328633069992065,-0.2791255712509155,-0.03176499,-0.54305923,174.75644,-55.74958,26.971497999999997,FOL
45810020000000.0,0.3462734818458557,1.7511873245239258,8.350238800048828,1.731019377708435,-0.28376609086990356,-0.008552114,-0.5207626000000001,175.13562,-56.034797999999995,26.636065999999996,FOL
45851225000000.0,0.35126927495002747,1.7566125392913818,8.400516510009766,1.7226101160049438,-0.2869875729084015,0.015882496,-0.5109888,175.66377,-56.376675,26.364082,FOL
45890232000000.0,0.3562660217285156,1.7622721195220947,8.444845199584961,1.7079758644104004,-0.2891097366809845,0.022296581,-0.5039638,176.18594,-56.707203,26.10104,FOL
45927163000000.0,0.3612622022628784,1.7699856758117676,8.488027572631836,1.6887198686599731,-0.29015856981277466,0.018325957,-0.48716503,176.70723,-57.030080000000005,25.848701000000002,FOL
45962127000000.0,0.3662603199481964,1.7813515663146973,8.534242630004883,1.6661726236343384,-0.29019126296043396,0.009468411,-0.47464229999999996,177.22581,-57.34864399999999,25.600935,FOL
45995230000000.0,0.3712579011917114,1.798396110534668,8.587678909301758,1.6419504880905151,-0.289652556180954,-0.010690141499999998,-0.45234573,177.79918,-57.664756999999994,25.397219,FOL
46026564000000.0,0.3762549161911011,1.8230301141738892,8.652263641357422,1.6175193786621094,-0.28800320625305176,-0.029932396,-0.4166101,178.3697,-57.97381600000001,25.203796,FOL
46056230000000.0,0.38125142455101013,1.8544747829437256,8.728265762329102,1.5929172039031982,-0.2849605977535248,-0.04886922,-0.36468655,178.97693,-58.27865,25.041353,FOL
46084315000000.0,0.3862502872943878,1.892012596130371,8.816240310668945,1.568169355392456,-0.28136393427848816,-0.04886922,-0.29901853,179.57637,-58.567135,24.894049,FOL
46110907000000.0,0.39124739170074463,1.9350186586380005,8.91418170928955,1.5444819927215576,-0.27647775411605835,-0.030543262,-0.22999077,180.21979,-58.849438,24.785397,FOL
46136080000000.0,0.39624476432800293,1.9829059839248657,9.019518852233887,1.5240355730056763,-0.2700452506542206,0.0030543262,-0.17134771,180.84962,-59.115448,24.69107,FOL
46159914000000.0,0.40124237537384033,2.0335564613342285,9.129389762878418,1.5073236227035522,-0.26237666606903076,0.04520403,-0.095294975,181.4973,-59.371075,24.629005,FOL
46182480000000.0,0.4062406122684479,2.0820536613464355,9.237225532531738,1.495867371559143,-0.25493764877319336,0.089491755,-0.025045475,182.12521,-59.60791,24.578298999999998,FOL
46203840000000.0,0.41123804450035095,2.128391981124878,9.34023380279541,1.4870861768722534,-0.24735791981220245,0.13591751,0.013744468000000001,182.76477,-59.832172,24.549582,FOL
46224065000000.0,0.4162372946739197,2.1725172996520996,9.434422492980957,1.4774919748306274,-0.2411424219608307,0.18906279,0.033292156,183.38023,-60.032897999999996,24.529806,FOL
46243212000000.0,0.42123737931251526,2.2140281200408936,9.51748275756836,1.4648559093475342,-0.2362673133611679,0.22602014,0.059253927000000005,183.97433,-60.21573299999999,24.514479,FOL
46261340000000.0,0.4262356162071228,2.252321243286133,9.586060523986816,1.4461052417755127,-0.23288904130458832,0.26328292,0.071776666,184.54873999999998,-60.387215000000005,24.496064999999998,FOL
46278500000000.0,0.4312326908111572,2.2875852584838867,9.641373634338379,1.4220483303070068,-0.22983728349208832,0.29229903,0.076052725,185.12975,-60.54325,24.491776,FOL
46294744000000.0,0.4362322688102722,2.3199994564056396,9.684762001037598,1.393692970275879,-0.22600407898426056,0.30543262,0.086132,185.70006999999998,-60.68919399999999,24.490238,FOL
46310124000000.0,0.44123026728630066,2.35066819190979,9.717769622802734,1.3627392053604126,-0.22125203907489777,0.32131509999999996,0.09101892,186.28517,-60.824905,24.504929999999998,FOL
46324687000000.0,0.44622838497161865,2.3823153972625732,9.743080139160156,1.3331974744796753,-0.21463720500469208,0.33139440000000003,0.08552113,186.86565,-60.9616,24.51794,FOL
46338473000000.0,0.4512285888195038,2.4153993129730225,9.762014389038086,1.3051878213882446,-0.20560777187347412,0.31887165,0.07971791,187.49187,-61.091446,24.555039999999998,FOL
46351526000000.0,0.45622992515563965,2.453413248062134,9.781891822814941,1.2800651788711548,-0.19417846202850342,0.27885997,0.08002335,188.1206,-61.222813,24.591836999999998,FOL
46363883000000.0,0.4612296521663666,2.4955313205718994,9.804397583007812,1.2575995922088623,-0.18103060126304626,0.23854288,0.106901415,188.77233999999999,-61.329002,24.659414,FOL
46375580000000.0,0.4662291705608368,2.540304183959961,9.833869934082031,1.2374976873397827,-0.16571861505508423,0.19394971,0.14599679999999998,189.43368999999998,-61.436831999999995,24.731018,FOL
46386653000000.0,0.4712302088737488,2.5876502990722656,9.87028980255127,1.2197586297988892,-0.14931818842887878,0.14935656,0.20036379999999998,190.1417,-61.512440000000005,24.842855,FOL
46397140000000.0,0.47622954845428467,2.637626886367798,9.915848731994629,1.2052839994430542,-0.13165944814682007,0.105374254,0.25442538,190.85681,-61.581905000000006,24.964285,FOL
46407067000000.0,0.48122870922088623,2.689840793609619,9.969528198242188,1.193787693977356,-0.11326521635055542,0.06994407,0.30665436,191.59111000000001,-61.63414399999999,25.10551,FOL
46416462000000.0,0.48622927069664,2.742234230041504,10.026809692382812,1.1842504739761353,-0.09489088505506516,0.047647487,0.3659083,192.3268,-61.669918,25.26045,FOL
46425360000000.0,0.49122798442840576,2.7943503856658936,10.084716796875,1.1745389699935913,-0.07681211084127426,0.03359759,0.41691554,193.0845,-61.69316,25.427896,FOL
46433780000000.0,0.49622640013694763,2.844749927520752,10.133597373962402,1.1574950218200684,-0.05979445204138756,0.061086524,0.4529566,193.82921000000002,-61.7014,25.600216,FOL
46441754000000.0,0.5012275576591492,2.8935365676879883,10.173864364624023,1.1334197521209717,-0.044953327625989914,0.15118915,0.47891834,194.56007,-61.694355,25.775993,FOL
46449304000000.0,0.5062286853790283,2.9348723888397217,10.191486358642578,1.0984930992126465,-0.032709892839193344,0.2947425,0.47800204,195.26108,-61.680595,25.943308,FOL
46456450000000.0,0.5112455487251282,2.967616558074951,10.18330192565918,1.0521485805511475,-0.023902352899312973,0.4822781,0.45142943,195.9163,-61.65983000000001,26.097212,FOL
46463216000000.0,0.5162439346313477,2.9945216178894043,10.15594482421875,1.0071964263916016,-0.01805461384356022,0.6554584,0.40622538,196.58879,-61.630444,26.260138,FOL
46469620000000.0,0.521243691444397,3.0155882835388184,10.1089506149292,0.9634808301925659,-0.01505777332931757,0.80573124,0.37079520000000005,197.29085,-61.586243,26.437174,FOL
46475686000000.0,0.5262479186058044,3.035499095916748,10.045533180236816,0.929962694644928,-0.014776178635656834,0.92087936,0.34147367,197.94704,-61.545756999999995,26.591276,FOL
46481430000000.0,0.531246542930603,3.055551767349243,9.967931747436523,0.9083360433578491,-0.018920743837952614,0.99387777,0.34116822,198.5648,-61.49739,26.73415,FOL
46486864000000.0,0.5362467765808105,3.0765764713287354,9.876179695129395,0.8978848457336426,-0.027450915426015854,1.0085385,0.3359759,199.18396,-61.424866,26.889063,FOL
46492010000000.0,0.541243851184845,3.0988383293151855,9.77124309539795,0.8976827263832092,-0.03751232475042343,1.044885,0.33169982,199.76932,-61.348983999999994,27.036240000000003,FOL
46496884000000.0,0.5462736487388611,3.1202709674835205,9.656981468200684,0.9059851169586182,-0.051497526466846466,1.0332786,0.32925636,200.36327,-61.21026,27.220346000000003,FOL
46501498000000.0,0.5512719750404358,3.140340805053711,9.538222312927246,0.9200208187103271,-0.06867653876543045,1.0167851,0.3145956,200.94487,-61.075687,27.394679999999997,FOL
46505864000000.0,0.5562700033187866,3.15705943107605,9.416855812072754,0.9387974739074707,-0.08941630274057388,0.9978484000000001,0.30940324,201.55061,-60.878277000000004,27.614221999999998,FOL
46510000000000.0,0.5612666606903076,3.1698009967803955,9.294241905212402,0.9614598751068115,-0.11152494698762894,1.0189233,0.29840767,202.14643999999998,-60.686817000000005,27.822702000000003,FOL
46513917000000.0,0.5662668347358704,3.1751508712768555,9.17343521118164,0.9847947955131531,-0.13593870401382446,1.0571023000000002,0.30390546,202.73625,-60.455394999999996,28.053091,FOL
46517625000000.0,0.5712721943855286,3.172168493270874,9.055432319641113,1.0076649188995361,-0.16399970650672913,1.1239921,0.2941316,203.30801,-60.228919999999995,28.269409999999997,FOL
46521135000000.0,0.576271653175354,3.1584722995758057,8.94543170928955,1.0302324295043945,-0.19538335502147675,1.2327261,0.28527406,203.81337,-59.990246,28.478073,FOL
46524457000000.0,0.5812687277793884,3.1334657669067383,8.844733238220215,1.0525801181793213,-0.23061250150203705,1.3591752000000001,0.26328292,204.29022,-59.75255,28.672203000000003,FOL
46527603000000.0,0.5862669348716736,3.0919570922851562,8.754678726196289,1.0750173330307007,-0.270214706659317,1.4834863,0.26267207,204.65315,-59.532047,28.824354,FOL
46530580000000.0,0.5912654399871826,3.032154083251953,8.675552368164062,1.0976730585098267,-0.3165775537490845,1.5928311000000002,0.21777347,204.98389,-59.318214000000005,28.94922,FOL
46533400000000.0,0.5962631702423096,2.947929620742798,8.612008094787598,1.1171659231185913,-0.3709847629070282,1.6197093,0.1685988,205.15376,-59.154132999999995,28.987534000000004,FOL
46536070000000.0,0.6012635827064514,2.8331940174102783,8.568516731262207,1.1303422451019287,-0.4351399540901184,1.4822645,0.112399206,205.34793,-58.9837,29.012663,FOL
46538600000000.0,0.6062623858451843,2.6926934719085693,8.544610023498535,1.1305551528930664,-0.50925612449646,1.1591167,0.057421334000000004,205.44272,-58.901819999999994,28.910165999999997,FOL
46540995000000.0,0.611259937286377,2.52911376953125,8.539701461791992,1.1148310899734497,-0.5883587002754211,0.7910705,0.029321532999999997,205.60312,-58.806746999999994,28.810625,FOL
46543260000000.0,0.6162595748901367,2.3600480556488037,8.54554271697998,1.0721982717514038,-0.6649222373962402,0.453262,0.033292156,205.73113999999998,-58.85126999999999,28.556221,FOL
46545408000000.0,0.6212615966796875,2.193812847137451,8.55799388885498,0.9984688758850098,-0.7286808490753174,0.06536258,0.10476339,205.99298000000002,-58.88136,28.341759000000003,FOL
46547438000000.0,0.6262602210044861,2.043879270553589,8.563705444335938,0.8851755857467651,-0.7682879567146301,0.11484267,0.19975294,206.19373000000002,-59.076874,27.987638,FOL
46549363000000.0,0.6312596201896667,1.9185599088668823,8.554306983947754,0.7264901399612427,-0.7816449999809265,0.27397305,0.26878070000000004,206.47968999999998,-59.282276,27.667852000000003,FOL
46551183000000.0,0.6362596154212952,1.8102587461471558,8.519139289855957,0.5623871088027954,-0.7708345651626587,0.6585127,0.27397305,206.78679,-59.604843,27.325615000000003,FOL
46552907000000.0,0.6412599086761475,1.7143363952636719,8.452810287475586,0.41541558504104614,-0.7502803802490234,0.9966267,0.18570304,207.05794,-59.9549,26.972637,FOL
46554540000000.0,0.6462578177452087,1.620493769645691,8.364835739135742,0.3412071764469147,-0.7158138751983643,1.1365148,0.005192355,207.51126000000002,-60.374638,26.715145,FOL
46556087000000.0,0.6512579917907715,1.5225027799606323,8.260708808898926,0.37286919355392456,-0.6767221093177795,0.9825767,-0.1518,207.94756,-60.80860500000001,26.438837,FOL
46557550000000.0,0.6562577486038208,1.4108959436416626,8.143326759338379,0.5063683986663818,-0.6460943222045898,0.6914994999999999,-0.24342979999999997,208.37444,-61.171585,26.213787,FOL
46558940000000.0,0.6612566113471985,1.279754877090454,8.014681816101074,0.7378664016723633,-0.633473813533783,0.44104472,-0.26725355,208.83638,-61.545914,25.971643,FOL
46560250000000.0,0.6662559509277344,1.1338112354278564,7.882228851318359,1.0211071968078613,-0.6401797533035278,0.28069258,-0.29504790000000003,208.91968,-61.781032999999994,25.636423,FOL
46561493000000.0,0.6712566614151001,0.9807460904121399,7.75880241394043,1.2777276039123535,-0.6642217636108398,0.20250183,-0.33414328,209.06033,-61.987804000000004,25.302916,FOL
46562670000000.0,0.67625492811203,0.8172619938850403,7.6407365798950195,1.4928897619247437,-0.7012903094291687,0.23640485,-0.35094208,208.80273,-62.015938,24.83621,FOL
46563787000000.0,0.681255578994751,0.6401005387306213,7.5248918533325195,1.653586506843567,-0.749323844909668,0.45081854,-0.34941490000000003,208.53014,-61.979324,24.355293,FOL
46564844000000.0,0.6862547993659973,0.4515115022659302,7.410263538360596,1.7582687139511108,-0.803001344203949,0.73731434,-0.37293324,208.22793651780398,-61.9334699128705,23.7958107148399,FOL
46565842000000.0,0.6912583708763123,0.25284072756767273,7.29575252532959,1.8039259910583496,-0.8578387498855591,1.022283,-0.39492437,207.91917,-61.88661999999999,23.224178,FOL
46566790000000.0,0.6962522268295288,0.045132435858249664,7.180326461791992,1.803002953529358,-0.9080771207809448,1.2425,-0.42241332,207.60875,-61.93459,22.55102,FOL
46567690000000.0,0.7012481093406677,-0.17307396233081818,7.060968399047852,1.769637942314148,-0.9481180310249329,1.3405437,-0.42210788,207.26183999999998,-61.953540000000004,21.863571,FOL
46568535000000.0,0.7062422633171082,-0.39594170451164246,6.9380574226379395,1.7332417964935303,-0.9729868769645691,1.3283265,-0.4083634,206.99855,-62.1665,21.105995,FOL
46569340000000.0,0.7112367749214172,-0.6181604266166687,6.811744689941406,1.7222625017166138,-0.982792317867279,1.2241739,-0.41172317,206.74042,-62.388317,20.34231,FOL
46570104000000.0,0.7162320017814636,-0.8288361430168152,6.682619094848633,1.7439192533493042,-0.9779952764511108,1.0216721,-0.41905355,206.55937,-62.756073,19.535648000000002,FOL
46570825000000.0,0.7212276458740234,-1.0171682834625244,6.5512800216674805,1.8053489923477173,-0.9617993235588074,0.81092364,-0.45478916,206.4146,-63.15494,18.73112,FOL
46571510000000.0,0.7262221574783325,-1.1726549863815308,6.415374279022217,1.8990530967712402,-0.9400043487548828,0.7483099,-0.48502702,206.21841,-63.510684999999995,17.885492000000003,FOL
46572155000000.0,0.7312167286872864,-1.2834365367889404,6.272194862365723,2.0175607204437256,-0.9165874719619751,0.63255095,-0.49480084,206.10205,-63.880230000000005,17.062012,FOL
46572767000000.0,0.7362135052680969,-1.342057704925537,6.119905948638916,2.159712553024292,-0.8941906690597534,0.5720753000000001,-0.5030475000000001,205.91846,-64.0653,16.27494,FOL
46573346000000.0,0.7412148714065552,-1.339776873588562,5.956389904022217,2.3244338035583496,-0.8740617632865906,0.6203337,-0.46089783,205.74034,-64.22444,15.500670000000001,FOL
46573896000000.0,0.7462128400802612,-1.2810630798339844,5.785909175872803,2.4956841468811035,-0.85598224401474,0.7266241999999999,-0.44073927,205.55608999999998,-64.136475,14.891569,FOL
46574416000000.0,0.7512115240097046,-1.1674888134002686,5.613114356994629,2.653099536895752,-0.837889552116394,0.7199047,-0.38942659999999996,205.39064,-64.01975999999999,14.309113,FOL
46574910000000.0,0.7562114596366882,-1.0082844495773315,5.443442344665527,2.7889163494110107,-0.8219819068908691,0.7330383,-0.29016098,205.25114,-63.553722,14.042339000000002,FOL
46575376000000.0,0.7612097263336182,-0.8183813691139221,5.286682605743408,2.8887124061584473,-0.8078498244285583,0.7538077,-0.18875736,205.11217,-63.07662,13.788037,FOL
46575817000000.0,0.7662094235420227,-0.6049355268478394,5.147679328918457,2.958664894104004,-0.7945848107337952,0.7901541999999999,-0.081855945,205.23883,-62.397980000000004,13.961791,FOL
46576236000000.0,0.7712103128433228,-0.3870675563812256,5.041885852813721,3.014094829559326,-0.7809198498725891,0.84849185,0.041233405,205.33751999999998,-61.707615000000004,14.156173999999998,FOL
46576634000000.0,0.7762099504470825,-0.1796274483203888,4.964871883392334,3.0618808269500732,-0.7659159302711487,0.83199847,0.15241088,206.16284,-60.957333,14.899760999999998,FOL
46577010000000.0,0.781208336353302,-0.014854969456791878,4.909578323364258,3.11604905128479,-0.7496118545532227,0.70371675,0.30421090000000006,206.95737,-60.197419999999994,15.674764999999999,FOL
46577370000000.0,0.786207914352417,0.10320695489645004,4.875582695007324,3.178511619567871,-0.733623206615448,0.6252206,0.3717115,208.01181,-59.483734,16.602536999999998,FOL
46577704000000.0,0.791207492351532,0.1529790461063385,4.863984107971191,3.2575039863586426,-0.7150846719741821,0.5036584,0.42455134,209.06172,-58.78219,17.556816,FOL
46578023000000.0,0.7962080836296082,0.1383712887763977,4.873385429382324,3.3501007556915283,-0.6944251656532288,0.4859433,0.4098906,209.38597,-58.28213,17.965185,FOL
46578325000000.0,0.8012107014656067,0.06749282777309418,4.900034427642822,3.435480833053589,-0.6718878746032715,0.3921755,0.33383787,209.76,-57.80641,18.386631,FOL
46578610000000.0,0.80621337890625,-0.0524178147315979,4.944103240966797,3.5180861949920654,-0.6502261161804199,0.34513888,0.23151793,209.72247000000002,-57.530235,18.278282,FOL
46578883000000.0,0.8112137913703918,-0.17194296419620514,5.019241809844971,3.6469390392303467,-0.6284491419792175,0.32650748,0.19425514,209.70747,-57.275513000000004,18.174932000000002,FOL
46579143000000.0,0.8162148594856262,-0.2881337106227875,5.122553825378418,3.815192461013794,-0.6070026159286499,0.26725355,0.17073683,209.64403000000001,-57.236862,17.741621,FOL
46579386000000.0,0.8212206363677979,-0.3807019293308258,5.2423176765441895,3.9882876873016357,-0.5852340459823608,0.27152961,0.15790866,209.5778,-57.20495,17.300825,FOL
46579617000000.0,0.8262193202972412,-0.4516530930995941,5.376716613769531,4.165375232696533,-0.5603446364402771,0.30329459999999997,0.18997909,209.4667,-57.09701,16.788069,FOL
46579835000000.0,0.8312190771102905,-0.492947518825531,5.530817985534668,4.3486223220825195,-0.5317356586456299,0.38362336,0.19700404,209.35689,-56.998875,16.270147,FOL
46580044000000.0,0.8362404108047485,-0.5026004314422607,5.706568717956543,4.53924036026001,-0.5020306706428528,0.46700647,0.2574797,209.23474,-56.89120500000001,15.779960999999998,FOL
46580240000000.0,0.8412405848503113,-0.4998691976070404,5.8899431228637695,4.7306389808654785,-0.4678373336791992,0.4908302,0.32436943,209.14316000000002,-56.78921,15.366214000000001,FOL
46580430000000.0,0.8462395071983337,-0.4845077097415924,6.081831932067871,4.923611164093018,-0.43598711490631104,0.5112942,0.43157628,209.06601,-56.622814,15.072557999999999,FOL
46580606000000.0,0.851237952709198,-0.47448694705963135,6.2866973876953125,5.104489326477051,-0.4075433909893036,0.5329799,0.49602258,208.9867,-56.480290000000004,14.791006,FOL
46580774000000.0,0.8562366366386414,-0.47111859917640686,6.504354000091553,5.272668838500977,-0.3820479214191437,0.5891795,0.57726765,208.88196000000002,-56.324909999999996,14.540542000000002,FOL
46580934000000.0,0.8612346649169922,-0.4925614297389984,6.736358165740967,5.433701515197754,-0.36001095175743103,0.6429357,0.6795876000000001,208.7905,-56.140335,14.356681,FOL
46581085000000.0,0.8662350177764893,-0.5395838022232056,6.982463359832764,5.588464736938477,-0.34141096472740173,0.5864305999999999,0.7257079000000001,208.71548,-55.95256,14.193279,FOL
46581227000000.0,0.8712778091430664,-0.6253077983856201,7.238961696624756,5.738214492797852,-0.3266344666481018,0.5390885999999999,0.76052725,208.63914,-55.83251,14.002685000000001,FOL
46581366000000.0,0.8762741088867188,-0.7367180585861206,7.498312473297119,5.882343769073486,-0.31367093324661255,0.4569272,0.77946407,208.58632,-55.711025,13.84109,FOL
46581496000000.0,0.8812717199325562,-0.8585022687911987,7.75280237197876,6.034813404083252,-0.29988446831703186,0.37659842,0.7357872,208.54895,-55.696117,13.554367999999998,FOL
46581617000000.0,0.8862679600715637,-0.9883103966712952,8.001712799072266,6.1960906982421875,-0.2822587788105011,0.24312437,0.70371675,208.54477,-55.686707,13.309391,FOL
46581735000000.0,0.8912649154663086,-1.1096354722976685,8.22725772857666,6.361532211303711,-0.262430876493454,0.20738874,0.6918049,208.53122,-55.76885,12.914760000000001,FOL
46581844000000.0,0.896260678768158,-1.2195284366607666,8.426928520202637,6.529919147491455,-0.2409413456916809,0.22266038,0.6988298000000001,208.54312,-55.86563,12.54993,FOL
46581950000000.0,0.901258647441864,-1.3007146120071411,8.600479125976562,6.696993827819824,-0.21856239438056946,0.18631389999999998,0.711658,208.54886000000002,-55.95084,12.149694,FOL
46582050000000.0,0.9062552452087402,-1.3526126146316528,8.74930477142334,6.862154006958008,-0.19534140825271606,0.14385876,0.73884153,208.55254,-56.04055,11.775152,FOL
46582140000000.0,0.9112523794174194,-1.3769452571868896,8.880057334899902,7.022497177124023,-0.17190924286842346,0.10415252,0.7846564,208.53458,-56.057003,11.454369,FOL
46582230000000.0,0.9162504076957703,-1.375207543373108,8.994667053222656,7.177735805511475,-0.148358553647995,0.06261369,0.84299403,208.5257,-56.077686,11.166046000000001,FOL
46582314000000.0,0.921251118183136,-1.3522419929504395,9.096914291381836,7.3264946937561035,-0.12329579144716263,0.007330383,0.9184359000000001,208.51698000000002,-56.02482,11.009721,FOL
46582393000000.0,0.9262485504150391,-1.3117749691009521,9.189351081848145,7.468095302581787,-0.09706197679042816,-0.00580322,0.9923506,208.50342,-55.975525,10.875073,FOL
46582470000000.0,0.9312458634376526,-1.2602120637893677,9.280824661254883,7.602087497711182,-0.0704520046710968,-0.061086524,1.0317514,208.52011000000002,-55.87860500000001,10.870612,FOL
46582540000000.0,0.9362443685531616,-1.2011322975158691,9.37589168548584,7.7284255027771,-0.041223373264074326,-0.11698069400000001,1.103528,208.52700000000002,-55.800883999999996,10.895886,FOL
46582610000000.0,0.9412434697151184,-1.1405301094055176,9.47790241241455,7.852084636688232,-0.008359941653907299,-0.20861048,1.1566733,208.57074,-55.71389,11.007128999999999,FOL
46582680000000.0,0.9462411999702454,-1.081376075744629,9.58821964263916,7.975515842437744,0.028351519256830215,-0.3109304,1.215011,208.6213,-55.646503,11.145638,FOL
46582740000000.0,0.9512408971786499,-1.0256072282791138,9.708765983581543,8.098065376281738,0.06852687895298004,-0.40561453,1.2464706,208.71306,-55.616130000000005,11.331567999999999,FOL
46582800000000.0,0.9562426805496216,-0.9740777611732483,9.84012222290039,8.219407081604004,0.1118350476026535,-0.49480084,1.2739595,208.82173,-55.609843999999995,11.542093,FOL
46582860000000.0,0.9612420201301575,-0.9283227920532227,9.977791786193848,8.33679485321045,0.15760445594787598,-0.5849035,1.2938126,208.96266,-55.6384,11.766778,FOL
46582913000000.0,0.9662434458732605,-0.8890892267227173,10.119607925415039,8.44894790649414,0.2057202309370041,-0.6637050999999999,1.3167200000000001,209.11934,-55.690290000000005,12.006855,FOL
46582964000000.0,0.9712453484535217,-0.8574151396751404,10.261576652526855,8.553276062011719,0.2559596598148346,-0.7333437,1.3316863,209.30968000000001,-55.78720500000001,12.243845,FOL
46583014000000.0,0.9762449264526367,-0.8336549401283264,10.401457786560059,8.648557662963867,0.3077538013458252,-0.7993172,1.3558153999999998,209.51468,-55.899986,12.496141,FOL
46583060000000.0,0.9812440276145935,-0.8211123943328857,10.533857345581055,8.731818199157715,0.36058032512664795,-0.86620694,1.3735305,209.74599999999998,-56.054306000000004,12.737814,FOL
46583106000000.0,0.9862427115440369,-0.8217475414276123,10.65533447265625,8.80131721496582,0.4143516421318054,-0.9398162,1.3845261,209.99367,-56.223209999999995,12.990936999999999,FOL
46583150000000.0,0.9912422299385071,-0.8315191268920898,10.764922142028809,8.860421180725098,0.46952199935913086,-1.0155635,1.4107933000000001,210.26137000000003,-56.429634,13.236892999999998,FOL
46583190000000.0,0.9962416887283325,-0.8436117768287659,10.860428810119629,8.91466999053955,0.524975061416626,-1.0989466,1.4181237,210.55154,-56.644369999999995,13.489279000000002,FOL
46583228000000.0,1.0012414455413818,-0.8574456572532654,10.941155433654785,8.964427947998047,0.5811516046524048,-1.1835514,1.4330899,210.86139,-56.903071999999995,13.720756,FOL
46583266000000.0,1.0062413215637207,-0.8725574016571045,11.00674819946289,9.01002311706543,0.6373782157897949,-1.2519683000000001,1.459968,211.18639,-57.164738,13.963053,FOL
46583300000000.0,1.0112394094467163,-0.8883380889892578,11.058880805969238,9.049845695495605,0.6943684220314026,-1.3090841999999998,1.5015068,211.5153,-57.42706,14.21699,FOL
46583333000000.0,1.0162397623062134,-0.9042937159538269,11.098838806152344,9.082466125488281,0.7526674866676331,-1.3738358999999998,1.5387696000000002,211.86158999999998,-57.69611999999999,14.482672,FOL
46583366000000.0,1.021238923072815,-0.9203914999961853,11.123663902282715,9.10727596282959,0.8120266199111938,-1.4382823,1.5735888,212.2049,-57.953945,14.763101,FOL
46583396000000.0,1.0262374877929688,-0.9366147518157959,11.130448341369629,9.123634338378906,0.8726009726524353,-1.4721853,1.5980235,212.55447,-58.221455000000006,15.049188000000001,FOL
46583425000000.0,1.0312360525131226,-0.9499744772911072,11.126948356628418,9.1317138671875,0.9321283102035522,-1.5436565,1.6487253000000002,212.91933999999998,-58.476963,15.362435999999999,FOL
46583454000000.0,1.0362354516983032,-0.9565915465354919,11.122880935668945,9.131573677062988,0.9928455948829651,-1.6157386,1.7018706000000001,213.29115,-58.749565000000004,15.6802635,FOL
46583480000000.0,1.041236400604248,-0.9582884907722473,11.115023612976074,9.122966766357422,1.055242896080017,-1.6771306000000001,1.7458528000000002,213.66222000000002,-59.004909999999995,16.020355,FOL
46583505000000.0,1.0462363958358765,-0.9576088786125183,11.09869384765625,9.105420112609863,1.1187260150909424,-1.7360790000000001,1.8029686999999999,214.0443,-59.256977,16.378335999999997,FOL
46583530000000.0,1.0512362718582153,-0.95313560962677,11.073448181152344,9.078814506530762,1.1841974258422852,-1.790446,1.8628335999999999,214.45139,-59.52406,16.764841,FOL
46583555000000.0,1.0562386512756348,-0.9426213502883911,11.038297653198242,9.042637825012207,1.2525767087936401,-1.8442022,1.9275852,214.86792000000003,-59.79139,17.165253,FOL
46583576000000.0,1.0612374544143677,-0.9242884516716003,10.994159698486328,8.998623847961426,1.3245227336883545,-1.8848247999999999,1.9837848999999999,215.29592999999997,-60.063556999999996,17.588552,FOL
46583597000000.0,1.0662366151809692,-0.8953467011451721,10.941543579101562,8.948391914367676,1.3987059593200684,-1.9336938999999997,2.0360138,215.73546000000002,-60.330765,18.024456,FOL
46583620000000.0,1.071234941482544,-0.8567956686019897,10.878889083862305,8.892500877380371,1.4741607904434204,-1.9749273,2.0977113,216.18446,-60.588478,18.497849,FOL
46583640000000.0,1.0762333869934082,-0.8097240328788757,10.803459167480469,8.831531524658203,1.5509008169174194,-2.0002782,2.1630738,216.63866000000002,-60.83991999999999,18.9778,FOL
46583656000000.0,1.081233024597168,-0.7569645643234253,10.714634895324707,8.76730728149414,1.6282390356063843,-2.0494528,2.2128593999999997,217.10992000000002,-61.054375,19.510673999999998,FOL
46583672000000.0,1.0862329006195068,-0.7030705809593201,10.611045837402344,8.702792167663574,1.7061110734939575,-2.0903810000000003,2.259896,217.58176,-61.251442000000004,20.048784,FOL
46583690000000.0,1.0912301540374756,-0.6470845341682434,10.494699478149414,8.63803482055664,1.7839512825012207,-2.1456642,2.2818869999999998,218.06264,-61.394867000000005,20.638310999999998,FOL
46583706000000.0,1.0962284803390503,-0.5833171010017395,10.371535301208496,8.572973251342773,1.861175298690796,-2.1862867,2.3109033,218.54799,-61.512221999999994,21.230953,FOL
46583723000000.0,1.1012285947799683,-0.5124189853668213,10.242788314819336,8.507102012634277,1.9373602867126465,-2.1951442,2.3429737,219.01497,-61.562934999999996,21.860077,FOL
46583740000000.0,1.1062277555465698,-0.4367900788784027,10.115487098693848,8.436748504638672,2.0117151737213135,-2.2000313,2.3606887000000003,219.49355,-61.588017,22.482810999999998,FOL
46583756000000.0,1.1112265586853027,-0.3566366732120514,9.99106502532959,8.35943603515625,2.0839955806732178,-2.2104158,2.3732113999999997,219.9433,-61.528263,23.157671,FOL
46583770000000.0,1.1162264347076416,-0.2719780206680298,9.8785400390625,8.259160995483398,2.1558585166931152,-2.2088888,2.3655756,220.39336,-61.44865,23.817617000000002,FOL
46583780000000.0,1.1212286949157715,-0.1829604059457779,9.777660369873047,8.135430335998535,2.2265775203704834,-2.1917843999999995,2.3710735,220.86,-61.318348,24.50402,FOL
46583794000000.0,1.1262297630310059,-0.08953405171632767,9.690546989440918,7.977360248565674,2.2956924438476562,-2.1432207,2.3674082999999997,221.32025,-61.16778000000001,25.169682,FOL
46583807000000.0,1.1312280893325806,0.008360777050256729,9.61568546295166,7.786257266998291,2.3625402450561523,-2.1175644,2.3298400000000004,221.85252000000003,-61.036076,25.822302,FOL
46583820000000.0,1.1362268924713135,0.11381703615188599,9.545835494995117,7.55626916885376,2.427730083465576,-2.1282544,2.273335,222.38635,-60.881606999999995,26.452902,FOL
46583830000000.0,1.1412266492843628,0.22700698673725128,9.479911804199219,7.290006637573242,2.489917755126953,-2.2250767000000002,2.1954496,223.09453,-60.785236,27.044851,FOL
46583844000000.0,1.1462249755859375,0.35211557149887085,9.41063117980957,6.995384216308594,2.547603130340576,-2.3625214,2.0998492000000004,223.82792999999998,-60.667933999999995,27.601295,FOL
46583857000000.0,1.151227593421936,0.4888829290866852,9.338028907775879,6.673023223876953,2.6008143424987793,-2.5265386000000003,2.0005836,224.7835,-60.585609999999996,28.131553999999998,FOL
46583870000000.0,1.1562278270721436,0.6384738087654114,9.241427421569824,6.323896408081055,2.6492202281951904,-2.7076602000000003,1.9040669,225.79536000000002,-60.473686,28.62138,FOL
46583882000000.0,1.1612271070480347,0.8007774949073792,9.11739444732666,5.9489030838012695,2.6921815872192383,-2.882673,1.8032742,226.8633,-60.338017,29.06617,FOL
46583890000000.0,1.1662263870239258,0.9733777046203613,8.955591201782227,5.556758880615234,2.7309815883636475,-3.0494392,1.6783522000000002,228.18175,-60.166515000000004,29.513494,FOL
46583900000000.0,1.1712285280227661,1.1556004285812378,8.755358695983887,5.149357318878174,2.765955924987793,-3.1600057999999995,1.5787811999999999,229.53467,-59.95205,29.916153,FOL
46583907000000.0,1.1762319803237915,1.348010540008545,8.515222549438477,4.733043193817139,2.7980408668518066,-3.2330042999999997,1.4905111999999998,231.13736,-59.591730000000005,30.389488,FOL
46583916000000.0,1.1812360286712646,1.5503649711608887,8.236318588256836,4.309925079345703,2.8283019065856934,-3.2449162,1.4318681,232.74261,-120.82143,30.81434,FOL
46583924000000.0,1.186238169670105,1.7632346153259277,7.9213032722473145,3.8784615993499756,2.8558921813964844,-3.2238414,1.3713925,234.92786,-121.51903,31.403383,FOL
46583933000000.0,1.1912405490875244,1.9870015382766724,7.571789264678955,3.43754506111145,2.8781707286834717,-3.1651982999999997,1.3228287,237.05437,-122.29075,31.948246,FOL
46583940000000.0,1.1962823867797852,2.219269275665283,7.187643051147461,2.9861655235290527,2.8937113285064697,-3.07815,1.2791518,238.98272999999998,-123.33751000000001,32.66598,FOL
46583950000000.0,1.2012808322906494,2.4526777267456055,6.786416530609131,2.5348076820373535,2.9046638011932373,-2.9831605,1.2476922,240.87442000000001,-124.42840600000001,33.337177000000004,FOL
46583958000000.0,1.2062785625457764,2.684396982192993,6.367063522338867,2.083578109741211,2.911370038986206,-2.892447,1.2220358999999998,242.47949,-125.65639499999999,34.074574,FOL
46583966000000.0,1.2112749814987183,2.911698818206787,5.933215618133545,1.634903907775879,2.914154291152954,-2.7947085,1.1979066999999999,244.06311000000002,-126.90593,34.768440000000005,FOL
46583974000000.0,1.2162775993347168,3.128934860229492,5.4858717918396,1.194998025894165,2.9139902591705322,-2.6841418999999997,1.1731668,245.61312999999998,-128.32437,35.548008,FOL
46583983000000.0,1.2212779521942139,3.3336105346679688,5.027458190917969,0.7672269940376282,2.9104819297790527,-2.6279423,1.1603385,247.17361,-129.75388,36.280727,FOL
46583990000000.0,1.2262773513793945,3.5221188068389893,4.5605292320251465,0.3598940372467041,2.9045398235321045,-2.5338689999999997,1.1462886,248.74402999999998,-131.31563,37.066406,FOL
46584000000000.0,1.2312761545181274,3.692603588104248,4.0868330001831055,-0.022385766729712486,2.8973193168640137,-2.453235,1.1230757,250.32896000000002,-132.87749,37.79698,FOL
46584010000000.0,1.2362728118896484,3.8447105884552,3.6106371879577637,-0.38652679324150085,2.884965658187866,-2.3878722000000003,1.1074986,251.94852999999998,-134.53062,38.555912,FOL
46584016000000.0,1.2412726879119873,3.978403091430664,3.1337902545928955,-0.7369313836097717,2.865961790084839,-2.3499987,1.0751228000000002,253.57852000000003,-136.16656,39.251064,FOL
46584025000000.0,1.2462648153305054,4.094372272491455,2.6644046306610107,-1.0802533626556396,2.83927845954895,-2.3014348,1.0369438,255.21307000000002,-137.84381000000002,39.957825,FOL
46584033000000.0,1.251258373260498,4.192760944366455,2.2059824466705322,-1.421185851097107,2.804446220397949,-2.2275202000000003,1.0054842,256.85626,-139.4881,40.606617,FOL
46584040000000.0,1.256251335144043,4.275960445404053,1.7717108726501465,-1.7607223987579346,2.7614433765411377,-2.1138992,0.98349303,258.54736,-141.15413999999998,41.226295,FOL
46584050000000.0,1.261245608329773,4.345388412475586,1.3670672178268433,-2.0995421409606934,2.711193799972534,-1.994475,0.9944886000000001,260.2425,-142.78555,41.797234,FOL
46584060000000.0,1.2662410736083984,4.401486873626709,1.002709150314331,-2.4341092109680176,2.6552717685699463,-1.8613064,1.0332786,262.0189,-144.41565,42.2788,FOL
46584067000000.0,1.2712364196777344,4.444883346557617,0.681675374507904,-2.7630486488342285,2.594175100326538,-1.7559320999999999,1.1224649,263.79857999999996,-146.01904,42.726738,FOL
46584070000000.0,1.2762304544448853,4.469733238220215,0.40701955556869507,-3.0744240283966064,2.5285701751708984,-1.7916678,1.196685,265.63138,-147.56628,43.024048,FOL
46584080000000.0,1.2812248468399048,4.473380088806152,0.17939655482769012,-3.362579107284546,2.4589250087738037,-1.9193386000000001,1.1963795,267.4622,-149.07713,43.265377,FOL
46584084000000.0,1.2862207889556885,4.449710845947266,0.0038517506327480078,-3.6313228607177734,2.38633394241333,-2.083356,1.1291844,269.30945,-150.48656,43.329966999999996,FOL
46584088000000.0,1.2912232875823975,4.394140720367432,-0.11591111123561859,-3.883622169494629,2.3116703033447266,-2.2464569,1.0525209,271.16174,-151.85724,43.313266999999996,FOL
46584090000000.0,1.2962250709533691,4.313438415527344,-0.17929206788539886,-4.13348388671875,2.23781156539917,-2.3747387000000004,0.98807454,272.8856,-153.03905,43.080883,FOL
46584096000000.0,1.3012244701385498,4.211636066436768,-0.186767578125,-4.388772487640381,2.1678240299224854,-2.4990497000000005,0.9074403,274.57596,-154.18417,42.76182,FOL
46584104000000.0,1.3062247037887573,4.100053787231445,-0.11242611706256866,-4.649740695953369,2.103731155395508,-2.6670377,0.8417723,276.01886,-155.0562,42.08278,FOL
46584110000000.0,1.311224102973938,3.987356424331665,0.06059958413243294,-4.916220664978027,2.0457234382629395,-2.862209,0.782213,277.41302,-155.91794,41.343117,FOL
46584113000000.0,1.316225290298462,3.885843276977539,0.29159462451934814,-5.185066223144531,1.9922720193862915,-2.9675834,0.72784597,278.55484,-156.53221000000002,40.24342,FOL
46584117000000.0,1.321232557296753,3.805314064025879,0.5480654835700989,-5.453881740570068,1.9407250881195068,-3.170696,0.6765333,279.67105,-157.1467,39.0741,FOL
46584120000000.0,1.3262335062026978,3.748213529586792,0.8197019100189209,-5.723959445953369,1.8907045125961304,-3.2858440000000004,0.6722571999999999,280.45092999999997,-157.41135,37.635063,FOL
46584130000000.0,1.3312321901321411,3.7175629138946533,1.099261999130249,-5.9972615242004395,1.8425357341766357,-3.3014212,0.659429,281.1896,-157.67975,36.208015,FOL
46584134000000.0,1.3362336158752441,3.7199881076812744,1.3802316188812256,-6.277708053588867,1.7954365015029907,-3.2021556,0.66920286,281.83206,-157.86096,34.808968,FOL
46584140000000.0,1.3412331342697144,3.7608590126037598,1.6556847095489502,-6.568344593048096,1.7488452196121216,-2.9471195,0.70005155,282.4333,-158.05161999999999,33.500690000000006,FOL
46584142000000.0,1.3462319374084473,3.8322129249572754,1.9128105640411377,-6.857177734375,1.7032394409179688,-2.5427265,0.820392,282.98514,-158.2278,32.351814000000005,FOL
46584146000000.0,1.3512318134307861,3.9252471923828125,2.1366312503814697,-7.130373001098633,1.6616592407226562,-2.02624,1.0198395,283.5072,-158.43362,31.359866999999998,FOL
46584155000000.0,1.3562322854995728,4.026410102844238,2.3191490173339844,-7.3820600509643555,1.6254853010177612,-1.5018122,1.2308934999999999,284.026,-158.69325,30.632463,FOL
46584160000000.0,1.3612313270568848,4.114017486572266,2.4460155963897705,-7.601964473724365,1.5945760011672974,-1.0406090000000001,1.3979651000000002,284.52277000000004,-158.98383,30.072882,FOL
46584163000000.0,1.3662314414978027,4.180778980255127,2.5178871154785156,-7.789623737335205,1.5685694217681885,-0.68752885,1.4953982,285.06018,-159.39516,29.78762,FOL
46584167000000.0,1.3712372779846191,4.214047908782959,2.5336105823516846,-7.943011283874512,1.5466183423995972,-0.410196,1.534799,285.5722,-159.82678,29.623545,FOL
46584170000000.0,1.3762388229370117,4.215196132659912,2.505053997039795,-8.066412925720215,1.5278880596160889,-0.226631,1.5302174,286.13622999999995,-160.39218,29.575823,FOL
46584176000000.0,1.3812371492385864,4.1840620040893555,2.442800521850586,-8.16325569152832,1.511327862739563,-0.11942416,1.486846,286.6684,-160.95363999999998,29.578032,FOL
46584184000000.0,1.3862370252609253,4.123610019683838,2.355095148086548,-8.243288040161133,1.4953734874725342,-0.105068825,1.4071281,287.23724,-161.61598,29.57051,FOL
46584190000000.0,1.3912353515625,4.038189888000488,2.2531867027282715,-8.319307327270508,1.4792602062225342,-0.13439035,1.3151928,287.77585,-162.26013,29.56857,FOL
46584193000000.0,1.3962327241897583,3.9355111122131348,2.1410815715789795,-8.39579963684082,1.4625244140625,-0.16646078,1.1890492,288.31485,-162.94914,29.496952,FOL
46584197000000.0,1.4012322425842285,3.8260064125061035,2.0241286754608154,-8.479283332824707,1.4449876546859741,-0.17623462,1.0580186000000003,288.81967000000003,-163.60861,29.40993,FOL
46584200000000.0,1.4062319993972778,3.7158379554748535,1.9050811529159546,-8.570984840393066,1.4273600578308105,-0.17592919,0.91538155,289.2965,-164.278,29.207624,FOL
46584210000000.0,1.4112306833267212,3.6174156665802,1.789323091506958,-8.6740140914917,1.4090441465377808,-0.20738874,0.79229224,289.73694,-164.91263999999998,28.982878000000003,FOL
46584214000000.0,1.4162335395812988,3.531644105911255,1.6777691841125488,-8.788846969604492,1.3892790079116821,-0.22968534,0.7058548000000001,290.15344,-165.5527,28.689707000000002,FOL
46584218000000.0,1.4212369918823242,3.4650397300720215,1.5761185884475708,-8.918588638305664,1.367295503616333,-0.2724459,0.6774496,290.5475,-166.16429,28.378272999999997,FOL
46584220000000.0,1.426239013671875,3.4172399044036865,1.48347008228302,-9.062104225158691,1.344758152961731,-0.3115413,0.6261369000000001,290.91700000000003,-166.77477,28.048246000000002,FOL
46584226000000.0,1.4312376976013184,3.3945367336273193,1.3960096836090088,-9.21676254272461,1.3214033842086792,-0.33475417,0.59773165,291.27924,-167.35927,27.714045000000002,FOL
46584235000000.0,1.436239242553711,3.3961353302001953,1.3128297328948975,-9.381672859191895,1.298853874206543,-0.32559118,0.58276546,291.6253,-167.93436,27.391876,FOL
46584240000000.0,1.4412397146224976,3.420729875564575,1.226305365562439,-9.547578811645508,1.278059482574463,-0.29229903,0.5732970000000001,291.95624,-168.49176,27.073835,FOL
46584243000000.0,1.4462507963180542,3.467759609222412,1.1355938911437988,-9.713301658630371,1.2592196464538574,-0.20433442,0.56138515,292.2853,-169.05495,26.825233,FOL
46584247000000.0,1.4512534141540527,3.5309345722198486,1.0347044467926025,-9.862687110900879,1.2458600997924805,-0.096516706,0.55863625,292.60297,-169.62646,26.596292,FOL
46584250000000.0,1.4562568664550781,3.6100363731384277,0.9236627221107483,-9.996346473693848,1.2376888990402222,-0.027488936000000002,0.54244834,292.9337,-170.2274,26.451659999999997,FOL
46584260000000.0,1.4612568616867065,3.70381498336792,0.788175642490387,-10.098050117492676,1.234103798866272,0.028405233999999998,0.5335908,293.25214,-170.83505,26.33512,FOL
46584264000000.0,1.4662597179412842,3.8119118213653564,0.6268200874328613,-10.166620254516602,1.2350395917892456,0.06261369,0.52839845,293.55664,-171.4498,26.231976,FOL
46584270000000.0,1.4713325500488281,3.938027858734131,0.4327954053878784,-10.196779251098633,1.240857481956482,0.053450707,0.516792,293.89517,-172.13132,26.221039,FOL
46584272000000.0,1.4763307571411133,4.067955493927002,0.22593921422958374,-10.20407485961914,1.2484651803970337,-0.0027488936,0.505491,294.22467,-172.80411999999998,26.202637,FOL
46584276000000.0,1.481324553489685,4.205049991607666,-0.000893732940312475,-10.18254280090332,1.2555534839630127,-0.09987647,0.4822781,294.65686,-173.63133,26.341267,FOL
46584285000000.0,1.486328363418579,4.343344688415527,-0.24521329998970032,-10.140223503112793,1.258520245552063,-0.23884831,0.4541782999999999,295.07794,-174.43202,26.441491999999997,FOL
46584290000000.0,1.4913266897201538,4.481184482574463,-0.5039345622062683,-10.08084487915039,1.255648136138916,-0.36682457,0.39767328,295.475,-175.19961999999998,26.506838000000002,FOL
46584293000000.0,1.49631667137146,4.617932319641113,-0.7686868906021118,-10.007871627807617,1.2468901872634888,-0.49724430000000003,0.32192600000000005,295.9255,-176.02597,26.621048,FOL
46584297000000.0,1.5013070106506348,4.753647327423096,-1.0372419357299805,-9.922296524047852,1.2313880920410156,-0.5867361,0.24678956,296.34808,-176.79637,26.699999,FOL
46584300000000.0,1.5062974691390991,4.877645969390869,-1.2901965379714966,-9.835620880126953,1.2092245817184448,-0.6462954000000001,0.16401732,296.80096000000003,-177.60709,26.803709,FOL
46584306000000.0,1.5112886428833008,4.989704132080078,-1.5268774032592773,-9.748740196228027,1.1811126470565796,-0.6533204,0.047647487,297.20624,-178.35573,26.887012,FOL
46584314000000.0,1.516282081604004,5.08730936050415,-1.7344285249710083,-9.679108619689941,1.1478739976882935,-0.67073005,-0.015577064,297.62653,-179.10538,26.986074,FOL
46584320000000.0,1.5212758779525757,5.1710052490234375,-1.9132676124572754,-9.62730884552002,1.1133792400360107,-0.6948592,-0.13408493,297.97900000000004,-179.80213999999998,27.072945,FOL
46584323000000.0,1.5262682437896729,5.247274875640869,-2.0506927967071533,-9.612160682678223,1.0755953788757324,-0.7828238000000001,-0.24251351,298.29343,179.57299999999998,27.11918,FOL
46584327000000.0,1.5312610864639282,5.318379878997803,-2.1439425945281982,-9.638521194458008,1.0390926599502563,-0.95386606,-0.33964106,298.56158,178.96655,27.130478000000004,FOL
46584330000000.0,1.5362547636032104,5.401280879974365,-2.178095817565918,-9.695648193359375,1.0091254711151123,-1.1307116000000001,-0.44348818,298.7253,178.4524,27.053328000000004,FOL
46584340000000.0,1.541253685951233,5.497669696807861,-2.1532766819000244,-9.781373023986816,0.988893985748291,-1.3243558000000002,-0.5207626000000001,298.85406,177.94211,26.922983000000002,FOL
46584344000000.0,1.5462511777877808,5.643171787261963,-2.060481071472168,-9.858893394470215,0.9812976121902466,-1.591304,-0.5290093000000001,298.87762000000004,177.52435,26.656782,FOL
46584348000000.0,1.551248550415039,5.845196723937988,-1.8993908166885376,-9.919477462768555,0.9882673621177673,-1.9663752,-0.4175264,298.8993,177.05655,26.307570000000002,FOL
46584350000000.0,1.5562465190887451,6.059558391571045,-1.6864523887634277,-10.022387504577637,1.007041096687317,-2.3829854,-0.1685988,298.84792999999996,176.73186,25.883623,FOL
46584356000000.0,1.5612448453903198,6.274925708770752,-1.427786946296692,-10.180439949035645,1.0250585079193115,-2.554333,0.058643065,298.8147,176.39087,25.428196,FOL
46584365000000.0,1.5662449598312378,6.497433662414551,-1.1367568969726562,-10.388689994812012,1.0389416217803955,-2.3215932999999995,0.16646078,298.75122000000005,176.23456000000002,25.197939,FOL
46584370000000.0,1.57124662399292,6.728382110595703,-0.818193793296814,-10.643802642822266,1.0587586164474487,-1.9938642,0.23243423,298.74062999999995,176.00801,24.94428,FOL
46584373000000.0,1.5762443542480469,6.962406635284424,-0.4950653612613678,-10.940910339355469,1.0878230333328247,-1.7559320999999999,0.37415496,298.7139,175.9456,24.69131,FOL
46584377000000.0,1.5812419652938843,7.197506904602051,-0.17667239904403687,-11.277968406677246,1.1254467964172363,-1.4709635,0.552833,298.72873,175.83336,24.53963,FOL
46584380000000.0,1.5862407684326172,7.408525466918945,0.11165154725313187,-11.629825592041016,1.1709946393966675,-1.0870347,0.6844745,298.7339,175.801,24.468037,FOL
46584390000000.0,1.5912411212921143,7.588856220245361,0.36346644163131714,-11.988449096679688,1.225606918334961,-0.6768387,0.66706485,298.75558,175.69458,24.474615,FOL
46584394000000.0,1.596238613128662,7.690301895141602,0.5601902604103088,-12.345667839050293,1.2857892513275146,-0.17256944,0.52564955,298.77896,175.5851,24.58086,FOL
46584400000000.0,1.6012394428253174,7.688541412353516,0.6926003694534302,-12.697973251342773,1.3446850776672363,0.3921755,0.13775012,298.7278,175.46883,24.813118,FOL
46584402000000.0,1.6062406301498413,7.620347499847412,0.786041796207428,-13.038806915283203,1.3918315172195435,0.8720101,-0.40653083,298.61044,175.3303,25.075045000000003,FOL
46584406000000.0,1.6112431287765503,7.500663757324219,0.850695788860321,-13.36623764038086,1.4101611375808716,1.0995574,-0.8481864,298.4057,175.29623,25.420101000000003,FOL
46584415000000.0,1.616284728050232,7.3252363204956055,0.8851246237754822,-13.681519508361816,1.3902713060379028,1.0711522,-1.1050552,298.1626,175.26216000000002,25.583784,FOL
46584420000000.0,1.6212852001190186,7.121515274047852,0.9020342230796814,-13.982508659362793,1.3325223922729492,0.9999863999999999,-1.1682798,297.84256,175.39076,25.80286,FOL
46584423000000.0,1.6262829303741455,6.885013580322266,0.8998605012893677,-14.270366668701172,1.2611830234527588,0.8206975000000001,-1.2162327,297.50363,175.53215,25.803688,FOL
46584427000000.0,1.6312845945358276,6.639095783233643,0.8654717803001404,-14.540042877197266,1.1677483320236206,0.6429357,-1.2473868000000001,297.14362,175.90343000000001,25.78793,FOL
46584430000000.0,1.6362864971160889,6.388883113861084,0.7983595132827759,-14.791425704956055,1.0633249282836914,0.48838675,-1.3069462,296.7519,176.30669,25.732174,FOL
46584440000000.0,1.6412888765335083,6.153347969055176,0.7118576169013977,-15.001174926757812,0.9572067856788635,0.31764993,-1.3607023,296.38583,176.73803999999998,25.522130999999998,FOL
46584444000000.0,1.6462843418121338,5.937256336212158,0.6110798716545105,-15.165037155151367,0.8532280921936035,0.17989981,-1.3765849,296.00616,177.21939,25.283934,FOL
46584450000000.0,1.6512815952301025,5.747461795806885,0.5263819098472595,-15.262950897216797,0.7522351741790771,0.08735373,-1.3836098,295.65308,177.64336,24.981844,FOL
46584453000000.0,1.6562796831130981,5.584514141082764,0.46470460295677185,-15.293027877807617,0.6540526151657104,0.09407325,-1.3396275,295.3057,178.0708,24.67632,FOL
46584457000000.0,1.6612776517868042,5.453120231628418,0.4535128176212311,-15.25391960144043,0.5605653524398804,0.15851954,-1.1878275,295.00142999999997,178.43613,24.412193,FOL
46584460000000.0,1.6662787199020386,5.353623867034912,0.4988044500350952,-15.147037506103516,0.4744855761528015,0.26694809999999997,-0.93492925,294.7397,178.77515,24.166553,FOL
46584470000000.0,1.6712766885757446,5.252908229827881,0.6622061729431152,-14.926795959472656,0.3993414044380188,0.45112398,-0.62796944,294.5088,179.10628,24.053938,FOL
46584474000000.0,1.676274299621582,5.141026020050049,0.9598568081855774,-14.581693649291992,0.3361777663230896,0.6178902,-0.32986724,294.35385,179.38324,23.96665,FOL
46584478000000.0,1.6812721490859985,5.010602951049805,1.2908196449279785,-14.201087951660156,0.2843562066555023,0.8155051,-0.06505715,294.20083999999997,179.71976,24.055108999999998,FOL
46584480000000.0,1.6862702369689941,4.859893321990967,1.6210787296295166,-13.815305709838867,0.24389080703258514,1.058324,0.15118915,294.12567,179.9813,24.201199,FOL
46584490000000.0,1.6915292739868164,4.663345813751221,1.9672303199768066,-13.399725914001465,0.2329929620027542,1.8912388,0.589485,293.77686,-179.08057,24.956514000000002,FOL
46584500000000.0,1.6967750787734985,4.458471298217773,2.2916581630706787,-12.964876174926758,0.2379603385925293,2.3445007999999996,0.8472700999999999,293.64648,-178.65979,25.426308,FOL
46584503000000.0,1.7020071744918823,4.257772445678711,2.5669000148773193,-12.489408493041992,0.25752419233322144,2.5439484,1.0852021,293.56696,-178.33391,25.955996,FOL
46584507000000.0,1.707226276397705,4.0693278312683105,2.785736322402954,-11.968860626220703,0.2870814800262451,2.7681357999999996,1.171945,293.4884,-178.05649,26.597399,FOL
46584510000000.0,1.7124357223510742,3.9028797149658203,2.938483953475952,-11.396703720092773,0.31822139024734497,2.7846290000000002,1.2950343,293.4761,-177.84096,27.234243,FOL
46584520000000.0,1.7176331281661987,3.7545487880706787,3.0215911865234375,-10.788615226745605,0.34988293051719666,2.5735753,1.3884968,293.5069,-177.74915,27.925043,FOL
46584524000000.0,1.722819209098816,3.619950771331787,3.02856183052063,-10.16250991821289,0.37710627913475037,2.2049181,1.4333953000000001,293.54343,-177.65053,28.57293,FOL
46584530000000.0,1.7279949188232422,3.4985272884368896,2.9662554264068604,-9.54049015045166,0.39545634388923645,1.7632625,1.391551,293.66312,-177.67446999999999,29.275522,FOL
46584532000000.0,1.7331629991531372,3.3898675441741943,2.841824531555176,-8.952122688293457,0.40224820375442505,1.3026701,1.2849549999999998,293.76825,-177.66063,29.86795,FOL
46584536000000.0,1.738326907157898,3.294240713119507,2.6624696254730225,-8.4078369140625,0.3997744023799896,0.8695666999999999,1.1273518,294.01617000000005,-177.82452,30.471869,FOL
46584545000000.0,1.7434804439544678,3.2121076583862305,2.4396493434906006,-7.923508644104004,0.39015644788742065,0.45112398,0.9428705,294.2219,-177.92522,30.951373999999998,FOL
46584550000000.0,1.7486251592636108,3.146589756011963,2.1785519123077393,-7.505118370056152,0.3756469786167145,0.04276056599999999,0.7535023000000001,294.58297999999996,-178.20358000000002,31.384735,FOL
46584553000000.0,1.753767490386963,3.1072466373443604,1.8883224725723267,-7.174239635467529,0.35619741678237915,-0.3811799,0.5543602,294.88702,-178.42125,31.697077,FOL
46584557000000.0,1.7588982582092285,3.09476900100708,1.5788514614105225,-6.924870491027832,0.3325918912887573,-0.80756384,0.34666604,295.2888,-178.76791,31.84846,FOL
46584560000000.0,1.7640233039855957,3.1163480281829834,1.269804835319519,-6.75657844543457,0.3038148283958435,-1.1349876,0.17806722,295.642,-179.06392,31.908592,FOL
46584566000000.0,1.7691410779953003,3.1670167446136475,0.9653774499893188,-6.664703845977783,0.2693605124950409,-1.2922854,0.035430185,296.02727999999996,-179.41565,31.770828,FOL
46584574000000.0,1.7742512226104736,3.234919786453247,0.6797295808792114,-6.645452499389648,0.2283269762992859,-1.2534955,-0.07574729,296.3625,-179.71513000000002,31.596715999999997,FOL
46584580000000.0,1.7793550491333008,3.316051959991455,0.41370099782943726,-6.686436653137207,0.18503651022911072,-1.0537425,-0.17928895,296.69122000000004,179.96725,31.3868,FOL
46584583000000.0,1.7844550609588623,3.399078130722046,0.1725444346666336,-6.755082130432129,0.1458924561738968,-0.80909103,-0.27366763,296.97772000000003,179.67418,31.204079999999998,FOL
46584587000000.0,1.7895482778549194,3.4815380573272705,-0.04312724620103836,-6.844396591186523,0.11401069164276123,-0.6151413,-0.34208453,297.22562,179.4109,30.997365999999996,FOL
46584590000000.0,1.7946361303329468,3.551784038543701,-0.22407032549381256,-6.926940441131592,0.08827170729637146,-0.52442783,-0.3903429,297.4412,179.15582,30.834507000000002,FOL
46584600000000.0,1.799721360206604,3.6103932857513428,-0.37191686034202576,-7.003055572509766,0.06519033759832382,-0.5109888,-0.43004912,297.60175,178.9432,30.6711,FOL
46584604000000.0,1.8048025369644165,3.6501095294952393,-0.4810124337673187,-7.069587707519531,0.04385991021990776,-0.5717699,-0.4529566,297.74496,178.72163,30.515276,FOL
46584608000000.0,1.809878945350647,3.6712217330932617,-0.5535995960235596,-7.127892017364502,0.0226407703012228,-0.602924,-0.46273044,297.87317,178.50851,30.374533000000003,FOL
46584610000000.0,1.8149527311325073,3.6767327785491943,-0.6017085909843445,-7.191431045532227,0.0017548665637150407,-0.6786713000000001,-0.46822822,297.92004,178.38956000000002,30.186265999999996,FOL
46584616000000.0,1.820042610168457,3.66670298576355,-0.625822126865387,-7.261196136474609,-0.01886439323425293,-0.7648033000000001,-0.4728097,297.889,178.37592,29.955541999999998,FOL
46584625000000.0,1.8251049518585205,3.646740674972534,-0.6370204091072083,-7.343060493469238,-0.03610596805810928,-0.8194756999999999,-0.46975538,297.85696,178.35045,29.715716999999998,FOL
46584630000000.0,1.83018159866333,3.6157970428466797,-0.6340392231941223,-7.439259052276611,-0.0503777451813221,-0.8524625,-0.44898596,297.7764,178.4018,29.399942,FOL
46584633000000.0,1.8352411985397339,3.5785653591156006,-0.6187098026275635,-7.551496982574463,-0.060128871351480484,-0.88147855,-0.41722095,297.70007000000004,178.43108999999998,29.074192,FOL
46584637000000.0,1.8403129577636719,3.534747838973999,-0.5902261734008789,-7.681429862976074,-0.06356559693813324,-0.88697636,-0.3924809,297.59747000000004,178.48352,28.68396,FOL
46584640000000.0,1.8453624248504639,3.4911882877349854,-0.5496429204940796,-7.828211307525635,-0.06100815534591675,-0.8775079,-0.36957347,297.50525,178.51251000000002,28.295464000000003,FOL
46584650000000.0,1.8504093885421753,3.4477169513702393,-0.4965834617614746,-7.9927263259887695,-0.05228767171502113,-0.8717046999999999,-0.34972036,297.38885,178.55581999999998,27.845425,FOL
46584654000000.0,1.855454921722412,3.412501335144043,-0.4323830306529999,-8.17020320892334,-0.03701639175415039,-0.8790351000000001,-0.36132678,297.27099999999996,178.56783000000001,27.402078999999997,FOL
46584660000000.0,1.8604954481124878,3.3857638835906982,-0.3578931391239166,-8.359295845031738,-0.016959549859166145,-0.8741482,-0.37904188,297.15872,178.5537,26.97137,FOL
46584662000000.0,1.8655349016189575,3.3735251426696777,-0.275846004486084,-8.557535171508789,0.005658255890011787,-0.8509353000000001,-0.39431350000000004,297.01027999999997,178.5711,26.502229999999997,FOL
46584667000000.0,1.8705705404281616,3.3754284381866455,-0.1869724541902542,-8.764044761657715,0.029854120686650276,-0.8008443000000001,-0.41386122,296.85733,178.56717,26.051893,FOL
46584675000000.0,1.8756047487258911,3.3926925659179688,-0.09336809068918228,-8.975650787353516,0.05386738106608391,-0.7119634,-0.44409904,296.66946,178.60612,25.618343,FOL
46584680000000.0,1.8806370496749878,3.424616575241089,0.004545587580651045,-9.191810607910156,0.07770776748657227,-0.57879484,-0.45998153,296.4843,178.62996,25.221888,FOL
46584683000000.0,1.8856691122055054,3.4768548011779785,0.10852091759443283,-9.401769638061523,0.10035902261734009,-0.42394048,-0.462425,296.27435,178.69429,24.882816000000002,FOL
46584687000000.0,1.8906980752944946,3.5488150119781494,0.21833443641662598,-9.604585647583008,0.1191173642873764,-0.2519819,-0.4474588,296.07007000000004,178.76332,24.595330999999998,FOL
46584690000000.0,1.8957252502441406,3.646500587463379,0.3346424400806427,-9.78959846496582,0.13287179172039032,-0.09437868,-0.4089743,295.85663,178.86693,24.383602,FOL
46584696000000.0,1.9007512331008911,3.769484758377075,0.45724210143089294,-9.956344604492188,0.14083096385002136,0.035430185,-0.37690386,295.65076,178.98357,24.218739000000003,FOL
46584704000000.0,1.9057762622833252,3.9203827381134033,0.5906593799591064,-10.09530258178711,0.14239217340946198,0.095294975,-0.31184670000000003,295.44516,179.15176,24.14931,FOL
46584710000000.0,1.9107989072799683,4.098762035369873,0.7357429265975952,-10.204780578613281,0.13704997301101685,0.16676621,-0.26633725,295.2479,179.34157,24.121504,FOL
46584713000000.0,1.9158234596252441,4.294332027435303,0.8886772990226746,-10.289006233215332,0.12759758532047272,0.1994475,-0.19333886,295.04874,179.57773,24.212301,FOL
46584717000000.0,1.920845866203308,4.502840995788574,1.0477243661880493,-10.350544929504395,0.1114380806684494,0.23396139,-0.13622294,294.86285,179.84972,24.320292000000002,FOL
46584720000000.0,1.9258660078048706,4.710783004760742,1.2113765478134155,-10.399133682250977,0.08840802311897278,0.27397305,-0.08704830000000001,294.65332,-179.80693,24.573501999999998,FOL
46584730000000.0,1.9308849573135376,4.91253137588501,1.3789135217666626,-10.439215660095215,0.06139654666185379,0.33200526,-0.039095376,294.4654,-179.45743000000002,24.833328,FOL
46584734000000.0,1.935903787612915,5.098659038543701,1.5462632179260254,-10.47236442565918,0.031771525740623474,0.41508293,0.016493361,294.26147000000003,-179.04475,25.20046,FOL
46584738000000.0,1.9409217834472656,5.265984535217285,1.7118005752563477,-10.499431610107422,0.0012185920495539904,0.49724430000000003,0.07788532,294.0784,-178.63278,25.572933,FOL
46584740000000.0,1.945938229560852,5.407094955444336,1.8725721836090088,-10.520101547241211,-0.028617622330784798,0.5830709,0.1441642,293.89099999999996,-178.18837,25.980751,FOL
46584750000000.0,1.9509899616241455,5.516836643218994,2.0278987884521484,-10.533707618713379,-0.05495933070778847,0.6786713000000001,0.20525073,293.72382000000005,-177.76518000000002,26.403677000000002,FOL
46584755000000.0,1.9560048580169678,5.580164432525635,2.1701912879943848,-10.524823188781738,-0.07695101946592331,0.7452555999999999,0.24617869,293.56085,-177.33731,26.812315,FOL
46584760000000.0,1.9610170125961304,5.5859150886535645,2.296907663345337,-10.48543930053711,-0.09207363426685333,0.7809911999999999,0.28741209999999995,293.4181,-176.95113999999998,27.229754999999997,FOL
46584763000000.0,1.9660297632217407,5.558431625366211,2.407440662384033,-10.416009902954102,-0.09994449466466904,0.7819075,0.30909783,293.2835,-176.58485,27.59443,FOL
46584767000000.0,1.9710463285446167,5.512204647064209,2.501732587814331,-10.31725788116455,-0.09971298277378082,0.73823065,0.31001409999999996,293.15567000000004,-176.26303000000001,27.94877,FOL
46584770000000.0,1.9760560989379883,5.453976631164551,2.5780961513519287,-10.189403533935547,-0.09159930050373077,0.655153,0.30421090000000006,293.0586,-175.9952,28.180376000000003,FOL
46584780000000.0,1.9810656309127808,5.388520240783691,2.634514570236206,-10.030816078186035,-0.0777326226234436,0.5412266,0.29718593,292.96164,-175.75911000000002,28.386751,FOL
46584784000000.0,1.986074447631836,5.3188557624816895,2.6716268062591553,-9.846874237060547,-0.06100764498114586,0.410196,0.27519479999999996,292.87344,-175.5703,28.554777,FOL
46584790000000.0,1.991083025932312,5.247890472412109,2.6899657249450684,-9.642653465270996,-0.04352997615933418,0.2660318,0.24495697,292.78207000000003,-175.39983999999998,28.683771000000004,FOL
46584792000000.0,1.996090054512024,5.178207874298096,2.691235065460205,-9.426339149475098,-0.026902353391051292,0.118202426,0.21777347,292.70578,-175.27576000000002,28.803051,FOL
46584797000000.0,2.001099109649658,5.112748622894287,2.676892042160034,-9.206772804260254,-0.012300277128815651,-0.008246681,0.18570304,292.6203,-175.14775,28.885294000000002,FOL
46584800000000.0,2.0061051845550537,5.052708625793457,2.6486399173736572,-8.990480422973633,-0.0010970387374982238,-0.07880162,0.16890424,292.55536,-175.05626999999998,28.976723,FOL
46584810000000.0,2.0111117362976074,4.999709606170654,2.6078073978424072,-8.785202026367188,0.008434843271970749,-0.18509217,0.14110987,292.4806,-174.95924,29.020819,FOL
46584813000000.0,2.0161187648773193,4.954145431518555,2.556097984313965,-8.594351768493652,0.014691594988107681,-0.24831672,0.12095132,292.42822,-174.88622,29.084985999999997,FOL
46584818000000.0,2.0211267471313477,4.916632652282715,2.495386838912964,-8.42236328125,0.018401186913251877,-0.27855456,0.10415252,292.36975,-174.80617,29.128355,FOL
46584820000000.0,2.0261318683624268,4.885575771331787,2.426119804382324,-8.27047061920166,0.019259877502918243,-0.29260445,0.09407325,292.33617999999996,-174.75537,29.173143,FOL
46584826000000.0,2.0311365127563477,4.859215259552002,2.3483781814575195,-8.140867233276367,0.01782653108239174,-0.28527406,0.08032878,292.29602,-174.69261,29.215854999999998,FOL
46584834000000.0,2.0361390113830566,4.837087631225586,2.264129877090454,-8.032943725585938,0.013865196146070957,-0.24953845,0.08368854,292.284,-174.65968,29.26865,FOL
46584840000000.0,2.0411438941955566,4.81873083114624,2.1756539344787598,-7.9467926025390625,0.008194244466722012,-0.21838433,0.0720821,292.26257000000004,-174.61525,29.322258,FOL
46584843000000.0,2.0461466312408447,4.803276538848877,2.084238052368164,-7.880740642547607,0.0014093847712501884,-0.18448131,0.062308256,292.27484,-174.60928,29.374392999999998,FOL
46584847000000.0,2.051151990890503,4.788380146026611,1.9931832551956177,-7.833067417144775,-0.006885786075145006,-0.14935656,0.04917465,292.28137000000004,-174.59024,29.435736,FOL
46584850000000.0,2.056154727935791,4.773367404937744,1.9042375087738037,-7.80202054977417,-0.016252677887678146,-0.12614368,0.040011674,292.3148,-174.60523999999998,29.483567999999998,FOL
46584860000000.0,2.0611586570739746,4.75656270980835,1.821587085723877,-7.785587310791016,-0.02621096558868885,-0.10751228,0.02443461,292.3411,-174.61088999999998,29.539494,FOL
46584864000000.0,2.0661613941192627,4.737644195556641,1.745788335800171,-7.782482624053955,-0.03598037362098694,-0.105068825,0.0027488936,292.38086,-174.63098,29.570238,FOL
46584868000000.0,2.0711684226989746,4.715646743774414,1.6786270141601562,-7.791293621063232,-0.04532680660486221,-0.118202426,-0.014660766,292.41714,-174.64569,29.601370000000003,FOL
46584870000000.0,2.0761704444885254,4.691479206085205,1.6204752922058105,-7.810135841369629,-0.053768206387758255,-0.15577064,-0.04184427,292.4482,-174.65463,29.593008,FOL
46584876000000.0,2.0811736583709717,4.666804790496826,1.57362699508667,-7.836434364318848,-0.061173755675554276,-0.21288654,-0.071776666,292.474,-174.66127,29.574892,FOL
46584885000000.0,2.0861783027648926,4.642219543457031,1.5378755331039429,-7.869444370269775,-0.06743588298559189,-0.26847526,-0.10140363,292.4876,-174.65225,29.509731,FOL
46584890000000.0,2.0911946296691895,4.6191935539245605,1.5139909982681274,-7.908166408538818,-0.0729573518037796,-0.33292156,-0.13561209,292.4922,-174.6398,29.425781,FOL
46584893000000.0,2.096195936203003,4.597911834716797,1.500663161277771,-7.951876640319824,-0.07758230715990067,-0.39125920000000003,-0.16615535,292.47595,-174.60036000000002,29.3052,FOL
46584897000000.0,2.10119891166687,4.5802321434021,1.4996442794799805,-8.00263500213623,-0.08114691823720932,-0.43157628,-0.17898351,292.45605,-174.56224,29.172874,FOL
46584900000000.0,2.1062068939208984,4.566086769104004,1.510487675666809,-8.06009578704834,-0.08408207446336746,-0.45478916,-0.19792034,292.4063,-174.48523,29.014673,FOL
46584910000000.0,2.1112077236175537,4.556277751922607,1.5327802896499634,-8.122426986694336,-0.08601438254117966,-0.49816059999999995,-0.20708331,292.3584,-174.41484,28.841879,FOL
46584914000000.0,2.116211414337158,4.5509233474731445,1.566322684288025,-8.189532279968262,-0.08717634528875351,-0.50762904,-0.22785273,292.27954,-174.30194,28.662122999999998,FOL
46584920000000.0,2.121216058731079,4.551394462585449,1.6101653575897217,-8.260112762451172,-0.08759273588657379,-0.5027421,-0.22510384,292.20786,-174.19717,28.477833,FOL
46584922000000.0,2.126220703125,4.557208061218262,1.6637824773788452,-8.333783149719238,-0.08731956034898758,-0.4905248,-0.22785273,292.10577,-174.05261000000002,28.290619,FOL
46584927000000.0,2.1312201023101807,4.566413879394531,1.7271283864974976,-8.408462524414062,-0.08644240349531174,-0.46089783,-0.22724187,292.0071,-173.9148,28.113277000000004,FOL
46584935000000.0,2.1362290382385254,4.578922271728516,1.8001130819320679,-8.484097480773926,-0.08448885381221771,-0.4288274,-0.21471913,291.88718,-173.7445,27.947354999999998,FOL
46584940000000.0,2.1412296295166016,4.592957496643066,1.8782013654708862,-8.55701732635498,-0.08187437802553177,-0.37965274,-0.20189096,291.76862,-173.57936,27.79768,FOL
46584943000000.0,2.1462271213531494,4.608478546142578,1.961286187171936,-8.627391815185547,-0.07936668395996094,-0.32284227,-0.18906279,291.62987999999996,-173.37611,27.663439,FOL
46584948000000.0,2.1512279510498047,4.624979019165039,2.0473201274871826,-8.69442081451416,-0.07639037072658539,-0.25961772,-0.17959438,291.49518,-173.18506000000002,27.547620000000002,FOL
46584950000000.0,2.1562280654907227,4.6422438621521,2.1354706287384033,-8.758004188537598,-0.07367033511400223,-0.18509217,-0.16035213,291.36782999999997,-172.99821,27.453946999999996,FOL
46584956000000.0,2.1612284183502197,4.660237789154053,2.225646495819092,-8.818325996398926,-0.07041160762310028,-0.11636983,-0.1441642,291.22308,-172.78615,27.381157,FOL
46584964000000.0,2.166226625442505,4.678908824920654,2.317686080932617,-8.875558853149414,-0.06643129885196686,-0.047647487,-0.12095132,291.08624,-172.58307,27.33152,FOL
46584970000000.0,2.171229600906372,4.6962199211120605,2.4070658683776855,-8.928226470947266,-0.06163763627409935,0.01160644,-0.09773844,290.95482999999996,-172.39075,27.29982,FOL
46584973000000.0,2.176227331161499,4.711623668670654,2.4924209117889404,-8.976118087768555,-0.05597630515694618,0.06841691,-0.07452556,290.8297,-172.21057,27.288113,FOL
46584977000000.0,2.1812267303466797,4.724066734313965,2.570655584335327,-9.016249656677246,-0.04897266626358032,0.106901415,-0.05161811400000001,290.6841,-171.99731,27.295559,FOL
46584980000000.0,2.186225414276123,4.73328971862793,2.640885353088379,-9.047849655151367,-0.04128424450755119,0.12278391400000001,-0.027794369,290.5465,-171.79488,27.313098999999998,FOL
46584990000000.0,2.1912240982055664,4.738901138305664,2.7024121284484863,-9.071554183959961,-0.03254059702157974,0.13958271,-0.01038471,290.41174,-171.60515,27.341540000000002,FOL
46584994000000.0,2.1962227821350098,4.740891933441162,2.7552945613861084,-9.08786392211914,-0.02432803437113762,0.13347405,0.010995574,290.28778,-171.42125,27.368444,FOL
46584998000000.0,2.2012226581573486,4.739118576049805,2.7990760803222656,-9.095083236694336,-0.015185843221843243,0.1255328,0.013744468000000001,290.16904,-171.26477,27.401945,FOL
46585000000000.0,2.206221580505371,4.733693599700928,2.8339684009552,-9.09302043914795,-0.006547142285853624,0.10659598599999999,0.023518313,290.0614,-171.10858000000002,27.431124,FOL
46585006000000.0,2.21122145652771,4.725182056427002,2.860346555709839,-9.08291244506836,0.0009800837142392993,0.08032878,0.029932396,289.96297999999996,-170.9736,27.456204999999997,FOL
46585015000000.0,2.2162258625030518,4.714015960693359,2.87853741645813,-9.065714836120605,0.00737368268892169,0.06291912,0.036651913,289.86917,-170.84203,27.478313,FOL
46585020000000.0,2.2212295532226562,4.699676036834717,2.8884541988372803,-9.04210376739502,0.01249874010682106,0.03268129,0.042455133,289.7896,-170.72826,27.493816,FOL
46585023000000.0,2.226229429244995,4.682131290435791,2.8904008865356445,-9.012557983398438,0.015950817614793777,0.022907447,0.04886922,289.7129,-170.61158999999998,27.510123999999998,FOL
46585027000000.0,2.2312285900115967,4.6629509925842285,2.885202646255493,-8.980183601379395,0.017395861446857452,0.009162978,0.059253927000000005,289.6509,-170.50859,27.52109,FOL
46585030000000.0,2.2362308502197266,4.64280891418457,2.873337745666504,-8.946310043334961,0.01705477200448513,-0.008246681,0.06078109,289.58957000000004,-170.40063,27.527867999999998,FOL
46585040000000.0,2.24123215675354,4.62169885635376,2.855614423751831,-8.911087989807129,0.015511059202253819,0.00061086525,0.06963864,289.54596000000004,-170.31192,27.540253000000003,LYI
46585044000000.0,2.2462308406829834,4.59963321685791,2.8325939178466797,-8.874622344970703,0.012454435229301453,0.0036651915999999997,0.06750060599999999,289.50125,-170.21323,27.545483,LYI
46585050000000.0,2.251230478286743,4.575840950012207,2.804302453994751,-8.838720321655273,0.00820968672633171,0.0061086523,0.079107046,289.47668,-170.13689,27.555202,LYI
46585052000000.0,2.2562332153320312,4.550002098083496,2.7708890438079834,-8.804221153259277,0.002872687531635165,-0.005497787,0.08307768,289.45013,-170.0528,27.56115,LYI
46585057000000.0,2.261232376098633,4.523944854736328,2.733806610107422,-8.773245811462402,-0.003221638733521104,0.0021380284,0.08002335,289.4353,-169.98465,27.573659999999997,LYI
46585065000000.0,2.2662365436553955,4.498517036437988,2.6936395168304443,-8.746830940246582,-0.009349282830953598,-0.005192355,0.07422013,289.42294,-169.91451999999998,27.578665,LYI
46585070000000.0,2.2712435722351074,4.473690032958984,2.6505818367004395,-8.724717140197754,-0.015231754630804062,-0.009773844,0.06078109,289.42206,-169.86263,27.577820000000003,LYI
46585073000000.0,2.2762765884399414,4.449367046356201,2.604358196258545,-8.706921577453613,-0.021207667887210846,-0.019547688,0.05497787,289.42287999999996,-169.80841,27.573582000000002,LYI
46585078000000.0,2.2812745571136475,4.425815582275391,2.5581257343292236,-8.691573143005371,-0.026653502136468887,-0.028405233999999998,0.034208454,289.41528,-169.75365,27.566740000000003,LYI
46585080000000.0,2.2862727642059326,4.403007984161377,2.5128233432769775,-8.678065299987793,-0.031190572306513786,-0.032070424,0.02565634,289.4103,-169.7005,27.559065000000004,LYI
46585086000000.0,2.2912704944610596,4.3814697265625,2.468533754348755,-8.667584419250488,-0.034623149782419205,-0.034208454,0.015577064,289.4247,-169.68706,27.536695,LYI
46585094000000.0,2.296267509460449,4.361598014831543,2.4253077507019043,-8.661033630371094,-0.036798492074012756,-0.05100725,-0.0021380284,289.4352,-169.67564,27.50859,LYI
46585100000000.0,2.301266670227051,4.34314489364624,2.384265899658203,-8.657806396484375,-0.03745805099606514,-0.049785517,-0.02443461,289.44492,-169.67407,27.481113,LYI
46585103000000.0,2.3062663078308105,4.325916767120361,2.346135139465332,-8.6574068069458,-0.03772436082363129,-0.050701816,-0.03390302,289.45425,-169.6721,27.448544000000002,LYI
46585107000000.0,2.3112642765045166,4.310676097869873,2.3113608360290527,-8.659724235534668,-0.036104582250118256,-0.035430185,-0.04153884,289.46045,-169.68798999999999,27.416715999999997,LYI
46585110000000.0,2.3162639141082764,4.2982869148254395,2.2804791927337646,-8.664722442626953,-0.033627040684223175,-0.035124752999999995,-0.056199603,289.4623,-169.6989,27.380062,LYI
46585120000000.0,2.3212673664093018,4.289316654205322,2.2538833618164062,-8.671205520629883,-0.029979344457387924,-0.017715093,-0.06169739,289.46213,-169.71945,27.349415000000004,LYI
46585124000000.0,2.3262696266174316,4.284328937530518,2.231959104537964,-8.677844047546387,-0.024865753948688507,-0.005192355,-0.07299839999999999,289.4555,-169.74321,27.31689,LYI
46585128000000.0,2.331266164779663,4.282684803009033,2.2148687839508057,-8.684568405151367,-0.018413223326206207,-0.01038471,-0.07849618,289.44543,-169.76743000000002,27.286228,LYI
46585130000000.0,2.336266040802002,4.2837934494018555,2.2031314373016357,-8.691314697265625,-0.011816246435046196,-0.002443461,-0.08155051,289.43066,-169.79263,27.262701,LYI
46585136000000.0,2.3412623405456543,4.287440776824951,2.1963486671447754,-8.69807243347168,-0.004512812476605177,-0.004581489,-0.08063421400000001,289.40802,-169.8167,27.245302000000002,LYI
46585145000000.0,2.3462579250335693,4.293520450592041,2.194305658340454,-8.704845428466797,0.002824612194672227,-0.008246681,-0.07727446,289.38457999999997,-169.83961000000002,27.229933000000003,LYI
46585150000000.0,2.351255416870117,4.301543712615967,2.1965067386627197,-8.711416244506836,0.009543121792376041,0.00030543262000000003,-0.07299839999999999,289.36343,-169.86467,27.217463000000002,LYI
46585153000000.0,2.356255531311035,4.31069278717041,2.202214002609253,-8.717378616333008,0.015805918723344803,-0.0018325957999999999,-0.07452556,289.3422,-169.89157,27.201109999999996,LYI
46585157000000.0,2.3612515926361084,4.320576190948486,2.211045026779175,-8.72253131866455,0.022158166393637657,0.024129177,-0.06078109,289.30267000000003,-169.89087,27.210417,LYI
46585160000000.0,2.366250991821289,4.33064603805542,2.2227325439453125,-8.726458549499512,0.02678830921649933,0.026572637000000003,-0.050701816,289.26318,-169.88048,27.212215000000004,LYI
46585170000000.0,2.3712499141693115,4.340598106384277,2.236769676208496,-8.72916030883789,0.03055316023528576,0.036957346,-0.04062254,289.21762,-169.86469,27.228563,LYI
46585174000000.0,2.376248836517334,4.349203586578369,2.251690626144409,-8.730358123779297,0.03343372419476509,0.041233405,-0.02687807,289.17685,-169.84416000000002,27.244402,LYI
46585180000000.0,2.3812456130981445,4.356642246246338,2.26723313331604,-8.72986125946045,0.03520040959119797,0.05100725,-0.017715093,289.12793,-169.80685,27.267925,LYI
46585182000000.0,2.386244297027588,4.363198757171631,2.2829184532165527,-8.727084159851074,0.03583119437098503,0.05131268,-0.008552114,289.084,-169.76834,27.290352000000002,LYI
46585187000000.0,2.391242027282715,4.368924617767334,2.29872989654541,-8.722169876098633,0.03566332906484604,0.05589417,0.00580322,289.04028,-169.7225,27.316153999999997,LYI
46585190000000.0,2.396240472793579,4.373862266540527,2.3146655559539795,-8.715221405029297,0.03418594226241112,0.044593163,0.004276057,288.9958,-169.669,27.336737,LYI
46585200000000.0,2.401240348815918,4.3780694007873535,2.330599546432495,-8.706624984741211,0.03210364282131195,0.04520403,0.00580322,288.95752000000005,-169.61826000000002,27.362318,LYI
46585203000000.0,2.406240463256836,4.3817901611328125,2.3451592922210693,-8.699667930603027,0.030246254056692123,0.040317107000000005,0.016187929,288.9231,-169.56696000000002,27.3832,LYI
46585208000000.0,2.4112396240234375,4.385051250457764,2.3584206104278564,-8.694257736206055,0.027641428634524345,0.029932396,0.025350908,288.8824,-169.49805,27.406406,LYI
46585210000000.0,2.416240692138672,4.387874126434326,2.3704466819763184,-8.690324783325195,0.025045203045010567,0.034208454,0.027488936000000002,288.84262,-169.4346,27.4321,LYI
46585216000000.0,2.421245813369751,4.390388488769531,2.38106632232666,-8.687762260437012,0.02296171709895134,0.022296581,0.032375857,288.8089,-169.37222,27.450636,LYI
46585224000000.0,2.426244020462036,4.393013000488281,2.389533519744873,-8.686312675476074,0.0212822575122118,0.018020526000000002,0.03573562,288.7751,-169.31001,27.472123999999997,LYI
46585230000000.0,2.431241989135742,4.395747661590576,2.395923614501953,-8.685940742492676,0.019985293969511986,0.011911871999999999,0.028099801,288.7436,-169.25449,27.483488,LYI
46585233000000.0,2.436241626739502,4.398588180541992,2.4003360271453857,-8.686595916748047,0.018155187368392944,0.0027488936,0.03145956,288.7176,-169.19896,27.493431,LYI
46585237000000.0,2.4412403106689453,4.401583671569824,2.4029312133789062,-8.688243865966797,0.017252756282687187,0.005192355,0.03756821,288.69006,-169.15200000000002,27.504793,LYI
46585240000000.0,2.4462385177612305,4.405179500579834,2.4041213989257812,-8.691071510314941,0.016268199309706688,0.010079277,0.03573562,288.66202000000004,-169.09793,27.513835999999998,LYI
46585250000000.0,2.4512383937835693,4.4092183113098145,2.403920888900757,-8.694918632507324,0.01575932279229164,0.014966198,0.048563786,288.64917,-169.06775,27.524096000000004,LYI
46585254000000.0,2.4562387466430664,4.412539005279541,2.4019694328308105,-8.698812484741211,0.015440340153872967,0.017104227,0.04734206,288.63147000000004,-169.03418,27.533812,LYI
46585260000000.0,2.461242198944092,4.415303707122803,2.398298740386963,-8.702710151672363,0.015447626821696758,0.02107485,0.05131268,288.62262000000004,-169.01205,27.547166999999998,LYI
46585262000000.0,2.4662415981292725,4.4189043045043945,2.392611265182495,-8.706153869628906,0.015845181420445442,0.009162978,0.04917465,288.6126,-168.99051,27.555999999999997,LYI
46585266000000.0,2.471256971359253,4.423243999481201,2.384878635406494,-8.709111213684082,0.01617271639406681,0.018020526000000002,0.05100725,288.60764,-168.97647,27.570803,LYI
46585275000000.0,2.4762589931488037,4.426906585693359,2.3757731914520264,-8.711240768432617,0.01728038676083088,0.02107485,0.044898596,288.60086,-168.96713,27.579871999999998,LYI
46585280000000.0,2.481257200241089,4.429912090301514,2.3653066158294678,-8.712564468383789,0.01860574074089527,0.016798794,0.0421497,288.60016,-168.96466,27.594186999999998,LYI
46585283000000.0,2.486254930496216,4.430773735046387,2.353196382522583,-8.713284492492676,0.019860463216900826,0.017715093,0.0421497,288.5978,-168.9642,27.61031,LYI
46585287000000.0,2.4912545680999756,4.42930793762207,2.339449882507324,-8.713459014892578,0.021080873906612396,0.024129177,0.038179077,288.5933,-168.9643,27.626103999999998,LYI
46585290000000.0,2.4962539672851562,4.426466941833496,2.3249828815460205,-8.713114738464355,0.02290361560881138,0.036957346,0.032375857,288.59186,-168.97401000000002,27.643927,LYI
46585300000000.0,2.5012528896331787,4.42249870300293,2.3100082874298096,-8.71227741241455,0.024759437888860703,0.03359759,0.027794369,288.59024,-168.98085,27.658556,LYI
46585304000000.0,2.5062520503997803,4.41809606552124,2.294334888458252,-8.710545539855957,0.02685818262398243,0.046731193,0.023823743999999997,288.59058,-168.99837,27.674746999999996,LYI
46585310000000.0,2.5112500190734863,4.413416862487793,2.2779626846313477,-8.70788288116455,0.028503254055976868,0.054367005999999996,0.022296581,288.5907,-169.0127,27.688131,LYI
46585312000000.0,2.516249895095825,4.407893180847168,2.2612013816833496,-8.704587936401367,0.03102101944386959,0.05497787,0.020158553,288.5883,-169.03734,27.700015999999998,LYI
46585317000000.0,2.5212488174438477,4.401471138000488,2.244140863418579,-8.700753211975098,0.03296511620283127,0.06047566,0.014049901000000002,288.5831,-169.05264,27.714827000000003,LYI
46585320000000.0,2.526247978210449,4.39592170715332,2.228167772293091,-8.697089195251465,0.03478933125734329,0.061391957000000004,0.0030543262,288.5787,-169.07802,27.72846,LYI
46585330000000.0,2.5312442779541016,4.391895771026611,2.213782787322998,-8.693865776062012,0.035930342972278595,0.06078109,-0.003970624,288.57318,-169.0979,27.74281,LYI
46585333000000.0,2.5362439155578613,4.388782024383545,2.2019505500793457,-8.690566062927246,0.037270985543727875,0.05467244,-0.0009162978999999999,288.57043,-169.12503,27.753066999999998,LYI
46585338000000.0,2.5412423610687256,4.386220455169678,2.1930654048919678,-8.68692684173584,0.03831229731440544,0.061086524,0.00061086525,288.564,-169.14553999999998,27.765945000000002,LYI
46585340000000.0,2.546241521835327,4.384183883666992,2.1869845390319824,-8.682964324951172,0.03937950357794762,0.049785517,-0.0015271631,288.55646,-169.16576,27.77507,LYI
46585346000000.0,2.551241397857666,4.382644176483154,2.1835591793060303,-8.678694725036621,0.04017822816967964,0.04550946,0.0036651915999999997,288.55062999999996,-169.18438999999998,27.788252000000004,LYI
46585354000000.0,2.556241989135742,4.382730007171631,2.1824333667755127,-8.675213813781738,0.04005540907382965,0.047036625,0.011301007,288.54364,-169.1999,27.800276,LYI
46585360000000.0,2.561241388320923,4.384825229644775,2.1833817958831787,-8.672924995422363,0.03984147310256958,0.043676864,0.004886922,288.53436,-169.2166,27.809027,LYI
46585363000000.0,2.5662431716918945,4.390274524688721,2.187246561050415,-8.672408103942871,0.03941105678677559,0.05681047,0.011911871999999999,288.51877,-169.21371000000002,27.826829999999998,LYI
46585367000000.0,2.571249485015869,4.3995866775512695,2.1943259239196777,-8.673873901367188,0.03838503733277321,0.064751714,0.017104227,288.5012,-169.20744,27.84153,LYI
46585370000000.0,2.5762479305267334,4.410828590393066,2.2025716304779053,-8.675914764404297,0.03723464533686638,0.05497787,0.008246681,288.47687,-169.19495,27.858618,LYI
46585380000000.0,2.581247091293335,4.42278528213501,2.2106406688690186,-8.677583694458008,0.03625950217247009,0.053145275,0.018936822,288.45944,-169.18451000000002,27.881252000000003,LYI
46585384000000.0,2.5862460136413574,4.4354143142700195,2.2185416221618652,-8.678901672363281,0.035417716950178146,0.064751714,0.025045475,288.43057000000005,-169.16118,27.913673,LYI
46585390000000.0,2.591245412826538,4.4486823081970215,2.2262837886810303,-8.679886817932129,0.0340510830283165,0.050701816,0.029321532999999997,288.40668,-169.13692,27.938409999999998,LYI
46585392000000.0,2.5962443351745605,4.4624457359313965,2.233701467514038,-8.680562019348145,0.03339209780097008,0.038789943,0.03145956,288.38327000000004,-169.11964,27.966659999999997,LYI
46585396000000.0,2.60127329826355,4.4767560958862305,2.2407238483428955,-8.680916786193848,0.03267056867480278,0.028405233999999998,0.02687807,288.3602,-169.0963,27.990744,LYI
46585405000000.0,2.606271505355835,4.491328716278076,2.2473719120025635,-8.681025505065918,0.03200376778841019,0.02687807,0.03970624,288.33942,-169.0779,28.024221,LYI
46585410000000.0,2.611269235610962,4.5062737464904785,2.2536656856536865,-8.680872917175293,0.031258560717105865,0.02321288,0.03848451,288.31383999999997,-169.05626,28.052504,LYI
46585413000000.0,2.616267681121826,4.520634651184082,2.2592954635620117,-8.679986953735352,0.03078095242381096,0.017715093,0.040317107000000005,288.29373,-169.03885,28.080276,LYI
46585417000000.0,2.621272563934326,4.533980846405029,2.264126777648926,-8.67815113067627,0.030507847666740417,0.020463986,0.044593163,288.27393,-169.02118000000002,28.108894,LYI
46585420000000.0,2.6262707710266113,4.545848846435547,2.2672407627105713,-8.675653457641602,0.030086524784564972,0.023518313,0.044898596,288.25272,-169.0033,28.143666999999997,LYI
46585430000000.0,2.63126802444458,4.555929183959961,2.2680070400238037,-8.672647476196289,0.030094588175415993,0.02321288,0.053145275,288.23562999999996,-168.9909,28.178385,LYI
46585434000000.0,2.636274576187134,4.564273357391357,2.2664682865142822,-8.669136047363281,0.029955726116895676,0.034513887,0.06047566,288.21927,-168.97665,28.217465999999998,LYI
46585440000000.0,2.641273260116577,4.571046352386475,2.2628836631774902,-8.665185928344727,0.02931966632604599,0.03359759,0.06291912,288.20505,-168.9633,28.2526,LYI
46585442000000.0,2.646270751953125,4.576241970062256,2.2578799724578857,-8.65996265411377,0.028505899012088776,0.03481932,0.06688975,288.19388,-168.95218,28.291190000000004,LYI
46585447000000.0,2.6512691974639893,4.579894065856934,2.25187611579895,-8.652990341186523,0.02824009582400322,0.048563786,0.06780604,288.1819,-168.94221000000002,28.332303999999997,LYI
46585450000000.0,2.656268835067749,4.5811767578125,2.2447736263275146,-8.645722389221191,0.027646634727716446,0.04917465,0.06750060599999999,288.18377999999996,-168.94261,28.365639,LYI
46585460000000.0,2.6612675189971924,4.579624176025391,2.2365405559539795,-8.639093399047852,0.027621952816843987,0.05955936,0.06261369,288.18286,-168.94893000000002,28.404676000000002,LYI
46585463000000.0,2.6662652492523193,4.576683044433594,2.2276690006256104,-8.633357048034668,0.02740325778722763,0.049480084,0.07086037,288.18948,-168.95493000000002,28.438135,LYI
46585468000000.0,2.6712634563446045,4.573392868041992,2.2185115814208984,-8.628684997558594,0.026268409565091133,0.04153884,0.06261369,288.18845,-168.95691000000002,28.473106,LYI
46585470000000.0,2.676262617111206,4.569631576538086,2.208523988723755,-8.625021934509277,0.025877688080072403,0.04428773,0.05467244,288.19504,-168.97151000000002,28.498932,LYI
46585476000000.0,2.6812620162963867,4.565313339233398,2.197301149368286,-8.62231159210205,0.0253287386149168,0.048563786,0.049480084,288.20035,-168.97682,28.522234,LYI
46585484000000.0,2.6862587928771973,4.5610032081604,2.1854496002197266,-8.620299339294434,0.02449977584183216,0.031154128,0.042455133,288.2065,-168.98639,28.536479999999997,LYI
46585490000000.0,2.691265344619751,4.557187080383301,2.1734373569488525,-8.618790626525879,0.02378010004758835,0.02565634,0.03604105,288.20996,-168.99605,28.554619,LYI
46585493000000.0,2.696258306503296,4.553816318511963,2.1613385677337646,-8.61772632598877,0.022594179958105087,0.028405233999999998,0.03726278,288.22302,-169.00891000000001,28.566605,LYI
46585497000000.0,2.7012531757354736,4.550881862640381,2.1491150856018066,-8.61710262298584,0.021487737074494362,0.021685716,0.029932396,288.23224,-169.02222,28.573315,LYI
46585500000000.0,2.706247329711914,4.549394607543945,2.1380748748779297,-8.616311073303223,0.020716974511742592,0.018020526000000002,0.03359759,288.24484,-169.03586,28.582237,LYI
46585510000000.0,2.7112417221069336,4.550291061401367,2.129415512084961,-8.61479377746582,0.020117508247494698,0.02076942,0.020158553,288.24962999999997,-169.04532,28.589432000000002,LYI
46585514000000.0,2.7162368297576904,4.552914142608643,2.1226119995117188,-8.61302661895752,0.019175609573721886,0.019242255,0.014355333500000001,288.26138,-169.06116,28.595737,LYI
46585520000000.0,2.721233367919922,4.556670665740967,2.117189407348633,-8.611438751220703,0.018381571397185326,0.028710667000000002,0.005192355,288.26666,-169.07718,28.60473,LYI
46585522000000.0,2.7262282371520996,4.561483383178711,2.1130614280700684,-8.610018730163574,0.01745079830288887,0.021380282999999996,0.0070249503,288.26886,-169.08424,28.617186,LYI
46585526000000.0,2.7312228679656982,4.567304611206055,2.1101651191711426,-8.608758926391602,0.016878899186849594,0.021380282999999996,0.011911871999999999,288.26794,-169.09308000000001,28.633685999999997,LYI
46585535000000.0,2.7362184524536133,4.574085235595703,2.1084389686584473,-8.607650756835938,0.016614193096756935,0.018325957,0.009468411,288.26599999999996,-169.10005,28.646688,LYI
46585540000000.0,2.7412145137786865,4.581772327423096,2.107819080352783,-8.60668659210205,0.016526367515325546,0.02321288,0.011911871999999999,288.26653999999996,-169.10916,28.662281,LYI
46585543000000.0,2.7462100982666016,4.589548110961914,2.107828140258789,-8.605818748474121,0.01631300337612629,0.020463986,0.016493361,288.26526,-169.1176,28.674599,LYI
46585547000000.0,2.7512078285217285,4.596532821655273,2.107962131500244,-8.604996681213379,0.016517942771315575,0.011301007,0.009468411,288.2611,-169.12788,28.685692,LYI
46585550000000.0,2.7562036514282227,4.602774620056152,2.108212471008301,-8.604218482971191,0.017086340114474297,0.016798794,0.013744468000000001,288.25223,-169.12944,28.712057,LYI
46585556000000.0,2.761199951171875,4.608309745788574,2.108574151992798,-8.603482246398926,0.017005907371640205,0.00580322,0.015271631,288.24207,-169.12688,28.730259999999998,LYI
46585564000000.0,2.7661964893341064,4.613409996032715,2.1092822551727295,-8.602975845336914,0.017466912046074867,0.008857545999999999,0.016493361,288.2326,-169.13197,28.753431,LYI
46585570000000.0,2.77119517326355,4.618498802185059,2.110734701156616,-8.603017807006836,0.0180010125041008,0.01740966,0.014966198,288.2231,-169.13193,28.774642999999998,LYI
46585572000000.0,2.776195764541626,4.623316764831543,2.1120595932006836,-8.603724479675293,0.01826249063014984,0.018936822,0.021685716,288.21477999999996,-169.13266000000002,28.792458,LYI
46585577000000.0,2.7811970710754395,4.627504825592041,2.1120693683624268,-8.605264663696289,0.017956603318452835,0.015577064,0.025350908,288.2047,-169.13173,28.810682,LYI
46585580000000.0,2.786196708679199,4.631099700927734,2.1108450889587402,-8.607585906982422,0.01732519268989563,0.018936822,0.027183502999999998,288.1912,-169.12857,28.831089000000002,LYI
46585590000000.0,2.79119873046875,4.634127140045166,2.108433961868286,-8.610660552978516,0.016890205442905426,0.021380282999999996,0.026572637000000003,288.1784,-169.12541000000002,28.850046000000003,LYI
46585593000000.0,2.7961981296539307,4.636436939239502,2.105215311050415,-8.613801956176758,0.016885334625840187,0.025961772999999997,0.021991148999999998,288.16463999999996,-169.12158,28.870071000000003,LYI
46585598000000.0,2.801201343536377,4.637602806091309,2.1019129753112793,-8.615499496459961,0.016376124694943428,0.02076942,0.010690141499999998,288.14914,-169.1133,28.887235999999998,LYI
46585600000000.0,2.8062045574188232,4.6376423835754395,2.0985376834869385,-8.616134643554688,0.01556850504130125,0.025961772999999997,0.02076942,288.14232999999996,-169.12027,28.905043,LYI
46585606000000.0,2.811206102371216,4.63647985458374,2.095102310180664,-8.616496086120605,0.01535735558718443,0.0290161,0.02076942,288.1292,-169.12592,28.919237,LYI
46585614000000.0,2.8162081241607666,4.634243011474609,2.091522216796875,-8.616804122924805,0.015238845720887184,0.027183502999999998,0.014049901000000002,288.1172,-169.12807,28.932428,LYI
46585620000000.0,2.8212172985076904,4.631343841552734,2.0873513221740723,-8.61813735961914,0.01533825695514679,0.028405233999999998,0.013439035,288.10666000000003,-169.13416999999998,28.947446999999997,LYI
46585623000000.0,2.826219081878662,4.628131866455078,2.0828962326049805,-8.619918823242188,0.01551375724375248,0.021685716,0.011911871999999999,288.09622,-169.13947,28.955540000000003,LYI
46585627000000.0,2.8312184810638428,4.626100063323975,2.079435348510742,-8.619586944580078,0.01574501395225525,0.02076942,0.014355333500000001,288.08627,-169.14606,28.965629999999997,LYI
46585630000000.0,2.8362176418304443,4.624950408935547,2.076849937438965,-8.617623329162598,0.016533654183149338,0.03634648,0.01740966,288.07653999999997,-169.15833,28.974651,LYI
46585640000000.0,2.841217517852783,4.623119354248047,2.0746498107910156,-8.616506576538086,0.01693844050168991,0.025045475,0.014355333500000001,288.06747,-169.16595,28.975590000000004,LYI
46585644000000.0,2.8462204933166504,4.620741844177246,2.072753429412842,-8.615987777709961,0.018037857487797737,0.033292156,0.016493361,288.05602999999996,-169.1786,28.993683,LYI
46585650000000.0,2.8512215614318848,4.618985652923584,2.0704636573791504,-8.61376667022705,0.018346203491091728,0.017104227,0.0033597588,288.04114,-169.18016,29.000439,LYI
46585652000000.0,2.8562283515930176,4.617759704589844,2.0677764415740967,-8.609957695007324,0.018670670688152313,0.016798794,0.006414085,288.03052,-169.19031999999999,29.010796000000003,LYI
46585656000000.0,2.861229658126831,4.615664005279541,2.0645313262939453,-8.606118202209473,0.018847627565264702,0.026572637000000003,0.007941248,288.01563,-169.19415,29.018466999999998,LYI
46585665000000.0,2.866230010986328,4.612730503082275,2.060746908187866,-8.602245330810547,0.018933767452836037,0.022602014,0.014049901000000002,288.00385,-169.20029,29.027699,LYI
46585670000000.0,2.8712339401245117,4.609994888305664,2.0573840141296387,-8.598929405212402,0.018982762470841408,0.017715093,0.01160644,287.98913999999996,-169.20496,29.038760999999997,LYI
46585673000000.0,2.8762314319610596,4.607568740844727,2.0545284748077393,-8.596199989318848,0.01860593445599079,0.00580322,-0.004581489,287.97272000000004,-169.20625,29.046072,LYI
46585677000000.0,2.8812317848205566,4.605441570281982,2.0521645545959473,-8.594040870666504,0.018770065158605576,0.0027488936,-0.007941248,287.96313,-169.2157,29.052143,LYI
46585680000000.0,2.886229991912842,4.603594779968262,2.050260066986084,-8.592412948608398,0.018583623692393303,0.0012217305,-0.0070249503,287.95044,-169.21739,29.054531,LYI
46585690000000.0,2.891235113143921,4.6020188331604,2.048801898956299,-8.591302871704102,0.01804901659488678,-0.011301007,-0.0061086523,287.93552,-169.22066,29.052895,LYI
46585694000000.0,2.8962321281433105,4.600689888000488,2.0477476119995117,-8.590660095214844,0.01764056459069252,-0.013744468000000001,-0.008552114,287.9192,-169.22404,29.053490000000004,LYI
46585700000000.0,2.9012320041656494,4.599663734436035,2.047412157058716,-8.591524124145508,0.01707482896745205,-0.013744468000000001,-0.018936822,287.9013,-169.22343,29.05087,LYI
46585703000000.0,2.9062342643737793,4.598939418792725,2.0478360652923584,-8.594073295593262,0.016392746940255165,-0.02321288,-0.013133603,287.88858,-169.22536000000002,29.045824,LYI
46585707000000.0,2.911236524581909,4.598674774169922,2.049055337905884,-8.59711742401123,0.01550285518169403,-0.027183502999999998,-0.01038471,287.8709,-169.2214,29.040459000000002,LYI
46585710000000.0,2.916236400604248,4.598904132843018,2.051048755645752,-8.600239753723145,0.015392868779599667,-0.02076942,-0.014049901000000002,287.853,-169.22128,29.035429999999998,LYI
46585720000000.0,2.921241283416748,4.599614143371582,2.0537991523742676,-8.603442192077637,0.01522363442927599,-0.016798794,-0.007941248,287.83853,-169.21666000000002,29.02737,LYI
46585723000000.0,2.9262747764587402,4.600822448730469,2.0573408603668213,-8.606741905212402,0.015242469497025013,-0.013133603,-0.014355333500000001,287.81847999999997,-169.21434,29.020172,LYI
46585728000000.0,2.9312727451324463,4.602675437927246,2.060602903366089,-8.610087394714355,0.014641761779785156,-0.0067195175,-0.01038471,287.80322,-169.21034,29.01598,LYI
46585730000000.0,2.9362728595733643,4.6054840087890625,2.0629007816314697,-8.613517761230469,0.01461021974682808,-0.0076358155,-0.0067195175,287.78604,-169.21167,29.010452,LYI
46585736000000.0,2.9412715435028076,4.608451843261719,2.064298391342163,-8.617170333862305,0.014775686897337437,-0.004581489,-0.0027488936,287.76465,-169.20323,29.010279999999998,LYI
46585744000000.0,2.9462709426879883,4.611001014709473,2.064840078353882,-8.621149063110352,0.014541679993271828,0.006414085,-0.0015271631,287.74307000000005,-169.19481000000002,29.012154,LYI
46585750000000.0,2.9512722492218018,4.613598346710205,2.0644633769989014,-8.62526798248291,0.014531749300658703,0.0061086523,0.002443461,287.7279,-169.19482,29.015568,LYI
46585753000000.0,2.956273317337036,4.616532325744629,2.0631563663482666,-8.62940502166748,0.014034027233719826,0.012217305,0.009162978,287.7128,-169.19037,29.023977000000002,LYI
46585757000000.0,2.961272716522217,4.619693756103516,2.062037467956543,-8.6326904296875,0.013725603930652142,0.009162978,0.008246681,287.69965,-169.19255,29.027933,LYI
46585760000000.0,2.9662716388702393,4.6229658126831055,2.0623719692230225,-8.63412857055664,0.012912741862237453,0.0125227375,0.005192355,287.68712999999997,-169.1899,29.035546999999998,LYI
46585770000000.0,2.971271276473999,4.62553596496582,2.0633716583251953,-8.634544372558594,0.012078089639544487,0.009773844,0.011911871999999999,287.67996,-169.1955,29.042842999999998,LYI
46585774000000.0,2.9762697219848633,4.626965522766113,2.0645692348480225,-8.634435653686523,0.011971567757427692,0.020463986,0.013133603,287.66885,-169.20091000000002,29.054169,LYI
46585780000000.0,2.9812679290771484,4.62738561630249,2.0657289028167725,-8.633752822875977,0.011659116484224796,0.02321288,0.013439035,287.65576,-169.19696000000002,29.065832,LYI
46585782000000.0,2.986266613006592,4.626898765563965,2.0667004585266113,-8.632474899291992,0.011200543493032455,0.01985312,0.00061086525,287.63855,-169.19473,29.0778,LYI
46585786000000.0,2.991264581680298,4.625556468963623,2.0674941539764404,-8.630635261535645,0.010652467608451843,0.02076942,0.0036651915999999997,287.62445,-169.19223,29.089676,LYI
46585795000000.0,2.996260404586792,4.623409271240234,2.0681204795837402,-8.628268241882324,0.00972666684538126,0.022907447,0.011301007,287.60794,-169.18651,29.100275,LYI
46585800000000.0,3.0012595653533936,4.620927333831787,2.0686559677124023,-8.625786781311035,0.009012977592647076,0.029626964,0.010690141499999998,287.5897,-169.1821,29.111403999999997,LYI
46585803000000.0,3.0062613487243652,4.618492603302002,2.0691628456115723,-8.62352180480957,0.007962943986058235,0.026572637000000003,0.008857545999999999,287.5741,-169.17427,29.120603999999997,LYI
46585807000000.0,3.0112595558166504,4.616104602813721,2.0696427822113037,-8.621460914611816,0.007180475164204836,0.03573562,0.012217305,287.559,-169.17023,29.13164,LYI
46585810000000.0,3.0162596702575684,4.6137590408325195,2.070096969604492,-8.61959457397461,0.006993135903030634,0.03848451,0.007941248,287.54152999999997,-169.16483,29.139315000000003,LYI
46585820000000.0,3.0212607383728027,4.611454010009766,2.0705270767211914,-8.617912292480469,0.006262350827455521,0.030848695,0.016493361,287.5281,-169.15746000000001,29.147470000000002,LYI
46585824000000.0,3.0262598991394043,4.609188079833984,2.070934295654297,-8.616403579711914,0.006286714691668749,0.034208454,0.014355333500000001,287.5089,-169.15653999999998,29.158378999999996,LYI
46585830000000.0,3.031256675720215,4.607341766357422,2.071490526199341,-8.614847183227539,0.005544744431972504,0.025961772999999997,0.014966198,287.4965,-169.148,29.164334999999998,LYI
46585833000000.0,3.036257028579712,4.606306552886963,2.072373390197754,-8.613017082214355,0.005119030829519033,0.015577064,0.014355333500000001,287.4829,-169.1472,29.170277000000002,LYI
46585837000000.0,3.041255474090576,4.606024742126465,2.0735583305358887,-8.61093521118164,0.004992719739675522,0.021991148999999998,0.024740042,287.47275,-169.14465,29.177906,LYI
46585840000000.0,3.046254873275757,4.60646390914917,2.075033187866211,-8.608611106872559,0.0050847455859184265,0.019547688,0.021685716,287.45947,-169.14116,29.179246999999997,LYI
46585850000000.0,3.0512518882751465,4.60752010345459,2.076840877532959,-8.606255531311035,0.005285808350890875,0.010079277,0.022296581,287.45062,-169.14064,29.181524,LYI
46585854000000.0,3.0562541484832764,4.608801364898682,2.0793960094451904,-8.60515022277832,0.005378492176532745,0.014049901000000002,0.020158553,287.43912,-169.1393,29.186459000000003,LYI
46585858000000.0,3.061251401901245,4.610135078430176,2.0822489261627197,-8.605161666870117,0.005124412011355162,0.0070249503,0.023518313,287.42786,-169.13539,29.19221,LYI
46585860000000.0,3.0662496089935303,4.611143112182617,2.0844407081604004,-8.606191635131836,0.004704821854829788,0.004581489,0.018936822,287.41278,-169.1304,29.199579999999997,LYI
46585866000000.0,3.071249008178711,4.611842632293701,2.0860064029693604,-8.608184814453125,0.004030877724289894,0.015271631,0.020463986,287.39896,-169.12265,29.20784,LYI
46585874000000.0,3.076246738433838,4.612252712249756,2.086984157562256,-8.611080169677734,0.0037346743047237396,-0.0009162978999999999,0.010690141499999998,287.3822,-169.11484,29.20685,LYI
46585880000000.0,3.081244707107544,4.612514019012451,2.087414026260376,-8.614450454711914,0.003128709504380822,0.0027488936,0.01863139,287.36768,-169.10515,29.2151,LYI
46585883000000.0,3.0862436294555664,4.6129937171936035,2.0873560905456543,-8.617176055908203,0.0017900028033182025,0.0067195175,0.015882496,287.3478,-169.09225,29.217619,LYI
46585887000000.0,3.0912482738494873,4.613643169403076,2.086778163909912,-8.619409561157227,0.0007179677486419678,-0.0015271631,0.011301007,287.33508,-169.08829,29.213071999999997,LYI
46585890000000.0,3.096247911453247,4.613997459411621,2.0851876735687256,-8.622567176818848,-0.0004922638763673604,0.00580322,0.013744468000000001,287.3224,-169.07968,29.21428,LYI
46585900000000.0,3.101247787475586,4.614092826843262,2.0828092098236084,-8.626404762268066,-0.0019961006473749876,0.008246681,0.015577064,287.3099,-169.0723,29.213524,LYI
46585904000000.0,3.106248378753662,4.614097595214844,2.0808145999908447,-8.629609107971191,-0.0029151958879083395,0.01863139,0.01282817,287.29572,-169.06784,29.216894,LYI
46585910000000.0,3.111246347427368,4.614017486572266,2.0791800022125244,-8.632220268249512,-0.0036876460071653128,0.019242255,0.011911871999999999,287.2869,-169.06485,29.216125,LYI
46585912000000.0,3.116246461868286,4.613855361938477,2.077890634536743,-8.634262084960938,-0.004500316921621561,0.027794369,0.020463986,287.27893,-169.06436000000002,29.220863,LYI
46585916000000.0,3.121246099472046,4.613616943359375,2.0769259929656982,-8.635767936706543,-0.005465006455779076,0.027794369,0.018325957,287.26767,-169.06213,29.222658000000003,LYI
46585925000000.0,3.1262457370758057,4.613305568695068,2.0762689113616943,-8.636767387390137,-0.005255147814750671,0.04062254,0.02107485,287.25916,-169.06761,29.231176,LYI
46585930000000.0,3.1312429904937744,4.612919807434082,2.0758001804351807,-8.637259483337402,-0.004535598214715719,0.03756821,0.017715093,287.24884,-169.06808,29.234476,LYI
46585933000000.0,3.1362497806549072,4.612426280975342,2.074970006942749,-8.637081146240234,-0.0037404538597911596,0.03390302,0.020158553,287.24036,-169.07306,29.241581,LYI
46585937000000.0,3.1412487030029297,4.611837863922119,2.073821783065796,-8.636308670043945,-0.003199290484189987,0.035430185,0.01282817,287.2244,-169.07318,29.249503999999998,LYI
46585940000000.0,3.1462481021881104,4.611156463623047,2.0723609924316406,-8.634953498840332,-0.0023451426532119513,0.03573562,0.019242255,287.21396,-169.07867,29.256946999999997,LYI
46585950000000.0,3.1512629985809326,4.610379695892334,2.0705835819244385,-8.633013725280762,-0.0013086319668218493,0.03573562,0.02076942,287.19727,-169.08075,29.264128000000003,LYI
46585954000000.0,3.156263828277588,4.60952615737915,2.0685462951660156,-8.630586624145508,-0.0006203520460985601,0.03604105,0.01863139,287.18134,-169.0823,29.271519,LYI
46585960000000.0,3.161271810531616,4.608590602874756,2.066234588623047,-8.627650260925293,3.1247524020727724e-05,0.038179077,0.02076942,287.1676,-169.08725,29.280006,LYI
46585963000000.0,3.1662704944610596,4.607584476470947,2.063685417175293,-8.624269485473633,0.0008760044001974165,0.030848695,0.022602014,287.15372,-169.09148000000002,29.285639,LYI
46585967000000.0,3.171293020248413,4.6065826416015625,2.0608978271484375,-8.62043571472168,0.0015780777903273702,0.021991148999999998,0.018936822,287.13638,-169.0935,29.291376,LYI
46585970000000.0,3.1762897968292236,4.607092380523682,2.058501958847046,-8.617049217224121,0.0020474076736718416,0.015271631,0.014355333500000001,287.11966,-169.09618999999998,29.295609000000002,LYI
46585980000000.0,3.181295871734619,4.609113693237305,2.056480646133423,-8.614097595214844,0.0028498272877186537,0.022602014,0.016187929,287.10573999999997,-169.10527,29.304918,LYI
46585984000000.0,3.186292886734009,4.6111884117126465,2.0544865131378174,-8.611303329467773,0.003349045990034938,0.010690141499999998,0.017715093,287.09204,-169.10976000000002,29.30658,LYI
46585988000000.0,3.19130802154541,4.613330364227295,2.0525097846984863,-8.608657836914062,0.004000710789114237,0.010690141499999998,0.014355333500000001,287.083266117341,-169.112522544053,29.312613246595898,LYI
46585990000000.0,3.196303606033325,4.615512847900391,2.05056095123291,-8.60615348815918,0.0041456036269664764,0.009468411,0.011911871999999999,287.07562,-169.11493000000002,29.317871000000004,LYI
46585996000000.0,3.201298952102661,4.617745399475098,2.048632860183716,-8.603782653808594,0.004152555949985981,0.00580322,0.02107485,287.06543,-169.1219,29.326029,LYI
46586005000000.0,3.2062995433807373,4.620028495788574,2.046722650527954,-8.601537704467773,0.004321911372244358,0.007330383,0.014966198,287.05002,-169.12585,29.333553000000002,LYI
46586010000000.0,3.2112953662872314,4.622353553771973,2.044832468032837,-8.59941291809082,0.0041241394355893135,0.009468411,0.016187929,287.04004,-169.12904,29.341131,LYI
46586013000000.0,3.216298818588257,4.623848915100098,2.043275833129883,-8.59668254852295,0.004099681042134762,0.030848695,0.021991148999999998,287.02808,-169.13512,29.3543,LYI
46586017000000.0,3.2212975025177,4.6245198249816895,2.04205060005188,-8.593352317810059,0.003962584305554628,0.032070424,0.018325957,287.01468,-169.13701,29.361784000000004,LYI
46586020000000.0,3.2262940406799316,4.624431133270264,2.041350841522217,-8.591226577758789,0.004125786479562521,0.025045475,0.01985312,287.0035,-169.144,29.375,LYI
46586030000000.0,3.231287956237793,4.623627185821533,2.041168212890625,-8.590414047241211,0.004703502170741558,0.027488936000000002,0.027794369,286.9924,-169.15138000000002,29.391098,LYI
46586034000000.0,3.236283540725708,4.6226115226745605,2.0415985584259033,-8.590302467346191,0.0053806486539542675,0.03481932,0.020158553,286.98053,-169.1554,29.404202,LYI
