timestamp,rel_time,acc_x,acc_y,acc_z,gyro_x,gyro_y,gyro_z,azimuth,pitch,roll,label
0.0,0.0,0.0,0.0,0.0,0.0,0.0070249503,0.057421334000000004,237.25705,-149.63696000000002,39.76579,STD
389648900000.0,1.490428712713765e-05,-0.00029012776212766767,0.029562337324023247,-0.0012230172287672758,9.775062062544748e-05,-0.011301007,0.05222898,236.58087,-148.82908999999998,39.287193,STD
1163147200000.0,7.434518920490518e-05,-0.0008489196770824492,0.08824129402637482,-0.003758006962016225,0.00021903865854255855,-0.026267206,0.043982297000000004,235.92346,-148.02551,38.802513,STD
2309105000000.0,0.00020676998246926814,-0.0016513073351234198,0.17516720294952393,-0.007672891486436129,0.000306556758005172,-0.043066,0.014049901000000002,235.28455,-147.22296,38.306816,STD
3810946400000.0,0.0004388381203170866,-0.0026692736428231,0.2890772223472595,-0.013013609685003757,0.0001452318683732301,-0.058948494000000004,0.008857545999999999,234.67373999999998,-146.42667,37.810486,STD
5647482500000.0,0.0007968629361130297,-0.003871464403346181,0.4283585846424103,-0.019811013713479042,-0.0002560845168773085,-0.074830994,-0.0061086523,234.07657999999998,-145.62975,37.30238,STD
7793617700000.0,0.001300640287809074,-0.005227273795753717,0.5911033153533936,-0.028060834854841232,-0.0011037574149668217,-0.083383106,-0.0067195175,233.5032,-144.83671999999999,36.794437,STD
10221146000000.0,0.001968658994883299,-0.006704461295157671,0.77516770362854,-0.03774477168917656,-0.001893071224913001,-0.0720821,-0.013133603,232.94226,-144.0508,36.283493,STD
12899592000000.0,0.0028182847891002893,-0.008269693702459335,0.9782361388206482,-0.0488336980342865,-0.002266516676172614,-0.06994407,-0.00030543262000000003,232.4085,-143.27559,35.773838,STD
15797063000000.0,0.0038577059749513865,-0.009893819689750671,1.1978869438171387,-0.061261266469955444,-0.0020748472306877375,-0.055588737,0.010690141499999998,231.88391000000001,-142.50916999999998,35.268295,STD
18881050000000.0,0.005101027898490429,-0.01154382061213255,1.431650996208191,-0.07498054206371307,-0.0016569012077525258,-0.050701816,0.025350908,231.3816,-141.75583999999998,34.766487,STD
22119180000000.0,0.006551056634634733,-0.013193266466259956,1.677071213722229,-0.08990442007780075,-0.0004456049937289208,-0.04642576,0.02687807,230.89096,-141.01895,34.268757,STD
25479862000000.0,0.008211920969188213,-0.01481557171791792,1.9317498207092285,-0.1059529110789299,0.0016657054657116532,-0.04886922,0.025350908,230.41847,-140.29468,33.775394,STD
28932842000000.0,0.010082921013236046,-0.016387946903705597,2.1933913230895996,-0.12303268909454346,0.0037343590520322323,-0.054061572999999995,0.03481932,229.96267999999998,-139.58061,33.287647,STD
32449631000000.0,0.012162219732999802,-0.017889609560370445,2.4598348140716553,-0.14105166494846344,0.0057776449248194695,-0.06017022599999999,0.032986722999999996,229.51869,-138.878,32.79933,STD
36003843000000.0,0.014446799643337727,-0.019302064552903175,2.729078531265259,-0.15991979837417603,0.007409878075122833,-0.05589417,0.038789943,229.09009,-138.18473999999998,32.31888,STD
39571404000000.0,0.01692906767129898,-0.020611217245459557,2.9992971420288086,-0.1795375794172287,0.008747708052396774,-0.069027774,0.030848695,228.67711,-137.49716,31.834145,STD
43130680000000.0,0.01959993503987789,-0.02180570550262928,3.2688510417938232,-0.19980745017528534,0.009327332489192486,-0.043982297000000004,0.028405233999999998,228.2672,-136.81573,31.362818,STD
46662517000000.0,0.02245541475713253,-0.022873137146234512,3.536287784576416,-0.220657616853714,0.009531116113066673,-0.04337143,0.030543262,227.8783,-136.14261000000002,30.887971999999998,STD
50150223000000.0,0.025480322539806366,-0.023809436708688736,3.8003435134887695,-0.24198345839977264,0.009184499271214008,-0.041233405,0.03268129,227.49298,-135.47287,30.420853,STD
53579474000000.0,0.028669217601418495,-0.024606749415397644,4.059932231903076,-0.2637224793434143,0.008909054100513458,-0.044898596,0.03940081,227.12112000000002,-134.81422,29.958313,STD
56938205000000.0,0.032011765986680984,-0.025261757895350456,4.314140796661377,-0.28580135107040405,0.007890205830335617,-0.044898596,0.03756821,226.75679,-134.15643,29.499214000000002,STD
60216444000000.0,0.03549781069159508,-0.027664799243211746,4.561025142669678,-0.2909591495990753,0.007523840293288231,-0.062308256,0.036651913,226.40953,-133.51541,29.042640000000002,STD
63406150000000.0,0.039121415466070175,-0.033353887498378754,4.799007892608643,-0.26514896750450134,0.006597201339900494,-0.07971791,0.032375857,226.07082999999997,-132.87308000000002,28.589128000000002,STD
66501025000000.0,0.042863763868808746,-0.042668141424655914,5.02939510345459,-0.2254313826560974,0.005896024871617556,-0.09712757,0.030543262,225.83296,-132.28009,28.085907000000002,STD
69496350000000.0,0.046726029366254807,-0.05609891563653946,5.253068923950195,-0.18304011225700378,0.004930482245981693,-0.10720685,0.016493361,225.60202,-131.68816999999999,27.584584999999997,STD
72388780000000.0,0.0506889633834362,-0.06987001746892929,5.470705032348633,-0.14650002121925354,0.0040562511421740055,-0.1133155,0.00030543262000000003,225.34291000000002,-131.01888,27.103838,STD
75176190000000.0,0.05474873259663582,-0.0816509947180748,5.6827802658081055,-0.12129165232181549,0.002596020232886076,-0.12034045,-0.002443461,225.09694,-130.3533,26.625466999999997,STD
77857500000000.0,0.05889846757054329,-0.08951298892498016,5.8896989822387695,-0.10750742256641388,0.001295421039685607,-0.12278391400000001,-0.0125227375,224.88844,-129.66295,26.101001999999998,STD
80432520000000.0,0.06312920153141022,-0.09100466966629028,6.092051029205322,-0.1051751971244812,3.137019302812405e-05,-0.112704635,-0.010690141499999998,224.69043,-128.9797,25.584795,STD
82901845000000.0,0.0674329474568367,-0.08760181814432144,6.288416385650635,-0.11059408634901047,-0.0015288417926058173,-0.10842858,-0.00061086525,224.58789,-128.3088,25.012774,STD
85266680000000.0,0.0718037411570549,-0.08076944947242737,6.477425575256348,-0.1200718879699707,-0.0029772904235869646,-0.10415252,-0.00580322,224.48933,-127.64643999999998,24.447128,STD
87528770000000.0,0.0762362852692604,-0.07142838835716248,6.658242702484131,-0.1316026896238327,-0.003595225512981415,-0.07819075,0.010690141499999998,224.47893,-127.01283000000001,23.857672,STD
89690260000000.0,0.08072305470705032,-0.060550838708877563,6.830043315887451,-0.14310871064662933,-0.0036605445202440023,-0.057421334000000004,0.036957346,224.47652000000002,-126.3898,23.280058,STD
91753660000000.0,0.08526089042425156,-0.049809280782938004,6.992331504821777,-0.15027710795402527,-0.0019525210373103619,-0.034513887,0.04062254,224.55312,-125.778595,22.669353,STD
93721740000000.0,0.08984741568565369,-0.04079113528132439,7.144667625427246,-0.14901503920555115,0.0005505107110366225,-0.018020526000000002,0.04520403,224.63544,-125.18198000000001,22.079887,STD
95597460000000.0,0.0944715216755867,-0.03494659811258316,7.287692070007324,-0.14000964164733887,0.0036570760421454906,-0.013439035,0.04886922,224.79722999999998,-124.58921000000001,21.458109,STD
97383900000000.0,0.09913604706525803,-0.03382863104343414,7.421933174133301,-0.1235244944691658,0.007119338493794203,-0.010690141499999998,0.043982297000000004,224.95877000000002,-124.00963,20.850946,STD
99084275000000.0,0.10383743792772293,-0.036966197192668915,7.548091411590576,-0.10149482637643814,0.010888516902923584,-0.013133603,0.042455133,225.2093,-123.4008,20.1949,STD
100701825000000.0,0.10856597125530243,-0.04379221424460411,7.666903972625732,-0.07597670704126358,0.013571170158684254,-0.019547688,0.03848451,225.46237000000002,-122.79821000000001,19.551788000000002,STD
102239820000000.0,0.11332042515277863,-0.052858829498291016,7.778995513916016,-0.04621607065200806,0.01610599271953106,-0.03268129,0.03145956,225.74568,-122.173004,18.893196,STD
103701510000000.0,0.11810065805912018,-0.062374409288167953,7.885076999664307,-0.011191149242222309,0.017463957890868187,-0.045814894,0.020463986,226.03267000000002,-121.5491,18.246470000000002,STD
105090120000000.0,0.12289773672819138,-0.07222670316696167,7.985349655151367,0.027380840852856636,0.017540929839015007,-0.071776666,0.0070249503,226.35437000000002,-120.90353400000001,17.582956,STD
106408850000000.0,0.1277206838130951,-0.08213391155004501,8.07974910736084,0.0637359693646431,0.016574392095208168,-0.09773844,0.0009162978999999999,226.68211000000002,-120.264725,16.931713000000002,STD
107660790000000.0,0.13255682587623596,-0.09131985157728195,8.168715476989746,0.09627316892147064,0.014903695322573185,-0.110872045,0.004886922,226.99947000000003,-119.60908500000001,16.304192999999998,STD
108848990000000.0,0.1374150961637497,-0.09825033694505692,8.252768516540527,0.12153508514165878,0.012274833396077156,-0.13347405,-0.0021380284,227.3283,-118.955376,15.681435999999998,STD
109976400000000.0,0.14228151738643646,-0.10311615467071533,8.332155227661133,0.14012999832630157,0.009700102731585503,-0.14630222,-0.0033597588,227.66637999999998,-118.3115,15.077618,STD
111045885000000.0,0.14716804027557373,-0.10593222081661224,8.407076835632324,0.152113139629364,0.006034507416188717,-0.1518,-0.002443461,228.01205,-117.66741999999999,14.483815,STD
112060200000000.0,0.15206734836101532,-0.10726005584001541,8.477252960205078,0.15724070370197296,0.002815794199705124,-0.14691310000000002,0.0027488936,228.3513,-117.0406,13.916310000000001,STD
113022020000000.0,0.15697602927684784,-0.10804390907287598,8.541895866394043,0.15449871122837067,-4.276397521607578e-05,-0.13286320000000001,0.00030543262000000003,228.69288999999998,-116.41713,13.359722,STD
113933910000000.0,0.1618918925523758,-0.10795732587575912,8.601814270019531,0.1445251852273941,-0.002591461641713977,-0.11728613,0.0015271631,229.0257,-115.84823999999999,12.849368,STD
114798320000000.0,0.16681917011737823,-0.10556173324584961,8.659384727478027,0.12838739156723022,-0.004926680587232113,-0.08552113,0.01282817,229.35472000000001,-115.29047,12.355592,STD
115617626000000.0,0.17175349593162537,-0.10100475698709488,8.714712142944336,0.10648661106824875,-0.006169757805764675,-0.03359759,0.01740966,229.66898999999998,-114.77653500000001,11.890774,STD
116394075000000.0,0.17669358849525452,-0.0944027453660965,8.76790714263916,0.07913488894701004,-0.005713419523090124,0.014355333500000001,0.017715093,229.97942,-114.275986,11.440987,STD
117129840000000.0,0.1816384345293045,-0.08610057085752487,8.819164276123047,0.048735424876213074,-0.003937056753784418,0.06047566,0.028710667000000002,230.27466,-113.79169499999999,11.012925,STD
117826975000000.0,0.18659208714962006,-0.07703481614589691,8.868929862976074,0.023290224373340607,0.00045159595902077854,0.09254608,0.03970624,230.5633,-113.33003000000001,10.597792,STD
118487460000000.0,0.19154977798461914,-0.06784988194704056,8.917159080505371,0.0029075078200548887,0.0065221325494349,0.116675265,0.048258353,230.8403,-112.92912,10.2197275,STD
119113170000000.0,0.19651268422603607,-0.06549910455942154,8.962726593017578,-0.007731062360107899,0.013927053660154343,0.10995574,0.05589417,231.11983999999998,-112.54873,9.852993,STD
119705890000000.0,0.2014918178319931,-0.06990019232034683,9.00576400756836,-0.00875909999012947,0.022352924570441246,0.10323623,0.05955936,231.38348,-112.1756,9.505954,STD
120267320000000.0,0.20645852386951447,-0.08004028350114822,9.046415328979492,-0.0015797732630744576,0.030058210715651512,0.07238753,0.056199603,231.65742000000003,-111.80923999999999,9.163662,STD
120799100000000.0,0.21147820353507996,-0.09693269431591034,9.08493423461914,0.014813130721449852,0.036203861236572266,0.03726278,0.043676864,231.93552999999997,-111.45146000000001,8.826322,STD
121302750000000.0,0.216450035572052,-0.11574845761060715,9.122932434082031,0.030555836856365204,0.03999481722712517,0.004886922,0.02321288,232.22177000000002,-111.0933,8.490669,STD
121779754000000.0,0.22144201397895813,-0.13708314299583435,9.160859107971191,0.045480795204639435,0.04129505529999733,-0.03573562,0.013133603,232.55685,-110.64979,8.086616000000001,STD
122231490000000.0,0.2264178991317749,-0.1570560485124588,9.197704315185547,0.0538187175989151,0.0401545949280262,-0.07269296,0.004276057,232.89899,-110.2023,7.6839642999999995,STD
122659280000000.0,0.2313939929008484,-0.17572401463985443,9.233582496643066,0.05555308237671852,0.037010978907346725,-0.118202426,-0.0033597588,233.2687,-109.74201000000001,7.264792,STD
123064390000000.0,0.23637886345386505,-0.19000239670276642,9.269813537597656,0.047502681612968445,0.03213260695338249,-0.16004670000000001,0.00580322,233.64847000000003,-109.28112,6.8549814,STD
123448010000000.0,0.24135594069957733,-0.20005841553211212,9.306349754333496,0.030474793165922165,0.026066411286592484,-0.17592919,-0.004581489,234.03122000000002,-108.81903,6.446193,STD
123811270000000.0,0.24634039402008057,-0.204530730843544,9.342041015625,0.004496241919696331,0.019590647891163826,-0.20005837,-0.0018325957999999999,234.43289,-108.38361,6.04922,STD
124155240000000.0,0.25132477283477783,-0.2037283480167389,9.376795768737793,-0.02969750389456749,0.012710845097899437,-0.23335053,0.0012217305,234.8401,-107.94946000000002,5.657620400000001,STD
124480940000000.0,0.2563157081604004,-0.1977194845676422,9.410290718078613,-0.0718664824962616,0.005513549316674471,-0.23151793,0.015882496,235.23618,-107.55933999999999,5.2989697,STD
124789330000000.0,0.26129838824272156,-0.1870412826538086,9.44248104095459,-0.12105926871299744,-0.0018216912867501378,-0.20830505,0.016493361,235.63362,-107.17424,4.9459066,STD
125081330000000.0,0.2662871778011322,-0.17228877544403076,9.473475456237793,-0.17442086338996887,-0.008701972663402557,-0.17104226,0.029626964,236.0135,-106.84196000000001,4.6382732,STD
125357800000000.0,0.2712724804878235,-0.15404950082302094,9.503324508666992,-0.2304726243019104,-0.013736280612647533,-0.12186762,0.03268129,236.38173999999998,-106.52123,4.339162,STD
125619570000000.0,0.2762638330459595,-0.135173499584198,9.53247356414795,-0.28228244185447693,-0.017038851976394653,-0.063224554,0.050396382999999996,236.72512999999998,-106.25164,4.085942299999999,STD
125867420000000.0,0.2812560796737671,-0.11667928844690323,9.561067581176758,-0.3277270197868347,-0.018555238842964172,0.003970624,0.0571159,237.05077999999997,-105.99606000000001,3.8418953,STD
126102085000000.0,0.2862526774406433,-0.09853849560022354,9.589149475097656,-0.3670966625213623,-0.01743674837052822,0.086132,0.06352998,237.34493999999998,-105.78461000000001,3.6359095999999997,STD
126324260000000.0,0.2912459969520569,-0.08074962347745895,9.616718292236328,-0.40081357955932617,-0.013904787600040436,0.15760323,0.077579886,237.6236,-105.5869,3.4436398,STD
126534610000000.0,0.29624098539352417,-0.06417860835790634,9.64138412475586,-0.42342326045036316,-0.008380559273064137,0.20036379999999998,0.0888809,237.88687000000002,-105.40568999999999,3.261498,STD
126733764000000.0,0.3012397587299347,-0.04923175647854805,9.662016868591309,-0.4324609935283661,-0.0004168196173850447,0.22327125,0.109650314,238.13687000000002,-105.24583,3.0943777999999997,STD
126922315000000.0,0.3062354028224945,-0.03683984652161598,9.677380561828613,-0.4291122257709503,0.009319663047790527,0.21655174,0.1282817,238.37009,-105.07451,2.9417994,STD
127100825000000.0,0.3112304210662842,-0.027639729902148247,9.68660831451416,-0.4140411913394928,0.020230092108249664,0.19822577,0.13439035,238.60051,-104.91891000000001,2.7960447999999998,STD
127269830000000.0,0.31622549891471863,-0.022412406280636787,9.690914154052734,-0.3891002833843231,0.03042939491569996,0.17379116,0.13133603,238.83202000000003,-104.72539,2.6530367999999998,STD
127429840000000.0,0.3212217390537262,-0.02170415036380291,9.691248893737793,-0.3557588458061218,0.03907662257552147,0.13805555,0.12095132,239.07146,-104.53956600000001,2.5107524,STD
127581330000000.0,0.3262175917625427,-0.02530272863805294,9.689484596252441,-0.31595471501350403,0.045180290937423706,0.103847094,0.111177474,239.32297000000003,-104.3098,2.3571242999999997,STD
127724750000000.0,0.3312140107154846,-0.033042650669813156,9.687304496765137,-0.2713887095451355,0.049364011734724045,0.054061572999999995,0.099571034,239.5874,-104.08067,2.1998255,STD
127860530000000.0,0.33621299266815186,-0.04341619089245796,9.68576717376709,-0.22359593212604523,0.051225487142801285,0.013133603,0.08827003,239.86826000000002,-103.80525,2.0212293000000003,STD
127989080000000.0,0.34121033549308777,-0.054988812655210495,9.685812950134277,-0.17409490048885345,0.050530318170785904,-0.01282817,0.073303826,240.15682999999999,-103.52376600000001,1.8398805,STD
128110780000000.0,0.3462088406085968,-0.06569197028875351,9.687681198120117,-0.12544402480125427,0.04850507527589798,-0.05161811400000001,0.06658431,240.47668,-103.21234,1.6353024999999999,STD
128226000000000.0,0.35121119022369385,-0.07339462637901306,9.691624641418457,-0.08028022944927216,0.04552982747554779,-0.08277224,0.056199603,240.79881,-102.8951,1.4291106000000002,STD
128335070000000.0,0.3562084138393402,-0.07833521068096161,9.69746208190918,-0.038388896733522415,0.04046706110239029,-0.11698069400000001,0.0421497,241.13492999999997,-102.55145999999999,1.2143003,STD
128438350000000.0,0.36120638251304626,-0.0806104838848114,9.705138206481934,0.0003856711264234036,0.03380231186747551,-0.14691310000000002,0.032986722999999996,241.47635,-102.21124,1.001459,STD
128536115000000.0,0.3662031292915344,-0.07950037717819214,9.714517593383789,0.034478720277547836,0.02610919252038002,-0.18234327,0.03359759,241.8305,-101.867645,0.7896069,STD
128628675000000.0,0.3712013065814972,-0.07400191575288773,9.725503921508789,0.06183965876698494,0.0177680142223835,-0.22327125,0.036957346,242.19199,-101.52337,0.5793499,STD
128716300000000.0,0.37619632482528687,-0.06399097293615341,9.738059997558594,0.0820738822221756,0.009578285738825798,-0.23487769,0.049480084,242.53735,-101.18942,0.40079197,STD
128799270000000.0,0.38119426369667053,-0.04818311706185341,9.752424240112305,0.09269782900810242,0.002134168753400445,-0.24740042,0.06017022599999999,242.8927,-100.86048000000001,0.22517997,STD
128877810000000.0,0.38619059324264526,-0.02729875221848488,9.768318176269531,0.09471241384744644,-0.004229695536196232,-0.2312125,0.071776666,243.22824,-100.55918,0.081919596,STD
128952165000000.0,0.3911892771720886,-0.00205840147100389,9.785449028015137,0.08906751871109009,-0.009359261952340603,-0.18142697,0.09254608,243.55707,-100.26718000000001,-0.05071587,STD
129022550000000.0,0.39618372917175293,0.02624954655766487,9.803389549255371,0.07730145007371902,-0.013255181722342968,-0.11545353400000001,0.10659598599999999,243.85779,-100.01523,-0.14937125,STD
129089190000000.0,0.4011850655078888,0.05612954497337341,9.821657180786133,0.06102824956178665,-0.014225302264094353,-0.025961772999999997,0.11484267,244.13715,-99.78253000000001,-0.23746073,STD
129152280000000.0,0.4061787724494934,0.08545264601707458,9.8390531539917,0.04280887544155121,-0.012506897561252117,0.058337633,0.13194689,244.3866,-99.58584599999999,-0.2897464,STD
129212010000000.0,0.41117802262306213,0.11065036058425903,9.853471755981445,0.026585495099425316,-0.0077223628759384155,0.13469578,0.16218472,244.61298,-99.40998,-0.3305369,STD
129268560000000.0,0.4161731004714966,0.13100206851959229,9.864588737487793,0.013720744289457798,0.00019280060951132327,0.18448131,0.18936823,244.81409,-99.271935,-0.3500647,STD
129322094000000.0,0.4211720824241638,0.14441226422786713,9.871294021606445,0.007398543413728476,0.010388147085905075,0.21594086,0.20463985,244.99902000000003,-99.149445,-0.36110768,STD
129372780000000.0,0.42616820335388184,0.15088866651058197,9.873981475830078,0.007699904032051563,0.021488845348358154,0.23273966,0.21258110000000002,245.18004,-99.03766,-0.3757468,STD
129420760000000.0,0.43116748332977295,0.14939771592617035,9.872953414916992,0.015845630317926407,0.032177045941352844,0.23671028,0.20799962,245.35532,-98.935356,-0.38834876,STD
129466186000000.0,0.4361680746078491,0.14063400030136108,9.86866569519043,0.031288549304008484,0.04169342666864395,0.20525073,0.18936823,245.54852000000002,-98.81872,-0.42923185,STD
129509186000000.0,0.4411684572696686,0.1264445036649704,9.862812995910645,0.05308235436677933,0.04909125342965126,0.18020524,0.17562376,245.738,-98.6997,-0.46866888,STD
129549895000000.0,0.44616997241973877,0.10746541619300842,9.855813980102539,0.08058871328830719,0.05422298237681389,0.12186762,0.17073683,245.97266000000002,-98.54666999999999,-0.5506821999999999,STD
129588440000000.0,0.45117324590682983,0.0861089900135994,9.849709510803223,0.11158203333616257,0.05833249166607857,0.05497787,0.15485434,246.21384,-98.39494,-0.6390799,STD
129624930000000.0,0.45617228746414185,0.06301751732826233,9.844826698303223,0.14497703313827515,0.06061156466603279,-0.014355333500000001,0.1255328,246.48607,-98.207756,-0.7606783,STD
129659480000000.0,0.4611726701259613,0.04039059206843376,9.843012809753418,0.17684772610664368,0.060116007924079895,-0.08246681,0.1133155,246.77419,-98.01615,-0.8816277,STD
129692180000000.0,0.4662154018878937,0.01939225196838379,9.8448486328125,0.20552192628383636,0.05782381445169449,-0.13408493,0.08857546,247.08322,-97.80881,-1.027879,STD
129723145000000.0,0.47121360898017883,0.00225350190885365,9.849748611450195,0.2282409816980362,0.05309825390577316,-0.17348573,0.07971791,247.40475,-97.59042,-1.1713941,STD
129752455000000.0,0.4762089252471924,-0.010514133609831333,9.857970237731934,0.24437685310840607,0.045808564871549606,-0.20341812,0.06566802,247.7355,-97.36803,-1.3242112,STD
129780205000000.0,0.4812062084674835,-0.017304643988609314,9.868402481079102,0.2529115378856659,0.037670284509658813,-0.22235495,0.06047566,248.07062000000002,-97.148964,-1.4737964,STD
129806480000000.0,0.48621872067451477,-0.018120838329195976,9.880995750427246,0.25389307737350464,0.028679804876446724,-0.23182335,0.06261369,248.40057000000002,-96.93806500000001,-1.605086,STD
129831350000000.0,0.4912150800228119,-0.012921886518597603,9.89416217803955,0.24810418486595154,0.01977778971195221,-0.24587326,0.07422013,248.73375,-96.73317,-1.7319626000000001,STD
129854900000000.0,0.4962195158004761,-0.001782781328074634,9.907827377319336,0.2350853830575943,0.011659447103738785,-0.2302962,0.089186326,249.04361,-96.55113,-1.8259486,STD
129877185000000.0,0.5012186169624329,0.011489941738545895,9.920269012451172,0.2135869264602661,0.005129434634000063,-0.2171626,0.10720685,249.35532,-96.37661999999999,-1.9132456999999998,STD
129898290000000.0,0.5062276721000671,0.026741815730929375,9.931310653686523,0.1834242194890976,0.000330989045323804,-0.19883664,0.124005646,249.6437,-96.227,-1.9662026000000001,STD
129918270000000.0,0.5112244486808777,0.041652750223875046,9.938932418823242,0.14472384750843048,-0.0034467049408704042,-0.17104226,0.1386664,249.92342999999997,-96.08292,-2.012085,STD
129937190000000.0,0.516238808631897,0.05609280988574028,9.943081855773926,0.0972212627530098,-0.00599760701879859,-0.11942416,0.14049901,250.18301,-95.981064,-2.0425020000000003,STD
129955100000000.0,0.5212364196777344,0.06547540426254272,9.946333885192871,0.05270155891776085,-0.006508121266961098,-0.071776666,0.1572978,250.4343,-95.8871,-2.0626214,STD
129972050000000.0,0.5262308120727539,0.06985383480787277,9.948700904846191,0.0110285310074687,-0.005705521907657385,-0.027794369,0.16249016,250.66967999999997,-95.83575400000001,-2.0797749,STD
129988100000000.0,0.5312249064445496,0.06872544437646866,9.950620651245117,-0.026278985664248466,-0.0036597871221601963,0.00061086525,0.16707164,250.89437999999998,-95.793335,-2.0906196,STD
130003290000000.0,0.5362240672111511,0.06213904172182083,9.952187538146973,-0.05909004807472229,0.0005883050034753978,0.034208454,0.17012598,251.10336,-95.76295999999999,-2.0984166,STD
130017680000000.0,0.5412194132804871,0.05060416832566261,9.952238082885742,-0.08647111058235168,0.0054564266465604305,0.04917465,0.1685988,251.31817999999998,-95.73729,-2.126116,STD
130031300000000.0,0.5462111830711365,0.034394312649965286,9.950522422790527,-0.10836271196603775,0.011041753925383091,0.058948494000000004,0.17470746,251.52327999999997,-95.7232,-2.1490285,STD
130044190000000.0,0.5512080192565918,0.015373846516013145,9.947673797607422,-0.1245264783501625,0.017289787530899048,0.054367005999999996,0.17409660000000002,251.74121,-95.71258,-2.1975558,STD
130056400000000.0,0.5562009215354919,-0.005656524561345577,9.943968772888184,-0.13529351353645325,0.023937327787280083,0.06017022599999999,0.16065755,251.95097,-95.70716999999999,-2.2460427000000003,STD
130067960000000.0,0.5611978769302368,-0.026877930387854576,9.93962574005127,-0.14162690937519073,0.03036082163453102,0.03726278,0.14782938,252.18091,-95.698685,-2.3178487000000003,STD
130078900000000.0,0.5661932826042175,-0.047728363424539566,9.934754371643066,-0.14407621324062347,0.0360838882625103,0.015882496,0.13500121,252.40579,-95.694176,-2.3913083,STD
130089260000000.0,0.5711894631385803,-0.06467914581298828,9.930561065673828,-0.1451897919178009,0.04155078902840614,0.0012217305,0.12339478,252.6401,-95.68465,-2.4803226,STD
130099060000000.0,0.5761832594871521,-0.07694195955991745,9.927348136901855,-0.14573940634727478,0.04568459466099739,-0.02565634,0.10170906,252.88043,-95.67304,-2.5743207999999997,STD
130108350000000.0,0.5811805129051208,-0.08468408137559891,9.925080299377441,-0.14574410021305084,0.050151530653238297,-0.039095376,0.0842994,253.1297,-95.65795,-2.6704109000000003,STD
130117140000000.0,0.5861790776252747,-0.0881747156381607,9.923701286315918,-0.14523670077323914,0.05446179583668709,-0.05161811400000001,0.06536258,253.38239,-95.641594,-2.7711074,STD
130125460000000.0,0.5911767482757568,-0.08708157390356064,9.923871040344238,-0.14259280264377594,0.05888418108224869,-0.05497787,0.06169739,253.63284,-95.63202,-2.8698366,STD
130133340000000.0,0.5961735248565674,-0.08147832006216049,9.925714492797852,-0.13744495809078217,0.0643405169248581,-0.04428773,0.050396382999999996,253.87887999999998,-95.63345,-2.9733717,STD
130140800000000.0,0.6011713147163391,-0.07364507764577866,9.927789688110352,-0.12934602797031403,0.070824533700943,-0.04276056599999999,0.06291912,254.10797000000002,-95.61636,-3.0353209999999997,STD
130147860000000.0,0.6061906218528748,-0.0646834671497345,9.929332733154297,-0.11788442730903625,0.07800475507974625,-0.041233405,0.06017022599999999,254.331,-95.609245,-3.1028078,STD
130154550000000.0,0.6111875772476196,-0.05488312244415283,9.930434226989746,-0.10380266606807709,0.08616961538791656,-0.043066,0.0693332,254.54575,-95.58596999999999,-3.140635,STD
130160880000000.0,0.6161858439445496,-0.04416826739907265,9.931085586547852,-0.08694468438625336,0.09498993307352066,-0.056505035999999995,0.06078109,254.76077,-95.57046,-3.1834363999999997,STD
130166870000000.0,0.6211835741996765,-0.03421783447265625,9.930081367492676,-0.06664573401212692,0.10381223261356354,-0.062308256,0.055283304000000005,254.9723,-95.55720500000001,-3.2216150000000003,STD
130172540000000.0,0.6261809468269348,-0.02557099424302578,9.927067756652832,-0.04278871417045593,0.11214809119701385,-0.08063421400000001,0.061391957000000004,255.18932999999998,-95.546745,-3.2584345,STD
130177910000000.0,0.631178081035614,-0.017768315970897675,9.922542572021484,-0.017123257741332054,0.12003970891237259,-0.094989546,0.054061572999999995,255.39937999999998,-95.51538000000001,-3.2881413,STD
130182990000000.0,0.6361784338951111,-0.010642588138580322,9.916691780090332,0.009785659611225128,0.12630623579025269,-0.11301007,0.044593163,255.61392,-95.47933,-3.3164449,STD
130187810000000.0,0.6411743760108948,-0.003769818926230073,9.909921646118164,0.037433549761772156,0.13122960925102234,-0.14263703,0.043066,255.83566000000002,-95.43405,-3.3478827000000004,STD
130192360000000.0,0.6461758017539978,0.0029755434952676296,9.902318000793457,0.06575776636600494,0.13494651019573212,-0.16646078,0.038179077,256.0584,-95.38808,-3.3823543,STD
130196670000000.0,0.6511739492416382,0.012432205490767956,9.894998550415039,0.09189601987600327,0.13776540756225586,-0.20036379999999998,0.035124752999999995,256.29082999999997,-95.33458,-3.417965,STD
130200760000000.0,0.6561705470085144,0.0263076014816761,9.888616561889648,0.11417993158102036,0.13929466903209686,-0.2312125,0.036651913,256.52673,-95.27789,-3.4530992999999994,STD
130204630000000.0,0.6611671447753906,0.041663628071546555,9.884215354919434,0.13332344591617584,0.13937513530254364,-0.2519819,0.044898596,256.77047999999996,-95.211624,-3.4858332,STD
130208290000000.0,0.6661643981933594,0.057468999177217484,9.88207721710205,0.14967195689678192,0.13795378804206848,-0.26022860000000003,0.05009095,257.0167,-95.14368,-3.518324,STD
130211760000000.0,0.6711607575416565,0.07241565734148026,9.882247924804688,0.16338787972927094,0.13574549555778503,-0.25350907,0.06841691,257.25415,-95.065186,-3.5243160000000002,STD
130215040000000.0,0.6761634945869446,0.08604928851127625,9.884734153747559,0.1745651513338089,0.13433852791786194,-0.22510384,0.08307768,257.48526,-94.98926999999999,-3.5291224000000003,STD
130218150000000.0,0.6811607480049133,0.09762872755527496,9.8895845413208,0.1841474026441574,0.1332344263792038,-0.1908954,0.1133155,257.71436,-94.90241999999999,-3.5169787000000006,STD
130221090000000.0,0.6861578822135925,0.10690165311098099,9.896830558776855,0.1924949586391449,0.13243332505226135,-0.15515977,0.14110987,257.93256,-94.818146,-3.5007057,STD
130223880000000.0,0.6911556124687195,0.1133333370089531,9.905984878540039,0.20054984092712402,0.13257017731666565,-0.12095132,0.15271631,258.1402,-94.74255,-3.4823377,STD
130226520000000.0,0.6961570978164673,0.11658722907304764,9.916712760925293,0.20894865691661835,0.13276484608650208,-0.10293079,0.16279559,258.34045,-94.66148000000001,-3.4563562999999995,STD
130229020000000.0,0.701156735420227,0.11667481064796448,9.928777694702148,0.21643029153347015,0.13226549327373505,-0.09468412,0.1695151,258.53472999999997,-94.587585,-3.4347827000000004,STD
130231390000000.0,0.7061513662338257,0.11365754902362823,9.942008018493652,0.2222214639186859,0.13052311539649963,-0.0983493,0.17256944,258.7251,-94.51253,-3.4115620000000004,STD
130233626000000.0,0.7111461758613586,0.10948218405246735,9.956007957458496,0.2257833480834961,0.1272784173488617,-0.12308934,0.16340645,258.92166000000003,-94.443184,-3.4015641000000003,STD
130235750000000.0,0.7161434292793274,0.10527482628822327,9.970534324645996,0.22686485946178436,0.12274166941642761,-0.15821409,0.16493362,259.11996,-94.36936999999999,-3.3878744,STD
130237750000000.0,0.7211410999298096,0.10230454057455063,9.984925270080566,0.22559776902198792,0.11719334125518799,-0.19486602,0.15943582,259.3276,-94.30920400000001,-3.3915114,STD
130239660000000.0,0.7261379957199097,0.10127457231283188,9.998804092407227,0.22210703790187836,0.10948282480239868,-0.23304509,0.15118915,259.54285,-94.24344,-3.3955870000000004,FOL
130241460000000.0,0.7311341762542725,0.1018708273768425,10.011002540588379,0.2149602472782135,0.10058803856372833,-0.25961772,0.14966199,259.76257000000004,-94.18489,-3.400004,FOL
130243160000000.0,0.7361313104629517,0.10388462990522385,10.02086067199707,0.20336326956748962,0.0905558243393898,-0.29504790000000003,0.15302174,259.99268,-94.12253,-3.405387,FOL
130244774000000.0,0.7411282658576965,0.10769537091255188,10.027118682861328,0.18761152029037476,0.08058620989322662,-0.3323107,0.1563815,260.22485,-94.06136,-3.4035876000000003,FOL
130246300000000.0,0.7461254596710205,0.11367316544055939,10.028566360473633,0.16795893013477325,0.07085490971803665,-0.3576616,0.16004670000000001,260.46066,-93.99829,-3.4005769999999997,FOL
130247740000000.0,0.7511240243911743,0.1214800700545311,10.025618553161621,0.1432618796825409,0.060779523104429245,-0.38759398,0.16829337,260.70416,-93.93763,-3.3886545,FOL
130249110000000.0,0.7561215758323669,0.13082003593444824,10.018686294555664,0.11281546950340271,0.051615457981824875,-0.41050145,0.17684549,260.9499,-93.881004,-3.3755758,FOL
130250410000000.0,0.7611237168312073,0.1414763480424881,10.008366584777832,0.07700866460800171,0.043769918382167816,-0.4083634,0.18967366,261.19244,-93.82307,-3.3498212999999994,FOL
130251640000000.0,0.7661263942718506,0.1531675010919571,9.995391845703125,0.03647012263536453,0.03658664971590042,-0.40744713,0.19303341,261.4389,-93.76655600000001,-3.3246872000000005,FOL
130252800000000.0,0.7711272239685059,0.1661231368780136,9.98017692565918,-0.008009539917111397,0.02952575869858265,-0.40591997,0.20280726,261.67862,-93.714294,-3.2866735,FOL
130253900000000.0,0.7761296629905701,0.18118569254875183,9.96353530883789,-0.05487426370382309,0.02272721938788891,-0.38759398,0.21930063,261.91077,-93.66153,-3.24611,FOL
130254940000000.0,0.7811289429664612,0.1988106667995453,9.946187019348145,-0.10414331406354904,0.015558513812720776,-0.3484986,0.22449298,262.1343,-93.61451,-3.1992662,FOL
130255930000000.0,0.7861326336860657,0.2198435217142105,9.928996086120605,-0.1561567187309265,0.008462578058242798,-0.30268374,0.2275473,262.3485,-93.565765,-3.148957,FOL
130256870000000.0,0.791128933429718,0.2433665543794632,9.912932395935059,-0.20970818400382996,0.00089838239364326,-0.22479841,0.2321288,262.5368,-93.51266,-3.0870273,FOL
130257760000000.0,0.7961356043815613,0.26854127645492554,9.899574279785156,-0.26357516646385193,-0.006685907021164894,-0.14019357,0.23579398,262.70825,-93.4608,-3.0251763,FOL
130258600000000.0,0.8011351227760315,0.29592111706733704,9.888739585876465,-0.31629347801208496,-0.013491629622876644,-0.06566802,0.24770586,262.85364,-93.402985,-2.9431932,FOL
130259396000000.0,0.806135356426239,0.3268097937107086,9.880470275878906,-0.36595389246940613,-0.018713856115937233,0.019547688,0.27000242,262.97083,-93.34543599999999,-2.8578742000000004,FOL
130260150000000.0,0.8111315965652466,0.36056986451148987,9.874370574951172,-0.4114852547645569,-0.022436974570155144,0.076052725,0.29168814,263.07232999999997,-93.28605999999999,-2.7596008999999997,FOL
130260860000000.0,0.8161333799362183,0.3963804543018341,9.869879722595215,-0.45022714138031006,-0.024154892191290855,0.116675265,0.30329459999999997,263.15375,-93.233086,-2.6591017000000003,FOL
130261535000000.0,0.8211316466331482,0.43378785252571106,9.866366386413574,-0.48297470808029175,-0.02423490770161152,0.12705997,0.30024028,263.22406,-93.16849,-2.537288,FOL
130262170000000.0,0.8261336088180542,0.47224923968315125,9.862532615661621,-0.5106756091117859,-0.023561902344226837,0.13744467,0.30695978,263.28308,-93.10839,-2.4113998,FOL
130262780000000.0,0.831132709980011,0.5106879472732544,9.858787536621094,-0.5347519516944885,-0.021687684580683708,0.14263703,0.2968805,263.33746,-93.04441,-2.2787318,FOL
130263350000000.0,0.8361369967460632,0.5463069081306458,9.856270790100098,-0.5585734844207764,-0.018855320289731026,0.16279559,0.2929099,263.3849,-92.9868,-2.1447873,FOL
130263890000000.0,0.8411362767219543,0.5779791474342346,9.85559368133545,-0.5817661881446838,-0.015132150612771511,0.17959438,0.29779682,263.42926,-92.92508000000001,-2.0026023,FOL
130264400000000.0,0.846142590045929,0.6013518571853638,9.859184265136719,-0.6031939387321472,-0.010793531313538551,0.17623462,0.29871312,263.47372,-92.87595,-1.8653706,FOL
130264890000000.0,0.8511465191841125,0.6172987222671509,9.866622924804688,-0.6225804090499878,-0.005676933564245701,0.1685988,0.2968805,263.51556,-92.8441,-1.7330235,FOL
130265350000000.0,0.8561482429504395,0.6267934441566467,9.877562522888184,-0.6389850974082947,0.0004366197099443525,0.12064589,0.2968805,263.57022,-92.8244,-1.602933,FOL
130265790000000.0,0.8611627221107483,0.6310440897941589,9.89193058013916,-0.6523962020874023,0.006094146054238081,0.039095376,0.2968805,263.6424,-92.82134,-1.5014318000000002,FOL
130266200000000.0,0.8661640286445618,0.634595513343811,9.908842086791992,-0.6629654169082642,0.010701409541070461,-0.07360926,0.30818152,263.7373,-92.82476,-1.3997883999999998,FOL
130266590000000.0,0.8711627125740051,0.6382254958152771,9.927919387817383,-0.6708905696868896,0.014330658130347729,-0.18997909,0.32711834,263.8686,-92.83164000000001,-1.3217862,FOL
130266960000000.0,0.8761633634567261,0.6478771567344666,9.94620132446289,-0.677283525466919,0.016627078875899315,-0.31703907,0.33567044,264.03424,-92.83596,-1.2467598,FOL
130267314000000.0,0.8811648488044739,0.6632073521614075,9.963730812072754,-0.6822298765182495,0.016310682520270348,-0.41477749999999997,0.33750305,264.2243,-92.82379,-1.1731875,FOL
130267650000000.0,0.8861721754074097,0.6854100823402405,9.983307838439941,-0.6934213638305664,0.014660128392279148,-0.48380527,0.34330627,264.44083,-92.81281,-1.0989797,FOL
130267970000000.0,0.8911730051040649,0.714082658290863,10.005297660827637,-0.7119163870811462,0.012706880457699299,-0.50518554,0.37293324,264.66992,-92.7944,-1.0196644,FOL
130268270000000.0,0.8961741328239441,0.7460199594497681,10.026277542114258,-0.7352513074874878,0.011215828359127045,-0.46822822,0.4166101,264.8972,-92.75970500000001,-0.90694857,FOL
130268560000000.0,0.9011721014976501,0.780177116394043,10.045403480529785,-0.7624900937080383,0.011448251083493233,-0.37720928,0.47555858,265.11346000000003,-92.73143,-0.78328836,FOL
130268824000000.0,0.9061670899391174,0.8095421195030212,10.05699348449707,-0.7867657542228699,0.012791424058377743,-0.23854288,0.54092115,265.29907000000003,-92.72844,-0.6160095,FOL
130269080000000.0,0.9111624360084534,0.8315788507461548,10.05905818939209,-0.8055562376976013,0.014762941747903824,-0.10048734,0.571159,265.45772999999997,-92.74200400000001,-0.44430995,FOL
130269320000000.0,0.9161598086357117,0.8419880270957947,10.048819541931152,-0.810705840587616,0.016759609803557396,0.024129177,0.5815437,265.57867000000005,-92.78745,-0.24559902,FOL
130269546000000.0,0.9211560487747192,0.8400648236274719,10.026069641113281,-0.8004748821258545,0.01747790165245533,0.1020145,0.5546656,265.673,-92.84368,-0.05203068,FOL
130269760000000.0,0.926151692867279,0.8266719579696655,9.989952087402344,-0.7751690149307251,0.015390763990581036,0.12186762,0.5021312,265.7505,-92.88901,0.11287746,FOL
130269970000000.0,0.93116295337677,0.8017856478691101,9.939836502075195,-0.7344931364059448,0.009426905773580074,0.10629055,0.42149702,265.81494,-92.92824,0.25904775,FOL
130270170000000.0,0.9361582398414612,0.7688291072845459,9.880758285522461,-0.6849642992019653,-0.002339406171813607,0.07727446,0.37598756,265.88318,-92.8862,0.35109273,FOL
130270350000000.0,0.9411540031433105,0.7280781865119934,9.813213348388672,-0.6274917721748352,-0.016782959923148155,-0.0067195175,0.26908615,265.96872,-92.83576,0.39969224,FOL
130270530000000.0,0.9461496472358704,0.6913151741027832,9.748981475830078,-0.57171231508255,-0.0365607813000679,-0.11178834,0.15332718,266.07162,-92.67251999999999,0.38151157,FOL
130270695000000.0,0.9511474967002869,0.6619079113006592,9.691435813903809,-0.520411491394043,-0.05855633690953255,-0.22937989,0.052534412999999995,266.19903999999997,-92.50555,0.3359413,FOL
130270854000000.0,0.9561440348625183,0.6393958330154419,9.640178680419922,-0.4733315408229828,-0.08234216272830963,-0.33964106,-0.013439035,266.35956,-92.2638,0.22450204,FOL
130271005000000.0,0.9611409306526184,0.6234435439109802,9.594894409179688,-0.4302564263343811,-0.10606490820646286,-0.43585235,-0.04550946,266.54584,-92.020004,0.09540242,FOL
130271150000000.0,0.9661425352096558,0.6209856867790222,9.559380531311035,-0.39879998564720154,-0.12823040783405304,-0.49510628,-0.056199603,266.75085,-91.778595,-0.043759316,FOL
130271280000000.0,0.9711443781852722,0.634549617767334,9.53494644165039,-0.3819311857223511,-0.1470334827899933,-0.5195409000000001,-0.044898596,266.96945,-91.55662,-0.18290764,FOL
130271410000000.0,0.9761448502540588,0.6637815237045288,9.523329734802246,-0.38378462195396423,-0.16136741638183594,-0.50762904,-0.04520403,267.1855,-91.36564,-0.27461225,FOL
130271525000000.0,0.9811457395553589,0.7083046436309814,9.525351524353027,-0.4064730107784271,-0.17138898372650146,-0.43066000000000004,-0.027183502999999998,267.38672,-91.199394,-0.35538208,FOL
130271640000000.0,0.9861474633216858,0.7603141665458679,9.534725189208984,-0.44333359599113464,-0.17644904553890228,-0.25045475,0.04184427,267.54474,-91.09102,-0.35094926,FOL
130271750000000.0,0.9911481142044067,0.8151341080665588,9.547658920288086,-0.4901553690433502,-0.1758841872215271,-0.047647487,0.13622294,267.6723,-91.00395999999999,-0.33327752,FOL
130271850000000.0,0.9961504936218262,0.8618566989898682,9.556167602539062,-0.5348545908927917,-0.16953842341899872,0.15057829,0.21685717,267.74414,-90.99843,-0.23252931,FOL
130271950000000.0,1.001165747642517,0.893792986869812,9.555327415466309,-0.5701078772544861,-0.1591847836971283,0.30879238,0.29138273,267.76935,-91.02135,-0.10778387,FOL
130272046000000.0,1.0061644315719604,0.904414176940918,9.536416053771973,-0.5924875140190125,-0.14788541197776794,0.41996986,0.34788775,267.75314,-91.12232,0.054738842,FOL
130272140000000.0,1.0111645460128784,0.8874892592430115,9.49204158782959,-0.5986573100090027,-0.13718821108341217,0.47158796,0.37293324,267.70977999999997,-91.25958,0.22688407,FOL
130272220000000.0,1.0161638259887695,0.8450789451599121,9.424127578735352,-0.5920570492744446,-0.1298607885837555,0.47800204,0.35063666,267.65198,-91.36691,0.35238359999999996,FOL
130272300000000.0,1.0211645364761353,0.7786096334457397,9.333983421325684,-0.5752338171005249,-0.12666766345500946,0.43279803,0.31520647,267.5955,-91.47511,0.47857133,FOL
130272370000000.0,1.0261651277542114,0.6939646005630493,9.226802825927734,-0.5504665970802307,-0.12779542803764343,0.39370266,0.25595254,267.54828,-91.471855,0.47719659999999997,FOL
130272450000000.0,1.0311646461486816,0.5995455980300903,9.10995101928711,-0.520975649356842,-0.13161396980285645,0.2910773,0.23304509,267.5328,-91.45669000000001,0.47492552,FOL
130272515000000.0,1.036167860031128,0.506722629070282,8.992718696594238,-0.48658135533332825,-0.13501739501953125,0.14294247,0.19822577,267.57446,-91.33978,0.30375525,FOL
130272580000000.0,1.0411683320999146,0.4252101480960846,8.88320255279541,-0.44741159677505493,-0.13666054606437683,-0.049785517,0.17287487,267.65646,-91.23396,0.13136512,FOL
130272640000000.0,1.0461695194244385,0.3600340187549591,8.786977767944336,-0.4038069546222687,-0.13227489590644836,-0.24220806,0.14813483,267.81357,-91.15103,-0.13393328,FOL
130272700000000.0,1.0511715412139893,0.3167998492717743,8.710302352905273,-0.35620129108428955,-0.119805246591568,-0.42394048,0.12370021,268.0167,-91.15413000000001,-0.39995348,FOL
130272760000000.0,1.0561705827713013,0.2962736189365387,8.652524948120117,-0.2961428463459015,-0.09886854141950607,-0.5357288,0.10812314599999999,268.2329,-91.20733,-0.6204938,FOL
130272810000000.0,1.0611705780029297,0.3004300594329834,8.613638877868652,-0.2125857025384903,-0.07019273936748505,-0.6230826,0.08857546,268.48834,-91.333855,-0.84455276,FOL
130272860000000.0,1.0661693811416626,0.324297159910202,8.588506698608398,-0.1128866970539093,-0.037771280854940414,-0.66675943,0.079107046,268.73712,-91.41155,-0.9579530999999999,FOL
130272910000000.0,1.0711753368377686,0.36318305134773254,8.5718412399292,-0.004501082003116608,-0.005905685480684042,-0.6062838,0.08552113,268.97745,-91.51091,-1.0704143999999998,FOL
130272950000000.0,1.0761737823486328,0.41110149025917053,8.557920455932617,0.10546771436929703,0.02107134275138378,-0.4456262,0.09285152,269.17217999999997,-91.46446999999999,-1.0729113000000001,FOL
130272990000000.0,1.0811735391616821,0.4614042341709137,8.539283752441406,0.20827648043632507,0.03964398428797722,-0.22113322,0.08399397,269.32874,-91.41350600000001,-1.0777955,FOL
130273035000000.0,1.0861716270446777,0.5079103708267212,8.512439727783203,0.3021152913570404,0.04811152443289757,0.06352998,0.10476339,269.41177000000005,-91.25023,-1.0016776,FOL
130273080000000.0,1.0911718606948853,0.5425488948822021,8.47247314453125,0.3843807578086853,0.048135627061128616,0.28802297,0.12858713,269.4463,-91.08065,-0.92811644,FOL
130273120000000.0,1.096167802810669,0.5626281499862671,8.4191312789917,0.45476388931274414,0.04174516722559929,0.37201694,0.14599679999999998,269.4388,-90.89259,-0.8304896,FOL
130273150000000.0,1.1011687517166138,0.5559449791908264,8.348021507263184,0.5098204612731934,0.03198403865098953,0.34086279999999997,0.13286320000000001,269.3997,-90.74055,-0.73663735,FOL
130273190000000.0,1.1061640977859497,0.523932933807373,8.263712882995605,0.5514170527458191,0.021847855299711227,0.24220806,0.116675265,269.36478,-89.299164,-0.68152547,FOL
130273220000000.0,1.1111644506454468,0.465303897857666,8.170884132385254,0.5808455348014832,0.016923455521464348,0.07788532,0.070554934,269.35742,-89.25061,-0.63986033,FOL
130273250000000.0,1.1161601543426514,0.385311484336853,8.071521759033203,0.6044975519180298,0.0202373918145895,-0.13683382,-0.006414085,269.41782,-89.08525999999999,-0.71954864,FOL
130273290000000.0,1.1211596727371216,0.289781779050827,7.967679977416992,0.6329044103622437,0.03281558305025101,-0.33658674,-0.10751228,269.51977999999997,-88.920425,-0.8175912,FOL
130273310000000.0,1.1261547803878784,0.1874358057975769,7.8626227378845215,0.6708552241325378,0.053513213992118835,-0.39584067,-0.15424347,269.69684,-88.66305,-1.0855542,FOL
130273340000000.0,1.1311531066894531,0.09749142825603485,7.7634124755859375,0.7318434119224548,0.07615167647600174,-0.45662177,-0.22693644,269.9262,-88.3858,-1.3811125,FOL
130273360000000.0,1.1361520290374756,0.02399044670164585,7.673894882202148,0.8162800073623657,0.10134373605251312,-0.43676865,-0.26236662,270.1347,-88.06147,-1.7365578000000002,FOL
130273390000000.0,1.1411514282226562,-0.01603444665670395,7.609196662902832,0.9298883676528931,0.12538857758045197,-0.33414328,-0.24862215,270.3319,-87.72918,-2.0893328,FOL
130273410000000.0,1.146149754524231,-0.025400666519999504,7.571390151977539,1.0671837329864502,0.14458726346492767,-0.21624629,-0.18325958,270.5242,-87.35916999999999,-2.4290166,FOL
130273440000000.0,1.1511496305465698,-0.008549769409000874,7.571848392486572,1.2138177156448364,0.15704944729804993,-0.11942416,-0.086132,270.68677,-87.00806999999999,-2.7448835,FOL
130273460000000.0,1.1561473608016968,0.02905876375734806,7.607700347900391,1.3673673868179321,0.1635410636663437,-0.055588737,0.03176499,270.7756,-86.77743000000001,-2.8558357000000005,FOL
130273490000000.0,1.161146640777588,0.059562839567661285,7.675047874450684,1.5152840614318848,0.1677822768688202,-0.043066,0.12492194,270.84814,-86.548096,-2.9435594,FOL
130273505000000.0,1.1661456823349,0.07961273938417435,7.769875526428223,1.6532562971115112,0.1727578341960907,-0.096516706,0.18234327,270.89557,-86.38433,-2.8796215,FOL
130273520000000.0,1.1711454391479492,0.06019781902432442,7.874205112457275,1.7457302808761597,0.1808539181947708,-0.083383106,0.19883664,270.91794,-86.205475,-2.8032668,FOL
130273540000000.0,1.1761451959609985,0.003116356674581766,7.985354423522949,1.7973546981811523,0.1928645819425583,-0.12492194,0.17623462,270.97292999999996,-85.99998000000001,-2.740307,FOL
130273556000000.0,1.1811436414718628,-0.09416395425796509,8.077361106872559,1.8359217643737793,0.20825567841529846,-0.24007004,0.12095132,271.04364,-85.79046,-2.6827106,FOL
130273570000000.0,1.1862062215805054,-0.23733454942703247,8.148333549499512,1.8605369329452515,0.223298579454422,-0.2864958,0.08093964,271.14417000000003,-85.59735,-2.801976,FOL
130273590000000.0,1.1912026405334473,-0.3588472008705139,8.211163520812988,1.891802191734314,0.23775140941143036,-0.25076020000000004,0.051923547,271.25165,-85.41944000000001,-2.9281108,FOL
130273610000000.0,1.1961956024169922,-0.45578935742378235,8.265020370483398,1.9316712617874146,0.2550964057445526,-0.16798794,0.049480084,271.36987,-85.19256,-3.2143455000000003,FOL
130273620000000.0,1.2011926174163818,-0.5236148834228516,8.318643569946289,1.959190845489502,0.27703505754470825,-0.15424347,0.062002823,271.4948,-84.97434,-3.4930972999999996,FOL
130273640000000.0,1.2061880826950073,-0.5625473856925964,8.374861717224121,1.9681437015533447,0.2972674071788788,-0.17592919,0.07391469,271.60385,-84.74973,-3.7632324999999995,FOL
130273660000000.0,1.2111849784851074,-0.5845118165016174,8.4376802444458,1.98528254032135,0.3130846619606018,-0.15088372,0.10720685,271.69916,-84.53726999999999,-3.9777877,FOL
130273670000000.0,1.2161815166473389,-0.5950186252593994,8.508418083190918,2.0211024284362793,0.3309563398361206,-0.23396139,0.12522738,271.82828,-84.35231,-4.181817,FOL
130273690000000.0,1.221179485321045,-0.6127974390983582,8.580636024475098,2.0705111026763916,0.3508543372154236,-0.2761111,0.16249016,271.9233,-84.29438,-4.270152599999999,FOL
130273700000000.0,1.2261781692504883,-0.648358166217804,8.650588035583496,2.1302125453948975,0.37216606736183167,-0.32131509999999996,0.18203785,272.0407,-84.24736,-4.3533029999999995,FOL
130273710000000.0,1.2311747074127197,-0.7011104822158813,8.725719451904297,2.18415904045105,0.39377444982528687,-0.2779437,0.18478674,272.12646,-84.20116,-4.3769903,FOL
130273715000000.0,1.2361778020858765,-0.7710162997245789,8.809483528137207,2.225374698638916,0.4175029993057251,-0.31703907,0.17134771,272.24664,-84.1732,-4.3963714000000005,FOL
130273720000000.0,1.2411755323410034,-0.8474140763282776,8.904902458190918,2.2873847484588623,0.4450129568576813,-0.35277468,0.14721853,272.36017000000004,-84.068405,-4.490563,FOL
130273730000000.0,1.2461732625961304,-0.9248549938201904,9.014080047607422,2.3888909816741943,0.4798954427242279,-0.33292156,0.14141529999999997,272.46587999999997,-83.994576,-4.5796790000000005,FOL
130273740000000.0,1.2511723041534424,-0.9944906830787659,9.126358032226562,2.508991003036499,0.5167115926742554,-0.24190263,0.18203785,272.5742,-83.90249,-4.730907,FOL
130273750000000.0,1.2562156915664673,-1.0522401332855225,9.238572120666504,2.642141819000244,0.5464708805084229,-0.29535335,0.23915374,272.71515,-83.81667,-4.869293,FOL
130273760000000.0,1.2612111568450928,-1.1003553867340088,9.34968376159668,2.77591872215271,0.5749860405921936,-0.41263947,0.25381452,272.8331,-83.66664,-5.0076323,FOL
130273765000000.0,1.2662062644958496,-1.1376951932907104,9.46103286743164,2.909237861633301,0.6083622574806213,-0.35277468,0.28588495,272.91074,-83.54635,-5.120137000000001,FOL
130273770000000.0,1.2712030410766602,-1.1568890810012817,9.569759368896484,3.04044508934021,0.6470241546630859,-0.30665436,0.35399640000000004,273.0088,-83.43099000000001,-5.1832275,FOL
130273780000000.0,1.2761993408203125,-1.1543396711349487,9.674264907836914,3.1685941219329834,0.6826164126396179,-0.34605515,0.41935900000000004,273.11057,-83.32512,-5.2326484,FOL
130273790000000.0,1.2811951637268066,-1.1367141008377075,9.770527839660645,3.2854819297790527,0.7155631184577942,-0.44348818,0.44532076,273.20654,-83.26785,-5.2374043,FOL
130273800000000.0,1.286193609237671,-1.1072030067443848,9.856974601745605,3.3877549171447754,0.7544206380844116,-0.50701815,0.5006041,273.3001,-83.262,-5.213685,FOL
130273810000000.0,1.291190266609192,-1.0653043985366821,9.943778038024902,3.4883904457092285,0.8010063171386719,-0.41141775,0.54458636,273.3602,-83.315414,-5.113857299999999,FOL
130273816000000.0,1.2961872816085815,-1.0106784105300903,10.037365913391113,3.5955803394317627,0.8488856554031372,-0.46334129999999996,0.5861251999999999,273.47823999999997,-83.38712,-4.9966397,FOL
130273820000000.0,1.3011844158172607,-0.9505695700645447,10.138652801513672,3.7089455127716064,0.8950597643852234,-0.5375614000000001,0.66675943,273.5711,-83.54925,-4.8198094000000005,FOL
130273830000000.0,1.3061825037002563,-0.8899416923522949,10.248190879821777,3.8281807899475098,0.9384964108467102,-0.5204572000000001,0.743423,273.65155,-83.72636999999999,-4.6374835999999995,FOL
130273840000000.0,1.311179757118225,-0.8427851796150208,10.363788604736328,3.9446115493774414,0.9789345860481262,-0.69058317,0.8005389,273.7945,-83.926994,-4.382858000000001,FOL
130273850000000.0,1.3161766529083252,-0.8211997747421265,10.483614921569824,4.050783157348633,1.025356411933899,-0.68294734,0.8249735,273.88046,-84.16345,-4.126692299999999,FOL
130273860000000.0,1.3211746215820312,-0.8217928409576416,10.608572006225586,4.146687984466553,1.0730317831039429,-0.6835581999999999,0.82650065,274.0088,-84.367424,-3.846655,FOL
130273870000000.0,1.3261749744415283,-0.8414005637168884,10.739481925964355,4.232334136962891,1.1183453798294067,-0.7141015000000001,0.83077675,274.1425,-84.58768,-3.5659037000000002,FOL
130273874000000.0,1.331172227859497,-0.8729848265647888,10.871662139892578,4.3103156089782715,1.1637020111083984,-0.77640975,0.8481864,274.29507,-84.79521,-3.3648176,FOL
130273880000000.0,1.3361724615097046,-0.9107393622398376,11.001252174377441,4.382852077484131,1.2111014127731323,-0.77182823,0.8857546000000001,274.43597,-85.01477,-3.1626703999999997,FOL
130273890000000.0,1.3411668539047241,-0.9540866613388062,11.128249168395996,4.450274467468262,1.2609882354736328,-0.7641924,0.9410379000000001,274.61084,-85.2277,-3.0190919999999997,FOL
130273900000000.0,1.3461649417877197,-1.0029959678649902,11.25294303894043,4.512811183929443,1.31541109085083,-0.7635816,0.9990701,274.78424,-85.47561999999999,-2.867125,FOL
130273910000000.0,1.3511641025543213,-1.0564948320388794,11.372113227844238,4.571508884429932,1.3735584020614624,-0.75808376,1.0665708,274.94928,-85.75279,-2.7014953999999998,FOL
130273920000000.0,1.3561627864837646,-1.1096160411834717,11.46047306060791,4.632575035095215,1.4349876642227173,-0.7498371,1.1093313,275.1123,-86.06249,-2.5305984,FOL
130273925000000.0,1.3611600399017334,-1.160235047340393,11.518795013427734,4.697925090789795,1.4983030557632446,-0.73945236,1.1597277,275.28506,-86.37444,-2.4046881,FOL
130273930000000.0,1.36615788936615,-1.2021914720535278,11.545676231384277,4.773461818695068,1.5631762742996216,-0.7247916,1.2021828,275.45352,-86.71132,-2.2715932999999997,FOL
130273940000000.0,1.3711563348770142,-1.2364087104797363,11.543399810791016,4.858047962188721,1.6289056539535522,-0.72509706,1.2498302,275.62134,-87.04114,-2.1417937,FOL
130273950000000.0,1.3761554956436157,-1.265155553817749,11.515976905822754,4.948806285858154,1.6939806938171387,-0.73426,1.2910636999999998,275.78726,-87.378525,-2.0049384,FOL
130273960000000.0,1.3811532258987427,-1.2892460823059082,11.463691711425781,5.0391340255737305,1.7590222358703613,-0.75502944,1.3286319,275.94415,-87.71315,-1.8361444,FOL
130273970000000.0,1.3861569166183472,-1.310499906539917,11.382877349853516,5.108343124389648,1.8237879276275635,-0.784351,1.3481796,276.10632000000004,-88.043396,-1.6655488999999997,FOL
130273975000000.0,1.3911558389663696,-1.3291268348693848,11.276236534118652,5.158174991607666,1.8887807130813599,-0.8142834,1.3594806000000002,276.2708,-88.35762,-1.4805998,FOL
130273980000000.0,1.3961646556854248,-1.3451851606369019,11.143497467041016,5.188803195953369,1.9533048868179321,-0.84482664,1.3628403999999998,276.44372999999996,-88.64613,-1.2979273,FOL
130273990000000.0,1.40116286277771,-1.357610821723938,10.981188774108887,5.191237926483154,2.016880750656128,-0.89675015,1.3289373,276.62387,-88.873276,-1.12585,FOL
130274000000000.0,1.4061615467071533,-1.3614802360534668,10.762158393859863,5.123236656188965,2.07926607131958,-0.96974856,1.2837333999999998,276.81903,-91.0097,-0.9619885,FOL
130274010000000.0,1.4111593961715698,-1.3534092903137207,10.48823070526123,4.986711502075195,2.139563798904419,-1.1026118,1.2238685,277.06378,-91.12557,-0.8328462,FOL
130274020000000.0,1.4161574840545654,-1.3086615800857544,10.152196884155273,4.770796298980713,2.1962573528289795,-1.1603385,1.1722503999999998,277.30742999999995,-91.402084,-0.7209335,FOL
130274025000000.0,1.4211547374725342,-1.226422905921936,9.756701469421387,4.479804515838623,2.2475693225860596,-1.2238685,1.1646146000000002,277.626,-91.9692,-0.61560315,FOL
130274030000000.0,1.4261536598205566,-1.0743145942687988,9.292866706848145,4.113857746124268,2.2944538593292236,-1.2342533000000002,1.1539245,277.94635,-92.58664,-0.5349106,FOL
130274040000000.0,1.4311511516571045,-0.8585551977157593,8.764697074890137,3.6829512119293213,2.333761215209961,-1.2232577,1.1814133999999998,278.31256,-93.45956,-0.29003322,FOL
130274050000000.0,1.4361518621444702,-0.5940315127372742,8.169111251831055,3.227353572845459,2.365488290786743,-1.1856893999999998,1.2559388999999999,278.6799,-94.35065,-0.045736655999999994,FOL
130274060000000.0,1.4411503076553345,-0.2906041145324707,7.514668941497803,2.751866102218628,2.3895833492279053,-1.1594223,1.3356569,279.0714,-95.54471,0.45637244,FOL
130274070000000.0,1.446149468421936,-0.028142796829342842,6.843741416931152,2.2900800704956055,2.403686046600342,-1.1841623,1.3451253,279.4752,-96.73408,0.9545579,FOL
130274076000000.0,1.4511504173278809,0.19345837831497192,6.163161277770996,1.8409396409988403,2.4060823917388916,-1.2370021,1.3164146,279.8879,-98.12669,1.6318911,FOL
130274076000000.0,1.456149697303772,0.34544509649276733,5.57133150100708,1.399509310722351,2.3969080448150635,-1.2385293,1.2739595,280.30548,-99.50663,2.3063476,FOL
130274080000000.0,1.4611562490463257,0.4313110411167145,5.067209720611572,0.9632292985916138,2.3755264282226562,-1.2113458000000001,1.2049317,280.77594,-100.90587,2.874868,FOL
130274080000000.0,1.466156244277954,0.4767973721027374,4.665511608123779,0.5143963098526001,2.342083215713501,-1.1316278999999998,1.1307116000000001,281.24158,-102.25941,3.4275580000000003,FOL
130274090000000.0,1.4711663722991943,0.48353734612464905,4.363772392272949,0.05161448195576668,2.3004117012023926,-1.0210613000000002,1.0390818000000002,281.75266,-103.56064599999999,3.7313342000000005,FOL
130274100000000.0,1.4761664867401123,0.4767819941043854,4.130180358886719,-0.4194641411304474,2.253685235977173,-0.8970556000000001,0.9502009,282.23953,-104.812546,4.0120177,FOL
130274100000000.0,1.4811850786209106,0.45735791325569153,3.9684927463531494,-0.9017152190208435,2.2019124031066895,-0.72692966,0.85154617,282.73138,-106.04868,4.0810260000000005,FOL
130274110000000.0,1.4861866235733032,0.4560093283653259,3.898989677429199,-1.3848767280578613,2.14485764503479,-0.50793445,0.7360926,283.16595,-107.24068500000001,4.125001,FOL
130274110000000.0,1.491180658340454,0.47235313057899475,3.9196035861968994,-1.869806170463562,2.0838606357574463,-0.25870144,0.61178154,283.56212999999997,-108.44785,4.0490537,FOL
130274120000000.0,1.4961796998977661,0.5139702558517456,3.9740538597106934,-2.3150522708892822,2.020482301712036,-0.03726278,0.4831944,283.8873,-109.60889399999999,3.9541132000000005,FOL
130274130000000.0,1.501175880432129,0.5795449614524841,4.05402135848999,-2.7188704013824463,1.9563145637512207,0.0888809,0.35888332,284.15125,-110.72971000000001,3.8393645,FOL
130274130000000.0,1.506173849105835,0.6665868163108826,4.157247066497803,-3.085963487625122,1.8916925191879272,0.08979719,0.23945917,284.35284,-111.78936000000002,3.7414286,FOL
130274134000000.0,1.5112121105194092,0.7773002982139587,4.286247730255127,-3.4165070056915283,1.8278123140335083,-0.032986722999999996,0.12064589,284.53002999999995,-112.80855600000001,3.6146111000000003,FOL
130274134000000.0,1.516209602355957,0.9059538841247559,4.440735340118408,-3.719676971435547,1.76771080493927,-0.101098195,0.021991148999999998,284.6394,-113.70168999999999,3.598817,FOL
130274140000000.0,1.521202564239502,1.05575692653656,4.626143932342529,-3.9960861206054688,1.7143445014953613,-0.23823744,-0.014966198,284.78612999999996,-114.5773,3.5486357,FOL
130274150000000.0,1.5262006521224976,1.2196695804595947,4.8341803550720215,-4.2480878829956055,1.6675008535385132,-0.36865717,-0.06169739,284.90337999999997,-115.33675,3.5870957000000003,FOL
130274150000000.0,1.5311944484710693,1.3951166868209839,5.0612874031066895,-4.477513790130615,1.6333107948303223,-0.4822781,-0.06169739,285.0486,-116.13355,3.6125937000000006,FOL
130274160000000.0,1.536197304725647,1.570617437362671,5.305518627166748,-4.713638782501221,1.612499713897705,-0.5635232,-0.03390302,285.19086,-116.84904499999999,3.7321286,FOL
130274160000000.0,1.5411912202835083,1.743369698524475,5.56364107131958,-4.9601731300354,1.6056567430496216,-0.6356053,0.014966198,285.35986,-117.60985600000001,3.8385290000000003,FOL
130274170000000.0,1.5461896657943726,1.8976932764053345,5.835489273071289,-5.243980884552002,1.6085542440414429,-0.66920286,0.10231992599999999,285.5303,-118.31707,4.035883999999999,FOL
130274180000000.0,1.5511882305145264,2.031095266342163,6.1197381019592285,-5.568182945251465,1.6168804168701172,-0.6407976,0.22815818,285.71362,-119.05967,4.2443733,FOL
130274180000000.0,1.5561870336532593,2.1370110511779785,6.39946174621582,-5.91550350189209,1.6278718709945679,-0.5864305999999999,0.39431350000000004,285.9108,-119.85127,4.480817,FOL
130274185000000.0,1.5611826181411743,2.2149815559387207,6.670173645019531,-6.279943943023682,1.642981767654419,-0.54061574,0.58551437,286.12347,-120.66736000000002,4.7447653,FOL
130274185000000.0,1.5661814212799072,2.2784945964813232,6.898695945739746,-6.610662460327148,1.6662389039993286,-0.52442783,0.7623598,286.36142,-121.61483,4.949523999999999,FOL
130274190000000.0,1.571179747581482,2.331533670425415,7.079340934753418,-6.897171974182129,1.7042409181594849,-0.52412236,0.9074403,286.6147,-122.60223,5.1848617,FOL
130274200000000.0,1.5761789083480835,2.3806960582733154,7.191547393798828,-7.0978875160217285,1.7618340253829956,-0.5348125,1.0390818000000002,286.89232999999996,-123.72267,5.3429150000000005,FOL
130274200000000.0,1.5812228918075562,2.4278221130371094,7.222484588623047,-7.19277286529541,1.83888578414917,-0.6041456999999999,1.1187996999999998,287.19802999999996,-124.90041000000001,5.504117,FOL
130274210000000.0,1.5862232446670532,2.4769363403320312,7.189864635467529,-7.21145486831665,1.9314779043197632,-0.70402217,1.1670581,287.52835,-126.14873,5.665228400000001,FOL
130274210000000.0,1.5912203788757324,2.529162645339966,7.085744380950928,-7.145689010620117,2.032027244567871,-0.81306165,1.1765264,287.88446,-127.44941999999999,5.8105593,FOL
130274220000000.0,1.5962172746658325,2.579075574874878,6.912269592285156,-7.0265960693359375,2.131303548812866,-0.9056076999999999,1.1588113000000002,288.26367,-128.7096,5.9929852,FOL
130274230000000.0,1.6012147665023804,2.6248536109924316,6.672574996948242,-6.866899490356445,2.221203565597534,-0.9966267,1.0934488000000002,288.6607,-129.97047,6.134792,FOL
130274230000000.0,1.6062108278274536,2.6665945053100586,6.374039173126221,-6.707247257232666,2.2968554496765137,-1.0409144000000001,0.98349303,289.05852999999996,-131.16008,6.3341007000000005,FOL
130274235000000.0,1.6112083196640015,2.704423427581787,6.020783424377441,-6.5681562423706055,2.3533377647399902,-0.98440933,0.8613200000000001,289.43847999999997,-132.28146,6.508937400000001,FOL
130274235000000.0,1.6162053346633911,2.7339231967926025,5.615952491760254,-6.480204105377197,2.388449192047119,-0.8900306999999998,0.70188415,289.801,-133.37859,6.699623,FOL
130274240000000.0,1.621203064918518,2.7512733936309814,5.161716461181641,-6.469866752624512,2.4116787910461426,-0.53786683,0.61117065,290.0856,-134.4323,6.936192999999999,FOL
130274250000000.0,1.6262009143829346,2.752054214477539,4.681022644042969,-6.527869701385498,2.416872262954712,-0.010079277,0.42943826,290.28442,-135.53859,7.182901400000001,FOL
130274250000000.0,1.6311990022659302,2.734827756881714,4.1844482421875,-6.648318290710449,2.406618356704712,0.5546656,0.23732115,290.38525,-136.59604,7.488644,FOL
130274260000000.0,1.63619863986969,2.6960341930389404,3.6926231384277344,-6.815720081329346,2.3858911991119385,1.0916162,0.070554934,290.38599999999997,-137.88597,7.8059726,FOL
130274260000000.0,1.6411969661712646,2.634915351867676,3.2151896953582764,-7.020974636077881,2.3579347133636475,1.5060883,-0.040927973,290.27948,-139.10258000000002,8.190844,FOL
130274270000000.0,1.646193504333496,2.549741268157959,2.77002215385437,-7.238372802734375,2.3266825675964355,1.7379116000000001,-0.08216137400000001,290.12134,-140.51907,8.536251,FOL
130274280000000.0,1.6511919498443604,2.4397895336151123,2.3657217025756836,-7.454619884490967,2.2949960231781006,1.7486018,-0.02565634,289.93817,-141.8958,8.921041,FOL
130274280000000.0,1.656189203262329,2.311309814453125,2.0118601322174072,-7.6523261070251465,2.2661375999450684,1.5705346000000002,0.10170906,289.78012,-143.3766,9.197044,FOL
130274285000000.0,1.6611874103546143,2.168442487716675,1.7146645784378052,-7.819815158843994,2.240835428237915,1.2473868000000001,0.28344148,289.685,-144.83806,9.459188000000001,FOL
130274285000000.0,1.6661853790283203,2.027559757232666,1.4738961458206177,-7.956096649169922,2.220576763153076,0.8756753,0.50488013,289.6671,-146.2682,9.561276,FOL
130274290000000.0,1.6711839437484741,1.898754358291626,1.288604736328125,-8.060999870300293,2.207143545150757,0.5543602,0.74220127,289.7499,-147.71062,9.627563,FOL
130274290000000.0,1.676182746887207,1.794806718826294,1.1463061571121216,-8.14377498626709,2.198967695236206,0.29871312,0.95905846,289.9078,-149.01123,9.556117,FOL
130274300000000.0,1.68118155002594,1.7236849069595337,1.038139820098877,-8.210830688476562,2.196061849594116,0.10934488,1.1462886,290.15932999999995,-150.33899,9.449416000000001,FOL
130274310000000.0,1.6861789226531982,1.6857303380966187,0.9567538499832153,-8.272106170654297,2.1981778144836426,-0.007330383,1.2767084,290.44806,-151.51973999999998,9.324058,FOL
130274310000000.0,1.6911784410476685,1.6817317008972168,0.8958015441894531,-8.336606979370117,2.204136371612549,-0.105068825,1.3206906,290.78722999999997,-152.71294,9.164406,FOL
130274320000000.0,1.6961780786514282,1.705364465713501,0.8493238687515259,-8.416169166564941,2.212495803833008,-0.18112154,1.3286319,291.15533,-153.82867,9.114991999999999,FOL
130274320000000.0,1.7011768817901611,1.7513898611068726,0.8124187588691711,-8.520346641540527,2.2210607528686523,-0.18997909,1.3005321,291.52954,-154.94122,9.050899000000001,FOL
130274330000000.0,1.7061703205108643,1.8175727128982544,0.7845950722694397,-8.656366348266602,2.2292017936706543,-0.103847094,1.2580770000000001,291.9034,-156.02428999999998,9.118897,FOL
130274336000000.0,1.711164116859436,1.9022297859191895,0.7657736539840698,-8.839165687561035,2.234792947769165,-0.021991148999999998,1.2125676,292.27087,-157.08295,9.171119000000001,FOL
130274336000000.0,1.7161593437194824,2.0018417835235596,0.7573343515396118,-9.063344955444336,2.2393698692321777,0.20616703,1.1930199,292.6164,-158.15782,9.361671000000001,FOL
130274340000000.0,1.7211557626724243,2.113259792327881,0.7603288292884827,-9.32385540008545,2.2422380447387695,0.48838675,1.1582005,292.93234,-159.19633000000002,9.571785,FOL
130274340000000.0,1.7261501550674438,2.2362208366394043,0.7755717635154724,-9.605249404907227,2.243748903274536,0.7425067,1.1255191999999998,293.2306,-160.25471000000002,9.8688135,FOL
130274350000000.0,1.7311441898345947,2.3707172870635986,0.8038783669471741,-9.894938468933105,2.2461395263671875,0.93401295,1.1178834,293.50665,-161.29315,10.210078,FOL
130274360000000.0,1.7361394166946411,2.515742540359497,0.8442043662071228,-10.178546905517578,2.2510883808135986,1.0192287,1.1291844,293.76465,-162.3312,10.602508,FOL
130274360000000.0,1.741134524345398,2.670095682144165,0.8953645825386047,-10.440422058105469,2.259842872619629,1.0494665,1.1685851999999999,294.01883,-163.35564,11.01605,FOL
130274370000000.0,1.7461302280426025,2.8283133506774902,0.9533803462982178,-10.66964054107666,2.270702600479126,1.1001683,1.217149,294.2697,-164.34348,11.492359,FOL
130274370000000.0,1.75112783908844,2.984489917755127,1.01398503780365,-10.853979110717773,2.280186176300049,1.2015719999999999,1.2678508,294.52884,-165.31065,11.974352,FOL
130274380000000.0,1.7561272382736206,3.1359784603118896,1.0763163566589355,-10.989727020263672,2.2826857566833496,1.2965615,1.3451253,294.80325,-166.20287,12.520819,FOL
130274390000000.0,1.7611277103424072,3.2768428325653076,1.1386419534683228,-11.065947532653809,2.2766530513763428,1.3732251,1.4147638999999999,295.08633,-167.06186,13.071348,FOL
130274390000000.0,1.7661265134811401,3.4064135551452637,1.2003145217895508,-11.089349746704102,2.2626566886901855,1.3903292,1.5030339,295.3897,-167.83937,13.671448999999999,FOL
130274394000000.0,1.7711275815963745,3.5222651958465576,1.2599622011184692,-11.069108963012695,2.242065191268921,1.3790283,1.5971072,295.71299999999997,-168.56883,14.268229999999999,FOL
130274394000000.0,1.776126742362976,3.6263585090637207,1.3167706727981567,-11.020525932312012,2.216874122619629,1.357648,1.6954565,296.05566,-169.222,14.891248000000001,FOL
130274400000000.0,1.7811262607574463,3.722456455230713,1.368348479270935,-10.9796724319458,2.190502405166626,1.3564261999999998,1.7928895,296.4254,-169.85175,15.503423999999999,FOL
130274410000000.0,1.7861294746398926,3.812535285949707,1.4136621952056885,-10.959324836730957,2.163713216781616,1.3857478,1.8784106,296.81212999999997,-170.43296999999998,16.127066,FOL
130274410000000.0,1.7911317348480225,3.9037117958068848,1.4475854635238647,-11.01443099975586,2.1371796131134033,1.4782939,1.9642372,297.2245,-171.00628999999998,16.757032000000002,FOL
130274420000000.0,1.7961338758468628,3.9954657554626465,1.46914803981781,-11.143231391906738,2.112711191177368,1.5781703999999999,2.021964,297.64599999999996,-171.59091,17.371134,FOL
130274420000000.0,1.801135778427124,4.085866451263428,1.4728893041610718,-11.349791526794434,2.0913209915161133,1.724778,2.0561724,298.07996,-172.17422,18.010626000000002,FOL
130274430000000.0,1.8061352968215942,4.174365520477295,1.4587841033935547,-11.61997127532959,2.0721776485443115,1.9929477999999998,2.0390682,298.50237999999996,-172.81285,18.635006,FOL
130274440000000.0,1.8111371994018555,4.25827169418335,1.4221537113189697,-11.906952857971191,2.05218243598938,2.1911736,1.9459113000000001,298.9116,-173.43071,19.26006,FOL
130274440000000.0,1.8161368370056152,4.337828159332275,1.3645907640457153,-12.20931625366211,2.030778646469116,2.6422974999999997,1.87444,299.30197000000004,-174.1251,19.930618,FOL
130274445000000.0,1.821138858795166,4.413268566131592,1.2868093252182007,-12.526779174804688,2.0048673152923584,3.0601293999999997,1.7061466,299.63513,-174.75922,20.621885,FOL
130274445000000.0,1.8261539936065674,4.486607551574707,1.190187931060791,-12.858297348022461,1.9761210680007935,3.4025195,1.5393803999999998,299.9259,-175.37271,21.397551999999997,FOL
130274450000000.0,1.831154704093933,4.5789794921875,1.0925486087799072,-13.182509422302246,1.948060393333435,3.6792413999999996,1.4559973,300.1876,-175.95213,22.247989999999998,FOL
130274460000000.0,1.8361657857894897,4.690206527709961,0.9937143921852112,-13.500231742858887,1.9226996898651123,3.9364157,1.4349225,300.46157999999997,-176.64633,23.099216000000002,FOL
130274460000000.0,1.8411657810211182,4.805705547332764,0.897342324256897,-13.806121826171875,1.9013274908065796,4.192063,1.4257594,300.7199,-177.31441999999998,24.00319,FOL
130274470000000.0,1.8461638689041138,4.924602508544922,0.8012714982032776,-14.074986457824707,1.88480544090271,4.4095306,1.4110987,300.9932,-177.99557,25.00243,FOL
130274470000000.0,1.8511642217636108,5.040192604064941,0.6923961043357849,-14.133615493774414,1.8746168613433838,4.483140000000001,1.2999213,301.2448,-178.66446000000002,26.003989999999998,FOL
130274480000000.0,1.8561627864837646,5.156233787536621,0.5609682202339172,-14.003594398498535,1.8696428537368774,4.425413,0.9999863999999999,301.43143,-179.3156,27.022953,FOL
130274490000000.0,1.8611631393432617,5.308014392852783,0.303954541683197,-13.765844345092773,1.8683358430862427,4.283998,0.44990227,301.5133,-179.91664,28.010741999999997,FOL
130274490000000.0,1.8661659955978394,5.492719650268555,-0.06518437713384628,-13.42687702178955,1.8715585470199585,4.0915756000000005,-0.32284227,301.53522000000004,179.49428,29.212889,FOL
130274495000000.0,1.8711978197097778,5.698642730712891,-0.45597392320632935,-12.995871543884277,1.8806809186935425,3.7956111000000003,-1.2131783999999999,301.34918,178.99382,30.324690000000004,FOL
130274495000000.0,1.8762094974517822,5.916956901550293,-0.855547308921814,-12.4982271194458,1.8923935890197754,3.3493739999999996,-2.0809124,301.2699,178.26324,31.578938,FOL
130274500000000.0,1.88120698928833,6.115819454193115,-1.2046267986297607,-11.968244552612305,1.903693675994873,2.8710666000000002,-2.823419,300.9538,177.6533,32.733129999999996,FOL
130274510000000.0,1.8862048387527466,6.295840263366699,-1.5043094158172607,-11.404435157775879,1.9111685752868652,2.466063,-3.3695326,300.53317000000004,177.06635,33.9795,FOL
130274510000000.0,1.8912029266357422,6.4401421546936035,-1.7369283437728882,-10.83614730834961,1.912499189376831,2.1416936,-3.6786306000000004,299.94872999999995,176.5918,35.114975,FOL
130274520000000.0,1.8961988687515259,6.54927396774292,-1.9047112464904785,-10.266379356384277,1.9050343036651611,1.8768835,-3.8038578000000003,299.2426,176.22427,36.153778,FOL
130274520000000.0,1.9011988639831543,6.620410919189453,-2.011704683303833,-9.7196044921875,1.8845709562301636,1.6557503,-3.8117989999999997,298.39557,176.03558,37.206924,FOL
130274530000000.0,1.9061940908432007,6.6561737060546875,-2.0629680156707764,-9.197421073913574,1.8496044874191284,1.5399913,-3.7427714,297.5338,175.91718,38.213356,FOL
130274530000000.0,1.9111928939819336,6.663827896118164,-2.06278920173645,-8.721023559570312,1.8005496263504028,1.3295482,-3.6829066,296.51782000000003,176.01315,39.141056,FOL
130274540000000.0,1.9161874055862427,6.646168231964111,-2.0155208110809326,-8.289495468139648,1.7456611394882202,1.1294898000000002,-3.506061,295.568,176.11893999999998,40.031544,FOL
130274545000000.0,1.921186923980713,6.5924248695373535,-1.9289485216140747,-7.9107465744018555,1.6768344640731812,0.93828905,-3.261715,294.50775,176.44771,40.815315000000005,FOL
130274545000000.0,1.9261834621429443,6.504018306732178,-1.8072835206985474,-7.582446575164795,1.595089077949524,0.70554936,-2.9486465,293.52988,176.76685,41.520634,FOL
130274550000000.0,1.9311825037002563,6.375507831573486,-1.665982723236084,-7.3093180656433105,1.504027247428894,0.43768495,-2.601675,292.48382999999995,177.2357,42.07035,FOL
130274550000000.0,1.936184048652649,6.207347393035889,-1.509721279144287,-7.090167999267578,1.4058870077133179,0.17989981,-2.2635612000000003,291.54537999999997,177.70505,42.544106,FOL
130274560000000.0,1.9412143230438232,6.008284091949463,-1.345603346824646,-6.937099933624268,1.304887056350708,-0.06688975,-1.9471330000000002,290.5619,178.27559,42.78244,FOL
130274570000000.0,1.9462110996246338,5.790407657623291,-1.1790871620178223,-6.837658882141113,1.2044841051101685,-0.2929099,-1.6624697,289.69415,178.81828000000002,42.941277,FOL
130274570000000.0,1.9512091875076294,5.575160980224609,-1.0055568218231201,-6.798036098480225,1.1092854738235474,-0.4654793,-1.3817772,288.77637000000004,179.37861999999998,42.772366,FOL
130274580000000.0,1.9562066793441772,5.370631694793701,-0.8244401812553406,-6.815550327301025,1.0235713720321655,-0.5308419,-1.0931433000000002,287.98193,179.87923,42.562614,FOL
130274580000000.0,1.9612046480178833,5.2037811279296875,-0.6378213763237,-6.88596773147583,0.949701189994812,-0.4370741,-0.75319684,287.29822,-179.66743,42.187767,FOL
130274590000000.0,1.9662035703659058,5.083127498626709,-0.4466405510902405,-7.0059990882873535,0.8865391612052917,-0.16310102,-0.37262779999999995,286.75183,-179.29641999999998,41.845856,FOL
130274596000000.0,1.971201777458191,5.011153697967529,-0.2654886841773987,-7.158058166503906,0.8327007293701172,0.24220806,-0.035430185,286.2768,-178.96135,41.471737,FOL
130274596000000.0,1.9762002229690552,4.987109661102295,-0.09855235368013382,-7.335717678070068,0.7870867252349854,0.6792821,0.22724187,285.92316,-178.71161999999998,41.18956,FOL
130274600000000.0,1.9811979532241821,5.026317119598389,0.04479653760790825,-7.521467685699463,0.7502029538154602,1.0873401000000003,0.44501534,285.623,-178.50775,40.99903,FOL
130274600000000.0,1.9861973524093628,5.132475852966309,0.16200023889541626,-7.709181308746338,0.7200540900230408,1.4456125,0.5476406999999999,285.3777,-178.34937,40.924244,FOL
130274610000000.0,1.991195797920227,5.341699600219727,0.2509276866912842,-7.875529766082764,0.6952720284461975,1.6358972,0.45875978,285.14617999999996,-178.24942,40.959053000000004,FOL
130274620000000.0,1.9961938858032227,5.6787238121032715,0.31029367446899414,-8.004413604736328,0.6756195425987244,1.5916093999999998,0.16615535,284.87557999999996,-178.15073,41.028217,FOL
130274620000000.0,2.001192331314087,6.105319976806641,0.35411015152931213,-8.076089859008789,0.6612953543663025,1.3854423999999999,-0.26908615,284.52966000000004,-178.12183000000002,41.246883000000004,FOL
130274630000000.0,2.0061895847320557,6.60127592086792,0.3890848755836487,-8.083884239196777,0.653415322303772,1.2470814,-0.73823065,284.06012000000004,-178.05008,41.46307,FOL
130274630000000.0,2.011211633682251,7.137517929077148,0.4267715811729431,-8.010780334472656,0.6487549543380737,0.75594574,-1.097114,283.6122,-177.98481999999998,41.913906,FOL
130274640000000.0,2.016209363937378,7.6872687339782715,0.470912903547287,-7.868607044219971,0.6429756283760071,0.55955255,-1.1991285,283.0815,-177.88541999999998,42.385433,FOL
130274650000000.0,2.021207571029663,8.229167938232422,0.5183117389678955,-7.680577278137207,0.6330117583274841,0.21319197,-1.1679743999999999,282.52954,-177.74456999999998,43.007385,FOL
130274650000000.0,2.0262057781219482,8.748347282409668,0.5665210485458374,-7.465610504150391,0.6105895638465881,-0.0033597588,-0.89919364,282.0368,-177.59595,43.580996999999996,FOL
130274654000000.0,2.031203508377075,9.204389572143555,0.6013419032096863,-7.265866756439209,0.5730198621749878,-0.03634648,-0.5204572000000001,281.57547,-177.40556,44.34191,FOL
130274654000000.0,2.0362043380737305,9.575345039367676,0.6148974895477295,-7.104860782623291,0.5216795802116394,0.12644911,-0.21471913,281.19852000000003,-177.21483999999998,45.066520000000004,FOL
130274660000000.0,2.0412025451660156,9.836228370666504,0.6147022843360901,-6.979068756103516,0.46254393458366394,0.34941490000000003,-0.03970624,280.90927,-177.02434,45.852627000000005,FOL
130274670000000.0,2.0462005138397217,9.972841262817383,0.605172872543335,-6.886246681213379,0.40452513098716736,0.55833083,0.03726278,280.7036,-176.85732,46.65436,FOL
130274670000000.0,2.0511982440948486,9.996045112609863,0.59510737657547,-6.8135600090026855,0.3520399034023285,0.70738196,0.06047566,280.60593,-176.7624,47.319176,FOL
130274680000000.0,2.0561957359313965,9.914905548095703,0.590310275554657,-6.752218723297119,0.3078697919845581,0.7666359,0.062002823,280.52847,-176.68732,48.000683,FOL
130274680000000.0,2.0611941814422607,9.750524520874023,0.5980620384216309,-6.694159507751465,0.2740132510662079,0.71929383,0.052839845,280.47455,-176.66599,48.42494,FOL
130274690000000.0,2.066192626953125,9.521162033081055,0.6239614486694336,-6.6329240798950195,0.25042521953582764,0.5479460999999999,0.06994407,280.4353,-176.67336,48.823704,FOL
130274700000000.0,2.0711917877197266,9.248781204223633,0.6730851531028748,-6.570847511291504,0.23672126233577728,0.28955013,0.11942416,280.34412000000003,-176.71379,48.952873,FOL
130274700000000.0,2.076190710067749,8.95358943939209,0.7498558759689331,-6.510061264038086,0.2311863750219345,0.019547688,0.2144137,280.28700000000003,-176.79245,49.028442,FOL
130274705000000.0,2.081191301345825,8.656950950622559,0.8521885871887207,-6.459170341491699,0.2320830225944519,-0.19425514,0.34910949999999996,280.1125,-176.89665,48.898132000000004,FOL
130274705000000.0,2.0861947536468506,8.379973411560059,0.9779578447341919,-6.426640510559082,0.23543860018253326,-0.29718593,0.4550946,279.9746,-177.02498,48.726063,FOL
130274710000000.0,2.0911903381347656,8.132216453552246,1.115631341934204,-6.414357662200928,0.23685738444328308,-0.23823744,0.50885075,279.8303,-177.04405,48.503582,FOL
130274720000000.0,2.096189260482788,7.933950901031494,1.2473019361495972,-6.428877830505371,0.23458699882030487,-0.07391469,0.49938235,279.70333999999997,-177.07169,48.285107,FOL
130274720000000.0,2.1011838912963867,7.786200523376465,1.3694713115692139,-6.458904266357422,0.22805899381637573,0.025045475,0.42577308,279.45605,-176.99528999999998,48.036148,FOL
130274730000000.0,2.1061806678771973,7.694260597229004,1.4768478870391846,-6.490091323852539,0.21691429615020752,0.18570304,0.3817908,279.2095,-176.90547,47.854576,FOL
130274730000000.0,2.1111748218536377,7.656425476074219,1.5725951194763184,-6.5161895751953125,0.2046869546175003,0.27855456,0.26939157,278.8811,-176.7964,47.690483,FOL
130274740000000.0,2.1161723136901855,7.674953937530518,1.6614620685577393,-6.525659561157227,0.1880815476179123,0.28802297,0.17989981,278.5418,-176.65135,47.550266,FOL
130274750000000.0,2.1211674213409424,7.74257755279541,1.7448830604553223,-6.518604755401611,0.1685521900653839,0.2312125,0.11942416,278.13272,-176.5574,47.501003000000004,FOL
130274750000000.0,2.1261658668518066,7.850879192352295,1.825403094291687,-6.493131637573242,0.14534316956996918,0.13133603,0.08063421400000001,277.6995,-176.42549,47.441803,FOL
130274755000000.0,2.1311631202697754,7.983338356018066,1.8999465703964233,-6.455981254577637,0.12037599086761475,-0.009468411,0.06658431,277.35742,-176.23564,47.51716,FOL
130274755000000.0,2.1361639499664307,8.109253883361816,1.9617632627487183,-6.419523239135742,0.09683705121278763,-0.15485434,0.036651913,276.99887,-176.03177,47.558693,FOL
130274760000000.0,2.1411609649658203,8.219576835632324,2.011887788772583,-6.3860182762146,0.07946832478046417,-0.2910773,-0.03726278,276.64716,-175.80486000000002,47.694206,FOL
130274770000000.0,2.1461594104766846,8.29384708404541,2.0510904788970947,-6.360428333282471,0.0724172592163086,-0.37934732,-0.1151481,276.28995,-175.59278999999998,47.796825,FOL
130274770000000.0,2.1511573791503906,8.333966255187988,2.0798747539520264,-6.341978549957275,0.07725004851818085,-0.37568212,-0.15241088,275.95288,-175.4365,47.89389,FOL
130274780000000.0,2.156156539916992,8.340169906616211,2.097890615463257,-6.328314781188965,0.09206373989582062,-0.29901853,-0.16096300000000002,275.59958,-175.30272,47.982758000000004,FOL
130274780000000.0,2.1611554622650146,8.316574096679688,2.106649160385132,-6.318458080291748,0.1127779558300972,-0.17959438,-0.16065755,275.25116,-175.2302,48.002590000000005,FOL
130274790000000.0,2.1661534309387207,8.271197319030762,2.1093037128448486,-6.310107231140137,0.13580650091171265,-0.0290161,-0.1518,274.89883,-175.18303,48.05304,FOL
130274790000000.0,2.171152353286743,8.206560134887695,2.1075034141540527,-6.303339004516602,0.156907856464386,0.11759156,-0.14049901,274.54877,-175.18427,48.067158,FOL
130274800000000.0,2.176151752471924,8.130962371826172,2.1078944206237793,-6.298764705657959,0.17289671301841736,0.2312125,-0.09712757,274.2112,-175.19247,48.116108000000004,FOL
130274805000000.0,2.181149959564209,8.047993659973145,2.112356424331665,-6.296619892120361,0.18166904151439667,0.29657507,-0.024129177,273.8734,-175.23245,48.149772999999996,FOL
130274805000000.0,2.186149835586548,7.968200206756592,2.1277952194213867,-6.298078536987305,0.1803865134716034,0.27275133,0.06841691,273.5633,-175.25616000000002,48.19149,FOL
130274810000000.0,2.191148519515991,7.893734931945801,2.1552422046661377,-6.3014373779296875,0.17096854746341705,0.18448131,0.17073683,273.2552,-175.2819,48.199123,FOL
130274810000000.0,2.1961476802825928,7.836103439331055,2.202921152114868,-6.29906702041626,0.15461373329162598,0.06627888,0.27458394,272.99268,-175.29248,48.193915999999994,FOL
130274820000000.0,2.2011466026306152,7.792323589324951,2.2663238048553467,-6.290358066558838,0.13354739546775818,-0.0015271631,0.35338554,272.7143,-175.26096,48.168137,FOL
130274830000000.0,2.206146240234375,7.748858451843262,2.3235721588134766,-6.269750595092773,0.11181322485208511,-0.14599679999999998,0.38484509999999994,272.47192,-175.22627,48.089890000000004,FOL
130274830000000.0,2.211143970489502,7.704845428466797,2.3740298748016357,-6.2388811111450195,0.09076528996229172,-0.27550024,0.43554693,272.23602,-175.09543,48.031653999999996,FOL
130274840000000.0,2.2161426544189453,7.652795314788818,2.409438371658325,-6.2057013511657715,0.06947175413370132,-0.36865717,0.44257188,272.00217000000004,-174.95361,47.943670000000004,FOL
130274840000000.0,2.221151351928711,7.59299373626709,2.4301681518554688,-6.171550273895264,0.04877585917711258,-0.42119157,0.40133846,271.7945,-174.81364,47.859196000000004,FOL
130274850000000.0,2.2261505126953125,7.529135704040527,2.437721014022827,-6.153222560882568,0.028336483985185623,-0.39522982,0.3136793,271.572,-174.6606,47.771053,FOL
130274856000000.0,2.231170177459717,7.4618425369262695,2.4324092864990234,-6.151543617248535,0.008546890690922737,-0.2941316,0.1908954,271.35422,-174.53813,47.67686,FOL
130274856000000.0,2.2361695766448975,7.406724452972412,2.4282615184783936,-6.164268493652344,-0.0073720780201256275,-0.10598512,0.06963864,271.09415,-174.40688,47.61357,FOL
130274860000000.0,2.2411673069000244,7.363731861114502,2.4252772331237793,-6.191628932952881,-0.018877942115068436,0.13591751,-0.031154128,270.79425,-174.32681000000002,47.54249,FOL
130274860000000.0,2.2461657524108887,7.3483099937438965,2.430818557739258,-6.217682838439941,-0.024073554202914238,0.3839288,-0.10262536,270.4461,-174.2444,47.524387,FOL
130274870000000.0,2.2511653900146484,7.362004280090332,2.4458212852478027,-6.2396650314331055,-0.024043964222073555,0.5873469,-0.14660765,270.05765,-174.15565,47.558784,FOL
130274880000000.0,2.2561659812927246,7.408872127532959,2.4697461128234863,-6.248882293701172,-0.01890486292541027,0.68477994,-0.17256944,269.6312,-174.08661,47.609802,FOL
130274880000000.0,2.2611608505249023,7.488183498382568,2.501879930496216,-6.243382453918457,-0.010474898852407932,0.68508536,-0.17348573,269.19415,-174.0234,47.686756,FOL
130274890000000.0,2.2661969661712646,7.597444534301758,2.54105281829834,-6.225388526916504,0.00022412628459278494,0.6010914,-0.15790866,268.76592999999997,-173.91634,47.835117,FOL
130274890000000.0,2.271190643310547,7.724435806274414,2.584026336669922,-6.199848175048828,0.01137844379991293,0.43768495,-0.12583824,268.3521,-173.81938,47.956447999999995,FOL
130274900000000.0,2.2761895656585693,7.851156711578369,2.6259005069732666,-6.175041198730469,0.022035980597138405,0.2171626,-0.074830994,267.9538,-173.68964,48.14472,FOL
130274910000000.0,2.281184196472168,7.97037935256958,2.6647982597351074,-6.154038906097412,0.030595475807785988,-0.023823743999999997,-0.016187929,267.5884,-173.56843999999998,48.277409999999996,FOL
130274910000000.0,2.2861874103546143,8.062826156616211,2.6964094638824463,-6.144668102264404,0.037282682955265045,-0.2415972,0.047036625,267.24307000000005,-173.43658,48.43289,FOL
130274914000000.0,2.2911837100982666,8.124286651611328,2.7198832035064697,-6.148454189300537,0.04286475479602814,-0.41508293,0.10659598599999999,266.94046000000003,-173.31705,48.531464,FOL
130274914000000.0,2.296182632446289,8.152563095092773,2.73386549949646,-6.158714294433594,0.047954011708498,-0.50823987,0.16920967,266.68314,-173.21693,48.586544,FOL
130274920000000.0,2.3011839389801025,8.148370742797852,2.7382924556732178,-6.1727070808410645,0.05226745083928108,-0.5314528000000001,0.22021692,266.45865,-173.1265,48.61377,FOL
130274930000000.0,2.3061814308166504,8.116081237792969,2.7320845127105713,-6.183002948760986,0.05560225620865822,-0.52687126,0.2443461,266.27808,-173.07126,48.539314000000005,FOL
130274930000000.0,2.31117844581604,8.057731628417969,2.7148985862731934,-6.186604022979736,0.05822218954563141,-0.49174652,0.2724459,266.12244,-173.02812,48.471745,FOL
130274940000000.0,2.316178321838379,7.9775471687316895,2.686443328857422,-6.184604167938232,0.05992118641734123,-0.4266894,0.27122417,265.97784,-173.01523999999998,48.340897,FOL
130274940000000.0,2.3211781978607178,7.878931045532227,2.6470041275024414,-6.177863597869873,0.058941539376974106,-0.33108896,0.25137106,265.83263999999997,-172.99573,48.232502000000004,FOL
130274950000000.0,2.3261773586273193,7.770415782928467,2.5994601249694824,-6.171379089355469,0.056516584008932114,-0.21899518,0.19120082,265.677,-173.01097,48.104240000000004,FOL
130274960000000.0,2.331176519393921,7.657064437866211,2.545600652694702,-6.1680216789245605,0.05278845503926277,-0.09101892,0.12980886,265.50415,-173.01115,48.00933,FOL
130274960000000.0,2.336209297180176,7.550485610961914,2.488516330718994,-6.169257164001465,0.04750105366110802,0.036957346,0.08460484,265.30936,-173.04872,47.913036,FOL
130274965000000.0,2.341207265853882,7.455556392669678,2.4313788414001465,-6.1744065284729,0.04078631103038788,0.18906279,0.040927973,265.0802,-173.06566999999998,47.85841,FOL
130274965000000.0,2.346204996109009,7.380285263061523,2.3772854804992676,-6.182799816131592,0.033696938306093216,0.31612277,0.0070249503,264.8907,-173.0884,47.81012,FOL
130274970000000.0,2.351207971572876,7.329678535461426,2.328672170639038,-6.19359016418457,0.026334282010793686,0.42058071,-0.021991148999999998,264.6769,-173.09496000000001,47.796425,FOL
130274980000000.0,2.356205701828003,7.3016357421875,2.2851476669311523,-6.206541538238525,0.019656993448734283,0.46944994,-0.03604105,264.46484,-173.11522,47.799957,FOL
130274980000000.0,2.361203908920288,7.295363426208496,2.246492385864258,-6.221595287322998,0.013937818817794323,0.44532076,-0.03268129,264.24847,-173.12951999999999,47.810284,FOL
130274990000000.0,2.366199493408203,7.313435077667236,2.2136776447296143,-6.237892150878906,0.01098131388425827,0.36621370000000003,-0.018020526000000002,264.03452000000004,-173.14876999999998,47.81693,FOL
130274990000000.0,2.3711955547332764,7.361734390258789,2.188631057739258,-6.254141330718994,0.011209956370294094,0.26083946,0.02443461,263.8404,-173.17677,47.80943,FOL
130275000000000.0,2.376192331314087,7.43356466293335,2.1691854000091553,-6.267452716827393,0.014047067612409592,0.11698069400000001,0.058643065,263.66525,-173.19751000000002,47.849613,FOL
130275010000000.0,2.3811888694763184,7.522464752197266,2.153264045715332,-6.275078773498535,0.020509326830506325,-0.011301007,0.099265605,263.51932,-173.24197,47.865105,FOL
130275010000000.0,2.3861913681030273,7.620903491973877,2.1390888690948486,-6.27633810043335,0.027701498940587044,-0.11636983,0.12064589,263.3903,-173.2666,47.908264,FOL
130275015000000.0,2.391188621520996,7.719809055328369,2.1246755123138428,-6.2708234786987305,0.03410344570875168,-0.19394971,0.13683382,263.28436,-173.30576000000002,47.9236,FOL
130275015000000.0,2.3961856365203857,7.812033176422119,2.1096932888031006,-6.25933837890625,0.0379667729139328,-0.21044308,0.14446963,263.193,-173.3315,47.98509,FOL
130275020000000.0,2.401184320449829,7.88847017288208,2.0937397480010986,-6.242902755737305,0.039345383644104004,-0.22907446,0.14874569,263.11343,-173.35756999999998,48.023445,FOL
130275030000000.0,2.406186580657959,7.944787979125977,2.076350688934326,-6.2248616218566895,0.03881118446588516,-0.22296582,0.15027285,263.0406,-173.37921,48.09365,FOL
130275030000000.0,2.4111835956573486,7.975656032562256,2.0569918155670166,-6.209591865539551,0.036824215203523636,-0.18539760000000002,0.13225232,262.961,-173.39046000000002,48.165054,FOL
130275040000000.0,2.416179895401001,7.982083320617676,2.0357232093811035,-6.196974277496338,0.03377116844058037,-0.11698069400000001,0.10781772,262.87994,-173.3967,48.235306,FOL
130275040000000.0,2.421177625656128,7.965184688568115,2.012622594833374,-6.186882972717285,0.03135287016630173,-0.054061572999999995,0.09040806,262.79254,-173.40106,48.312614,FOL
130275050000000.0,2.4261748790740967,7.927492618560791,1.9869389533996582,-6.180194854736328,0.02948666177690029,0.01863139,0.06078109,262.68453999999997,-173.39331,48.408295,FOL
130275050000000.0,2.4311718940734863,7.8734307289123535,1.956252932548523,-6.179744243621826,0.027719907462596893,0.076358154,0.03390302,262.617754596211,-173.38560360917302,48.4683103220339,FOL
130275060000000.0,2.436171054840088,7.80552864074707,1.9206675291061401,-6.184703826904297,0.026568183675408363,0.13286320000000001,0.0030543262,262.5503,-173.37781999999999,48.528927,FOL
130275065000000.0,2.441169261932373,7.733057498931885,1.880070447921753,-6.192213535308838,0.02461513876914978,0.16646078,-0.022907447,262.4203,-173.37936000000002,48.52901,FOL
130275065000000.0,2.4461669921875,7.658168792724609,1.8353047370910645,-6.201279640197754,0.021187273785471916,0.20555615,-0.046120327,262.26507999999995,-173.3993,48.49722,FOL
130275070000000.0,2.4511682987213135,7.589321136474609,1.7890809774398804,-6.20806884765625,0.01572836935520172,0.20769419,-0.06078109,262.10495,-173.4085,48.464012,FOL
130275070000000.0,2.456167221069336,7.5277791023254395,1.7420411109924316,-6.211832523345947,0.008900096639990807,0.20830505,-0.08735373,261.96152,-173.429,48.398144,FOL
130275080000000.0,2.461167097091675,7.480907440185547,1.6964726448059082,-6.2084059715271,0.0020125105511397123,0.19028452,-0.10079276599999999,261.82095,-173.44415,48.32886,FOL
130275090000000.0,2.466165781021118,7.448300838470459,1.6527345180511475,-6.198542594909668,-0.004312689416110516,0.16249016,-0.10415252,261.6955,-173.46288,48.270374,FOL
130275090000000.0,2.4711661338806152,7.431323528289795,1.6125046014785767,-6.183789253234863,-0.009584598243236542,0.1255328,-0.11453723,261.5654,-173.47633000000002,48.204273,FOL
130275100000000.0,2.476182460784912,7.429983139038086,1.5756511688232422,-6.164588451385498,-0.012622270733118057,0.073303826,-0.12461651,261.4521,-173.49178999999998,48.182323,FOL
130275100000000.0,2.4811816215515137,7.442967891693115,1.54177987575531,-6.146920204162598,-0.01315411925315857,0.024129177,-0.12461651,261.3426,-173.51036000000002,48.15084,FOL
130275110000000.0,2.4861807823181152,7.469318866729736,1.5109951496124268,-6.131898880004883,-0.01242054533213377,-0.010690141499999998,-0.10842858,261.24062999999995,-173.52611000000002,48.1653,FOL
130275116000000.0,2.4911797046661377,7.5011162757873535,1.4843884706497192,-6.126812934875488,-0.009675119072198868,-0.029321532999999997,-0.093462385,261.14172,-173.55219,48.169937,FOL
130275116000000.0,2.4961774349212646,7.537672996520996,1.4626888036727905,-6.131597995758057,-0.006034253630787134,-0.039095376,-0.08216137400000001,261.05426,-173.57886000000002,48.200672,FOL
130275120000000.0,2.5011796951293945,7.576106548309326,1.4528549909591675,-6.149642467498779,-0.0020014357287436724,-0.048258353,-0.07666359,260.97263,-173.61227,48.225986,FOL
130275120000000.0,2.5061755180358887,7.615850448608398,1.4536982774734497,-6.178365707397461,0.002255950588732958,-0.06291912,-0.05375614,260.9007,-173.64893999999998,48.239468,FOL
130275130000000.0,2.5111753940582275,7.653220176696777,1.463463544845581,-6.201715469360352,0.0059609017334878445,-0.09437868,-0.033292156,260.83252000000005,-173.68457,48.24525,FOL
130275140000000.0,2.516176462173462,7.68805456161499,1.481259822845459,-6.219801902770996,0.008426656015217304,-0.12736541,-0.013439035,260.73224,-173.6908,48.21484,LYI
130275140000000.0,2.5211758613586426,7.717016220092773,1.502625584602356,-6.230398654937744,0.009393705986440182,-0.17165314,0.004276057,260.64374,-173.69801,48.173893,LYI
130275150000000.0,2.526181697845459,7.740204811096191,1.5272440910339355,-6.233676910400391,0.009088417515158653,-0.18631389999999998,0.01038471,260.5207,-173.66856,48.139070000000004,LYI
130275150000000.0,2.5311808586120605,7.757054805755615,1.551478385925293,-6.230053901672363,0.0075134881772100925,-0.17654006,0.01863139,260.40884,-173.63863,48.100567,LYI
130275160000000.0,2.536181688308716,7.767741680145264,1.5753785371780396,-6.2196831703186035,0.004655193537473679,-0.13011430000000002,0.021991148999999998,260.27448,-173.58438,48.073963,LYI
130275170000000.0,2.5411808490753174,7.7725725173950195,1.59442138671875,-6.20534610748291,0.0012167450040578842,-0.0720821,0.014966198,260.13937000000004,-173.52826000000002,48.054047,LYI
130275170000000.0,2.546175003051758,7.771925449371338,1.6084718704223633,-6.187547206878662,-0.002543057082220912,-0.027794369,0.018020526000000002,260.00928,-173.47191999999998,48.044388,LYI
130275175000000.0,2.551179885864258,7.765678405761719,1.6148862838745117,-6.169673442840576,-0.0052235121838748455,0.045814894,0.02321288,259.86426,-173.40962,48.0649,LYI
130275175000000.0,2.556178569793701,7.754446983337402,1.6141226291656494,-6.15224552154541,-0.0068984185345470905,0.10934488,0.031154128,259.72083,-173.34781,48.094837,LYI
130275180000000.0,2.561178207397461,7.741043567657471,1.6058565378189087,-6.138258457183838,-0.007133044768124819,0.14263703,0.029932396,259.58835,-173.30278,48.136448,LYI
130275190000000.0,2.566173791885376,7.7258710861206055,1.590579628944397,-6.127748966217041,-0.006671518553048372,0.14049901,0.03848451,259.4626,-173.2628,48.185482,LYI
130275190000000.0,2.5711731910705566,7.7109904289245605,1.5708446502685547,-6.122506141662598,-0.005550939589738846,0.118507855,0.038179077,259.35693,-173.25037,48.234596,LYI
130275200000000.0,2.576169490814209,7.696660995483398,1.547329068183899,-6.12237548828125,-0.004555188585072756,0.09621128,0.02565634,259.2511,-173.23672,48.281273,LYI
130275200000000.0,2.581169366836548,7.68425178527832,1.522864818572998,-6.129278182983398,-0.0025381988380104303,0.06169739,0.028405233999999998,259.1877,-173.26178000000002,48.307453,LYI
130275210000000.0,2.586171865463257,7.674010276794434,1.4981980323791504,-6.143344879150391,-0.00022176624042913318,0.03634648,0.019242255,259.11597,-173.27823,48.327797,LYI
130275220000000.0,2.5912086963653564,7.666260242462158,1.4751800298690796,-6.162741661071777,0.002215377287939191,-0.0061086523,0.009468411,259.07097999999996,-173.31961,48.322359999999996,LYI
130275220000000.0,2.596204996109009,7.660447597503662,1.4540421962738037,-6.185243606567383,0.004457529168576002,-0.027488936000000002,-0.0027488936,259.02213,-173.3575,48.315033,LYI
130275225000000.0,2.6012039184570312,7.656368255615234,1.4365553855895996,-6.207579135894775,0.006336030550301075,-0.06261369,-0.010690141499999998,258.98825,-173.40176,48.273163000000004,LYI
130275225000000.0,2.6062002182006836,7.65377950668335,1.4230566024780273,-6.228469371795654,0.007365663070231676,-0.08277224,-0.018020526000000002,258.95038,-173.44005,48.229946000000005,LYI
130275230000000.0,2.6111984252929688,7.651442527770996,1.4143062829971313,-6.244699954986572,0.007526556495577097,-0.09010262,-0.036957346,258.90454,-173.47165,48.171387,LYI
130275240000000.0,2.6161978244781494,7.648976802825928,1.410327434539795,-6.255506992340088,0.00588836707174778,-0.08216137400000001,-0.040317107000000005,258.86285,-173.4976,48.113640000000004,LYI
130275240000000.0,2.6211981773376465,7.645828723907471,1.4125173091888428,-6.263657093048096,0.004435145296156406,-0.06414085,-0.042455133,258.78857,-173.51543,48.067875,LYI
130275250000000.0,2.6262035369873047,7.6418304443359375,1.4212077856063843,-6.270100116729736,0.00289659621194005,-0.044593163,-0.029626964,258.71942,-173.52754,48.026688,LYI
130275250000000.0,2.63120174407959,7.637118339538574,1.4348065853118896,-6.274223804473877,0.0013749311910942197,-0.0012217305,-0.026267206,258.62427,-173.51852,48.007412,LYI
130275260000000.0,2.6362009048461914,7.631721019744873,1.452829360961914,-6.275787830352783,0.0004064030363224447,0.043982297000000004,-0.01740966,258.53656,-173.5144,47.995644,LYI
130275270000000.0,2.6411993503570557,7.62516975402832,1.4737894535064697,-6.27557373046875,-0.00011985312448814511,0.10231992599999999,0.0015271631,258.4308,-173.48373,47.996433,LYI
130275270000000.0,2.6461970806121826,7.617044925689697,1.4963793754577637,-6.274272441864014,0.0008306205272674561,0.15974127,0.003970624,258.31995,-173.45713999999998,48.009262,LYI
130275275000000.0,2.651197671890259,7.608191967010498,1.5197107791900635,-6.271326541900635,0.002837300533428788,0.19242255,0.006414085,258.19028,-173.41293000000002,48.033577,LYI
130275275000000.0,2.656195640563965,7.599067687988281,1.5432853698730469,-6.266555309295654,0.0053555783815681934,0.19853121,-0.0021380284,258.05637,-173.37073,48.065086,LYI
130275280000000.0,2.661189317703247,7.589991092681885,1.5654171705245972,-6.260666847229004,0.008130306378006935,0.17318029999999998,-0.008552114,257.9125,-173.32387,48.089659999999995,LYI
130275280000000.0,2.6661882400512695,7.581141471862793,1.5850855112075806,-6.254065036773682,0.010789716616272926,0.118202426,-0.013439035,257.76926000000003,-173.27687,48.106083,LYI
130275290000000.0,2.6711857318878174,7.573556423187256,1.601258635520935,-6.248004913330078,0.012753969058394432,0.04520403,-0.014966198,257.62326,-173.22113000000002,48.1154,LYI
130275300000000.0,2.6761841773986816,7.5678935050964355,1.6132816076278687,-6.243279457092285,0.01438565831631422,-0.04337143,-0.029321532999999997,257.47702000000004,-173.16347,48.10325,LYI
130275300000000.0,2.681182622909546,7.563620567321777,1.6215014457702637,-6.240262508392334,0.014660757035017014,-0.116675265,-0.033292156,257.3504,-173.10599,48.073177,LYI
130275310000000.0,2.6861815452575684,7.56034517288208,1.626203179359436,-6.239202976226807,0.01373294834047556,-0.19272798,-0.043676864,257.2238,-173.04425,48.016987,LYI
130275310000000.0,2.6911799907684326,7.556839466094971,1.6289278268814087,-6.239825248718262,0.011715170927345753,-0.21868975,-0.04276056599999999,257.11505,-172.99452,47.96321,LYI
130275320000000.0,2.696178674697876,7.552263259887695,1.630752682685852,-6.2419233322143555,0.009804926812648773,-0.26083946,-0.046120327,257.00872999999996,-172.94221000000002,47.88435,LYI
130275326000000.0,2.7011771202087402,7.547002792358398,1.6343072652816772,-6.2454328536987305,0.0068245152942836285,-0.27519479999999996,-0.04337143,256.92107999999996,-172.89622,47.806866,LYI
130275326000000.0,2.7061703205108643,7.541377544403076,1.6415424346923828,-6.250260353088379,0.0037750552874058485,-0.24190263,-0.044593163,256.83092999999997,-172.8526,47.73276,LYI
130275330000000.0,2.71116304397583,7.536612510681152,1.6528551578521729,-6.255826950073242,0.0009694962645880878,-0.17104226,-0.043676864,256.7498,-172.80973999999998,47.657565999999996,LYI
130275330000000.0,2.7161569595336914,7.537588119506836,1.6702070236206055,-6.259941577911377,-0.0012145036598667502,-0.061391957000000004,-0.04062254,256.66412,-172.76826,47.604973,LYI
130275340000000.0,2.721151113510132,7.545162200927734,1.6927306652069092,-6.260865688323975,-0.0029402878135442734,0.049480084,-0.04153884,256.5469,-172.71185,47.569332,LYI
130275350000000.0,2.7261462211608887,7.560568332672119,1.7194586992263794,-6.256335735321045,-0.004085779655724764,0.16279559,-0.04276056599999999,256.42334,-172.65900000000002,47.566174,LYI
130275350000000.0,2.731140613555908,7.583157062530518,1.7484264373779297,-6.245725631713867,-0.003151833778247237,0.24129178,-0.037873644,256.27826,-172.59247,47.59191,LYI
130275360000000.0,2.7361373901367188,7.612396717071533,1.777370572090149,-6.228079795837402,-0.0014049611054360867,0.27122417,-0.029932396,256.13068,-172.52513000000002,47.634609999999995,LYI
130275360000000.0,2.7411298751831055,7.644510746002197,1.8048357963562012,-6.205866813659668,0.0021532659884542227,0.25686884,-0.021991148999999998,255.95807000000002,-172.45248,47.714092,LYI
130275370000000.0,2.7461259365081787,7.674656867980957,1.8287867307662964,-6.182018280029297,0.007279818877577782,0.20372356,-0.0070249503,255.79465,-172.38686,47.789173,LYI
130275380000000.0,2.7511203289031982,7.702165603637695,1.8485835790634155,-6.1596198081970215,0.0129633080214262,0.13072516,0.0015271631,255.628,-172.31985,47.88949,LYI
130275380000000.0,2.756118059158325,7.725943088531494,1.8630467653274536,-6.143197059631348,0.018685732036828995,0.048563786,0.005497787,255.47307999999998,-172.26067,47.970074,LYI
130275384000000.0,2.7611136436462402,7.745181083679199,1.8720910549163818,-6.132706642150879,0.02411947026848793,-0.025961772999999997,0.010690141499999998,255.3313,-172.21413,48.042133,LYI
130275384000000.0,2.7661123275756836,7.7580342292785645,1.8750386238098145,-6.128645420074463,0.02791260927915573,-0.08735373,0.021380282999999996,255.20135,-172.1667,48.093533,LYI
130275390000000.0,2.771108865737915,7.764273643493652,1.8732174634933472,-6.129002571105957,0.029940975829958916,-0.15943582,0.029321532999999997,255.10313,-172.13702,48.104645,LYI
130275400000000.0,2.7761082649230957,7.7627363204956055,1.8686697483062744,-6.130367755889893,0.030493948608636856,-0.20983220000000002,0.034513887,255.01315,-172.10536000000002,48.104618,LYI
130275400000000.0,2.7811059951782227,7.7542901039123535,1.8622384071350098,-6.1323041915893555,0.02903161570429802,-0.23060162,0.03726278,254.95709,-172.08917,48.068287,LYI
130275410000000.0,2.786107301712036,7.7398858070373535,1.855380892753601,-6.13400936126709,0.0266217403113842,-0.22937989,0.040317107000000005,254.90645,-172.07281,48.025406,LYI
130275410000000.0,2.7911057472229004,7.71998929977417,1.848137617111206,-6.135498523712158,0.02390080690383911,-0.22602014,0.04428773,254.87002999999999,-172.06116,47.95978,LYI
130275420000000.0,2.7961056232452393,7.694799900054932,1.8405179977416992,-6.136781215667725,0.021162105724215508,-0.20555615,0.03940081,254.8298,-172.04568,47.900696,LYI
130275430000000.0,2.801107168197632,7.665676593780518,1.8321815729141235,-6.138565540313721,0.018764685839414597,-0.17562376,0.03726278,254.78247000000002,-172.03394,47.852646,LYI
130275430000000.0,2.806105852127075,7.635439395904541,1.8223507404327393,-6.1424360275268555,0.015811381861567497,-0.1386664,0.031154128,254.72946000000002,-172.0166,47.81313,LYI
130275435000000.0,2.8111090660095215,7.605327129364014,1.8116497993469238,-6.149327754974365,0.012266709469258785,-0.09743301,0.026267206,254.67471,-172.00125,47.75741,LYI
130275435000000.0,2.8161120414733887,7.5797834396362305,1.8022600412368774,-6.162520885467529,0.009138825349509716,-0.015577064,0.022296581,254.6115,-171.98573000000002,47.72466,LYI
130275440000000.0,2.8211138248443604,7.559641361236572,1.79458749294281,-6.180922985076904,0.005689314566552639,0.06872234,0.020158553,254.5593,-171.97,47.691179999999996,LYI
130275450000000.0,2.8261168003082275,7.550848007202148,1.7912758588790894,-6.200188636779785,0.0018702078377828002,0.17623462,0.017715093,254.49669,-171.9538,47.687782,LYI
130275450000000.0,2.831118583679199,7.554125785827637,1.792388916015625,-6.218177795410156,-0.0017290909308940172,0.2574797,0.009468411,254.42715,-171.93839,47.686714,LYI
130275460000000.0,2.836122751235962,7.574581623077393,1.7990567684173584,-6.226787090301514,-0.0047784713096916676,0.3036,-0.0015271631,254.35016000000002,-171.92102,47.705273,LYI
130275460000000.0,2.8411245346069336,7.610154628753662,1.810935139656067,-6.225667476654053,-0.006802642252296209,0.29321529999999996,-0.008246681,254.25893,-171.89395,47.747128000000004,LYI
130275470000000.0,2.846125841140747,7.6564621925354,1.8279904127120972,-6.21096658706665,-0.0072051458992064,0.24678956,0.0061086523,254.17267,-171.87297,47.790473999999996,LYI
130275480000000.0,2.8511292934417725,7.708963394165039,1.8483128547668457,-6.186702251434326,-0.005421311594545841,0.16982053,0.02443461,254.067,-171.83803,47.879868,LYI
130275480000000.0,2.8561315536499023,7.74812650680542,1.8637878894805908,-6.169503211975098,-0.001649042242206633,0.06383542,0.0421497,253.9757,-171.81184,47.946144,LYI
130275485000000.0,2.8611316680908203,7.774416923522949,1.8745430707931519,-6.159059047698975,0.004249853547662497,-0.02687807,0.05222898,253.85897999999997,-171.77591,48.05695,LYI
130275485000000.0,2.866133689880371,7.786562919616699,1.879859447479248,-6.155659198760986,0.009980876930058002,-0.0842994,0.064751714,253.75898999999998,-171.74469,48.145977,LYI
130275490000000.0,2.8711328506469727,7.785536289215088,1.8801100254058838,-6.158817291259766,0.015894798561930656,-0.1133155,0.08093964,253.68954,-171.73885,48.18027,LYI
130275500000000.0,2.8761348724365234,7.77011251449585,1.8763383626937866,-6.166464805603027,0.021363332867622375,-0.11148291,0.08460484,253.62357000000003,-171.73138,48.2064,LYI
130275500000000.0,2.881138324737549,7.741494655609131,1.8689695596694946,-6.177556037902832,0.02531963214278221,-0.11545353400000001,0.0888809,253.56871,-171.72539,48.223335,LYI
130275510000000.0,2.8861424922943115,7.705195903778076,1.859256386756897,-6.186065673828125,0.02810472622513771,-0.124005646,0.089491755,253.5386,-171.73783999999998,48.191525,LYI
130275510000000.0,2.891155242919922,7.661844253540039,1.8473504781723022,-6.192124366760254,0.02922760136425495,-0.14141529999999997,0.08521569999999999,253.52316000000002,-171.7546,48.116074,LYI
130275520000000.0,2.896155834197998,7.618345737457275,1.8348504304885864,-6.19663143157959,0.029541876167058945,-0.15057829,0.08368854,253.50897,-171.77053999999998,48.04288,LYI
130275530000000.0,2.901165008544922,7.574801445007324,1.8217698335647583,-6.199947357177734,0.02967662923038006,-0.18234327,0.07422013,253.50048999999999,-171.78687,47.94359,LYI
130275530000000.0,2.9061639308929443,7.534740447998047,1.8091537952423096,-6.206575870513916,0.028941500931978226,-0.20616703,0.058337633,253.48838999999998,-171.79551999999998,47.846264,LYI
130275535000000.0,2.911161184310913,7.4980149269104,1.796970009803772,-6.216452121734619,0.02761073410511017,-0.20525073,0.04153884,253.48474,-171.80125,47.74702,LYI
130275535000000.0,2.916189432144165,7.4701828956604,1.7872579097747803,-6.229510307312012,0.025976508855819702,-0.16707164,0.023518313,253.47206,-171.80067,47.653729999999996,LYI
130275540000000.0,2.92118763923645,7.449730396270752,1.7796508073806763,-6.244820594787598,0.023875946179032326,-0.092240654,0.021685716,253.45517,-171.79672,47.574047,LYI
130275540000000.0,2.9261868000030518,7.43773889541626,1.7744789123535156,-6.2567524909973145,0.020536307245492935,-0.010995574,0.018936822,253.4298,-171.78738,47.501762,LYI
130275550000000.0,2.9311842918395996,7.433753490447998,1.771614909172058,-6.265000343322754,0.016707275062799454,0.064446285,0.0036651915999999997,253.39221,-171.77518,47.450207,LYI
130275560000000.0,2.936185598373413,7.43832540512085,1.771181344985962,-6.26528263092041,0.012463764287531376,0.13255776,-0.0012217305,253.33624,-171.76147,47.427868,LYI
130275560000000.0,2.9411797523498535,7.45073127746582,1.772973895072937,-6.257961750030518,0.007779030594974756,0.19333886,-0.007330383,253.2682,-171.74161,47.424103,LYI
130275570000000.0,2.946178674697876,7.46462869644165,1.7741522789001465,-6.251327037811279,0.004255490843206644,0.21258110000000002,-0.00030543262000000003,253.20609,-171.71683000000002,47.447759999999995,LYI
130275570000000.0,2.9511826038360596,7.479079246520996,1.774362325668335,-6.246469020843506,0.0018800937104970217,0.21166481,0.00061086525,253.1363,-171.68777,47.480877,LYI
130275580000000.0,2.9561824798583984,7.494011878967285,1.7736845016479492,-6.2432475090026855,0.0016985115362331271,0.19730948,0.014660766,253.06256000000002,-171.66196000000002,47.55387,LYI
130275586000000.0,2.961176633834839,7.509391784667969,1.7721725702285767,-6.241565227508545,0.003724048612639308,0.17989981,0.025350908,252.98942999999997,-171.64012,47.623463,LYI
130275586000000.0,2.9661765098571777,7.5205769538879395,1.7679519653320312,-6.242166519165039,0.00800185464322567,0.15974127,0.030543262,252.92946,-171.62688,47.682359999999996,LYI
130275590000000.0,2.9711761474609375,7.527132987976074,1.760931372642517,-6.245004653930664,0.013549200259149075,0.13072516,0.033292156,252.87625,-171.62032,47.732773,LYI
130275590000000.0,2.9761757850646973,7.529350757598877,1.7500147819519043,-6.244821548461914,0.019240401685237885,0.09773844,0.038179077,252.84127999999998,-171.62767,47.77682,LYI
130275600000000.0,2.9811744689941406,7.527486801147461,1.7352213859558105,-6.240932464599609,0.022284364327788353,0.0580322,0.03940081,252.80982999999998,-171.62991,47.809593,LYI
130275610000000.0,2.986215829849243,7.523704528808594,1.7166516780853271,-6.233813762664795,0.02275705896317959,0.010079277,0.02687807,252.79428,-171.64168,47.815384,LYI
130275610000000.0,2.9912121295928955,7.5190558433532715,1.6958673000335693,-6.224724769592285,0.020551353693008423,-0.012217305,0.02443461,252.78493999999998,-171.64626,47.817688000000004,LYI
130275620000000.0,2.996209144592285,7.514294147491455,1.6733911037445068,-6.218679904937744,0.01735633797943592,-0.07360926,0.016798794,252.79358,-171.65761,47.7976,LYI
130275620000000.0,3.001208543777466,7.5096588134765625,1.649562954902649,-6.216908931732178,0.012655025348067284,-0.11942416,0.002443461,252.79886000000002,-171.65536,47.7753,LYI
130275630000000.0,3.006204843521118,7.50514554977417,1.624505639076233,-6.219106197357178,0.007390391547232866,-0.14385876,-0.009773844,252.81564,-171.66631999999998,47.745647,LYI
130275640000000.0,3.0112032890319824,7.5007452964782715,1.5982348918914795,-6.225136756896973,0.0012343553826212883,-0.16218472,-0.028099801,252.82709,-171.66547,47.704594,LYI
130275640000000.0,3.0162014961242676,7.498483657836914,1.574514389038086,-6.233113765716553,-0.005081928800791502,-0.15913039999999998,-0.036651913,252.83432000000002,-171.66531,47.661926,LYI
130275644000000.0,3.0212013721466064,7.498884677886963,1.5543460845947266,-6.24244499206543,-0.011859191581606865,-0.13500121,-0.0580322,252.82802,-171.65326000000002,47.619427,LYI
130275644000000.0,3.0261995792388916,7.504937171936035,1.5415582656860352,-6.252762317657471,-0.018258996307849884,-0.09437868,-0.06780604,252.8495,-171.6654,47.564785,LYI
130275650000000.0,3.0311973094940186,7.5174241065979,1.5371413230895996,-6.263927936553955,-0.02340620756149292,-0.02107485,-0.06047566,252.86331,-171.67676,47.527542,LYI
130275660000000.0,3.036196708679199,7.537719249725342,1.5438240766525269,-6.273446083068848,-0.0271396953612566,0.03848451,-0.04428773,252.86409,-171.6828,47.497597,LYI
130275660000000.0,3.0411953926086426,7.566627502441406,1.5633459091186523,-6.279494762420654,-0.028916260227560997,0.09407325,-0.014966198,252.86692999999997,-171.69849,47.489094,LYI
130275670000000.0,3.0461935997009277,7.601943016052246,1.5937131643295288,-6.282443046569824,-0.027603115886449814,0.13103059,0.013744468000000001,252.83755,-171.69778,47.502790000000005,LYI
130275670000000.0,3.0511929988861084,7.64249324798584,1.6337509155273438,-6.282534599304199,-0.023934626951813698,0.15393804,0.05100725,252.82067999999998,-171.70946,47.529827000000004,LYI
130275680000000.0,3.056208848953247,7.683651924133301,1.6787110567092896,-6.278771877288818,-0.018345586955547333,0.14446963,0.087659165,252.75961,-171.69257,47.581215,LYI
130275690000000.0,3.061206817626953,7.722370147705078,1.7247345447540283,-6.271255970001221,-0.01126389391720295,0.13744467,0.1133155,252.70827000000003,-171.68913,47.639576,LYI
130275690000000.0,3.066204071044922,7.7546892166137695,1.7648661136627197,-6.26054048538208,-0.004754932131618261,0.10995574,0.13011430000000002,252.61914,-171.65152,47.704654999999995,LYI
130275695000000.0,3.071202278137207,7.778714656829834,1.7955293655395508,-6.247110366821289,0.0003979533212259412,0.07422013,0.12736541,252.53552000000002,-171.61942,47.76392,LYI
130275695000000.0,3.076200246810913,7.79237174987793,1.8137661218643188,-6.230799674987793,0.004364696331322193,0.048563786,0.11453723,252.43845,-171.57431,47.824753,LYI
130275700000000.0,3.0811984539031982,7.794670581817627,1.8181222677230835,-6.211561679840088,0.005418000277131796,0.022296581,0.094989546,252.34243999999998,-171.51823000000002,47.873272,LYI
130275710000000.0,3.086197853088379,7.7848029136657715,1.810234546661377,-6.191704273223877,0.004445611499249935,-0.02443461,0.07971791,252.27808,-171.48367,47.904503000000005,LYI
130275710000000.0,3.0911965370178223,7.762636661529541,1.7914515733718872,-6.172653675079346,0.0019461410120129585,-0.05222898,0.04550946,252.19955,-171.43344,47.93026,LYI
130275720000000.0,3.0961947441101074,7.731839179992676,1.7647558450698853,-6.156142711639404,-0.0016083723166957498,-0.069027774,0.011911871999999999,252.17426,-171.4154,47.939415000000004,LYI
130275720000000.0,3.1011927127838135,7.6949992179870605,1.7322646379470825,-6.143305778503418,-0.0064221397042274475,-0.07452556,-0.019547688,252.13756,-171.38432,47.941742,LYI
130275730000000.0,3.106189727783203,7.654278755187988,1.695626974105835,-6.135078430175781,-0.010800317861139774,-0.056505035999999995,-0.047647487,252.13705,-171.38565,47.919518,LYI
130275740000000.0,3.1111884117126465,7.612699031829834,1.6570863723754883,-6.133072376251221,-0.014326631091535091,-0.035430185,-0.06780604,252.12682999999998,-171.37845,47.895804999999996,LYI
130275740000000.0,3.11618709564209,7.574041843414307,1.619565725326538,-6.135431289672852,-0.017372025176882744,-0.016493361,-0.07422013,252.14092999999997,-171.39632,47.853798,LYI
130275745000000.0,3.1211864948272705,7.5414838790893555,1.5855134725570679,-6.140602111816406,-0.019164539873600006,-0.004886922,-0.07849618,252.146,-171.41498,47.815613,LYI
130275745000000.0,3.1261820793151855,7.5146284103393555,1.5547186136245728,-6.148382663726807,-0.02091035805642605,0.0070249503,-0.083383106,252.16565,-171.4437,47.762474,LYI
130275750000000.0,3.1311817169189453,7.493291854858398,1.527051329612732,-6.158721446990967,-0.022286422550678253,0.014049901000000002,-0.084910266,252.18391,-171.47647,47.712795,LYI
130275760000000.0,3.1361823081970215,7.479737281799316,1.5044939517974854,-6.1693620681762695,-0.02319849468767643,0.029626964,-0.08521569999999999,252.18738,-171.51271,47.66977,LYI
130275760000000.0,3.1411819458007812,7.478298187255859,1.490734338760376,-6.176451206207275,-0.025022324174642563,0.04734206,-0.08216137400000001,252.1908,-171.54451,47.630806,LYI
130275770000000.0,3.1461808681488037,7.488649845123291,1.4848588705062866,-6.17902946472168,-0.02692800760269165,0.0580322,-0.08735373,252.18282000000002,-171.5717,47.598248,LYI
130275770000000.0,3.151181221008301,7.510627269744873,1.4860063791275024,-6.1760029792785645,-0.029139066115021706,0.0580322,-0.08277224,252.1796,-171.59654,47.569393,LYI
130275780000000.0,3.1561803817749023,7.541080474853516,1.4938498735427856,-6.16836404800415,-0.03152528405189514,0.04062254,-0.086132,252.13842999999997,-171.59366,47.571175,LYI
130275790000000.0,3.161180019378662,7.576108932495117,1.508248209953308,-6.1572585105896,-0.03323090448975563,0.015577064,-0.070249505,252.10842999999997,-171.59732,47.57202,LYI
130275790000000.0,3.16617751121521,7.613227844238281,1.528052806854248,-6.145054340362549,-0.034096866846084595,-0.009468411,-0.05681047,252.0477,-171.57565,47.608309999999996,LYI
130275795000000.0,3.1711766719818115,7.6493682861328125,1.552051305770874,-6.1347503662109375,-0.034249309450387955,-0.040011674,-0.03848451,251.99933,-171.56052,47.63632,LYI
130275795000000.0,3.1761724948883057,7.682919025421143,1.5797041654586792,-6.1277079582214355,-0.03367742523550987,-0.05375614,-0.023518313,251.92986000000002,-171.5239,47.681705,LYI
130275800000000.0,3.1811721324920654,7.711050510406494,1.6105518341064453,-6.126487731933594,-0.032012879848480225,-0.06750060599999999,-0.00061086525,251.87521,-171.49748,47.719128000000005,LYI
130275800000000.0,3.186169385910034,7.733124732971191,1.6437369585037231,-6.1302571296691895,-0.03014405071735382,-0.07422013,0.0076358155,251.79927,-171.45256,47.749424,LYI
130275810000000.0,3.1911697387695312,7.747637748718262,1.6782182455062866,-6.138167381286621,-0.028114380314946175,-0.076358154,0.02076942,251.7369,-171.41828999999998,47.778107,LYI
130275820000000.0,3.19616436958313,7.754784107208252,1.7128874063491821,-6.1493401527404785,-0.026567254215478897,-0.08735373,0.027488936000000002,251.65645,-171.36858999999998,47.77944,LYI
130275820000000.0,3.201164960861206,7.753840923309326,1.745965838432312,-6.162744045257568,-0.02559090033173561,-0.07544186,0.03390302,251.58066000000002,-171.32315,47.78713,LYI
