timestamp,rel_time,acc_x,acc_y,acc_z,gyro_x,gyro_y,gyro_z,azimuth,pitch,roll,label
0.0,0.0,0.0,0.0,0.0,0.0,0.05497787,-0.010995574,314.57858,-144.05542,12.182707,STD
72479330000.0,1.4802592886553612e-05,0.0026847219560295343,0.02950950898230076,-0.00013598524674307555,-5.7554105296730995e-05,0.051923547,-0.008246681,314.06012000000004,-143.7845,12.409901,STD
216359240000.0,7.398206798825413e-05,0.008036899380385876,0.08809356391429901,-0.0003648011479526758,-0.00025729669141583145,0.051923547,-0.016493361,313.53622,-143.50722,12.633685,STD
429521100000.0,0.00020620593568310142,0.01600021868944168,0.17489372193813324,-0.0006423006416298449,-0.0005017119110561907,0.045814894,-0.014355333500000001,313.01312,-143.23987,12.856367,STD
708881600000.0,0.0004380694299470633,0.026481205597519875,0.2886585295200348,-0.00092511554248631,-0.0009331575129181147,0.040317107000000005,-0.011911871999999999,312.48422,-142.96414,13.076448,STD
1050499400000.0,0.0007940431823953986,0.03935311362147331,0.42778685688972473,-0.0011709588579833508,-0.001500674057751894,0.035430185,-0.010690141499999998,311.95276,-142.69226,13.294035000000001,STD
1449706400000.0,0.0012956992723047733,0.05446019023656845,0.5903813242912292,-0.0013399765593931079,-0.002269056625664234,0.02565634,-0.014966198,311.41873,-142.41698,13.507241,STD
1901255900000.0,0.0019664319697767496,0.07162672281265259,0.7743092775344849,-0.0013885502703487873,-0.0032592597417533398,0.027794369,-0.011911871999999999,310.88167999999996,-142.14203,13.721954,STD
2399479500000.0,0.002813920844346285,0.09064947813749313,0.9772641062736511,-0.0012938454747200012,-0.004181452561169863,0.02321288,-0.010079277,310.34286000000003,-141.86911,13.930404999999999,STD
2938444200000.0,0.003852487076073885,0.11132052540779114,1.1968324184417725,-0.0010232881177216768,-0.005322313867509365,0.013133603,-0.018020526000000002,309.7996,-141.59065,14.135162,STD
3512103300000.0,0.005092635750770569,0.13342483341693878,1.4305541515350342,-0.0005493267672136426,-0.006511929910629988,0.004581489,-0.019547688,309.25534,-141.31717,14.338975,STD
4114435000000.0,0.006541105918586254,0.15674538910388947,1.6759785413742065,0.0001503382227383554,-0.007956339046359062,0.0076358155,-0.015577064,308.70687999999996,-141.04018,14.540894,STD
4739563000000.0,0.008199762552976608,0.18110081553459167,1.9306215047836304,0.0010438853641971946,-0.009483886882662773,-0.0009162978999999999,-0.021380282999999996,308.1565,-140.76434,14.734509,STD
5381859300000.0,0.01006832905113697,0.20639677345752716,2.1918838024139404,0.0019855943974107504,-0.011063450947403908,-0.0009162978999999999,-0.02687807,307.60165,-140.48758,14.929495999999999,STD
6036025500000.0,0.012146850116550922,0.23245014250278473,2.4575750827789307,0.002969918539747596,-0.012725203298032284,-0.013133603,-0.016187929,307.11124,-140.07361,15.0816,STD
6697153000000.0,0.014427410438656807,0.25907811522483826,2.72568416595459,0.003990575205534697,-0.014382443390786648,-0.008857545999999999,-0.014966198,306.61246,-139.66291999999999,15.232585999999998,STD
7360764000000.0,0.01690519042313099,0.28611791133880615,2.994370937347412,0.005042179021984339,-0.015618225559592247,-0.007330383,-0.017715093,306.11633,-139.25963000000002,15.379809,STD
8022833000000.0,0.01957334578037262,0.31341907382011414,3.2619872093200684,0.006119528319686651,-0.017030922695994377,-0.012217305,-0.019242255,305.61926,-138.85678000000001,15.525197,STD
8679799000000.0,0.02242427133023739,0.34084585309028625,3.5270779132843018,0.007217796985059977,-0.018395593389868736,-0.020158553,-0.01282817,305.1218,-138.46323999999998,15.669476500000002,STD
9328556000000.0,0.02544705756008625,0.3682728409767151,3.788383960723877,0.008332162164151669,-0.020074471831321716,-0.022296581,-0.015271631,304.62006,-138.06932,15.810072,STD
9966440000000.0,0.028635364025831223,0.3955974578857422,4.04481840133667,0.009458920918405056,-0.02185593731701374,-0.023518313,-0.015577064,304.11972000000003,-137.68214,15.949074,STD
10591207000000.0,0.03197593614459038,0.42272019386291504,4.295483589172363,0.01059381477534771,-0.023186104372143745,-0.01985312,-0.010690141499999998,303.6175,-137.30084,16.087347,STD
11201001000000.0,0.03546040877699852,0.44956308603286743,4.539632320404053,0.011733698658645153,-0.024457085877656937,-0.025045475,-0.010690141499999998,303.11444,-136.92014,16.220673,STD
11794326000000.0,0.03907756879925728,0.4760558605194092,4.776670932769775,0.012875393033027649,-0.025582490488886833,-0.010995574,-0.014049901000000002,302.60497999999995,-136.54684,16.356998,STD
12370013000000.0,0.042819634079933167,0.5021452307701111,5.006134033203125,0.014016552828252316,-0.027324730530381203,-0.013744468000000001,-0.014660766,302.0989,-136.17387,16.487568,STD
12927183000000.0,0.046675752848386765,0.5277828574180603,5.227682590484619,0.015154697000980377,-0.02896788902580738,-0.017104227,-0.01160644,301.58817,-135.80966,16.618923000000002,STD
13465212000000.0,0.05063674971461296,0.55293208360672,5.441080570220947,0.016287855803966522,-0.03038017265498638,-0.008857545999999999,-0.01038471,301.07315,-135.44638,16.749493,STD
13983707000000.0,0.05469508469104767,0.5775667428970337,5.646181583404541,0.017414530739188194,-0.03166763484477997,-0.013439035,-0.013133603,300.5597,-135.08678,16.874664000000003,STD
14482466000000.0,0.05884241685271263,0.6016660928726196,5.842921257019043,0.018533311784267426,-0.03301014006137848,-0.014660766,-0.009162978,300.0434,-134.73213,17.001682000000002,STD
14961456000000.0,0.06306927651166916,0.6252133250236511,6.031307697296143,0.019642801955342293,-0.03432944044470787,-0.004886922,-0.010690141499999998,299.52234,-134.38127,17.126064000000003,STD
15420783000000.0,0.06737317144870758,0.6482080817222595,6.211390495300293,0.020742757245898247,-0.035458389669656754,0.0036651915999999997,-0.008246681,299.00162,-134.03561000000002,17.249527,STD
15860675000000.0,0.07174305617809296,0.6706398725509644,6.383288383483887,0.021831827238202095,-0.03678353130817413,0.0036651915999999997,-0.007330383,298.47832999999997,-133.69128,17.370352,STD
16281452000000.0,0.07617472857236862,0.6925129890441895,6.547144889831543,0.022909745573997498,-0.03772871196269989,0.010995574,0.004276057,297.9523,-133.35596,17.49472,STD
16683519000000.0,0.08074182271957397,0.713962972164154,6.702958583831787,0.02398751862347126,-0.03914155811071396,0.018020526000000002,0.004276057,297.602049001797,-133.13498408165302,17.5743288241166,STD
17067341000000.0,0.08527672290802002,0.7347288727760315,6.8513031005859375,0.02504154108464718,-0.04003993049263954,0.03176499,0.00030543262000000003,297.41864,-133.01927,17.616016000000002,STD
17433431000000.0,0.0898561030626297,0.7549552321434021,6.992216110229492,0.02608337253332138,-0.04089679941534996,0.040011674,0.009162978,296.88925,-132.6912,17.739239,STD
17782340000000.0,0.09447848051786423,0.7746586203575134,7.12592887878418,0.027113376185297966,-0.041791822761297226,0.033292156,0.0018325957999999999,296.35303,-132.36325,17.85653,STD
18114643000000.0,0.09913976490497589,0.7938521504402161,7.252688884735107,0.028131568804383278,-0.04250263050198555,0.030848695,0.005497787,295.81607,-132.04231000000001,17.977806,STD
18430938000000.0,0.10383563488721848,0.8125492930412292,7.372751712799072,0.029137954115867615,-0.04278441518545151,0.027488936000000002,0.005497787,295.637574950489,-131.936739491593,18.014574774174303,STD
18731825000000.0,0.10856125503778458,0.8307629227638245,7.486378192901611,0.030132466927170753,-0.04271981492638588,0.019547688,0.005497787,295.460112487539,-131.83177970426001,18.0511308424935,STD
19017912000000.0,0.1133171021938324,0.8485148549079895,7.593818187713623,0.031115815043449402,-0.04254719242453575,0.010079277,-0.00061086525,295.2803,-131.72543000000002,18.088171,STD
19289808000000.0,0.11809667199850082,0.865815281867981,7.695337295532227,0.032087698578834534,-0.04235128313302994,-0.008857545999999999,-0.0021380284,294.74487,-131.40964,18.197664000000003,STD
19548112000000.0,0.12289656698703766,0.8826793432235718,7.791191101074219,0.03304825723171234,-0.041861891746520996,-0.01863139,-0.003970624,294.20977999999997,-131.10148999999998,18.301195,STD
19793413000000.0,0.12772031128406525,0.8991332650184631,7.881616592407227,0.03399861976504326,-0.041701026260852814,-0.015882496,-0.00061086525,293.67584,-130.79422,18.40203,STD
20026294000000.0,0.13260310888290405,0.9152553081512451,7.966772556304932,0.03494444862008095,-0.04129192978143692,-0.009162978,0.0033597588,293.14206,-130.49399,18.499235000000002,STD
20247317000000.0,0.1374550610780716,0.930916428565979,8.047097206115723,0.0358734168112278,-0.04074316471815109,-0.015577064,0.0009162978999999999,292.6093,-130.1944,18.591566,STD
20457032000000.0,0.1423235386610031,0.9462139010429382,8.122710227966309,0.03679290786385536,-0.040190331637859344,-0.017715093,0.004276057,292.07482999999996,-129.89969,18.685553,STD
20655972000000.0,0.1472092717885971,0.9611673355102539,8.193829536437988,0.03770358860492706,-0.039907317608594894,-0.009773844,-0.0021380284,291.53647,-129.60555,18.774876000000003,STD
20844650000000.0,0.15210945904254913,0.9757898449897766,8.260673522949219,0.038605593144893646,-0.04038010165095329,-0.003970624,0.00030543262000000003,291.00064,-129.31375,18.863848,STD
21023565000000.0,0.15701644122600555,0.9900859594345093,8.323465347290039,0.03949833661317825,-0.0410703681409359,-0.008552114,0.0030543262,290.46375,-129.02504,18.948519,STD
21193191000000.0,0.16192731261253357,1.004067301750183,8.38240909576416,0.04038190469145775,-0.041708651930093765,-0.004581489,0.005497787,289.9231,-128.73712,19.033468,STD
21353986000000.0,0.1668437123298645,1.0177525281906128,8.437689781188965,0.041257016360759735,-0.042168278247117996,0.007941248,0.004581489,289.38086,-128.45131999999998,19.116291,STD
21506390000000.0,0.17176726460456848,1.0311594009399414,8.489484786987305,0.04212436079978943,-0.04284648597240448,0.010079277,0.0036651915999999997,288.84024,-128.16683999999998,19.196012,STD
21650823000000.0,0.17670287191867828,1.0443106889724731,8.537957191467285,0.04298508167266846,-0.043829046189785004,0.01160644,0.0018325957999999999,288.296,-127.88488999999998,19.274494,STD
21787688000000.0,0.18164023756980896,1.0572031736373901,8.583297729492188,0.043838124722242355,-0.04480869323015213,0.013439035,0.0067195175,287.75183,-127.606575,19.352022,STD
21917367000000.0,0.1865837723016739,1.0698573589324951,8.625653266906738,0.044684525579214096,-0.045672107487916946,0.008857545999999999,0.0030543262,287.20703,-127.32813999999999,19.423555,STD
22040229000000.0,0.19153425097465515,1.082287311553955,8.66517448425293,0.045524779707193375,-0.04652254283428192,0.007941248,-0.0015271631,286.66147,-127.05215,19.494112,STD
22156620000000.0,0.19648794829845428,1.094498872756958,8.702014923095703,0.04635871201753616,-0.04658226668834686,-0.0036651915999999997,0.0009162978999999999,286.12036,-126.78288,19.56043,STD
22266878000000.0,0.20145820081233978,1.1065257787704468,8.736281394958496,0.047188594937324524,-0.046719953417778015,-0.006414085,-0.0015271631,285.57587,-126.51066999999999,19.622976,STD
22371317000000.0,0.20641982555389404,1.1183371543884277,8.76816177368164,0.048011139035224915,-0.047174934297800064,-0.004581489,0.0012217305,285.03467,-126.24423999999999,19.683708,STD
22470237000000.0,0.21138671040534973,1.1299664974212646,8.797749519348145,0.04882865771651268,-0.04723251610994339,-0.007330383,0.0036651915999999997,284.49532999999997,-125.98238,19.7401,STD
22563927000000.0,0.21635288000106812,1.1414138078689575,8.825176239013672,0.04964059218764305,-0.04675120860338211,0.0015271631,0.00030543262000000003,283.95245,-125.72153999999999,19.795082,STD
22652660000000.0,0.22132258117198944,1.1526955366134644,8.850544929504395,0.05044783651828766,-0.04710746183991432,0.0012217305,0.002443461,283.41443,-125.45993,19.847681,STD
22736693000000.0,0.22629842162132263,1.1638249158859253,8.873957633972168,0.051251038908958435,-0.04750983044505119,0.004276057,0.005497787,282.87344,-125.205605,19.898838,STD
22816271000000.0,0.23127305507659912,1.1747982501983643,8.895532608032227,0.05204939842224121,-0.0476471446454525,0.006414085,0.0061086523,282.33344,-124.95116000000002,19.947105,STD
22891630000000.0,0.23625074326992035,1.1856307983398438,8.915355682373047,0.05284377560019493,-0.04803720489144325,0.010995574,0.004581489,281.7929,-124.69645,19.993689,STD
22962992000000.0,0.24123065173625946,1.1963287591934204,8.933521270751953,0.05363428220152855,-0.04830904304981232,0.010995574,0.009468411,281.2549,-124.44758,20.039034,STD
23030567000000.0,0.24621368944644928,1.206900954246521,8.950114250183105,0.05442126840353012,-0.04894036054611206,0.019242255,0.011301007,280.71375,-124.19679,20.082306,STD
23094553000000.0,0.25119689106941223,1.2173494100570679,8.96522331237793,0.055204518139362335,-0.0494731180369854,0.023823743999999997,0.01282817,280.1753,-123.951035,20.123537,STD
23155140000000.0,0.2561802566051483,1.2276805639266968,8.978926658630371,0.05598422884941101,-0.05014018341898918,0.025961772999999997,0.013439035,279.63644,-123.70483,20.16302,STD
23212507000000.0,0.2611675262451172,1.2379069328308105,8.991291046142578,0.05676112696528435,-0.05091816186904907,0.034208454,0.018020526000000002,279.09668,-123.461845,20.202559,STD
23266828000000.0,0.2661559581756592,1.2480297088623047,9.002391815185547,0.057534996420145035,-0.05139456316828728,0.03726278,0.02107485,278.5588,-123.22158999999999,20.238685999999998,STD
23318258000000.0,0.2711524963378906,1.2580660581588745,9.012280464172363,0.05830700695514679,-0.05181310325860977,0.038789943,0.03268129,278.02227999999997,-122.98398999999999,20.276235999999997,STD
23366954000000.0,0.27614453434944153,1.2680004835128784,9.021048545837402,0.059075504541397095,-0.05217685177922249,0.0421497,0.040317107000000005,277.48566,-122.7491,20.311357,STD
23413060000000.0,0.2811354696750641,1.2778434753417969,9.028748512268066,0.059841129928827286,-0.05309062451124191,0.06811147,0.05161811400000001,276.9459,-122.51637,20.350542,STD
23456714000000.0,0.2861268222332001,1.2876023054122925,9.035433769226074,0.060604240745306015,-0.056265946477651596,0.10048734,0.05131268,276.40436,-122.27762,20.386923,STD
23498045000000.0,0.2911185920238495,1.2972816228866577,9.041157722473145,0.061364978551864624,-0.0610945038497448,0.11575896,0.0711658,275.86606,-122.04611000000001,20.429357999999997,STD
23537176000000.0,0.29611191153526306,1.3068873882293701,9.045969009399414,0.062123630195856094,-0.06786259263753891,0.1441642,0.098043874,275.3175,-121.80691000000002,20.475727,STD
23574224000000.0,0.3011055290699005,1.316421627998352,9.049919128417969,0.06288014352321625,-0.07576737552881241,0.19303341,0.13683382,274.7646,-121.57127,20.530949,STD
23609300000000.0,0.3060983419418335,1.3258863687515259,9.053055763244629,0.0636344775557518,-0.0840974748134613,0.28160888,0.16615535,274.1962,-121.334946,20.594631,STD
23642512000000.0,0.31109511852264404,1.335293173789978,9.055411338806152,0.06438742578029633,-0.09245596826076508,0.39095375,0.20066923,273.61508,-121.10470600000001,20.67315,STD
23673954000000.0,0.3160936236381531,1.3446416854858398,9.057032585144043,0.06513876467943192,-0.10157360136508942,0.5143485,0.22937989,273.00934,-120.8748,20.764187,STD
23703721000000.0,0.3210925757884979,1.3539329767227173,9.057960510253906,0.065888412296772,-0.11326509714126587,0.63132924,0.2611449,272.38043,-120.64498999999999,20.870464000000002,STD
23731905000000.0,0.3260924518108368,1.3631709814071655,9.058231353759766,0.06663653254508972,-0.1270679533481598,0.74067414,0.28496864,271.72263,-120.41756000000001,20.98798,STD
23758587000000.0,0.33109232783317566,1.3723571300506592,9.057881355285645,0.06738308072090149,-0.1432928591966629,0.81031275,0.30390546,271.0474,-120.183945,21.11298,STD
23783847000000.0,0.33609145879745483,1.3814929723739624,9.05694580078125,0.06812803447246552,-0.16132259368896484,0.83199847,0.31215215,270.3576,-119.94638,21.239267,STD
23807763000000.0,0.3411075174808502,1.3906102180480957,9.055415153503418,0.06887400895357132,-0.18101219832897186,0.7867944,0.29840767,269.66832999999997,-119.69861000000002,21.355764,STD
23830406000000.0,0.3461054265499115,1.399653434753418,9.053400039672852,0.06961604207754135,-0.20285914838314056,0.7480045,0.28893927,268.9741,-119.44398500000001,21.469186999999998,STD
23851843000000.0,0.3511040508747101,1.408656120300293,9.050884246826172,0.07035691291093826,-0.2247629165649414,0.61391956,0.25381452,268.318,-119.18146999999999,21.549025,STD
23872137000000.0,0.3561018705368042,1.4176180362701416,9.047898292541504,0.07109647244215012,-0.24805505573749542,0.43127087,0.20372356,267.68686,-118.90082,21.605534,STD
23891351000000.0,0.3611012399196625,1.4265451431274414,9.044462203979492,0.07183512300252914,-0.271408349275589,0.27122417,0.13347405,267.0849,-118.61198999999999,21.6294,STD
23909542000000.0,0.36610090732574463,1.4354373216629028,9.040602684020996,0.0725727453827858,-0.29319190979003906,0.21319197,0.08216137400000001,266.50568,-118.31754,21.631535,STD
23926764000000.0,0.37110021710395813,1.443957805633545,9.036832809448242,0.0734211802482605,-0.3109991252422333,0.26328292,0.034208454,265.93735,-118.01726000000001,21.606354,STD
23943067000000.0,0.3761001527309418,1.4512708187103271,9.034387588500977,0.07465863972902298,-0.3238210678100586,0.34972036,0.009773844,265.3753,-117.72101,21.568089999999998,STD
23958502000000.0,0.38109999895095825,1.4574424028396606,9.033193588256836,0.07626335322856903,-0.33202099800109863,0.3998113,0.002443461,264.79900000000004,-117.52141999999999,21.598475,STD
23973115000000.0,0.3860991597175598,1.4625352621078491,9.033182144165039,0.07821471244096756,-0.33525916934013367,0.3753767,0.0012217305,264.22244,-117.33348000000001,21.619232,STD
23986950000000.0,0.39109763503074646,1.466606855392456,9.034289360046387,0.08049425482749939,-0.33381620049476624,0.29138273,0.009468411,263.65417,-117.15881,21.634481,STD
24000049000000.0,0.3960973918437958,1.4697061777114868,9.03646469116211,0.08308760821819305,-0.32906457781791687,0.16157386,0.015577064,263.11176,-116.99396000000002,21.638279,STD
24012450000000.0,0.4010969400405884,1.4718890190124512,9.039644241333008,0.08597571402788162,-0.3207411468029022,0.028710667000000002,0.02321288,262.60123,-116.84643600000001,21.633745,STD
24024190000000.0,0.40609923005104065,1.4731957912445068,9.043787002563477,0.08914771676063538,-0.31045228242874146,-0.09987647,0.014049901000000002,262.132,-116.70206499999999,21.613148000000002,STD
24035304000000.0,0.4111097455024719,1.473657488822937,9.048866271972656,0.092597596347332,-0.299263060092926,-0.22571471,0.011301007,261.7072,-116.569405,21.583935,STD
24045825000000.0,0.4161120355129242,1.473364233970642,9.054763793945312,0.09628453105688095,-0.28769347071647644,-0.30176744,0.0009162978999999999,261.30877999999996,-116.43854499999999,21.5426,STD
24055787000000.0,0.4211122989654541,1.4723399877548218,9.061461448669434,0.10020525753498077,-0.27638229727745056,-0.33994650000000004,-0.004581489,260.94055,-116.31087,21.494404,STD
24065218000000.0,0.4261120855808258,1.470619559288025,9.068921089172363,0.10434965789318085,-0.2654460072517395,-0.3387248,-0.009773844,260.58612,-116.18377,21.440456,STD
24074147000000.0,0.43111178278923035,1.4682390689849854,9.077104568481445,0.10870641469955444,-0.2555156946182251,-0.32406402,-0.008246681,260.2427,-116.056625,21.38505,STD
24082600000000.0,0.43611109256744385,1.465234637260437,9.08597183227539,0.11326368898153305,-0.24632617831230164,-0.31642818,-0.00030543262000000003,259.90466000000004,-115.93168999999999,21.329721,STD
24090604000000.0,0.44110944867134094,1.4616410732269287,9.095483779907227,0.11800984293222427,-0.23837511241436005,-0.2968805,0.0021380284,259.56195,-115.80356,21.275357999999997,STD
24098180000000.0,0.4461090564727783,1.4574836492538452,9.105615615844727,0.1229383647441864,-0.23092913627624512,-0.28924468,0.004276057,259.22467,-115.67918999999999,21.222757,STD
24105355000000.0,0.4511079490184784,1.4527978897094727,9.116326332092285,0.12803642451763153,-0.2239287942647934,-0.27275133,0.0076358155,258.88275,-115.554184,21.173094,STD
24112146000000.0,0.4561053514480591,1.447614073753357,9.127581596374512,0.13329367339611053,-0.2182944118976593,-0.27030787,0.011301007,258.5465,-115.427376,21.123459,STD
24118575000000.0,0.4611104726791382,1.4419331550598145,9.13939094543457,0.138716459274292,-0.214018315076828,-0.28313604,0.009773844,258.21332,-115.30041000000001,21.073147,STD
24124664000000.0,0.46610984206199646,1.4358184337615967,9.1516695022583,0.14427471160888672,-0.210295632481575,-0.29168814,0.0009162978999999999,257.88132,-115.172455,21.021967,STD
24130427000000.0,0.4711109697818756,1.4292726516723633,9.164422035217285,0.14997291564941406,-0.20673878490924835,-0.29657507,-0.00061086525,257.5559,-115.04468999999999,20.971476000000003,STD
24135883000000.0,0.4761125147342682,1.4223222732543945,9.177618980407715,0.15580162405967712,-0.20377841591835022,-0.30390546,-0.0012217305,257.23654,-114.91378,20.917870999999998,STD
24141049000000.0,0.48111456632614136,1.41498863697052,9.19123649597168,0.1617540568113327,-0.20082931220531464,-0.26450464,0.005497787,256.90842000000004,-114.78696399999998,20.868633,STD
24145940000000.0,0.4861133098602295,1.407302737236023,9.205236434936523,0.16781745851039886,-0.19805364310741425,-0.21135938,0.0067195175,256.58115,-114.65811000000001,20.818007,STD
24150570000000.0,0.4911133050918579,1.3992711305618286,9.219616889953613,0.1739930361509323,-0.1962072104215622,-0.1554652,0.0030543262,256.2448,-114.52891000000001,20.770393,STD
24154955000000.0,0.4961144030094147,1.3909122943878174,9.234357833862305,0.18027471005916595,-0.19465450942516327,-0.098043874,0.006414085,255.89623999999998,-114.40411,20.728142000000002,STD
24159105000000.0,0.5011131763458252,1.3822532892227173,9.249424934387207,0.18665127456188202,-0.19450300931930542,-0.05009095,0.016187929,255.53761,-114.27552,20.688944,STD
24163035000000.0,0.5061140656471252,1.3732978105545044,9.264820098876953,0.19312480092048645,-0.1945549100637436,-0.010079277,0.017715093,255.16766,-114.14893000000001,20.650568,STD
24166755000000.0,0.5111188888549805,1.3640564680099487,9.280532836914062,0.19969314336776733,-0.19361113011837006,0.007941248,0.017104227,254.7944,-114.02445,20.614695,STD
24170279000000.0,0.5161234736442566,1.354555368423462,9.296530723571777,0.20634491741657257,-0.19232699275016785,0.011911871999999999,0.019547688,254.41766,-113.89946,20.580317,STD
24173613000000.0,0.5211237072944641,1.344820261001587,9.312779426574707,0.21306882798671722,-0.19076946377754211,-0.017715093,0.023823743999999997,254.0497,-113.77775,20.543957000000002,STD
24176771000000.0,0.5261554718017578,1.3347629308700562,9.32941722869873,0.2199191153049469,-0.188985675573349,-0.045814894,0.02107485,253.68384,-113.65624,20.505322,STD
24179762000000.0,0.5311537981033325,1.3245790004730225,9.346156120300293,0.22678615152835846,-0.18662957847118378,-0.07574729,0.02687807,253.33209,-113.54021999999999,20.467226,STD
24182593000000.0,0.5361522436141968,1.3141857385635376,9.36312484741211,0.23372061550617218,-0.1840246617794037,-0.0842994,0.024129177,252.98543999999998,-113.42197,20.424583,STD
24185273000000.0,0.5411504507064819,1.3035951852798462,9.38031005859375,0.24071839451789856,-0.18120045959949493,-0.11056661,0.026572637000000003,252.6574,-113.30868500000001,20.381418,STD
24187810000000.0,0.5461492538452148,1.2928154468536377,9.397703170776367,0.24777750670909882,-0.17795707285404205,-0.13744467,0.02687807,252.33539,-113.19623600000001,20.335653,STD
24190214000000.0,0.5511484742164612,1.2818572521209717,9.415292739868164,0.25489431619644165,-0.17400754988193512,-0.14049901,0.022296581,252.01746,-113.08546399999999,20.288492,STD
24192490000000.0,0.5561469197273254,1.2707332372665405,9.433062553405762,0.2620639503002167,-0.17039872705936432,-0.14752395,0.032070424,251.713,-112.97795,20.243273000000002,STD
24194643000000.0,0.5611451864242554,1.2594506740570068,9.451005935668945,0.2692844569683075,-0.16742171347141266,-0.13591751,0.019547688,251.40563999999998,-112.865715,20.191038,STD
24196682000000.0,0.566145122051239,1.2480130195617676,9.469121932983398,0.2765560746192932,-0.16535210609436035,-0.12461651,0.0290161,251.10558999999998,-112.76109,20.14696,STD
24198613000000.0,0.5711417198181152,1.23668372631073,9.487049102783203,0.2833412289619446,-0.16352301836013794,-0.12980886,0.03176499,250.80917000000002,-112.65275,20.09692,STD
24200442000000.0,0.5761396884918213,1.2262097597122192,9.503769874572754,0.2880038917064667,-0.16171002388000488,-0.12522738,0.03145956,250.5101,-112.545456,20.049404,STD
24202172000000.0,0.5811370611190796,1.2164435386657715,9.519791603088379,0.29058870673179626,-0.15999364852905273,-0.12675454,0.0290161,250.3392,-112.28431,19.914179,STD
24203810000000.0,0.586134672164917,1.2069591283798218,9.536869049072266,0.29088786244392395,-0.15760371088981628,-0.12186762,0.028405233999999998,250.17157000000003,-112.03188999999999,19.782017,STD
24205362000000.0,0.5911349654197693,1.1977176666259766,9.554898262023926,0.28926506638526917,-0.15470631420612335,-0.118202426,0.02565634,250.03925,-111.78068,19.650175,STD
24206832000000.0,0.5961711406707764,1.1883724927902222,9.573159217834473,0.28921937942504883,-0.15044954419136047,-0.11759156,0.015577064,249.9129,-111.53728999999998,19.518282,STD
24208222000000.0,0.6011651158332825,1.1789637804031372,9.591292381286621,0.2903653681278229,-0.14528021216392517,-0.105068825,0.008552114,249.79332999999997,-111.30163999999999,19.387285000000002,STD
24209540000000.0,0.6061602234840393,1.1685354709625244,9.609110832214355,0.29340583086013794,-0.13950738310813904,-0.08827003,0.0067195175,249.6784,-111.07316000000002,19.257248,STD
24210787000000.0,0.6111587285995483,1.157129168510437,9.62663745880127,0.29825618863105774,-0.1336352825164795,-0.07666359,-0.0033597588,249.60577,-110.83346599999999,19.125217000000003,STD
24211968000000.0,0.6161553263664246,1.144383192062378,9.643198013305664,0.3052501082420349,-0.12765289843082428,-0.07696902,-0.00061086525,249.53997999999999,-110.60484,18.998827,STD
24213086000000.0,0.6211487054824829,1.1302499771118164,9.658645629882812,0.3143969774246216,-0.12171262502670288,-0.08093964,0.0018325957999999999,249.47887999999998,-110.380264,18.872189000000002,STD
24214145000000.0,0.6261452436447144,1.1149072647094727,9.672572135925293,0.3259681761264801,-0.11566571146249771,-0.09254608,0.0015271631,249.44882,-110.15168999999999,18.748048999999998,STD
24215147000000.0,0.6311413645744324,1.0985594987869263,9.684715270996094,0.34004727005958557,-0.10940390080213547,-0.10598512,0.0033597588,249.42874,-109.93216000000001,18.627584,STD
24216097000000.0,0.6361384987831116,1.0822969675064087,9.695963859558105,0.35458919405937195,-0.10337813943624496,-0.12186762,0.003970624,249.44801,-109.70700000000001,18.509787,STD
24216997000000.0,0.6411352753639221,1.0667742490768433,9.706866264343262,0.3683561384677887,-0.0979664996266365,-0.14080444,-0.0012217305,249.48058999999998,-109.48924,18.393179,STD
24217848000000.0,0.6461318135261536,1.0519517660140991,9.71744155883789,0.3813893795013428,-0.0926642045378685,-0.15027285,0.003970624,249.51181,-109.27535,18.276817,STD
24218656000000.0,0.6511278748512268,1.0377923250198364,9.727706909179688,0.3937280476093292,-0.08780726045370102,-0.14599679999999998,0.0076358155,249.5523,-109.06673400000001,18.161247,STD
24219420000000.0,0.6561242938041687,1.0236706733703613,9.737195014953613,0.40485450625419617,-0.08268827944993973,-0.13041973,0.01160644,249.75332999999998,-108.87903600000001,18.096216000000002,STD
24220143000000.0,0.6611226201057434,1.009179949760437,9.745616912841797,0.41445329785346985,-0.07818392664194107,-0.12614368,0.014049901000000002,249.96481,-108.70409,18.03489,STD
24220828000000.0,0.6661227345466614,0.9943397641181946,9.753028869628906,0.42260584235191345,-0.0729755386710167,-0.095294975,0.010079277,250.32231000000002,-108.56446000000001,18.028072,STD
24221479000000.0,0.6711196899414062,0.980351984500885,9.758035659790039,0.42912185192108154,-0.06740990281105042,-0.07147124,0.02565634,250.6867,-108.45011000000001,18.030369,STD
24222093000000.0,0.6761167049407959,0.967362105846405,9.760503768920898,0.43402817845344543,-0.06191299110651016,-0.05100725,0.020463986,251.04742000000002,-108.34844,18.028848999999997,STD
24222676000000.0,0.6811166405677795,0.9572476744651794,9.762238502502441,0.437601774930954,-0.05599282309412956,-0.033292156,0.018936822,251.66122000000001,-108.32275,18.118925,STD
24223228000000.0,0.6861124038696289,0.9501803517341614,9.763629913330078,0.43998169898986816,-0.04980217292904854,-0.014966198,0.019547688,252.264,-108.32619,18.20955,STD
24223750000000.0,0.6911134719848633,0.9454132914543152,9.76458740234375,0.44226232171058655,-0.04361589252948761,0.014660766,0.027488936000000002,253.29962,-108.491875,18.461157,STD
24224245000000.0,0.6961101293563843,0.9426189661026001,9.765125274658203,0.44466692209243774,-0.03761279955506325,0.032070424,0.032375857,254.265638026183,-89.93781366163141,18.705885693857,STD
24224714000000.0,0.7011076211929321,0.9417251348495483,9.765259742736816,0.44719359278678894,-0.03207612410187721,0.053450707,0.031154128,255.25012,-71.02911999999999,18.955292,STD
24225160000000.0,0.7061058282852173,0.9426301121711731,9.76501178741455,0.44983577728271484,-0.027241447940468788,0.06627888,0.026267206,256.17035,-70.73488,19.19744,STD
24225578000000.0,0.7111074328422546,0.9435742497444153,9.76541519165039,0.4540596604347229,-0.022957418113946915,0.08643743400000001,0.029321532999999997,257.1656,-70.38123,19.457905,STD
24225977000000.0,0.7161058187484741,0.9439837336540222,9.766766548156738,0.4602380394935608,-0.01890169456601143,0.10598512,0.02443461,258.12262000000004,-70.00952,19.70713,STD
24226354000000.0,0.7211066484451294,0.9440932273864746,9.768547058105469,0.4695403277873993,-0.014817952178418636,0.11942416,0.031154128,259.04717999999997,-69.60681,19.963852,STD
24226713000000.0,0.7261079549789429,0.944031298160553,9.77048110961914,0.4824046194553375,-0.011456441134214401,0.13316862,0.030848695,259.9368,-69.19768,20.208809,STD
24227053000000.0,0.7311077117919922,0.9438081979751587,9.772558212280273,0.4986119270324707,-0.00876239500939846,0.13225232,0.032070424,260.79517000000004,-68.78267,20.446041,STD
24227374000000.0,0.736111044883728,0.9434294700622559,9.774776458740234,0.5180602669715881,-0.006488637067377567,0.13408493,0.035430185,261.62424,-68.36606,20.67555,STD
24227678000000.0,0.7411091923713684,0.9429087042808533,9.777119636535645,0.5404464602470398,-0.004238389898091555,0.118202426,0.03145956,262.43707,-67.95345999999999,20.8963,STD
24227965000000.0,0.7461064457893372,0.9422509670257568,9.779584884643555,0.5656746625900269,-0.002189451362937689,0.10170906,0.03359759,263.22888,-67.54261,21.112251,STD
24228238000000.0,0.7511053681373596,0.9417816996574402,9.781808853149414,0.5917893052101135,-0.00020087428856641054,0.076052725,0.040927973,264.0097,-67.13906,21.322247,STD
24228496000000.0,0.7561045289039612,0.9418320655822754,9.783419609069824,0.6167595386505127,0.0020723824854940176,0.040011674,0.040011674,264.78195,-66.74664,21.524551000000002,STD
24228740000000.0,0.7611040472984314,0.9422784447669983,9.782751083374023,0.6399815082550049,0.004452373832464218,0.0033597588,0.04062254,265.4692,-66.4034,21.684074,STD
24228974000000.0,0.7660993933677673,0.9429628849029541,9.777667045593262,0.6606568098068237,0.006233485881239176,-0.026267206,0.03940081,266.15488,-66.06801,21.839481,STD
24229194000000.0,0.7710944414138794,0.943876326084137,9.768340110778809,0.6789027452468872,0.008147560060024261,-0.06047566,0.03634648,266.84112999999996,-65.74279,21.992943,STD
24229404000000.0,0.7760910987854004,0.9450084567070007,9.754965782165527,0.6948395371437073,0.00965035893023014,-0.083383106,0.03145956,267.5239,-65.42572,22.141863,STD
24229600000000.0,0.7810867428779602,0.9467698931694031,9.739215850830078,0.7074863314628601,0.011040514335036278,-0.09315695,0.019242255,268.2052,-65.12256,22.284325,STD
24229790000000.0,0.786082923412323,0.9494531154632568,9.722273826599121,0.7161582112312317,0.012405416928231716,-0.08002335,0.015271631,268.8783,-64.828514,22.423105,STD
24229968000000.0,0.7910782694816589,0.9535611867904663,9.707011222839355,0.7222065329551697,0.013225536793470383,-0.069027774,0.003970624,269.5607,-64.51236999999999,22.586613,STD
24230136000000.0,0.7960748672485352,0.9594807028770447,9.695608139038086,0.7266635298728943,0.013334578834474087,-0.06169739,0.0125227375,270.2307,-64.2046,22.748213,STD
24230295000000.0,0.8010717034339905,0.9666991829872131,9.687573432922363,0.73097825050354,0.013388977386057377,-0.040927973,0.011911871999999999,270.90494,-63.898807999999995,22.913275,STD
24230446000000.0,0.8060687780380249,0.9747962355613708,9.682494163513184,0.7363263368606567,0.013424200005829334,-0.021685716,0.015271631,271.5681,-63.602276,23.0751,STD
24230590000000.0,0.8110666275024414,0.9838435649871826,9.680191040039062,0.743543803691864,0.013587764464318752,-0.0125227375,0.01038471,272.22647,-63.322056,23.229933,STD
24230727000000.0,0.8160680532455444,0.9939134120941162,9.68051815032959,0.7533860206604004,0.013091517612338066,-0.00030543262000000003,0.016798794,272.86957,-63.05016,23.38102,STD
24230857000000.0,0.8210687041282654,1.0046522617340088,9.68203067779541,0.765430748462677,0.012182229198515415,0.0070249503,0.020463986,273.5032,-62.788506000000005,23.529161,STD
24230980000000.0,0.8260698914527893,1.01571786403656,9.68323802947998,0.7793059945106506,0.010654027573764324,0.02076942,0.02443461,274.12457,-62.536514000000004,23.671679,STD
24231098000000.0,0.8310686945915222,1.0265657901763916,9.68385124206543,0.7950255870819092,0.009011940099298954,0.03481932,0.029321532999999997,274.73157000000003,-62.29255,23.809872,STD
24231210000000.0,0.8360688090324402,1.0349591970443726,9.682555198669434,0.8131240010261536,0.006903933826833963,0.05589417,0.04153884,275.32596,-62.056297,23.943707,STD
24231314000000.0,0.8410686254501343,1.0411049127578735,9.679787635803223,0.8326960802078247,0.004338561557233334,0.054061572999999995,0.04734206,275.91156,-61.828915,24.071213,STD
24231415000000.0,0.846070408821106,1.0452786684036255,9.676462173461914,0.8516950011253357,0.0017145771998912096,0.06169739,0.058337633,276.48172,-61.6092,24.195694,STD
24231510000000.0,0.8511099815368652,1.0479854345321655,9.672768592834473,0.8684650659561157,-0.0019578144419938326,0.040317107000000005,0.058337633,277.04712,-61.39728,24.312393,STD
24231600000000.0,0.8561100959777832,1.0513756275177002,9.66958236694336,0.8784438371658325,-0.005678654182702303,0.015882496,0.054061572999999995,277.60645,-61.197388000000004,24.42553,STD
24231685000000.0,0.8611103892326355,1.0555481910705566,9.666927337646484,0.8810290694236755,-0.009429083205759525,-0.012217305,0.053145275,278.1595,-61.006214,24.537699,STD
24231767000000.0,0.8661113381385803,1.0604634284973145,9.664774894714355,0.8766010999679565,-0.013484238646924496,-0.030848695,0.048258353,278.7142,-60.826980000000006,24.643703,STD
24231845000000.0,0.8711066246032715,1.0660587549209595,9.663090705871582,0.865696907043457,-0.01701401360332966,-0.040011674,0.038179077,279.27164,-60.662085999999995,24.744421,STD
24231918000000.0,0.876108705997467,1.0711866617202759,9.661663055419922,0.8541588187217712,-0.01980224810540676,-0.026572637000000003,0.029932396,279.8248,-60.50823199999999,24.838951,STD
24231987000000.0,0.881104588508606,1.0756738185882568,9.660433769226074,0.843113124370575,-0.021188534796237946,0.0027488936,0.0290161,280.37292,-60.36859499999999,24.927244,STD
24232052000000.0,0.8861039280891418,1.0795413255691528,9.65939712524414,0.8325292468070984,-0.02228933572769165,0.028710667000000002,0.01863139,280.94653,-60.26014300000001,25.01234,STD
24232115000000.0,0.8911009430885315,1.0828299522399902,9.658539772033691,0.8223851323127747,-0.02297336980700493,0.063224554,0.022296581,281.50467000000003,-60.162136,25.092937,STD
24232174000000.0,0.8961009979248047,1.0860507488250732,9.658143043518066,0.8158442378044128,-0.023979052901268005,0.10445796,0.020158553,282.05167,-60.0759,25.161676,STD
24232230000000.0,0.9010971188545227,1.0893430709838867,9.65825366973877,0.8135441541671753,-0.025028804317116737,0.122478485,0.021380282999999996,282.59192,-59.998535,25.226854,STD
24232285000000.0,0.9060987830162048,1.0927118062973022,9.658862113952637,0.8153955340385437,-0.02712947130203247,0.12125675400000001,0.027183502999999998,283.12637,-59.914604000000004,25.29964,STD
24232338000000.0,0.9111006855964661,1.096148133277893,9.659933090209961,0.8211028575897217,-0.030452929437160492,0.09315695,0.028405233999999998,283.66152999999997,-59.839317,25.36751,STD
24232386000000.0,0.9161069393157959,1.1005381345748901,9.66129207611084,0.8287473320960999,-0.03517817333340645,0.04184427,0.032375857,284.20099999999996,-59.766727,25.435108,STD
24232432000000.0,0.9211462140083313,1.1064573526382446,9.662873268127441,0.8374537229537964,-0.0413769967854023,-0.031154128,0.04184427,284.7526,-59.69686,25.50403,STD
24232476000000.0,0.9261427521705627,1.113109827041626,9.664321899414062,0.8393158912658691,-0.0478314533829689,-0.062308256,0.048563786,285.28476,-59.615303000000004,25.577778,STD
24232518000000.0,0.9311414957046509,1.1205782890319824,9.665563583374023,0.8314549326896667,-0.054625581949949265,-0.14874569,0.044898596,285.85376,-59.538086,25.65674,STD
24232558000000.0,0.9361387491226196,1.1288033723831177,9.666610717773438,0.814518928527832,-0.06135062500834465,-0.21410827,0.040317107000000005,286.42188,-59.463863,25.733595,STD
24232596000000.0,0.941135585308075,1.137749433517456,9.667472839355469,0.7889533042907715,-0.06794515252113342,-0.27550024,0.031154128,287.01302999999996,-59.399296,25.809456,STD
24232633000000.0,0.9461338520050049,1.1472094058990479,9.669961929321289,0.7526593208312988,-0.07324415445327759,-0.29352075,0.027488936000000002,287.6078,-59.346244999999996,25.881582,STD
24232670000000.0,0.9511315822601318,1.1570864915847778,9.67462158203125,0.7054024338722229,-0.07697484642267227,-0.29932398,0.012217305,288.21625,-59.3078,25.946104000000002,STD
24232703000000.0,0.9561284184455872,1.167567491531372,9.683314323425293,0.645947277545929,-0.07835811376571655,-0.26878070000000004,-0.005497787,288.86536,-59.316269999999996,25.994692,STD
24232734000000.0,0.9611322283744812,1.1788501739501953,9.697800636291504,0.5727945566177368,-0.0768679529428482,-0.21197024,-0.01740966,289.50482,-59.339923999999996,26.033098000000003,STD
24232763000000.0,0.9661353826522827,1.1898727416992188,9.719478607177734,0.49184364080429077,-0.07270633429288864,-0.14905111,-0.03940081,290.17166000000003,-59.407883,26.052113000000002,STD
24232793000000.0,0.9711353182792664,1.2000577449798584,9.749007225036621,0.4064515233039856,-0.06593424081802368,-0.08002335,-0.05681047,290.8149,-59.49091,26.058493,STD
24232820000000.0,0.9761333465576172,1.206662654876709,9.786066055297852,0.320624440908432,-0.0562024749815464,-0.0027488936,-0.06719518,291.47747999999996,-59.62595,26.03977,STD
24232847000000.0,0.9811317324638367,1.2079094648361206,9.830371856689453,0.2370000034570694,-0.04435241222381592,0.08277224,-0.08307768,292.11206,-59.77496,26.004171,STD
24232872000000.0,0.9861294627189636,1.2035835981369019,9.878323554992676,0.16156527400016785,-0.02956913225352764,0.18020524,-0.0842994,292.7337,-59.976845,25.934853,STD
24232898000000.0,0.9911378622055054,1.1934516429901123,9.928181648254395,0.09749949723482132,-0.01324603334069252,0.28619036,-0.08246681,293.32074,-60.184580000000004,25.852503,STD
24232920000000.0,0.9961356520652771,1.1767845153808594,9.97434139251709,0.04947042092680931,0.0035093515180051327,0.38759398,-0.069027774,293.90082,-60.410763,25.754395000000002,STD
24232944000000.0,1.0011334419250488,1.1528244018554688,10.014074325561523,0.020363593474030495,0.019078802317380905,0.46792278,-0.040317107000000005,294.44635,-60.63215,25.653551,STD
24232965000000.0,1.0061324834823608,1.122668981552124,10.045122146606445,0.009850440546870232,0.03290698304772377,0.5296202,-0.016187929,294.9545,-60.855587,25.534653,STD
24232986000000.0,1.0111349821090698,1.0871548652648926,10.065924644470215,0.017544204369187355,0.04461464658379555,0.5879578000000001,0.018020526000000002,295.43008,-61.064842000000006,25.421026,FOL
24233004000000.0,1.0161372423171997,1.0473631620407104,10.07666015625,0.04088897630572319,0.054152026772499084,0.605062,0.046731193,295.85468,-61.251076,25.301826000000002,FOL
24233023000000.0,1.0211364030838013,1.004836082458496,10.07711124420166,0.07647869735956192,0.06184639409184456,0.5992588000000001,0.07422013,296.26242,-61.42481,25.189919,FOL
24233042000000.0,1.0261366367340088,0.9626063108444214,10.069862365722656,0.11948620527982712,0.06813778728246689,0.589485,0.10873401,296.60962,-61.559794999999994,25.086184,FOL
24233060000000.0,1.031136393547058,0.9238810539245605,10.057733535766602,0.1647159606218338,0.07383345812559128,0.57604593,0.124005646,296.95755,-61.691586,24.985767000000003,FOL
24233076000000.0,1.036135196685791,0.8899317979812622,10.04086685180664,0.2093650847673416,0.07885120809078217,0.5723807,0.14691310000000002,297.26324,-61.79225,24.895139999999998,FOL
24233093000000.0,1.0411348342895508,0.8623601198196411,10.019314765930176,0.25011196732521057,0.08343877643346786,0.58093286,0.16554448,297.56757000000005,-61.89125,24.80771,FOL
24233107000000.0,1.0461294651031494,0.8408610224723816,9.994339942932129,0.28790730237960815,0.08706565946340561,0.605062,0.1826487,297.83203,-61.982204,24.719568,FOL
24233122000000.0,1.0511293411254883,0.8254764676094055,9.967239379882812,0.32390445470809937,0.09022253751754761,0.625526,0.18509217,298.0943,-62.073795,24.632444,FOL
24233137000000.0,1.0561257600784302,0.8157309293746948,9.93824577331543,0.358244389295578,0.09308096021413803,0.6389651,0.17898351,298.34836,-62.142826,24.566816,FOL
24233151000000.0,1.0611424446105957,0.8123760223388672,9.908449172973633,0.39691904187202454,0.09572193771600723,0.636827,0.1685988,298.60046,-62.213359999999994,24.500013,FOL
24233164000000.0,1.0661368370056152,0.8139510750770569,9.87849235534668,0.43909749388694763,0.09862910956144333,0.64476824,0.14935656,298.83582,-62.2695,24.446348,FOL
24233176000000.0,1.0711312294006348,0.8189011812210083,9.849884986877441,0.48693445324897766,0.10154411941766739,0.6407976,0.12370021,299.07602,-62.33098199999999,24.388258,FOL
24233190000000.0,1.0761263370513916,0.8271979689598083,9.822907447814941,0.5402328372001648,0.1046944409608841,0.6429357,0.10720685,299.27747,-62.38616,24.33176,FOL
24233202000000.0,1.0811214447021484,0.8404553532600403,9.801998138427734,0.5996953248977661,0.10704205185174942,0.6609562,0.0983493,299.47656,-62.4449,24.269365,FOL
24233214000000.0,1.0861150026321411,0.8581182956695557,9.78684139251709,0.6649465560913086,0.10845068842172623,0.66248333,0.08735373,299.6259,-62.51523,24.188074,FOL
24233225000000.0,1.0911113023757935,0.8771359324455261,9.777594566345215,0.7359043955802917,0.10853089392185211,0.6582073,0.08399397,299.77252000000004,-62.58306999999999,24.106704999999998,FOL
24233235000000.0,1.09610915184021,0.897269606590271,9.773784637451172,0.8124825358390808,0.10722324997186661,0.6346890000000001,0.07696902,299.88992,-62.642704,24.023870000000002,FOL
24233246000000.0,1.1011039018630981,0.916580319404602,9.77342700958252,0.8972283601760864,0.10499238222837448,0.58551437,0.073303826,300.01785,-62.69984399999999,23.944376000000002,FOL
24233256000000.0,1.1061064004898071,0.9350442290306091,9.776237487792969,0.9901314973831177,0.1025385782122612,0.52534413,0.06291912,300.12585,-62.755703000000004,23.85765,FOL
24233267000000.0,1.1111040115356445,0.9517771601676941,9.779147148132324,1.089288592338562,0.10019926726818085,0.42913285,0.0421497,300.26245,-62.813065,23.774206,FOL
24233277000000.0,1.1161091327667236,0.9669291973114014,9.782015800476074,1.1943577527999878,0.09770790487527847,0.33475417,0.024129177,300.36725,-62.871582,23.679281,FOL
24233288000000.0,1.1211048364639282,0.9817524552345276,9.783056259155273,1.2978965044021606,0.09520281851291656,0.29046643,0.014660766,300.48856,-62.932835,23.585684,FOL
24233296000000.0,1.1261169910430908,0.9962717294692993,9.782068252563477,1.4002236127853394,0.0937264934182167,0.14844026,0.009468411,300.63055,-62.99179,23.494781,FOL
24233304000000.0,1.1311174631118774,1.0095645189285278,9.776378631591797,1.497323751449585,0.09477044641971588,0.093767814,0.013133603,300.7611,-63.053963,23.402338,FOL
24233313000000.0,1.1361125707626343,1.02168607711792,9.766133308410645,1.5894805192947388,0.09632847458124161,0.0015271631,0.017104227,300.92438,-63.110775,23.319454,FOL
24233321000000.0,1.141113042831421,1.0328669548034668,9.750519752502441,1.6746799945831299,0.09912193566560745,-0.07880162,0.01740966,301.10162,-63.175587,23.240507,FOL
24233330000000.0,1.146108865737915,1.0432069301605225,9.729856491088867,1.7528883218765259,0.10241761803627014,-0.13347405,0.027183502999999998,301.29865,-63.23673,23.170560000000002,FOL
24233338000000.0,1.1511098146438599,1.0527408123016357,9.696028709411621,1.817028284072876,0.10521211475133896,-0.16646078,0.040011674,301.5055,-63.292328000000005,23.109554,FOL
24233346000000.0,1.156106948852539,1.0615193843841553,9.647933006286621,1.8661298751831055,0.10595323890447617,-0.16676621,0.055283304000000005,301.71832,-63.342769999999994,23.053520000000002,FOL
24233355000000.0,1.1611154079437256,1.0691800117492676,9.593523979187012,1.9007997512817383,0.10348077863454819,-0.15668693,0.07238753,301.93372,-63.38545,23.003752,FOL
24233363000000.0,1.1661138534545898,1.0757131576538086,9.536260604858398,1.9228323698043823,0.09814505279064178,-0.12583824,0.09132435,302.1416,-63.41995,22.957136,FOL
24233372000000.0,1.171114444732666,1.0778510570526123,9.480412483215332,1.9338713884353638,0.08965916186571121,-0.09010262,0.10567969,302.35385,-63.440273,22.927654,FOL
24233380000000.0,1.1761642694473267,1.073451280593872,9.42783260345459,1.9335185289382935,0.07892346382141113,-0.061086524,0.12278391400000001,302.5568,-63.45044,22.902017999999998,FOL
24233388000000.0,1.1811633110046387,1.0649547576904297,9.387138366699219,1.9263414144515991,0.06682290136814117,-0.04153884,0.1151481,302.78442,-63.465164,22.877605,FOL
24233395000000.0,1.1861594915390015,1.0517216920852661,9.36262321472168,1.9115034341812134,0.05364181101322174,-0.04550946,0.103847094,303.00858,-63.471764,22.85576,FOL
24233400000000.0,1.1911580562591553,1.0368372201919556,9.361591339111328,1.893837571144104,0.041260842233896255,-0.081855945,0.07971791,303.2762,-63.51239,22.814009,FOL
24233407000000.0,1.1961567401885986,1.0217514038085938,9.386222839355469,1.8756214380264282,0.03102092631161213,-0.14202617,0.053145275,303.55206,-63.557235999999996,22.769823000000002,FOL
24233413000000.0,1.2011536359786987,1.0081443786621094,9.436887741088867,1.8599061965942383,0.0231009554117918,-0.22266038,0.042455133,303.8968,-63.64915,22.700598,FOL
24233420000000.0,1.2061505317687988,0.9969063997268677,9.513503074645996,1.8483161926269531,0.016840141266584396,-0.29871312,0.05681047,304.25647000000004,-63.74503000000001,22.634354000000002,FOL
24233426000000.0,1.211147427558899,0.9886592626571655,9.614714622497559,1.83738112449646,0.010750208981335163,-0.34269542,0.076358154,304.67438,-63.883442,22.541245,FOL
24233432000000.0,1.216145396232605,0.9841470718383789,9.739367485046387,1.8231841325759888,0.003259427845478058,-0.31887165,0.1142318,305.0891,-64.01321999999999,22.45727,FOL
24233439000000.0,1.221142292022705,0.9809147119522095,9.87381362915039,1.8032485246658325,-0.006989955436438322,-0.26969699999999996,0.13897185,305.54327,-64.16812,22.345748999999998,FOL
24233445000000.0,1.226138710975647,0.9773634076118469,10.009199142456055,1.776025414466858,-0.018548738211393356,-0.11789699,0.21563543,305.94836000000004,-64.29902,22.251307999999998,FOL
24233451000000.0,1.231136441230774,0.9698605537414551,10.13498592376709,1.7463282346725464,-0.03240516781806946,0.08827003,0.30298916,306.36224,-64.440384,22.143917000000002,FOL
24233457000000.0,1.2361356019973755,0.9552046060562134,10.241827964782715,1.7184741497039795,-0.04749270901083946,0.28221974,0.39003745,306.7231,-64.558784,22.050342999999998,FOL
24233464000000.0,1.2411344051361084,0.9333152770996094,10.325881958007812,1.6963391304016113,-0.06154831126332283,0.44837508,0.4529566,307.0685,-64.67696,21.961682999999997,FOL
24233470000000.0,1.2461745738983154,0.9028451442718506,10.381088256835938,1.683984398841858,-0.07430142164230347,0.6093381,0.4859433,307.3476,-64.77502,21.878763,FOL
24233476000000.0,1.2511719465255737,0.8675933480262756,10.413805961608887,1.6777056455612183,-0.0863911584019661,0.65270954,0.48747048,307.59546,-64.867645,21.7931,FOL
24233483000000.0,1.2561661005020142,0.8273593783378601,10.420639991760254,1.6773518323898315,-0.09785287827253342,0.7440339,0.49418998,307.77472,-64.950424,21.70733,FOL
24233489000000.0,1.2611699104309082,0.7850096821784973,10.40296459197998,1.6863027811050415,-0.10792245715856552,0.8500190000000001,0.48533243,307.88464,-65.02632,21.608078,FOL
24233495000000.0,1.2661683559417725,0.7434437870979309,10.3643798828125,1.706561803817749,-0.11734145879745483,1.0091494,0.47311515,307.95026,-65.09826,21.503159,FOL
24233502000000.0,1.271166443824768,0.7030799388885498,10.31021785736084,1.7381621599197388,-0.1257050633430481,1.1313223999999997,0.4605924,307.94946,-65.156624,21.39454,FOL
24233508000000.0,1.2761647701263428,0.6643804311752319,10.24628734588623,1.7809768915176392,-0.1313115656375885,1.2330315,0.47739118,307.90744,-65.21434,21.28465,FOL
24233514000000.0,1.2811622619628906,0.6284390091896057,10.174159049987793,1.8368523120880127,-0.13425907492637634,1.3060299,0.49205196,307.7709,-65.23594,21.180504,FOL
24233520000000.0,1.2861584424972534,0.597034752368927,10.095911979675293,1.9091507196426392,-0.1332080364227295,1.3249667,0.5335908,307.62018,-65.25598000000001,21.087695999999998,FOL
24233527000000.0,1.2911524772644043,0.5700752139091492,10.011796951293945,2.0001590251922607,-0.126369446516037,1.2608258999999997,0.5879578000000001,307.40903,-65.247795,21.011505,FOL
24233533000000.0,1.2961523532867432,0.5476197600364685,9.921684265136719,2.1139235496520996,-0.11384013295173645,1.1123856,0.65087694,307.21732000000003,-65.23804,20.955122,FOL
24233540000000.0,1.3011493682861328,0.5297546982765198,9.825252532958984,2.2481131553649902,-0.09462118148803711,0.84513205,0.6817255999999999,307.00674,-65.19431,20.93286,FOL
24233546000000.0,1.3061456680297852,0.5168905854225159,9.721306800842285,2.4014689922332764,-0.06965508311986923,0.49266282,0.6988298000000001,306.86502,-65.15431,20.940134,FOL
24233552000000.0,1.3111406564712524,0.5078597664833069,9.6087646484375,2.5619380474090576,-0.03957366570830345,0.08368854,0.6924158,306.72205,-65.0635,20.99286,FOL
24233558000000.0,1.3161460161209106,0.5010934472084045,9.484896659851074,2.711308002471924,-0.004942529834806919,-0.28283059999999993,0.6575964,306.67322,-64.99481,21.062054,FOL
24233564000000.0,1.3211394548416138,0.49656686186790466,9.353097915649414,2.844412326812744,0.03516782447695732,-0.4334089,0.6261369000000001,306.5783,-64.8748,21.169810000000002,FOL
24233570000000.0,1.3261363506317139,0.49482935667037964,9.216348648071289,2.9474925994873047,0.07694948464632034,-0.6728681,0.5540548000000001,306.6236,-64.781746,21.285120000000003,FOL
24233577000000.0,1.3311314582824707,0.49639639258384705,9.078807830810547,3.022909641265869,0.1242687776684761,-0.8338310999999999,0.46700647,306.67386,-64.70759,21.412403,FOL
24233583000000.0,1.3361310958862305,0.5030946731567383,8.95025634765625,3.072500467300415,0.17661899328231812,-0.92057395,0.38240165,306.77667,-64.66088,21.52834,FOL
24233588000000.0,1.3411284685134888,0.5149781703948975,8.83131217956543,3.0979599952697754,0.23127412796020508,-0.95142263,0.32162055,306.9642,-64.662224,21.64434,FOL
24233592000000.0,1.3461283445358276,0.5363281965255737,8.732733726501465,3.0982158184051514,0.28705331683158875,-0.9324858,0.28160888,307.16565,-64.69566,21.741001,FOL
24233598000000.0,1.3511264324188232,0.565998375415802,8.653901100158691,3.0773510932922363,0.3420247733592987,-0.8570439000000001,0.28252518,307.42657,-64.771126,21.835648000000003,FOL
24233602000000.0,1.356125831604004,0.60224848985672,8.595847129821777,3.0430612564086914,0.3962478041648865,-0.7635816,0.29504790000000003,307.6767,-64.86106,21.915342000000003,FOL
24233606000000.0,1.3611249923706055,0.6451204419136047,8.55780029296875,2.9967355728149414,0.44876939058303833,-0.623388,0.34086279999999997,307.9696,-64.96798000000001,22.005323,FOL
24233613000000.0,1.3661255836486816,0.6956037878990173,8.540050506591797,2.9406988620758057,0.4988500475883484,-0.48380527,0.38056904,308.23206,-65.072,22.085957,FOL
24233617000000.0,1.37112557888031,0.7528678774833679,8.540973663330078,2.8763837814331055,0.5483940839767456,-0.31734450000000003,0.44868052,308.5025,-65.17711,22.187263,FOL
24233623000000.0,1.3761260509490967,0.8154529333114624,8.558340072631836,2.8068699836730957,0.5977393984794617,-0.11453723,0.52198434,308.71472,-65.26621999999999,22.285172,FOL
24233627000000.0,1.381125807762146,0.8821141719818115,8.589195251464844,2.735196590423584,0.646929144859314,0.06627888,0.58551437,308.94666,-65.34363,22.403382999999998,FOL
24233632000000.0,1.386136770248413,0.9495230913162231,8.625994682312012,2.6713902950286865,0.69647616147995,0.21746802,0.6200281999999999,309.12054,-65.409615,22.5178,FOL
24233638000000.0,1.391135334968567,1.016928791999817,8.666940689086914,2.616243362426758,0.7463126182556152,0.3203988,0.6536258,309.2949,-65.457886,22.655983,FOL
24233642000000.0,1.3961341381072998,1.0817294120788574,8.70545768737793,2.5815579891204834,0.7963742613792419,0.34086279999999997,0.675617,309.44434,-65.49874,22.789684,FOL
24233648000000.0,1.4011410474777222,1.1433802843093872,8.740781784057617,2.5662472248077393,0.8458352088928223,0.3145956,0.7086037,309.559,-65.51772,22.930204,FOL
24233653000000.0,1.406139850616455,1.193520426750183,8.762571334838867,2.5620338916778564,0.8962900638580322,0.3203988,0.73792523,309.6547,-65.53296999999999,23.067234,FOL
24233657000000.0,1.4111428260803223,1.232385516166687,8.771012306213379,2.568798780441284,0.9483370184898376,0.34208453,0.7644979000000001,309.66317999999995,-65.516,23.217276000000002,FOL
24233663000000.0,1.4161458015441895,1.255632758140564,8.764610290527344,2.5833585262298584,1.0026724338531494,0.36010507,0.7959574,309.66895,-65.4904,23.37228,FOL
24233667000000.0,1.4211422204971313,1.2638384103775024,8.74423599243164,2.6048107147216797,1.0588001012802124,0.40622538,0.81245077,309.65848,-65.46112,23.524046,FOL
24233671000000.0,1.4261404275894165,1.2545256614685059,8.72092342376709,2.6236937046051025,1.11372709274292,0.47739118,0.8188649,309.57736,-65.42108,23.671722,FOL
24233678000000.0,1.4311368465423584,1.2286126613616943,8.695784568786621,2.639378547668457,1.167419672012329,0.55680364,0.8176431,309.4794,-65.37843000000001,23.816917,FOL
24233682000000.0,1.4361343383789062,1.1950538158416748,8.675004005432129,2.6515724658966064,1.2196344137191772,0.6591236,0.7996226,309.32596,-65.35013000000001,23.934132,FOL
24233688000000.0,1.4411309957504272,1.1595693826675415,8.66222858428955,2.660198450088501,1.2692292928695679,0.7370089,0.79290307,309.15594,-65.31359,24.050710000000002,FOL
24233692000000.0,1.4461294412612915,1.122227668762207,8.657094955444336,2.665419578552246,1.3160345554351807,0.7724390999999999,0.7693848000000001,309.00845,-65.34886999999999,24.094559,FOL
24233697000000.0,1.4511271715164185,1.0831596851348877,8.659136772155762,2.667442560195923,1.3609966039657593,0.7452555999999999,0.7415904000000001,308.8581,-65.381546,24.13431,FOL
24233703000000.0,1.456174612045288,1.0257208347320557,8.697239875793457,2.6250791549682617,1.405938982963562,0.6774496,0.70402217,308.7061,-65.4169,24.167652,FOL
24233707000000.0,1.4611718654632568,0.9545915126800537,8.762874603271484,2.5477259159088135,1.4547855854034424,0.56107974,0.66248333,308.58017,-65.45838,24.193499,FOL
24233713000000.0,1.466169834136963,0.8777750730514526,8.847743034362793,2.45068359375,1.5119022130966187,0.35155296,0.6114761,308.55627000000004,-65.5607,24.166132,FOL
24233718000000.0,1.4711687564849854,0.8012920618057251,8.94388198852539,2.346278429031372,1.5795828104019165,0.10415252,0.5681046999999999,308.58252000000005,-65.66792,24.13204,FOL
24233722000000.0,1.4761648178100586,0.7335678935050964,9.047506332397461,2.249281883239746,1.6569063663482666,-0.13286320000000001,0.5357288,308.95706,-65.95364000000001,23.935505,FOL
24233728000000.0,1.4811615943908691,0.6795198917388916,9.15649127960205,2.16833758354187,1.739647626876831,-0.34300083,0.528093,309.39697,-66.21956999999999,23.736694,FOL
24233732000000.0,1.4861576557159424,0.637554407119751,9.256973266601562,2.104640483856201,1.8201117515563965,-0.5314528000000001,0.5366451,309.97046,-66.49334,23.501776,FOL
24233736000000.0,1.491153359413147,0.6067333221435547,9.344396591186523,2.058061122894287,1.8911603689193726,-0.72601336,0.5393939999999999,310.60364,-113.26628999999998,23.26107,FOL
24233743000000.0,1.496148705482483,0.5861026644706726,9.417181968688965,2.0098190307617188,1.9488352537155151,-0.904386,0.51068336,311.2126,-113.08693999999998,23.042414,FOL
24233747000000.0,1.5011656284332275,0.5755742192268372,9.473710060119629,1.947267770767212,1.9952000379562378,-1.0137309,0.47250426,311.85184,-112.93722,22.817318,FOL
24233753000000.0,1.5061613321304321,0.5734860301017761,9.520151138305664,1.8791847229003906,2.036668539047241,-1.0271700000000001,0.44257188,312.4064,-112.86944,22.646683,FOL
24233757000000.0,1.5111631155014038,0.580312967300415,9.557902336120605,1.8074798583984375,2.0821452140808105,-0.9822713,0.41141775,312.96957000000003,-112.81638999999998,22.460613000000002,FOL
24233762000000.0,1.5161601305007935,0.5971274375915527,9.58945369720459,1.738243579864502,2.135111093521118,-0.9615019,0.39431350000000004,313.55014,-112.8383,22.311016,FOL
24233768000000.0,1.5211563110351562,0.6245639324188232,9.616032600402832,1.6743425130844116,2.190300226211548,-0.9825767,0.35521814,314.12167,-112.87055,22.141241,FOL
24233772000000.0,1.526152491569519,0.6643451452255249,9.637655258178711,1.6149718761444092,2.252802848815918,-1.0256428,0.3136793,314.67206,-112.99476000000001,22.008644,FOL
24233776000000.0,1.5311514139175415,0.7184674739837646,9.654284477233887,1.5593138933181763,2.32035756111145,-1.1053606000000002,0.28619036,315.23233,-113.14206999999999,21.860928,FOL
24233783000000.0,1.536148190498352,0.7826998233795166,9.663944244384766,1.5079059600830078,2.3909530639648438,-1.1728611999999998,0.27855456,315.7387,-113.38113999999999,21.763588000000002,FOL
24233787000000.0,1.5411444902420044,0.854473352432251,9.66543960571289,1.4610224962234497,2.4627346992492676,-1.241889,0.26389378,316.26144,-113.64568999999999,21.646248,FOL
24233793000000.0,1.5461421012878418,0.9300556778907776,9.6553373336792,1.4225739240646362,2.5339138507843018,-1.3041973,0.24373524,316.73742999999996,-114.01026999999999,21.596716,FOL
24233797000000.0,1.5511397123336792,1.006959319114685,9.631763458251953,1.3948352336883545,2.6036598682403564,-1.3701707,0.20677789,317.2269,-114.391655,21.526370999999997,FOL
24233801000000.0,1.5561363697052002,1.0817644596099854,9.59450626373291,1.3775821924209595,2.672797918319702,-1.4538593,0.16615535,317.67834,-114.85728999999999,21.510366,FOL
24233808000000.0,1.5611350536346436,1.1523364782333374,9.543458938598633,1.3706154823303223,2.7397327423095703,-1.5720617000000001,0.11728613,318.15045,-115.32327,21.466467,FOL
24233812000000.0,1.5661342144012451,1.2163714170455933,9.478527069091797,1.3702412843704224,2.8048582077026367,-1.675298,0.05467244,318.5683,-115.846275,21.457811,FOL
24233818000000.0,1.571177363395691,1.2710261344909668,9.39676570892334,1.3737659454345703,2.8690686225891113,-1.7556266999999999,0.015882496,319.00622999999996,-116.37548999999999,21.426884,FOL
24233822000000.0,1.576171636581421,1.3192321062088013,9.305254936218262,1.383732557296753,2.933828830718994,-1.8362609,-0.025350908,319.41547,-116.94313000000001,21.408414999999998,FOL
24233827000000.0,1.5811675786972046,1.3610684871673584,9.201644897460938,1.4040629863739014,3.0021369457244873,-1.9000963,-0.06719518,319.83337,-117.52295,21.366089000000002,FOL
24233833000000.0,1.5861635208129883,1.3971600532531738,9.085628509521484,1.4375755786895752,3.0733156204223633,-1.9895881000000002,-0.09315695,320.2598,-118.14018,21.31342,FOL
24233837000000.0,1.5911588668823242,1.4280868768692017,8.9568452835083,1.4870049953460693,3.145925998687744,-2.1035144,-0.10567969,320.70187000000004,-118.77346000000001,21.23731,FOL
24233841000000.0,1.5961527824401855,1.4548451900482178,8.815736770629883,1.5534688234329224,3.2189478874206543,-2.1939224999999998,-0.11881329,321.1173,-119.45195,21.172810000000002,FOL
24233848000000.0,1.601149559020996,1.4785022735595703,8.662284851074219,1.6388869285583496,3.2898848056793213,-2.2843306,-0.12034045,321.5579,-120.1409,21.089222,FOL
24233852000000.0,1.606146216392517,1.4985880851745605,8.49514389038086,1.7410516738891602,3.3568787574768066,-2.3475552000000004,-0.09987647,321.96292,-120.862885,21.049303,FOL
24233858000000.0,1.611149549484253,1.513696312904358,8.30929946899414,1.8573074340820312,3.4191954135894775,-2.3585507999999997,-0.08063421400000001,322.37177,-121.58353999999999,20.99715,FOL
24233862000000.0,1.6161483526229858,1.5231623649597168,8.105083465576172,1.9845256805419922,3.476140022277832,-2.3310618,-0.073303826,322.72213999999997,-122.33211499999999,21.037027,FOL
24233866000000.0,1.621145486831665,1.5247730016708374,7.879162311553955,2.118685722351074,3.528536319732666,-2.2498167000000002,-0.07086037,323.05697999999995,-123.07046000000001,21.077671,FOL
24233873000000.0,1.6261425018310547,1.5188252925872803,7.63155460357666,2.25738787651062,3.575747489929199,-2.0717494,-0.054061572999999995,323.32693,-123.83809,21.259178,FOL
24233877000000.0,1.6311389207839966,1.5054446458816528,7.360142707824707,2.393198251724243,3.617349863052368,-1.813659,-0.04642576,323.54706,-124.575226,21.446625,FOL
24233883000000.0,1.636136770248413,1.4848971366882324,7.064026355743408,2.5237836837768555,3.6536097526550293,-1.493871,-0.040317107000000005,323.67822,-125.35921,21.747162,FOL
24233887000000.0,1.6411722898483276,1.456147313117981,6.7300944328308105,2.6375656127929688,3.683835506439209,-1.1297953,-0.03176499,323.72452000000004,-126.10302,22.075502,FOL
24233892000000.0,1.6461713314056396,1.421473741531372,6.371638774871826,2.735537528991699,3.7087717056274414,-0.7996226,-0.058643065,323.66507,-126.862854,22.365362,FOL
24233898000000.0,1.6511659622192383,1.3758124113082886,5.967101573944092,2.7900328636169434,3.728391170501709,-0.5564981999999999,-0.13622294,323.52203,-127.58209,22.682816,FOL
24233902000000.0,1.656164288520813,1.3194068670272827,5.51800537109375,2.8010189533233643,3.7416584491729736,-0.41386122,-0.28221974,323.3141,-128.37735,22.965920999999998,FOL
24233906000000.0,1.6611603498458862,1.253711462020874,5.040821552276611,2.7575066089630127,3.7506539821624756,-0.37751472,-0.4859433,323.04623,-129.13461,23.241787,FOL
24233913000000.0,1.6661549806594849,1.179186463356018,4.536899566650391,2.662247896194458,3.758047103881836,-0.4709771,-0.6786713000000001,322.87656,-129.9928,23.410425,FOL
24233917000000.0,1.671149730682373,1.1034647226333618,4.027027606964111,2.5131919384002686,3.7642159461975098,-0.6719518,-0.8564331000000001,322.69347999999997,-130.81033,23.528072,FOL
24233923000000.0,1.676145315170288,1.0272055864334106,3.513080596923828,2.3126325607299805,3.7693886756896973,-0.9764681000000001,-0.9801333000000001,322.5368,-131.60681,23.585907000000002,FOL
24233927000000.0,1.6811434030532837,0.9641857743263245,3.0120270252227783,2.0673892498016357,3.7715673446655273,-1.3738358999999998,-1.0302242,322.61688,-132.53799999999998,23.43447,FOL
24233931000000.0,1.6861376762390137,0.9148117899894714,2.5251305103302,1.781520962715149,3.76627254486084,-1.8185457999999999,-1.0186177,322.7713,-133.45601000000002,23.205301000000002,FOL
24233938000000.0,1.6911369562149048,0.8918045163154602,2.054959774017334,1.4525437355041504,3.7484335899353027,-2.1627683999999996,-0.9285152,323.1515,-134.50028999999998,22.789366,FOL
24233942000000.0,1.6961315870285034,0.8943297266960144,1.601338505744934,1.0844647884368896,3.7039387226104736,-2.3790147,-0.8045095,323.60562000000004,-135.4811,22.313982,FOL
24233948000000.0,1.7011293172836304,0.9268419742584229,1.164491057395935,0.7013514637947083,3.626574754714966,-2.4959952999999997,-0.6899723000000001,324.205,-136.54238999999998,21.74929,FOL
24233952000000.0,1.7061249017715454,0.9881539940834045,0.743916928768158,0.3091239035129547,3.519721031188965,-2.4663684,-0.5891795,324.8223,-137.52553,21.181179999999998,FOL
24233959000000.0,1.7111525535583496,1.0704678297042847,0.34147071838378906,-0.1019076406955719,3.388448715209961,-1.9245310000000002,-0.5009095,325.40536000000003,-138.5542,20.752352,FOL
24233963000000.0,1.7161521911621094,1.166300892829895,-0.04240180552005768,-0.52397221326828,3.2374448776245117,-1.6148223,-0.464563,326.02417,-139.4625,20.28774,FOL
24233967000000.0,1.7211506366729736,1.2634990215301514,-0.40087223052978516,-0.9558751583099365,3.0834197998046875,-0.91751957,-0.40256020000000003,326.4443,-140.44742,20.210102,FOL
24233971000000.0,1.7261474132537842,1.3576921224594116,-0.7326902151107788,-1.3957226276397705,2.9232466220855713,-0.21960606,-0.3659083,326.79984,-141.29373,20.197096,FOL
24233978000000.0,1.7311464548110962,1.449072003364563,-1.0391666889190674,-1.843540072441101,2.766498327255249,0.33200526,-0.35613444,327.07034,-142.23761000000002,20.374585999999997,FOL
24233982000000.0,1.7361440658569336,1.5377591848373413,-1.3217540979385376,-2.298485040664673,2.6214241981506348,0.6554584,-0.39278635,327.25167999999996,-143.1466,20.641745,FOL
24233988000000.0,1.7411423921585083,1.6172183752059937,-1.5279936790466309,-2.8140244483947754,2.4970219135284424,0.6930265999999999,-0.41263947,327.3959,-144.07724,20.958986,FOL
24233992000000.0,1.7461401224136353,1.6861460208892822,-1.647678256034851,-3.40107798576355,2.403160810470581,0.44104472,-0.35888332,327.5526,-145.07506,21.276972,FOL
24233996000000.0,1.7511392831802368,1.7647367715835571,-1.5718555450439453,-4.054781436920166,2.3487610816955566,0.0012217305,-0.19853121,327.82175,-146.23518,21.402296,FOL
24234003000000.0,1.7561653852462769,1.8603789806365967,-1.2547798156738281,-4.780364513397217,2.332484483718872,-0.4175264,-0.040317107000000005,328.14352,-147.50601,21.471674,FOL
24234007000000.0,1.7611703872680664,1.9328117370605469,-0.8435452580451965,-5.50740385055542,2.3437376022338867,-0.5946773,0.0033597588,328.5314,-148.78542,21.078625,FOL
24234013000000.0,1.7661672830581665,1.964345932006836,-0.38561853766441345,-6.212849140167236,2.373126268386841,-0.4266894,-0.05955936,328.90952000000004,-150.18018999999998,20.7087,FOL
24234017000000.0,1.7711646556854248,1.9460432529449463,0.0953008309006691,-6.8924784660339355,2.4150774478912354,0.09743301,-0.17837265,329.0748,-151.07977,20.100616,FOL
24234022000000.0,1.7761601209640503,1.8745182752609253,0.5824174284934998,-7.543729782104492,2.464982748031616,0.9245445999999999,-0.301462,329.13302999999996,-152.01997,19.717005,FOL
24234028000000.0,1.7811553478240967,1.7419317960739136,1.0546741485595703,-8.137375831604004,2.517127752304077,1.9404134999999998,-0.39522982,329.01807,-152.73338,19.326954,FOL
24234032000000.0,1.7861523628234863,1.5353538990020752,1.4813588857650757,-8.62978744506836,2.5609922409057617,2.9055805,-0.43401974,328.7854,-153.42262,19.232457999999998,FOL
24234036000000.0,1.7911481857299805,1.260160207748413,1.8355441093444824,-8.99903678894043,2.5845487117767334,3.4578027999999996,-0.42577308,328.44277999999997,-153.98232,19.084929000000002,FOL
24234043000000.0,1.7961764335632324,0.9104229211807251,2.0892908573150635,-9.215217590332031,2.5789830684661865,3.5149186,-0.34666604,328.0598,-154.45662,19.13907,FOL
24234047000000.0,1.8011729717254639,0.5225850343704224,2.2526798248291016,-9.323356628417969,2.5401175022125244,3.218649,-0.2678644,327.6533,-154.78842,19.10448,FOL
24234053000000.0,1.8061695098876953,0.10094422101974487,2.3122878074645996,-9.32309341430664,2.4694013595581055,2.9431488999999997,-0.21899518,327.26572000000004,-154.98183999999998,19.148087,FOL
24234057000000.0,1.8111671209335327,-0.3288727402687073,2.280010938644409,-9.263866424560547,2.371152400970459,2.179567,-0.20708331,327.02423,-155.07779,18.913033,FOL
24234061000000.0,1.8161659240722656,-0.7450609803199768,2.1667096614837646,-9.187987327575684,2.2641897201538086,1.1120802,-0.18875736,326.8905,-155.10228,18.569357,FOL
24234068000000.0,1.821163535118103,-1.1060585975646973,1.9945448637008667,-9.159131050109863,2.1414248943328857,-0.040927973,-0.15241088,326.90546,-155.09807,17.972901999999998,FOL
24234072000000.0,1.8261616230010986,-1.3703278303146362,1.784269094467163,-9.240743637084961,2.0114645957946777,-0.9850201999999999,-0.061391957000000004,327.06143,-155.0756,17.183687,FOL
24234078000000.0,1.8311597108840942,-1.5212054252624512,1.5526032447814941,-9.423919677734375,1.8832865953445435,-1.4153748,0.06536258,327.36804,-155.1875,16.244394,FOL
24234082000000.0,1.8361577987670898,-1.5350079536437988,1.3205331563949585,-9.69933795928955,1.7605234384536743,-1.255328,0.22174409,327.74554,-155.26447,15.239357,FOL
24234087000000.0,1.8411544561386108,-1.4217997789382935,1.0963759422302246,-10.040438652038574,1.644091010093689,-0.6401868000000001,0.39920044,328.21157999999997,-155.57176,14.4322195,FOL
24234093000000.0,1.8461533784866333,-1.1894508600234985,0.8911765217781067,-10.415300369262695,1.5366796255111694,0.21105394,0.56291234,328.6494,-155.89733999999999,13.761894,FOL
24234097000000.0,1.851148247718811,-0.8716619610786438,0.7019655108451843,-10.78338623046875,1.4430172443389893,1.1288790000000002,0.7104363,329.0474,-156.40558000000001,13.621360999999998,FOL
24234101000000.0,1.8561447858810425,-0.5033385753631592,0.5256177186965942,-11.095720291137695,1.3668147325515747,1.9382755,0.79717916,329.3748,-156.94797,13.693537,FOL
24234108000000.0,1.8611412048339844,-0.11648954451084137,0.3609256446361542,-11.33266544342041,1.3066208362579346,2.477975,0.7831292,329.62338,-157.57805,14.259414000000001,FOL
24234112000000.0,1.8661439418792725,0.24510036408901215,0.20655806362628937,-11.462321281433105,1.25554358959198,2.6740627,0.6640105,329.81555,-158.22134,14.927239000000002,FOL
24234118000000.0,1.8711374998092651,0.5683914422988892,0.06349693983793259,-11.501107215881348,1.2057722806930542,2.5912905,0.48105640000000005,329.93582000000004,-158.84685,15.847926000000001,FOL
24234122000000.0,1.876137375831604,0.8291401267051697,-0.06589827686548233,-11.45827579498291,1.1509217023849487,2.2357669999999996,0.28680122,330.03564,-159.4439,16.705270000000002,FOL
24234126000000.0,1.8811315298080444,1.025694489479065,-0.18652045726776123,-11.391165733337402,1.0870304107666016,1.8399261000000002,0.16890424,330.09036000000003,-159.92786999999998,17.55728,FOL
24234133000000.0,1.886129379272461,1.143076777458191,-0.3080929219722748,-11.418464660644531,1.0152801275253296,1.4001031000000002,0.15699236,330.16904,-160.36238,18.274422,FOL
24234137000000.0,1.891126036643982,1.1790928840637207,-0.41641297936439514,-11.532075881958008,0.9468978047370911,1.0256428,0.1255328,330.21317,-160.69791999999998,18.820944,FOL
24234143000000.0,1.8961578607559204,1.1046850681304932,-0.46883755922317505,-11.73503589630127,0.9030598998069763,-0.18387043,-0.17104226,330.3147,-161.05685,18.989096,FOL
24234147000000.0,1.9011530876159668,1.0393805503845215,-0.442727655172348,-11.98979377746582,0.9236074686050415,-1.7177529999999999,-0.29810223,330.56363,-161.69613999999999,18.70658,FOL
24234152000000.0,1.9061503410339355,1.2451306581497192,-0.2201513946056366,-12.27196979522705,1.0808640718460083,-2.3066272999999997,0.11453723,330.89795,-162.84247,18.376017,FOL
24234158000000.0,1.9111549854278564,1.6832549571990967,0.1470310240983963,-12.576804161071777,1.3034764528274536,-2.8292224,1.3695598999999998,331.5427,-163.95908,17.374056,FOL
24234162000000.0,1.9161546230316162,2.202019691467285,0.4471813440322876,-12.883515357971191,1.5760302543640137,-2.382069,1.844813,332.02286000000004,-165.64981,16.459341000000002,FOL
24234166000000.0,1.9211517572402954,2.797995090484619,0.6834756731987,-13.192154884338379,1.7760463953018188,-0.5390885999999999,1.5338826,332.40842000000004,-166.63431,16.53482,FOL
24234173000000.0,1.9261506795883179,3.26059889793396,0.8554633259773254,-13.496400833129883,1.8772287368774414,2.1261165,0.78801614,332.7023,-167.71883,16.94945,FOL
24234177000000.0,1.9311466217041016,3.558310031890869,0.9668305516242981,-13.795025825500488,1.9147459268569946,4.664567,-0.057726767000000005,332.75314,-168.5761,17.790401,FOL
24234183000000.0,1.9361454248428345,3.6545252799987793,1.048673152923584,-13.837908744812012,1.935418725013733,6.3978972,-0.5852089,332.55136,-169.36108000000002,19.378498,FOL
24234187000000.0,1.941140055656433,3.5562353134155273,1.1089582443237305,-13.5946626663208,1.9594173431396484,7.442782000000001,-0.77640975,332.0714,-169.8732,21.381176,FOL
24234191000000.0,1.9461398124694824,3.2465739250183105,1.1460779905319214,-13.094286918640137,1.9787675142288208,8.428108,-0.6392705,331.51498,-170.31769,23.454363,FOL
24234198000000.0,1.951139211654663,2.726470708847046,1.160132884979248,-12.372546195983887,1.9767072200775146,8.399397,-0.28038713,330.95325,-170.67548,25.479945999999998,FOL
24234202000000.0,1.9561372995376587,2.0921928882598877,1.1332075595855713,-11.460943222045898,1.9329077005386353,6.01855,0.2049453,330.48163,-170.78496,26.91998,FOL
24234208000000.0,1.961141586303711,1.3915377855300903,1.0559618473052979,-10.373477935791016,1.8130344152450562,2.0909917,0.7125743,330.1798,-170.64700000000002,27.896748,FOL
24234212000000.0,1.966180443763733,0.7550244927406311,0.8976176977157593,-9.348247528076172,1.6147282123565674,-1.2024882,1.0024298,330.15936,-170.48982,28.316999999999997,FOL
24234217000000.0,1.9711778163909912,0.22162991762161255,0.6735101342201233,-8.47078800201416,1.3780442476272583,-3.0253099999999997,0.94225967,330.3323,-170.14731,28.047344,FOL
24234223000000.0,1.9761749505996704,-0.13573285937309265,0.38008973002433777,-7.834461688995361,1.1426610946655273,-3.794695,0.5891795,330.64893,-169.60689,27.220941999999997,FOL
24234227000000.0,1.981172800064087,-0.2851719260215759,0.024274460971355438,-7.479320526123047,0.938671350479126,-4.032321499999999,0.054367005999999996,330.97574,-168.92934,26.003695999999998,FOL
24234231000000.0,1.9861674308776855,-0.25776541233062744,-0.3592941164970398,-7.3523945808410645,0.7876459956169128,-3.4990360000000003,-0.52931476,331.31592,-168.47699,24.793156,FOL
24234238000000.0,1.9911644458770752,-0.06936103105545044,-0.7526460886001587,-7.426027297973633,0.6896109580993652,-2.1041252999999998,-1.0445796,331.46762,-168.06735,23.71119,FOL
24234242000000.0,1.9961621761322021,0.25479814410209656,-1.117395281791687,-7.6594061851501465,0.6304295063018799,-0.52442783,-1.4074335,331.55548,-168.0575,22.967442000000002,FOL
24234248000000.0,2.001157283782959,0.6733216047286987,-1.377707600593567,-7.9823455810546875,0.5882540345191956,0.21013765,-1.6267341,331.4863,-168.1408,22.35291,FOL
24234252000000.0,2.006155252456665,1.1486469507217407,-1.5453695058822632,-8.341950416564941,0.5488958954811096,1.6139059999999998,-1.7092009999999997,331.26117,-168.49928,22.584208,FOL
24234256000000.0,2.011153221130371,1.607262134552002,-1.641918659210205,-8.635104179382324,0.5021292567253113,2.8435776,-1.8295414,330.92303,-168.8432,22.959929000000002,FOL
24234263000000.0,2.0161497592926025,2.0420894622802734,-1.6724798679351807,-8.858511924743652,0.4425542652606964,3.8090502999999996,-1.9080375,330.42764,-168.99608,23.809856,FOL
24234267000000.0,2.021146535873413,2.4412169456481934,-1.641910433769226,-9.003801345825195,0.37674587965011597,4.515516000000001,-1.9495764,329.84787,-169.1039,24.904413,FOL
24234273000000.0,2.0261435508728027,2.80554461479187,-1.5530927181243896,-9.072545051574707,0.3167559802532196,4.9070807,-1.9504926999999999,329.1374,-169.0181,26.21331,FOL
24234277000000.0,2.0311408042907715,3.127190351486206,-1.405580759048462,-9.043730735778809,0.2700713574886322,4.9797735,-1.8915442,328.39917,-168.91676,27.595732,FOL
24234284000000.0,2.036162853240967,3.4060304164886475,-1.2016865015029907,-8.921985626220703,0.24106144905090332,4.732373,-1.7849482,327.55652000000003,-168.65895,29.010113,FOL
24234288000000.0,2.041158437728882,3.648252487182617,-0.9644768834114075,-8.743009567260742,0.22992374002933502,4.244292,-1.6731599999999998,326.72357,-168.45627,30.3432,FOL
24234292000000.0,2.046154022216797,3.853100061416626,-0.6931474208831787,-8.50992202758789,0.23445241153240204,3.5534031,-1.5247196,325.8245,-168.14365,31.56615,FOL
24234296000000.0,2.0511510372161865,4.020028114318848,-0.3992275893688202,-8.258904457092285,0.25130584836006165,2.762638,-1.3420709,324.9903,-167.90996,32.604046000000004,FOL
24234303000000.0,2.05614972114563,4.151035785675049,-0.08389180898666382,-7.9908881187438965,0.2753184139728546,1.9306396000000001,-1.1050552,324.1427,-167.58458000000002,33.45895,FOL
24234307000000.0,2.06115460395813,4.251118183135986,0.25076597929000854,-7.719038009643555,0.3013555705547333,1.0803152,-0.7984009,323.42462,-167.33212,34.08809,FOL
24234313000000.0,2.066150188446045,4.324459075927734,0.6011942028999329,-7.448980331420898,0.32616791129112244,0.2302962,-0.41447207,322.8725,-167.15157,34.498676,FOL
24234317000000.0,2.0711488723754883,4.372339725494385,0.9438746571540833,-7.196530342102051,0.3467442989349365,-0.5934556,-0.009773844,322.41006,-166.91646,34.683983000000005,FOL
24234322000000.0,2.076143741607666,4.396952152252197,1.2704607248306274,-6.966446876525879,0.36225244402885437,-1.3200798,0.398895,322.14737,-166.7461,34.69335,FOL
24234328000000.0,2.0811429023742676,4.387794017791748,1.5468202829360962,-6.784980297088623,0.37201836705207825,-1.9013181000000001,0.75319684,322.02066,-166.55215,34.532043,FOL
24234332000000.0,2.0861403942108154,4.3414201736450195,1.75758957862854,-6.66328763961792,0.3778455853462219,-2.2311852,0.94806284,322.02814,-166.39604,34.268634999999996,FOL
24234338000000.0,2.091139793395996,4.26746940612793,1.892804741859436,-6.597171783447266,0.38144153356552124,-2.357329,0.9783006999999999,322.15448,-166.2616,33.86972,FOL
24234342000000.0,2.096139669418335,4.171971321105957,1.9499566555023193,-6.5824971199035645,0.383315771818161,-2.3457223999999997,0.9086620999999999,322.3369,-166.13558999999998,33.43712,FOL
24234347000000.0,2.1011369228363037,4.070549011230469,1.931093454360962,-6.611228942871094,0.38318565487861633,-2.2904391,0.7538077,322.67587000000003,-166.14287,32.863003000000006,FOL
24234353000000.0,2.1061415672302246,3.971181869506836,1.8359266519546509,-6.6799187660217285,0.38094642758369446,-2.137723,0.65026605,322.99872,-166.13857,32.325687,FOL
24234357000000.0,2.111147165298462,3.8808560371398926,1.6763215065002441,-6.781046390533447,0.3732108473777771,-1.9120081999999998,0.41630468,323.40115,-166.24108999999999,31.710054,FOL
24234361000000.0,2.116147518157959,3.8029513359069824,1.4608118534088135,-6.909496784210205,0.3582209050655365,-1.6337591,0.17379116,323.7493,-166.30739,31.152174,FOL
24234368000000.0,2.1211462020874023,3.7390365600585938,1.2114641666412354,-7.055825233459473,0.3359236717224121,-1.3341296999999999,-0.06383542,324.15482000000003,-166.50325,30.595444,FOL
24234372000000.0,2.126145839691162,3.6896636486053467,0.940861165523529,-7.214581489562988,0.3068876564502716,-1.0482447,-0.28344148,324.46277000000003,-166.62912,30.10265,FOL
24234378000000.0,2.1311450004577637,3.658576726913452,0.6612827777862549,-7.385656356811523,0.27272534370422363,-0.75900006,-0.47739118,324.76764,-166.85844,29.639670000000002,FOL
24234382000000.0,2.136143922805786,3.6520543098449707,0.39060425758361816,-7.569431304931641,0.23452378809452057,-0.45814893,-0.61453044,324.98892,-167.03091,29.253020000000003,FOL
24234387000000.0,2.1411426067352295,3.668192148208618,0.14664673805236816,-7.766613483428955,0.19367022812366486,-0.1554652,-0.6792821,325.20816,-167.26459,28.947233,FOL
24234393000000.0,2.14614200592041,3.705296754837036,-0.054705675691366196,-7.977873802185059,0.15046876668930054,0.17287487,-0.66523224,325.37625,-167.46303999999998,28.733248,FOL
24234397000000.0,2.1511411666870117,3.7577502727508545,-0.20631441473960876,-8.203329086303711,0.10787678509950638,0.5109888,-0.5757405,325.52817000000005,-167.67795,28.635498,FOL
24234403000000.0,2.1561410427093506,3.819930076599121,-0.3002679646015167,-8.443345069885254,0.06936142593622208,0.816116,-0.42027529999999996,325.67922999999996,-167.89778,28.628296000000002,FOL
24234407000000.0,2.161144256591797,3.882981777191162,-0.3387320041656494,-8.689598083496094,0.03761908784508705,1.0354166,-0.23915374,325.8134,-168.07805,28.724508,FOL
24234412000000.0,2.1661436557769775,3.93795108795166,-0.32543909549713135,-8.933165550231934,0.015202467329800129,1.1307116000000001,-0.0711658,325.97832999999997,-168.29693999999998,28.878769000000002,FOL
24234418000000.0,2.1711411476135254,3.9813454151153564,-0.26765063405036926,-9.164788246154785,0.0035027393605560064,1.0836748999999999,0.0580322,326.1355,-168.45157,29.06575,FOL
24234422000000.0,2.176140069961548,4.008768081665039,-0.17322909832000732,-9.373189926147461,0.002030158182606101,0.8866709,0.15027285,326.33664,-168.65503999999999,29.239338,FOL
24234426000000.0,2.181136131286621,4.021562576293945,-0.04900214448571205,-9.54806137084961,0.008335241116583347,0.5732970000000001,0.20586158,326.54053,-168.76079,29.363232,FOL
24234433000000.0,2.186133861541748,4.020681381225586,0.09790433198213577,-9.673867225646973,0.019887439906597137,0.17165314,0.22052236,326.77692,-168.9038,29.402846999999998,FOL
24234437000000.0,2.191128730773926,4.005919933319092,0.26082897186279297,-9.752479553222656,0.031849462538957596,-0.24373524,0.21227567,326.9822,-168.96511999999998,29.328753999999996,FOL
24234443000000.0,2.1961302757263184,3.9756829738616943,0.4318183958530426,-9.78272819519043,0.041757866740226746,-0.61819565,0.20250183,327.2167,-169.04189,29.15498,FOL
24234447000000.0,2.201124668121338,3.9309756755828857,0.6068740487098694,-9.768207550048828,0.04768742620944977,-0.79259765,0.20555615,327.40445,-169.03145,28.943514,FOL
24234452000000.0,2.2061257362365723,3.8696537017822266,0.7772809863090515,-9.705178260803223,0.051412809640169144,-1.073901,0.20005837,327.62396,-169.02258,28.602321999999997,FOL
24234458000000.0,2.2111263275146484,3.7946550846099854,0.9371559023857117,-9.603141784667969,0.050512220710515976,-1.2983941,0.20066923,327.79996,-168.94808999999998,28.247536,FOL
24234462000000.0,2.2161295413970947,3.7093584537506104,1.0760905742645264,-9.473969459533691,0.04542751610279083,-1.4184291,0.19211712,327.98900000000003,-168.86783,27.850085999999997,FOL
24234468000000.0,2.221158266067505,3.6173923015594482,1.183937668800354,-9.324228286743164,0.036235179752111435,-1.4517213,0.17989981,328.1515,-168.74446,27.42698,FOL
24234473000000.0,2.2261574268341064,3.53230357170105,1.2401392459869385,-9.180490493774414,0.024895798414945602,-1.3808608999999998,0.18325958,328.3231,-168.61415,27.007713,FOL
24234477000000.0,2.231156349182129,3.4549927711486816,1.244118094444275,-9.04570198059082,0.011849340982735157,-1.2226468000000001,0.20708331,328.50333,-168.48523,26.618406,FOL
24234483000000.0,2.236154794692993,3.3975768089294434,1.2230960130691528,-8.961665153503418,-0.0012668700655922294,-0.9550878,0.23854288,328.67874,-168.35599,26.286459000000004,FOL
24234487000000.0,2.2411630153656006,3.360258102416992,1.1783037185668945,-8.927419662475586,-0.013749191537499428,-0.6044512,0.26878070000000004,328.95352,-168.3338,26.063617999999998,FOL
24234491000000.0,2.2461609840393066,3.3482987880706787,1.1227824687957764,-8.9376859664917,-0.024540821090340614,-0.18997909,0.29962940000000005,329.2145,-168.32027,25.937527,FOL
24234498000000.0,2.251176118850708,3.3625731468200684,1.0564082860946655,-8.993853569030762,-0.032917995005846024,0.20861048,0.32742378,329.51367,-168.39235,25.892515,FOL
24234502000000.0,2.2561728954315186,3.393847703933716,0.9956857562065125,-9.072823524475098,-0.037332817912101746,0.51068336,0.3436117,329.79285,-168.47916999999998,25.934067000000002,FOL
24234508000000.0,2.261171340942383,3.4425623416900635,0.9404739141464233,-9.175334930419922,-0.038614995777606964,0.66828656,0.34391713,330.0634,-168.62106,26.028204000000002,FOL
24234512000000.0,2.2661702632904053,3.500354528427124,0.9010484218597412,-9.287516593933105,-0.03727329894900322,0.66614854,0.3136793,330.31597999999997,-168.77278,26.154549,FOL
24234517000000.0,2.271165370941162,3.563840866088867,0.8802694082260132,-9.403998374938965,-0.03331734240055084,0.5506949999999999,0.24404067,330.54967999999997,-168.93,26.283352,FOL
24234523000000.0,2.276162624359131,3.62528920173645,0.8824317455291748,-9.507964134216309,-0.02841651812195778,0.33261612,0.16523905,330.7751,-169.08463,26.385990000000003,FOL
24234527000000.0,2.281158924102783,3.6817054748535156,0.9080777764320374,-9.593334197998047,-0.024297747761011124,0.064751714,0.05467244,330.9759,-169.22589,26.430322999999998,FOL
24234531000000.0,2.2861552238464355,3.7330496311187744,0.957599937915802,-9.661808013916016,-0.024239931255578995,-0.23548855,-0.04276056599999999,331.14687999999995,-169.29741,26.405851000000002,FOL
24234538000000.0,2.291161298751831,3.779372453689575,1.0313977003097534,-9.714190483093262,-0.029898546636104584,-0.49724430000000003,-0.10781772,331.30566,-169.34448,26.311087,FOL
24234542000000.0,2.296158790588379,3.821690797805786,1.1237953901290894,-9.759289741516113,-0.04194558784365654,-0.6017023,-0.13958271,331.41067999999996,-169.30127,26.187908,FOL
24234548000000.0,2.3011550903320312,3.8605432510375977,1.2328159809112549,-9.801743507385254,-0.05541783571243286,-0.68752885,-0.14355333,331.52099999999996,-169.25061000000002,25.998120999999998,FOL
24234552000000.0,2.30615496635437,3.8959174156188965,1.3561514616012573,-9.83672046661377,-0.06971845775842667,-0.6606508000000001,-0.12614368,331.583,-169.10265,25.823122,FOL
24234556000000.0,2.3111579418182373,3.9278314113616943,1.4912893772125244,-9.859857559204102,-0.08236170560121536,-0.57940567,-0.08216137400000001,331.65756,-168.96631000000002,25.645643,FOL
24234563000000.0,2.3161585330963135,3.9540035724639893,1.6314268112182617,-9.869406700134277,-0.09174305945634842,-0.47983465,-0.027183502999999998,331.7105,-168.7947,25.48544,FOL
24234567000000.0,2.3211569786071777,3.9727566242218018,1.7716915607452393,-9.864041328430176,-0.09649001061916351,-0.35033122,0.023823743999999997,331.77148,-168.64783,25.3626,FOL
24234573000000.0,2.3261914253234863,3.977324962615967,1.9059584140777588,-9.84287166595459,-0.09776106476783752,-0.18600847,0.07086037,331.81744,-168.4804,25.296219,FOL
24234577000000.0,2.331188201904297,3.969106674194336,2.0313398838043213,-9.81071949005127,-0.09660416841506958,-0.027488936000000002,0.089186326,331.86304,-168.33823,25.266904999999998,FOL
24234582000000.0,2.336184501647949,3.943972587585449,2.1421542167663574,-9.764312744140625,-0.09314870834350586,0.11881329,0.08063421400000001,331.8788,-168.19849,25.27657,FOL
24234588000000.0,2.3411810398101807,3.9006214141845703,2.2347114086151123,-9.702880859375,-0.08776134252548218,0.23090707,0.03390302,331.87946,-168.07101,25.318714,FOL
24234592000000.0,2.346177577972412,3.8441901206970215,2.3073105812072754,-9.629603385925293,-0.07981254905462265,0.26542094,-0.021685716,331.87167,-167.96283,25.35661,FOL
24234598000000.0,2.351175308227539,3.7782695293426514,2.3590452671051025,-9.546734809875488,-0.07090379297733307,0.24953845,-0.08124508,331.8433,-167.85423,25.406693,FOL
24234603000000.0,2.356173038482666,3.707808494567871,2.389735221862793,-9.458681106567383,-0.06007704138755798,0.22540927,-0.13713925,331.81705,-167.77241999999998,25.429033,FOL
24234607000000.0,2.3611762523651123,3.6367204189300537,2.3989415168762207,-9.368875503540039,-0.04955056309700012,0.20830505,-0.172264,331.77972,-167.68421999999998,25.445501,FOL
24234613000000.0,2.3661744594573975,3.567185640335083,2.3877105712890625,-9.280561447143555,-0.03966645523905754,0.21166481,-0.19211712,331.7622,-167.63098,25.445273999999998,FOL
24234617000000.0,2.3711719512939453,3.5008676052093506,2.3560571670532227,-9.196220397949219,-0.030146325007081032,0.21563543,-0.20861048,331.7369,-167.57776,25.43811,FOL
24234621000000.0,2.376169204711914,3.4386842250823975,2.3090453147888184,-9.116397857666016,-0.021573038771748543,0.22357668,-0.20463985,331.74252,-167.55775,25.430001999999998,FOL
24234628000000.0,2.38116717338562,3.3818418979644775,2.2526307106018066,-9.041842460632324,-0.015002994798123837,0.20158553,-0.20677789,331.74384,-167.53122,25.412832,FOL
24234632000000.0,2.3861632347106934,3.329941511154175,2.193448543548584,-8.975728034973145,-0.009678340516984463,0.15424347,-0.21319197,331.77927,-167.55154,25.388527,FOL
24234638000000.0,2.391160726547241,3.2826087474823,2.140251398086548,-8.922659873962402,-0.005841976031661034,0.10323623,-0.21319197,331.81827000000004,-167.56331,25.35685,FOL
24234642000000.0,2.3961687088012695,3.2392728328704834,2.0978572368621826,-8.885114669799805,-0.003316921414807439,0.06047566,-0.20952678,331.86914,-167.59798999999998,25.312317,FOL
24234647000000.0,2.4011645317077637,3.199153423309326,2.0708742141723633,-8.86453628540039,-0.0018379655666649342,0.04428773,-0.20738874,331.92177999999996,-167.62714,25.261007,FOL
24234653000000.0,2.4061622619628906,3.1616158485412598,2.0611467361450195,-8.860491752624512,-0.0012842494761571288,-0.0076358155,-0.19364429,331.9884,-167.65205,25.182228,FOL
24234657000000.0,2.4111640453338623,3.1251280307769775,2.0733306407928467,-8.871399879455566,-0.000580991676542908,-0.0571159,-0.18997909,332.0541,-167.67647,25.099787,FOL
24234661000000.0,2.4161603450775146,3.0899744033813477,2.1062188148498535,-8.895927429199219,0.0006544948555529118,-0.11728613,-0.20097467,332.11426,-167.6751,24.980577,FOL
24234668000000.0,2.4211585521698,3.059375286102295,2.167113780975342,-8.933625221252441,0.002540342276915908,-0.1695151,-0.20708331,332.18112,-167.67729,24.852428,FOL
24234672000000.0,2.4261562824249268,3.0334315299987793,2.253364086151123,-8.98311996459961,0.005204664543271065,-0.21502456,-0.19730948,332.23502,-167.6487,24.690989000000002,FOL
24234678000000.0,2.43115496635437,3.0136849880218506,2.359571933746338,-9.041290283203125,0.008785025216639042,-0.21319197,-0.18203785,332.2912,-167.62653,24.531868,FOL
24234682000000.0,2.43615984916687,3.000148296356201,2.484435558319092,-9.107531547546387,0.012711731716990471,-0.17470746,-0.15393804,332.3171,-167.56348,24.363892,FOL
24234686000000.0,2.4411568641662598,2.995403528213501,2.6167681217193604,-9.17629623413086,0.01721048541367054,-0.09254608,-0.11484267,332.35025,-167.51282,24.214695000000003,FOL
24234693000000.0,2.446152925491333,2.9991848468780518,2.7565267086029053,-9.247600555419922,0.021469488739967346,0.0036651915999999997,-0.076052725,332.34708,-167.41959,24.081331,FOL
24234697000000.0,2.4511513710021973,3.0113654136657715,2.8764405250549316,-9.304758071899414,0.02472020499408245,0.10659598599999999,-0.024129177,332.35532,-167.33553999999998,23.979495999999997,FOL
24234703000000.0,2.4561476707458496,3.031391143798828,2.9722864627838135,-9.345324516296387,0.02791162207722664,0.21410827,0.0125227375,332.3648,-167.26137,23.909689999999998,FOL
24234707000000.0,2.461151123046875,3.052401065826416,3.0412232875823975,-9.370370864868164,0.031030625104904175,0.29840767,0.03359759,332.34357,-167.16096000000002,23.879948000000002,FOL
24234712000000.0,2.4661519527435303,3.0705015659332275,3.083475112915039,-9.381553649902344,0.034764718264341354,0.36163223,0.04428773,332.32465,-167.0704,23.876534,FOL
24234718000000.0,2.4711506366729736,3.083405017852783,3.101972818374634,-9.377171516418457,0.03899974003434181,0.40469822,0.055283304000000005,332.31253,-167.0196,23.93734,FOL
24234722000000.0,2.476151704788208,3.090038299560547,3.0984232425689697,-9.356528282165527,0.04322066903114319,0.43982297,0.06963864,332.30017000000004,-166.97336,24.012767999999998,FOL
24234726000000.0,2.4811511039733887,3.0908734798431396,3.075862407684326,-9.321557998657227,0.047688696533441544,0.43860126,0.08552113,332.32207999999997,-166.98581000000001,24.103839999999998,FOL
24234733000000.0,2.486147880554199,3.0862691402435303,3.036263942718506,-9.273551940917969,0.05154423415660858,0.4288274,0.08827003,332.341,-166.99489,24.199366,FOL
24234737000000.0,2.4911468029022217,3.0776772499084473,2.9828543663024902,-9.216357231140137,0.05465714633464813,0.41508293,0.10079276599999999,332.39264,-167.04532,24.297356,FOL
24234743000000.0,2.4961462020874023,3.0659923553466797,2.9178335666656494,-9.152318954467773,0.056155476719141006,0.35705075,0.10354166,332.44458,-167.0869,24.376518,FOL
24234747000000.0,2.501143455505371,3.0528736114501953,2.844625234603882,-9.086588859558105,0.057101912796497345,0.29229903,0.118202426,332.52426,-167.1619,24.450352,FOL
24234751000000.0,2.5061450004577637,3.0391831398010254,2.764897584915161,-9.021820068359375,0.05674455687403679,0.22357668,0.109650314,332.6007,-167.2214,24.502546,FOL
24234758000000.0,2.5111987590789795,3.029057502746582,2.6839749813079834,-8.965134620666504,0.055022671818733215,0.15210545,0.10476339,332.6989,-167.29451,24.530458,FOL
24234762000000.0,2.516200304031372,3.02282452583313,2.605898141860962,-8.917128562927246,0.052204303443431854,0.11881329,0.09712757,332.79446,-167.35904,24.547085,FOL
24234768000000.0,2.521196126937866,3.0217347145080566,2.5346498489379883,-8.882346153259277,0.04794095456600189,0.10170906,0.08521569999999999,332.9099,-167.43628,24.54736,FOL
24234772000000.0,2.5261926651000977,3.0261006355285645,2.4725961685180664,-8.862666130065918,0.043855976313352585,0.1133155,0.07971791,333.0238,-167.51301999999998,24.544864999999998,FOL
24234777000000.0,2.531189203262329,3.0365071296691895,2.422909736633301,-8.85981273651123,0.039923589676618576,0.15913039999999998,0.07269296,333.13516,-167.58572,24.54675,FOL
24234783000000.0,2.5361859798431396,3.053403377532959,2.3881337642669678,-8.875114440917969,0.036721646785736084,0.21319197,0.06078109,333.2403,-167.65784,24.552277,FOL
24234787000000.0,2.541182518005371,3.0758655071258545,2.368100643157959,-8.904184341430664,0.0354645736515522,0.27000242,0.044593163,333.33856000000003,-167.7296,24.570381,FOL
24234791000000.0,2.5461809635162354,3.10322904586792,2.362602472305298,-8.943902015686035,0.03539763018488884,0.33964106,0.03726278,333.4293,-167.79842,24.605318,FOL
24234798000000.0,2.551177978515625,3.134941339492798,2.3683836460113525,-8.988261222839355,0.03697826713323593,0.37323865,0.027488936000000002,333.50055,-167.85762,24.640913,FOL
24234802000000.0,2.556178092956543,3.170694589614868,2.3831698894500732,-9.032883644104004,0.04005357250571251,0.38820487,0.021685716,333.56555,-167.91968,24.688523999999997,FOL
24234808000000.0,2.561180353164673,3.2099127769470215,2.4046435356140137,-9.075337409973145,0.04392534866929054,0.3811799,0.016493361,333.60754,-167.95921,24.740032,FOL
24234812000000.0,2.566178560256958,3.251810312271118,2.4297423362731934,-9.112348556518555,0.048258159309625626,0.35155296,0.016493361,333.64865,-168.00342,24.787409,FOL
24234816000000.0,2.5711758136749268,3.295733690261841,2.455427408218384,-9.142090797424316,0.05169269070029259,0.30940324,0.018020526000000002,333.66522000000003,-168.02321,24.842545,FOL
24234823000000.0,2.576173782348633,3.3410351276397705,2.4787518978118896,-9.162810325622559,0.0550418496131897,0.25870144,0.01985312,333.68384,-168.04901,24.8853,FOL
24234827000000.0,2.581199884414673,3.387568950653076,2.4974513053894043,-9.173861503601074,0.05697544291615486,0.20799962,0.02076942,333.68462999999997,-168.05763000000002,24.932973999999998,FOL
24234833000000.0,2.5861942768096924,3.434164047241211,2.5105338096618652,-9.177162170410156,0.05880599096417427,0.17623462,0.019547688,333.68716,-168.07208,24.970425,FOL
24234837000000.0,2.5911903381347656,3.479196310043335,2.516798973083496,-9.174325942993164,0.0598716139793396,0.16432275,0.022296581,333.684,-168.0707,25.021795,FOL
24234842000000.0,2.5961873531341553,3.5205628871917725,2.5156424045562744,-9.168096542358398,0.06130365654826164,0.15302174,0.019242255,333.68054,-168.07361,25.062723000000002,FOL
24234848000000.0,2.6011812686920166,3.5584771633148193,2.50722336769104,-9.158817291259766,0.062317557632923126,0.17837265,0.018325957,333.67047,-168.07558,25.126907,FOL
24234852000000.0,2.6061789989471436,3.593090057373047,2.491311550140381,-9.146702766418457,0.06326115131378174,0.19425514,0.022907447,333.66217,-168.08113,25.184010999999998,FOL
24234856000000.0,2.611177921295166,3.624086380004883,2.468852996826172,-9.13348388671875,0.06378007680177689,0.21960606,0.025350908,333.6674,-168.1031,25.254822,FOL
24234863000000.0,2.6161856651306152,3.6509523391723633,2.440606117248535,-9.121194839477539,0.06412485241889954,0.25411993,0.02443461,333.67023,-168.12524,25.330755,FOL
24234867000000.0,2.6211788654327393,3.6742491722106934,2.407702684402466,-9.109685897827148,0.06339322775602341,0.29504790000000003,0.02107485,333.6902,-168.15569,25.418329999999997,FOL
24234873000000.0,2.626173734664917,3.695537567138672,2.3727176189422607,-9.098023414611816,0.06261920183897018,0.33628133,0.01160644,333.7041,-168.18788,25.512629,FOL
24234877000000.0,2.6311686038970947,3.71492862701416,2.3359081745147705,-9.0862398147583,0.0616748221218586,0.35735616,0.009773844,333.7367,-168.23563000000001,25.602144,FOL
24234881000000.0,2.636164665222168,3.732523202896118,2.2987711429595947,-9.074576377868652,0.06074821576476097,0.3594942,0.014355333500000001,333.76523,-168.28168,25.694857,FOL
24234888000000.0,2.641162633895874,3.748511552810669,2.2613654136657715,-9.062989234924316,0.06040814518928528,0.36346483,0.01863139,333.79694,-168.33517,25.789019,FOL
24234892000000.0,2.6461594104766846,3.7641215324401855,2.224295139312744,-9.051072120666504,0.06046057492494583,0.34391713,0.028710667000000002,333.83185,-168.38719,25.875055,FOL
24234898000000.0,2.651195526123047,3.779571056365967,2.187272548675537,-9.038644790649414,0.060607876628637314,0.33658674,0.017104227,333.8675,-168.44498000000002,25.963015,FOL
24234902000000.0,2.6561899185180664,3.795996904373169,2.150623321533203,-9.025480270385742,0.06021017208695412,0.31520647,0.015882496,333.91025,-168.50194,26.040224,FOL
24234907000000.0,2.661181926727295,3.813641309738159,2.1140658855438232,-9.011388778686523,0.05970344692468643,0.3036,0.01863139,333.94982999999996,-168.56133,26.117535,FOL
24234913000000.0,2.666177272796631,3.8338708877563477,2.0797252655029297,-8.999869346618652,0.05938649922609329,0.29443705,0.013133603,333.98636,-168.61635,26.186642000000003,FOL
24234917000000.0,2.6711719036102295,3.856961250305176,2.048199415206909,-8.991918563842773,0.05934688076376915,0.31123585,0.019242255,334.02493,-168.67119,26.258490000000002,FOL
24234921000000.0,2.6761717796325684,3.88323974609375,2.0179572105407715,-8.985851287841797,0.059325650334358215,0.3136793,0.01740966,334.0608,-168.72791999999998,26.332146,FOL
24234928000000.0,2.681173086166382,3.9126503467559814,1.9883195161819458,-8.980862617492676,0.06055890768766403,0.30024028,-0.0012217305,334.09177,-168.78836,26.402996,FOL
24234932000000.0,2.6861684322357178,3.9441187381744385,1.9587206840515137,-8.975062370300293,0.06237753480672836,0.28924468,-0.015271631,334.1167,-168.84305,26.48007,FOL
24234938000000.0,2.691169261932373,3.977278232574463,1.9287992715835571,-8.967498779296875,0.06517354398965836,0.24740042,-0.021685716,334.13998,-168.90222,26.541854999999998,FOL
24234944000000.0,2.6969656944274902,4.021841049194336,1.893042802810669,-8.95223331451416,0.06809726357460022,0.05955936,-0.074830994,334.16573999999997,-169.12046999999998,26.759064000000002,FOL
24234950000000.0,2.70271897315979,4.063071250915527,1.8606796264648438,-8.936722755432129,0.07066984474658966,0.032375857,-0.074830994,334.16193,-169.16994,26.806932,FOL
24234957000000.0,2.7084546089172363,4.098360538482666,1.833785057067871,-8.921504020690918,0.07251933962106705,0.016187929,-0.0711658,334.15717,-169.2131,26.845390000000002,FOL
24234963000000.0,2.7141268253326416,4.128096580505371,1.8109896183013916,-8.908071517944336,0.07441676408052444,0.004276057,-0.061391957000000004,334.1627,-169.2628,26.880440000000004,FOL
24234970000000.0,2.7197647094726562,4.1518049240112305,1.792022705078125,-8.897445678710938,0.07569219172000885,0.0061086523,-0.047647487,334.17007,-169.30588,26.914433000000002,FOL
24234976000000.0,2.7253684997558594,4.170196056365967,1.7763266563415527,-8.89049243927002,0.0772252008318901,0.004886922,-0.035430185,334.17972000000003,-169.34618999999998,26.935863,LYI
24234982000000.0,2.7309389114379883,4.183809280395508,1.763492465019226,-8.887707710266113,0.07828585058450699,0.017715093,-0.02076942,334.19284,-169.38152,26.96213,LYI
24234988000000.0,2.736480236053467,4.192490100860596,1.755241870880127,-8.88913345336914,0.0788993239402771,0.035430185,-0.007941248,334.21982,-169.42046000000002,26.979767,LYI
24234995000000.0,2.741992712020874,4.196253776550293,1.7526277303695679,-8.894689559936523,0.07943127304315567,0.048258353,0.007330383,334.25085,-169.46011000000001,27.000020000000003,LYI
24235000000000.0,2.7474780082702637,4.1951003074646,1.7537932395935059,-8.902469635009766,0.08087895810604095,0.07941248,0.004886922,334.28503,-169.4994,27.013744,LYI
24235007000000.0,2.7529408931732178,4.18899393081665,1.757153034210205,-8.91083812713623,0.08298197388648987,0.0983493,0.0067195175,334.3244,-169.53888,27.028209999999998,LYI
24235011000000.0,2.7583773136138916,4.179962635040283,1.761143684387207,-8.918623924255371,0.08492407947778702,0.105068825,0.0015271631,334.36276000000004,-169.56876,27.029078000000002,LYI
24235018000000.0,2.7637884616851807,4.170024871826172,1.764164686203003,-8.924607276916504,0.08738122135400772,0.10842858,-0.004276057,334.39972,-169.6044,27.033929999999998,LYI
24235022000000.0,2.769176483154297,4.159224510192871,1.7662651538848877,-8.928878784179688,0.08957719802856445,0.10048734,-0.007330383,334.45215,-169.63454,27.029415000000004,LYI
24235028000000.0,2.774545431137085,4.147593021392822,1.7674864530563354,-8.931516647338867,0.09242118149995804,0.08368854,-0.011301007,334.50195,-169.67001000000002,27.022546999999996,LYI
24235032000000.0,2.7798943519592285,4.136251449584961,1.7672280073165894,-8.93280029296875,0.09442995488643646,0.071776666,-0.009773844,334.5476,-169.6958,27.011540000000004,LYI
24235037000000.0,2.7852249145507812,4.126504421234131,1.7647560834884644,-8.933025360107422,0.09561546891927719,0.05955936,-0.00580322,334.59323,-169.72394,26.9956,LYI
24235043000000.0,2.790534734725952,4.1183552742004395,1.759825348854065,-8.931504249572754,0.09631459414958954,0.046731193,-0.004886922,334.6447,-169.75478,26.97399,LYI
24235047000000.0,2.795830726623535,4.111911773681641,1.7518514394760132,-8.92701244354248,0.09586960077285767,0.032070424,-0.0076358155,334.69653,-169.77812,26.94854,LYI
24235051000000.0,2.801109552383423,4.106712341308594,1.7417027950286865,-8.921212196350098,0.09440656751394272,0.040317107000000005,-0.0033597588,334.74683,-169.79716000000002,26.927,LYI
24235058000000.0,2.8063788414001465,4.102049350738525,1.7306698560714722,-8.916886329650879,0.09199603646993637,0.061391957000000004,-0.00061086525,334.79535,-169.81003,26.905012,LYI
24235062000000.0,2.8116259574890137,4.09788179397583,1.7188669443130493,-8.913902282714844,0.0885908305644989,0.0711658,-0.0033597588,334.84277000000003,-169.82205,26.88952,LYI
24235068000000.0,2.816863775253296,4.094193935394287,1.7062748670578003,-8.912238121032715,0.08439045399427414,0.08643743400000001,-0.0015271631,334.89017,-169.83055,26.881790000000002,LYI
24235072000000.0,2.8220865726470947,4.091207027435303,1.6937663555145264,-8.910913467407227,0.08060925453901291,0.08979719,-0.0036651915999999997,334.94687000000005,-169.84727,26.881964,LYI
24235076000000.0,2.827300548553467,4.089408874511719,1.682953953742981,-8.90811538696289,0.0762970894575119,0.093462385,-0.004276057,335.0027,-169.85512,26.886059000000003,LYI
24235083000000.0,2.8324990272521973,4.089338302612305,1.6740310192108154,-8.904691696166992,0.07149852812290192,0.077579886,-0.0033597588,335.06342,-169.86963,26.880990999999998,LYI
24235087000000.0,2.8376893997192383,4.09229040145874,1.6675962209701538,-8.902205467224121,0.06710218638181686,0.04734206,-0.0070249503,335.12225,-169.8838,26.872104999999998,LYI
24235091000000.0,2.8428685665130615,4.0985026359558105,1.6635136604309082,-8.900446891784668,0.06341218203306198,0.040011674,-0.0067195175,335.17587000000003,-169.89345,26.870382,LYI
24235097000000.0,2.8480403423309326,4.109002113342285,1.661747932434082,-8.898991584777832,0.0607164204120636,0.03481932,-0.005497787,335.22968,-169.90493999999998,26.860365,LYI
24235102000000.0,2.853201150894165,4.1234893798828125,1.6621431112289429,-8.897820472717285,0.05873402953147888,0.011911871999999999,-0.008552114,335.27277000000004,-169.9156,26.849490000000003,LYI
24235108000000.0,2.858356475830078,4.141815185546875,1.6640008687973022,-8.89697265625,0.05742699280381203,-0.01863139,-0.003970624,335.3188,-169.93095,26.835287,LYI
24235112000000.0,2.8635332584381104,4.164122104644775,1.667351245880127,-8.896510124206543,0.056157056242227554,-0.030543262,-0.0018325957999999999,335.36276000000004,-169.94511,26.819536,LYI
24235116000000.0,2.8686749935150146,4.187211513519287,1.6738091707229614,-8.897167205810547,0.05521523579955101,-0.033292156,0.0009162978999999999,335.39096,-169.95445,26.810825,LYI
24235123000000.0,2.8738040924072266,4.211211204528809,1.6834903955459595,-8.898978233337402,0.053916674107313156,-0.013133603,0.0021380284,335.40884,-169.95694,26.817244,LYI
24235127000000.0,2.8789284229278564,4.234745025634766,1.697373628616333,-8.901121139526367,0.05301286280155182,-0.007941248,0.006414085,335.42935,-169.9648,26.818817,LYI
24235133000000.0,2.884040355682373,4.2575297355651855,1.7153135538101196,-8.903402328491211,0.05196189135313034,0.027794369,0.009468411,335.44635,-169.96813999999998,26.834303000000002,LYI
24235137000000.0,2.889150619506836,4.278351783752441,1.7345809936523438,-8.905396461486816,0.05127619951963425,0.056505035999999995,0.0125227375,335.45856000000003,-169.97911000000002,26.85786,LYI
24235141000000.0,2.8942511081695557,4.297093391418457,1.7545201778411865,-8.907041549682617,0.05085493251681328,0.06627888,-0.00030543262000000003,335.46524,-169.98676,26.884586,LYI
24235148000000.0,2.8993492126464844,4.312500476837158,1.7741914987564087,-8.906058311462402,0.0510421022772789,0.07086037,0.013133603,335.46857,-169.9914,26.919521000000003,LYI
24235152000000.0,2.904474973678589,4.324029445648193,1.7933703660964966,-8.901515007019043,0.05087747052311897,0.06017022599999999,0.013744468000000001,335.46396,-169.98926,26.95052,LYI
24235158000000.0,2.9095685482025146,4.332087516784668,1.8106104135513306,-8.894474029541016,0.0514540933072567,0.052839845,0.015882496,335.46414,-169.99133,26.982903000000004,LYI
24235162000000.0,2.9146463871002197,4.33658504486084,1.8256272077560425,-8.88493824005127,0.05152794346213341,0.047647487,0.021991148999999998,335.46603,-169.98668,27.012234000000003,LYI
24235167000000.0,2.919724941253662,4.339186191558838,1.8359843492507935,-8.874303817749023,0.051825739443302155,0.029626964,0.014355333500000001,335.46243,-169.9883,27.030316999999997,LYI
24235173000000.0,2.924795389175415,4.340397357940674,1.84153413772583,-8.862984657287598,0.05106591805815697,0.021991148999999998,0.016493361,335.4633,-169.98363999999998,27.050103999999997,LYI
24235177000000.0,2.9298665523529053,4.339642524719238,1.8430675268173218,-8.85140609741211,0.049337390810251236,0.010079277,0.016798794,335.4678,-169.98692,27.059708,LYI
24235181000000.0,2.9349310398101807,4.336942195892334,1.8410441875457764,-8.839700698852539,0.04773353785276413,0.002443461,0.015577064,335.47253,-169.99011000000002,27.068037,LYI
24235188000000.0,2.9399993419647217,4.333540439605713,1.8373407125473022,-8.82824993133545,0.04619888216257095,-0.012217305,0.02076942,335.4884,-169.99776,27.068512,LYI
24235192000000.0,2.9450578689575195,4.329823970794678,1.8325951099395752,-8.817161560058594,0.044615793973207474,-0.00580322,0.017715093,335.50018,-170.00351,27.072033,LYI
24235198000000.0,2.9501147270202637,4.325994491577148,1.8286103010177612,-8.80937671661377,0.042710136622190475,-0.013744468000000001,0.016493361,335.5218,-170.02167,27.061419,LYI
24235202000000.0,2.9551680088043213,4.322116851806641,1.8258472681045532,-8.80553913116455,0.041231583803892136,0.0018325957999999999,0.01038471,335.5387,-170.04106000000002,27.05878,LYI
24235207000000.0,2.9602231979370117,4.3184814453125,1.8266321420669556,-8.80409049987793,0.04022248461842537,-0.0018325957999999999,0.011301007,335.5616,-170.0617,27.047575,LYI
24235213000000.0,2.9652748107910156,4.315162181854248,1.8314175605773926,-8.804433822631836,0.039641544222831726,0.00061086525,0.0061086523,335.579,-170.08162,27.041784000000003,LYI
24235217000000.0,2.970319986343384,4.312140941619873,1.8399441242218018,-8.8064546585083,0.04034492000937462,0.0036651915999999997,0.007330383,335.6062,-170.1173,27.03387,LYI
24235223000000.0,2.975402593612671,4.309422016143799,1.8526740074157715,-8.810343742370605,0.040864311158657074,-0.008246681,0.0070249503,335.6316,-170.14618000000002,27.022074,LYI
24235227000000.0,2.9804415702819824,4.3076887130737305,1.8663607835769653,-8.815255165100098,0.04189317673444748,-0.02321288,0.005192355,335.6564,-170.18306,27.010258,LYI
24235232000000.0,2.98547625541687,4.307367324829102,1.8803737163543701,-8.821224212646484,0.042785823345184326,-0.026572637000000003,0.0076358155,335.68204,-170.21568,26.998659999999997,LYI
24235238000000.0,2.9905102252960205,4.308717250823975,1.8934484720230103,-8.827472686767578,0.04364717751741409,-0.039095376,0.01160644,335.6914,-170.23604,26.973656,LYI
24235242000000.0,2.9955437183380127,4.311795711517334,1.9050549268722534,-8.83364486694336,0.04485328495502472,-0.042455133,0.015882496,335.70123,-170.2575,26.951014,LYI
24235246000000.0,3.000572919845581,4.315420627593994,1.9149545431137085,-8.840594291687012,0.04617416486144066,-0.054061572999999995,0.016798794,335.7101,-170.27579,26.925095000000002,LYI
24235253000000.0,3.0056028366088867,4.319103717803955,1.9230717420578003,-8.848678588867188,0.04740837588906288,-0.051923547,0.018325957,335.71988,-170.29501000000002,26.902956,LYI
24235257000000.0,3.0106329917907715,4.320870876312256,1.929577112197876,-8.856038093566895,0.04888607934117317,-0.06169739,0.020463986,335.72995,-170.31757,26.879343,LYI
24235263000000.0,3.0156641006469727,4.319751739501953,1.9345935583114624,-8.861737251281738,0.05023619905114174,-0.047036625,0.016798794,335.73699999999997,-170.3371,26.863484999999997,LYI
24235267000000.0,3.020688772201538,4.315975666046143,1.938231348991394,-8.865897178649902,0.051416706293821335,-0.038179077,0.02443461,335.75278,-170.3623,26.842670000000002,LYI
24235272000000.0,3.025712490081787,4.309630393981934,1.9405418634414673,-8.868576049804688,0.0526970736682415,-0.02076942,0.02107485,335.76242,-170.38582,26.828077,LYI
24235278000000.0,3.0307347774505615,4.302780628204346,1.9424116611480713,-8.869696617126465,0.0538603737950325,-0.007330383,0.02107485,335.7751,-170.40855,26.815813000000002,LYI
24235282000000.0,3.0357558727264404,4.2968058586120605,1.94443678855896,-8.869227409362793,0.054798904806375504,0.00580322,0.020158553,335.7852,-170.43018999999998,26.808374,LYI
24235286000000.0,3.0407721996307373,4.289574146270752,1.9465973377227783,-8.867597579956055,0.05558975413441658,0.010995574,0.026267206,335.81512000000004,-170.45768999999999,26.795154999999998,LYI
24235292000000.0,3.045797348022461,4.279485702514648,1.9488921165466309,-8.865056991577148,0.05620823800563812,0.012217305,0.025961772999999997,335.84177,-170.48247,26.784193,LYI
24235297000000.0,3.050812244415283,4.267411231994629,1.9509587287902832,-8.861470222473145,0.057021643966436386,0.004276057,0.028710667000000002,335.86782999999997,-170.50748000000002,26.776334999999996,LYI
24235303000000.0,3.0558266639709473,4.253951549530029,1.952407956123352,-8.856552124023438,0.05767776072025299,-0.0061086523,0.027488936000000002,335.89218,-170.52893,26.767838,LYI
24235307000000.0,3.0608396530151367,4.239351272583008,1.9529802799224854,-8.851147651672363,0.05811985954642296,-0.028099801,0.032375857,335.92285,-170.5607,26.746958000000003,LYI
24235311000000.0,3.0658533573150635,4.223870754241943,1.952337622642517,-8.846267700195312,0.05870117247104645,-0.03848451,0.03176499,335.9509,-170.59161,26.726273,LYI
24235318000000.0,3.070863962173462,4.207159042358398,1.950805425643921,-8.8416748046875,0.058486469089984894,-0.036651913,0.036651913,335.98514,-170.61836,26.700134000000002,LYI
24235322000000.0,3.0758755207061768,4.188090801239014,1.9490842819213867,-8.836785316467285,0.058022771030664444,-0.03573562,0.028710667000000002,336.01547,-170.64563,26.670609000000002,LYI
24235328000000.0,3.080883502960205,4.167190074920654,1.9470088481903076,-8.831635475158691,0.057746559381484985,-0.03940081,0.03604105,336.05773999999997,-170.6763,26.636105999999998,LYI
24235332000000.0,3.0858945846557617,4.145092964172363,1.944273829460144,-8.82624626159668,0.05689908191561699,-0.036957346,0.028099801,336.09198,-170.69835,26.602940000000004,LYI
24235337000000.0,3.0909030437469482,4.122279167175293,1.9408451318740845,-8.821001052856445,0.056129325181245804,-0.016187929,0.02321288,336.13605,-170.72906,26.568920000000002,LYI
24235343000000.0,3.0959115028381348,4.099429130554199,1.936597466468811,-8.816535949707031,0.05489599332213402,-0.004581489,0.02565634,336.17992999999996,-170.75359,26.533610999999997,LYI
24235347000000.0,3.1009175777435303,4.077021598815918,1.931579828262329,-8.813041687011719,0.053126126527786255,0.009773844,0.03481932,336.22763,-170.77917,26.499588,LYI
24235353000000.0,3.1059279441833496,4.056065082550049,1.9258008003234863,-8.811019897460938,0.050050728023052216,0.024740042,0.028099801,336.27002000000005,-170.79613,26.468813,LYI
24235358000000.0,3.1109366416931152,4.037313461303711,1.9197825193405151,-8.810436248779297,0.046862512826919556,0.032375857,0.03390302,336.3213,-170.81958,26.435571999999997,LYI
24235362000000.0,3.1159508228302,4.022633075714111,1.9145969152450562,-8.811420440673828,0.0433233305811882,0.048258353,0.034513887,336.36707,-170.83327,26.408651000000003,LYI
24235368000000.0,3.1209566593170166,4.011653423309326,1.9101741313934326,-8.813811302185059,0.039354220032691956,0.06047566,0.03481932,336.41675,-170.84822,26.382013,LYI
24235372000000.0,3.1259639263153076,4.004281044006348,1.906490683555603,-8.817584991455078,0.035271089524030685,0.05131268,0.03390302,336.46606,-170.86168,26.353991999999998,LYI
24235376000000.0,3.130969762802124,4.000235557556152,1.903946042060852,-8.823319435119629,0.031649719923734665,0.04337143,0.03390302,336.51132,-170.87157,26.327574,LYI
24235383000000.0,3.1359763145446777,3.9991559982299805,1.9040369987487793,-8.833248138427734,0.02799345925450325,0.030543262,0.038789943,336.55823,-170.87805,26.297672,LYI
24235387000000.0,3.1409811973571777,4.000977516174316,1.9067617654800415,-8.846607208251953,0.02500409446656704,0.04184427,0.031154128,336.59036000000003,-170.88531,26.285259999999997,LYI
24235393000000.0,3.145991086959839,4.006171226501465,1.9128109216690063,-8.860856056213379,0.0225321426987648,0.061391957000000004,0.028710667000000002,336.62552,-170.89209,26.272191999999997,LYI
24235397000000.0,3.1509976387023926,4.013829231262207,1.9215553998947144,-8.87564468383789,0.020077986642718315,0.070554934,0.017104227,336.65216000000004,-170.88461,26.26018,LYI
24235402000000.0,3.1560046672821045,4.021792888641357,1.9317363500595093,-8.890120506286621,0.017966225743293762,0.083383106,0.014966198,336.6794,-170.88156,26.255034999999996,LYI
24235408000000.0,3.161008834838867,4.03003454208374,1.9431465864181519,-8.90414047241211,0.016439048573374748,0.07574729,0.010995574,336.69275,-170.8708,26.254070000000002,LYI
24235412000000.0,3.1660163402557373,4.038539886474609,1.95441734790802,-8.915773391723633,0.015465302392840385,0.08032878,-0.00061086525,336.70145,-170.86026,26.259409,LYI
24235416000000.0,3.1710166931152344,4.047268390655518,1.9655383825302124,-8.92520809173584,0.014478339813649654,0.08552113,0.0021380284,336.7103,-170.85853999999998,26.267129999999998,LYI
24235423000000.0,3.1760222911834717,4.056150913238525,1.9753046035766602,-8.931830406188965,0.013543975539505482,0.07666359,0.004276057,336.71300690265497,-170.859026634185,26.269395383514,LYI
24235427000000.0,3.181025266647339,4.06514835357666,1.9836091995239258,-8.935747146606445,0.013001230545341969,0.077579886,0.004276057,336.71564,-170.8595,26.271599,LYI
24235433000000.0,3.1860289573669434,4.07426118850708,1.9905197620391846,-8.937076568603516,0.012650183402001858,0.07299839999999999,-0.00030543262000000003,336.7191,-170.8588,26.278006,LYI
24235437000000.0,3.1910293102264404,4.083475112915039,1.9961234331130981,-8.935988426208496,0.012431785464286804,0.06811147,0.014049901000000002,336.72652999999997,-170.86237,26.289103000000004,LYI
24235441000000.0,3.1960418224334717,4.092955589294434,1.9995250701904297,-8.934067726135254,0.012794733978807926,0.07666359,0.019547688,336.7316,-170.86784,26.303266999999998,LYI
24235448000000.0,3.201047658920288,4.10273551940918,2.000331163406372,-8.932517051696777,0.012731406837701797,0.10231992599999999,0.018936822,336.7383,-170.87009,26.320916999999998,LYI
24235452000000.0,3.206049919128418,4.11305570602417,1.9982415437698364,-8.932453155517578,0.012883059680461884,0.12980886,0.015271631,336.73953,-170.8795,26.351744,LYI
24235458000000.0,3.211052894592285,4.124005317687988,1.9931966066360474,-8.934279441833496,0.01307546254247427,0.14599679999999998,0.015882496,336.7407,-170.8863,26.385939,LYI
24235462000000.0,3.216054916381836,4.1354851722717285,1.985153079032898,-8.936736106872559,0.013078561052680016,0.16065755,0.0070249503,336.73865,-170.89571999999998,26.426964,LYI
24235467000000.0,3.2210569381713867,4.14741849899292,1.9740774631500244,-8.93879508972168,0.012951275333762169,0.15882497,0.013744468000000001,336.7412,-170.90718,26.467565999999998,LYI
24235473000000.0,3.226057529449463,4.159733772277832,1.9596712589263916,-8.940031051635742,0.013302816078066826,0.16004670000000001,0.01740966,336.74365,-170.91855,26.50965,LYI
24235477000000.0,3.2310917377471924,4.172515392303467,1.941260814666748,-8.940078735351562,0.013782118447124958,0.15943582,0.015882496,336.74627999999996,-170.92752,26.549615999999997,LYI
24235483000000.0,3.236093282699585,4.185074806213379,1.9216159582138062,-8.938448905944824,0.013763834722340107,0.15088372,0.016187929,336.75142999999997,-170.94183,26.58765,LYI
24235488000000.0,3.2410943508148193,4.197227954864502,1.9014384746551514,-8.934536933898926,0.014186013489961624,0.13683382,0.022602014,336.7578,-170.96112,26.623077000000002,LYI
24235492000000.0,3.246094226837158,4.208666801452637,1.8812799453735352,-8.928682327270508,0.014520583674311638,0.118507855,0.010690141499999998,336.76300000000003,-170.98117,26.656190000000002,LYI
