acc_x,acc_y,acc_z,gyro_x,gyro_y,gyro_z,label
0.0,0.0,0.0,0.0,-0.027183503,-0.0061086523,1
0.08446894586086273,0.2773879468441009,-0.015441769734025003,-0.00029058186919428414,-0.035430185,-0.0018325958,1
0.27936407923698425,0.938914954662323,-0.05271325260400772,-0.001509913825429976,-0.034513887,-0.0012217305,1
0.5488618612289429,1.8582050800323489,-0.10092007368803024,-0.004471135791391134,-0.05009095,0.0012217305,1
0.8574249744415283,2.891444683074951,-0.14850002527236938,-0.007417412009090184,-0.071776666,0.0030543262,1
1.159996509552002,3.921682596206665,-0.2124411761760712,-0.010114505887031557,-0.044593163,-0.004276057,1
1.4308491945266724,4.860351085662842,-0.2836563289165497,-0.012205234728753568,0.00580322,-0.01160644,1
1.6741394996643066,5.688189029693604,-0.36629778146743774,-0.012742343358695507,0.0125227375,-0.0061086523,1
1.8861528635025024,6.399808406829834,-0.5593026876449585,-0.011177897453308105,-0.013133603,0.00030543262000000003,1
2.044144868850708,6.9987754821777335,-0.5629924535751343,-0.008864701725542545,-0.029321533,0.0012217305,1
2.1551177501678467,7.489335060119629,-0.5649566054344177,-0.008049733005464077,-0.047647487,-0.003970624,1
2.2330739498138428,7.892646789550781,-0.630587100982666,-0.008344760164618492,-0.05497787,-0.005192355,1
2.3008816242218018,8.234426498413086,-0.6988093852996826,-0.008391769602894783,-0.073303826,-0.009162978,1
2.360970973968506,8.510265350341799,-0.7204545140266418,-0.012343808077275751,-0.09040806,-0.0030543262,1
2.4170668125152592,8.722532272338867,-0.7169994711875916,-0.01796751283109188,-0.12797627,-0.003970624,1
2.479457378387451,8.892447471618652,-0.6623657941818237,-0.02466825395822525,-0.14294247,0.010690141499999998,1
2.545168161392212,9.019007682800293,-0.5725008845329285,-0.03055669739842415,-0.13255776,0.016493361,1
2.607844829559326,9.106258392333984,-0.4744920134544373,-0.035410013049840934,-0.095294975,0.016187929,1
2.675897121429444,9.16677951812744,-0.4080002009868622,-0.039311543107032776,-0.050396383,0.011911872,1
2.7508339881896973,9.209071159362793,-0.38030868768692017,-0.04101696982979775,-0.022296581,0.0015271631,1
2.817854404449463,9.240070343017578,-0.3953853249549866,-0.040189631283283234,0.01282817,0.0027488936,1
2.8709630966186523,9.267699241638184,-0.4428808391094208,-0.034610185772180564,0.048258353,-0.0036651916,1
2.91252064704895,9.299962043762207,-0.5299709439277649,-0.02617352455854416,0.07727446,-0.0018325958,1
2.937874555587769,9.330022811889648,-0.6500257253646851,-0.015885014086961746,0.09254608,-0.0018325958,1
2.9433710575103764,9.362441062927246,-0.7593068480491638,-0.004667956847697496,0.106595986,-0.008552114,1
2.9355041980743413,9.397218704223633,-0.8306746482849121,0.004124963190406561,0.12614368,0.004276057,1
2.9161648750305176,9.433524131774902,-0.8764866590499878,0.009092602878808977,0.13072516,0.010690141499999998,1
2.884040355682373,9.463268280029297,-0.8683263063430786,0.011750442907214165,0.12339478,0.021380283,1
2.839769124984741,9.483159065246582,-0.8288285136222839,0.01451257988810539,0.12614368,0.015271631,1
2.7905330657958984,9.505899429321287,-0.7649216055870056,0.016318392008543015,0.09285152,0.025045475,1
2.731144905090332,9.526660919189453,-0.6936109662055969,0.0170498825609684,0.06078109,0.03176499,1
2.6456377506256104,9.540379524230957,-0.6609437465667725,0.016033289954066277,0.09315695,0.025350908,1
2.5604488849639893,9.553321838378906,-0.6606781482696533,0.013966893777251244,0.13530666,0.022602014,1
2.5087995529174805,9.56705379486084,-0.7067738771438599,0.008589777164161205,0.1160644,0.040927973,1
2.483592987060547,9.581871032714844,-0.7701392769813538,0.00034995295573025936,0.1151481,0.057421334,1
2.4574220180511475,9.594644546508787,-0.8391710519790649,-0.013712399639189243,0.119729586,0.046731193,1
2.418860912322998,9.60120677947998,-0.9348683357238771,-0.03264052793383598,0.12675454,0.03481932,1
2.390833616256714,9.601460456848145,-1.012557864189148,-0.054508958011865616,0.054061573,0.047647487,1
2.3803298473358154,9.59546184539795,-1.052539587020874,-0.07499589025974274,0.00580322,0.056505036,1
2.369589328765869,9.599161148071287,-1.0543482303619385,-0.09405791759490968,0.009162978,0.06414085,1
2.3598673343658447,9.625555992126463,-1.0302560329437256,-0.10864459723234177,0.049480084,0.07544186,1
2.3445656299591064,9.657181739807127,-0.9748485684394836,-0.12000899761915207,0.089186326,0.07941248,1
2.310556173324585,9.68845272064209,-0.9042842984199524,-0.13075727224349976,0.11942416,0.083383106,1
2.2531604766845703,9.709864616394043,-0.8336895108222961,-0.14806950092315674,0.122783914,0.073303826,1
2.1821329593658447,9.718120574951172,-0.7782016396522522,-0.1745087504386902,0.06536258,0.07971791,7
2.109534502029419,9.676316261291504,-0.779531717300415,-0.20815618336200714,0.021685716,0.045814894,7
2.057605504989624,9.603259086608887,-0.829766571521759,-0.22834861278533936,-0.035124752999999995,0.008857545999999999,7
2.0507397651672363,9.534448623657227,-0.8520188927650452,-0.22315144538879395,-0.32742378,0.09621128,7
2.1493799686431885,9.474936485290527,-0.8521984815597534,-0.209682896733284,-0.40194935,0.16523905,7
2.351662397384644,9.419042587280273,-0.8473005294799805,-0.19513055682182312,-0.30909783,0.28130344,7
2.609970092773437,9.37782382965088,-0.8273734450340271,-0.18694543838500974,-0.047647487,0.39706242,7
2.8086307048797607,9.359923362731934,-0.7422026991844177,-0.20186729729175568,0.22540927,0.42424592,7
2.897423505783081,9.362142562866213,-0.6240401864051819,-0.22027577459812164,0.34788775,0.44226643,7
2.972440481185913,9.391334533691406,-0.4726995825767517,-0.2300800830125809,0.38026363,0.48472157,7
3.041677713394165,9.431212425231934,-0.2922460734844208,-0.2557472586631775,0.23915374,0.6743952,7
3.092209815979004,9.44377899169922,-0.08723412454128265,-0.28051772713661194,-0.18142697,0.70554936,7
3.1342906951904297,9.387308120727539,0.07605046778917313,-0.3203203082084656,-0.33108896,0.73639804,7
3.150282859802246,9.300872802734377,0.1932787001132965,-0.3732126951217651,-0.36651915,0.7651087,7
3.152718544006348,9.227299690246582,0.2626158893108368,-0.4249964356422424,-0.30268374,0.7715228,7
3.190704345703125,9.144030570983887,0.3488863408565521,-0.4759337902069092,-0.25534168,0.86437434,7
3.272252321243286,9.046449661254883,0.513572633266449,-0.5216747522354126,-0.49418998,0.97219205,7
3.4945526123046875,9.031229019165039,0.5286175608634949,-0.5443294048309326,-0.10629055,1.2596041,7
3.798040151596069,8.985721588134766,0.4879651665687561,-0.5601447224617004,0.12858713,1.2815952,7
4.124435424804688,8.800853729248047,0.49738463759422297,-0.5969117283821106,0.42485678,1.201572,7
4.4121060371398935,8.576265335083008,0.5563673377037048,-0.6364673376083374,0.48288897,1.1695015,7
4.641745090484619,8.340364456176758,0.64033442735672,-0.6472102999687195,0.30665436,1.1902708999999998,7
4.7902188301086435,8.102581024169924,0.7603986859321594,-0.6416332721710205,0.21838433,1.1530081,7
4.8669610023498535,7.91851282119751,0.8929293155670166,-0.6483649611473083,0.28924468,1.1548406999999998,7
4.901352882385254,7.7749085426330575,0.9656763672828674,-0.6630938053131104,0.37507126,1.2159272,7
4.924440860748291,7.673214912414551,1.0120868682861328,-0.6835429668426514,0.33444872,1.219287,7
4.965449333190918,7.548317909240723,1.0393494367599487,-0.7159957289695741,0.35827246,1.2067643,7
5.069694519042969,7.401908874511719,1.0920941829681396,-0.7649300098419191,0.27947086,1.3078625,7
5.232693672180176,7.2143797874450675,1.164524793624878,-0.8066518902778625,0.28893927,1.3790283,7
5.415300369262695,6.961715698242188,1.2728393077850342,-0.8363462686538696,0.30451632,1.3130548,7
5.642709732055664,6.715491771697997,1.4287892580032349,-0.860407292842865,0.34208453,1.2351695,7
5.912312030792236,6.538647651672362,1.630268096923828,-0.8688075542449951,0.29749137,1.205848,7
6.177528381347656,6.4393863677978525,1.8248289823532104,-0.8720945119857788,0.39767328,1.1664472,7
6.366465091705322,6.361665725708008,1.9850509166717532,-0.8814827799797058,0.56596667,1.0546589,7
6.489482879638673,6.282652854919434,2.1294693946838383,-0.8954231739044191,0.7107416999999999,0.98715824,7
6.5538506507873535,6.222500801086426,2.299898862838745,-0.8926578164100647,0.6835581999999999,1.0002918,7
6.575979232788086,6.156554698944093,2.5360896587371826,-0.873223602771759,0.56382865,1.1133018999999995,7
6.620630741119385,6.10212516784668,2.7671167850494385,-0.8544931411743164,0.45112398,1.1826351000000002,7
6.6511783599853525,5.9612669944763175,2.9594800472259517,-0.8578178882598877,0.48533243,1.1481212,7
6.633160591125487,5.700170040130615,3.148778200149536,-0.8728855848312378,0.57543504,1.0320568,7
6.662290096282959,5.468395709991455,3.33118200302124,-0.8893207311630249,0.8353582,1.0415252000000002,7
6.834559440612793,5.271975517272949,3.494673728942871,-0.9176567792892456,0.97127575,1.0870347,7
7.0431785583496085,5.035163879394531,3.658219814300537,-0.9501559734344482,1.0454959,1.0772609,7
7.156626224517822,4.741795063018799,3.846134901046753,-0.9794588685035706,1.2654073,1.0305296,7
7.210144519805907,4.524277210235597,4.113182544708252,-1.0204657316207886,1.6896533,1.1001683,7
7.1359028816223145,4.369596481323241,4.598881244659424,-1.099094033241272,1.7925841,1.0598511999999998,7
7.1078290939331055,4.087557792663573,5.174751281738281,-1.1956050395965576,1.9620992,1.0458013000000002,7
7.663016319274902,3.499918937683105,5.961051940917969,-1.2352604866027832,1.8829921000000005,0.54702985,7
8.493000030517576,2.9776737689971924,6.822995662689209,-1.2281334400177002,0.947452,0.34819320000000004,7
8.995361328125,2.667257785797119,7.271608829498291,-1.188385248184204,1.258077,0.27305678,7
9.040304183959961,2.298232078552246,7.512356758117676,-1.0787128210067751,0.820392,-0.06505715,7
8.734628677368164,1.8598997592926023,7.893089294433594,-0.9084520936012268,-0.4166101,-0.119729586,7
8.162221908569336,1.410289645195007,8.200563430786133,-0.8248541951179504,-0.97310835,-0.105068825,7
7.49925422668457,0.996301293373108,8.069907188415527,-0.8359305262565613,-0.464563,-0.013439035,7
6.9380412101745605,0.5976002812385559,7.50677490234375,-0.8530136346817017,0.33841935,0.07788532,7
6.611808776855469,0.23602159321308136,7.0634074211120605,-0.8269954323768616,0.57910025,0.1853976,7
6.5183348655700675,-0.03533119335770607,6.925358295440674,-0.7769182324409485,0.38423425,0.22968534,7
6.610233783721924,-0.1575455218553543,6.991079807281494,-0.7220866680145264,0.46944994,0.15760323,7
6.8060569763183585,-0.15030619502067566,7.177840709686278,-0.6627981066703796,0.2947425,0.089491755,7
6.9974141120910645,-0.10088619589805604,7.347869873046875,-0.6032852530479431,-0.05772676700000001,0.043982297,7
7.047689437866211,-0.07556075602769853,7.383707523345947,-0.5345852375030518,-0.12950343,-0.02321288,7
6.951357841491699,-0.0565195195376873,7.296685218811035,-0.4782709777355194,0.008246681,-0.10048734,7
6.8129334449768075,0.04952307790517807,7.1604905128479,-0.4494454562664032,0.106595986,-0.09865474,7
6.7297420501708975,0.2675056457519531,7.023563861846924,-0.41994893550872797,0.1328632,0.005497787,7
6.730687141418457,0.5020838379859924,6.981293678283691,-0.3839978873729706,-0.022602014,0.09040806,7
6.794800281524657,0.6805339455604553,7.025156021118164,-0.3546130359172821,-0.20280726,0.14508049,7
6.848833084106445,0.7554902434349059,7.0490241050720215,-0.3184579014778137,-0.12797627,0.09315695,7
6.817656517028809,0.740960955619812,6.992947101593018,-0.2764489948749542,0.054367006,0.029932396,7
6.6960883140563965,0.7327889800071716,6.908745288848878,-0.2475425750017166,0.17501289,0.013133603,7
6.537477493286133,0.7271788716316223,6.870331764221191,-0.2437989264726639,0.27672195,0.051923547,7
6.3691349029541025,0.6986607313156128,6.907848834991455,-0.24301888048648834,0.26633725,0.13561209,7
6.2497191429138175,0.6184840202331543,7.0274338722229,-0.2215280383825302,0.16982053,0.1994475,7
6.224107265472412,0.4660889208316803,7.232309818267822,-0.18676786124706268,-0.028710667,0.16035213,7
6.260864734649657,0.2322685420513153,7.456517696380615,-0.1549820452928543,-0.29718593,0.064751714,7
6.27193546295166,0.01449344679713249,7.59317684173584,-0.13284316658973694,-0.52106804,-0.025045475,7
6.305030345916747,-0.113227941095829,7.595476627349853,-0.11656243354082108,-0.6010914,-0.11148291,7
6.364348888397218,-0.1418447196483612,7.491487503051758,-0.10530883818864822,-0.5143485,-0.14569137,7
6.468897819519043,-0.1100190207362175,7.309010505676269,-0.1002359464764595,-0.4251622000000001,-0.1518,7
6.617118835449219,-0.04000578448176384,7.111482620239258,-0.09820005297660828,-0.34116822,-0.16218472,7
6.770358085632324,0.054167870432138436,6.9345808029174805,-0.10057389736175536,-0.27366763,-0.15851954,7
6.90544319152832,0.15838362276554108,6.7799129486083975,-0.10832301527261734,-0.14355333,-0.15607607,7
7.01821231842041,0.25770682096481323,6.625030994415282,-0.117351196706295,0.01985312,-0.1386664,7
7.090947151184082,0.34657207131385803,6.526703357696532,-0.1227208971977234,0.06963864,-0.10903945,7
7.111716747283936,0.41817566752433777,6.525369644165039,-0.1278190314769745,0.015271631,-0.08032878,7
7.103196144104004,0.4607113301753998,6.553781509399414,-0.12946131825447085,0.00030543262000000003,-0.04184427,7
7.0850887298583975,0.4841730892658234,6.531711101531982,-0.1170511394739151,0.12308934,-0.03359759,7
7.055391311645508,0.4997816681861877,6.516124248504639,-0.09452085196971892,0.14538592,0.00580322,7
7.008679866790772,0.5124720931053162,6.50712776184082,-0.07321683317422867,0.16646078,0.036651913,7
6.958191394805907,0.5111722350120544,6.540263175964356,-0.05318641662597656,0.16096300000000002,0.06750060599999999,7
6.903429985046388,0.4888499677181244,6.625480175018311,-0.034670863300561905,0.10048734,0.07727446,8
6.8452324867248535,0.4551501572132111,6.7189788818359375,-0.017063148319721222,0.04795292,0.06750060599999999,8
6.7991981506347665,0.4142912030220032,6.782973766326903,-0.002508931560441852,0.04886922,0.06352998,8
6.757995128631593,0.3779797554016113,6.823886394500732,0.008310079574584961,0.016493361,0.0580322,8
6.731069087982178,0.35152363777160645,6.858556270599365,0.011136229149997234,-0.010079277,0.043676864,8
6.702249526977539,0.32849565148353577,6.881013870239258,0.006611275020986795,0.021991149,0.025350908,8
6.677323341369629,0.3157535791397095,6.893586158752441,-0.0016441774787381294,0.013439035,0.019242255,8
6.672741889953612,0.31041449308395386,6.905360698699951,-0.010327327996492386,-0.062308256,-0.008857545999999999,8
6.689471244812013,0.3015443384647369,6.904022216796875,-0.02163638174533844,-0.052839845,-0.0036651916,8
6.705907344818115,0.28979578614234924,6.892012119293213,-0.03194548189640045,-0.049480084,-0.017104227,8
6.733578681945801,0.2856100797653198,6.865323066711426,-0.0390881821513176,-0.048258353,-0.008552114,8
6.778425693511963,0.2915279865264893,6.841087341308594,-0.041250478476285934,-0.052534413,-0.010079277,8
6.824653625488281,0.30690839886665344,6.816603660583496,-0.040910422801971436,-0.03756821,-0.010079277,8
6.861084461212157,0.3198566138744354,6.792445182800293,-0.04066630080342293,-0.019242255,-0.0018325958,8
6.883298873901367,0.3257215619087219,6.770771503448486,-0.03899768367409706,0.004276057,0.0125227375,8
6.887187480926514,0.3232404589653015,6.74852180480957,-0.03595101088285446,0.035124752999999995,0.016187929,8
6.8891053199768075,0.31601017713546753,6.737409591674805,-0.03226584196090698,0.048258353,0.018325957,8
6.896886348724365,0.3026995360851288,6.7430052757263175,-0.028440745547413826,0.04428773,0.023518313,8
6.901253700256348,0.29128438234329224,6.745616912841798,-0.025053266435861588,0.048563786,0.023518313,8
6.893418312072754,0.2715711295604706,6.754391670227051,-0.02179376408457756,0.06352998,0.014660766,8
6.8693504333496085,0.24535928666591644,6.7740092277526855,-0.019414877519011497,0.05222898,0.008857545999999999,8
6.840188980102539,0.22758881747722626,6.805368900299072,-0.016711324453353882,0.03726278,0.00580322,8
6.811294555664063,0.21878446638584134,6.839676380157472,-0.014374600723385809,0.011301007,-0.0030543262,8
6.783885955810548,0.2152472287416458,6.869812488555907,-0.013864575885236263,-0.0021380284,-0.007330383,8
6.760615348815918,0.21364478766918185,6.8852057456970215,-0.012965008616447449,-0.013744468,-0.009162978,8
6.744096755981445,0.21800611913204196,6.8879337310791025,-0.012910020537674429,-0.01038471,-0.00030543262000000003,8
6.736989498138428,0.2286983728408813,6.892843723297119,-0.013545909896492958,-0.015271631,-0.0021380284,8
6.7331600189208975,0.2411737740039825,6.8926734924316415,-0.013350683264434338,-0.025961773,-0.0036651916,8
6.72921085357666,0.2561926245689392,6.893887519836426,-0.013953329063951971,-0.02076942,-0.005497787,8
6.724438190460205,0.2723254859447479,6.893572807312013,-0.014340747147798538,-0.008857545999999999,-0.004581489,8
6.7206358909606925,0.28757044672966003,6.890759944915772,-0.013812648132443428,-0.019242255,-0.00030543262000000003,8
6.7280516624450675,0.2976225912570953,6.887113094329834,-0.013515595346689224,-0.021685716,0.0061086523,8
6.742307662963867,0.30615633726119995,6.869619369506836,-0.01361286174505949,-0.020463986,0.0067195175,8
6.755521297454834,0.3124715983867645,6.851459980010986,-0.014745502732694147,0.00061086525,0.0067195175,8
6.763524532318115,0.3183048963546753,6.836607456207275,-0.015398981049656868,-0.0021380284,0.013744468,8
6.7761802673339835,0.31873375177383423,6.831991195678711,-0.015995508059859276,0.0009162979,0.015271631,8
6.793159484863281,0.3079570531845093,6.8288936614990225,-0.016800684854388237,-0.003970624,0.01740966,8
6.801568031311035,0.2967107594013214,6.8194661140441895,-0.017669839784502983,0.013133603,0.008857545999999999,8
6.8065733909606925,0.2804681360721588,6.816594123840332,-0.018422821536660198,0.01038471,0.010690141499999998,8
6.809446811676025,0.26813462376594543,6.818812847137451,-0.01862436719238758,0.0070249503,0.0033597588,8
6.810032844543457,0.2610673606395721,6.819140434265138,-0.019942937418818474,0.020463986,0.004886922,8
6.810592174530028,0.2609320878982544,6.825807094573975,-0.01946989633142948,0.004276057,0.011301007,8
6.809590816497803,0.262684166431427,6.839146614074707,-0.016881564632058144,-0.0009162979,0.0033597588,8
6.807724475860597,0.26233622431755066,6.851181983947754,-0.013707993552088736,0.003970624,0.0125227375,8
6.801676273345947,0.2635772526264191,6.853282928466798,-0.012028992176055908,0.008246681,0.0067195175,8
6.7946882247924805,0.2688622772693634,6.858011722564697,-0.011176020838320257,0.0015271631,0.003970624,8
6.787321090698242,0.2750341594219208,6.863175868988037,-0.01215354073792696,-0.004581489,0.0033597588,8
6.781501770019531,0.2800180912017822,6.864867687225343,-0.012420431710779669,-0.010995574,0.004276057,8
6.777722358703612,0.2787320613861084,6.865983009338379,-0.013983603566884995,-0.011301007,0.0030543262,8
6.782043933868407,0.27643653750419617,6.859536170959473,-0.015811199322342873,-0.008246681,0.007330383,8
6.7851667404174805,0.2727281451225281,6.852609157562256,-0.01696799136698246,-0.0030543262,0.00030543262000000003,8
6.79288387298584,0.2658285200595856,6.852027893066406,-0.01686552725732326,-0.0067195175,0.009162978,8
6.791839599609375,0.2548836469650269,6.8514580726623535,-0.01689180731773376,-0.004886922,-0.002443461,8
6.793233394622803,0.25399982929229736,6.841006278991699,-0.015231808647513391,-0.01282817,-0.0061086523,8
6.796274662017822,0.256863534450531,6.825601100921631,-0.013967763632535934,0.0015271631,-0.00030543262000000003,8
6.801362037658691,0.2593713104724884,6.813173294067383,-0.01225526724010706,-0.0012217305,0.004581489,8
6.805098533630371,0.2591361999511719,6.8187012672424325,-0.01121577247977257,0.009468411,0.008552114,8
6.803573131561278,0.2589757740497589,6.821178913116455,-0.010192533023655416,0.006414085,0.0009162979,8
6.804224491119385,0.2553551197052002,6.82012939453125,-0.009421106427907944,0.0015271631,0.008857545999999999,8
6.804139614105225,0.2576360404491425,6.8201212882995605,-0.00994895491749048,-0.0030543262,0.00061086525,8
6.802964687347412,0.2679602801799774,6.824069023132324,-0.010534043423831465,0.010079277,0.003970624,8
6.7978553771972665,0.276112824678421,6.83319616317749,-0.011443544179201126,0.01282817,0.008552114,8
6.794848442077638,0.2811621427536011,6.846015453338622,-0.011551194824278356,-0.00580322,0.0067195175,8
6.787905693054199,0.28515973687171936,6.850675106048584,-0.011100503616034985,-0.007941248,-0.00030543262000000003,8
6.783554553985597,0.28845202922821045,6.85044002532959,-0.011784624308347702,-0.0009162979,0.0067195175,8
6.77631425857544,0.2942095994949341,6.853147983551025,-0.0122542642056942,0.0027488936,0.010690141499999998,8
6.771363258361816,0.2976484000682831,6.849857807159424,-0.012668064795434477,0.0076358155,0.00580322,8
6.7706031799316415,0.2937488257884979,6.848846435546875,-0.012918921187520029,0.011911872,0.010995574,8
6.769834518432617,0.2858921885490417,6.840351104736327,-0.014415100216865541,0.00030543262000000003,0.0070249503,8
6.7735114097595215,0.273731529712677,6.835140705108643,-0.01577133126556873,-0.00061086525,0.00580322,8
6.777354717254639,0.2643035650253296,6.835176467895508,-0.01568581722676754,-0.004886922,0.0067195175,8
6.778903007507324,0.2632225751876831,6.830025672912598,-0.016202881932258606,0.00030543262000000003,0.00580322,8
6.782900333404541,0.2665935158729553,6.819782257080077,-0.016008593142032623,-0.007330383,0.0015271631,8
6.793635368347168,0.2699982821941376,6.816920757293701,-0.014688431285321712,-0.011911872,0.0012217305,8
6.8040223121643075,0.2673676013946533,6.817778587341309,-0.012797627598047256,-0.009468411,-0.008246681,8
6.811298370361327,0.266024649143219,6.826031684875487,-0.012796379625797272,-0.00061086525,-0.0027488936,8
6.817605972290039,0.272316038608551,6.8367557525634775,-0.012052600271999836,-0.022907447,0.004276057,8
6.822227478027344,0.28103044629096985,6.826509475708008,-0.009614632464945316,-0.0061086523,0.005497787,8
6.8088626861572275,0.2887197434902191,6.8126726150512695,-0.009211868979036808,0.016798794,0.017104227,8
6.7945404052734375,0.2877033054828644,6.8217549324035645,-0.011570342816412449,0.011301007,0.012217305,8
6.789433479309082,0.2857167422771454,6.839509010314941,-0.013260587118566036,-0.014660766,0.0061086523,8
6.783091068267822,0.2858072817325592,6.837771415710449,-0.014178193174302578,-0.005497787,0.0027488936,8
6.78369140625,0.2840635180473328,6.8330626487731925,-0.014952534809708597,-0.00030543262000000003,-0.005192355,8
6.78659725189209,0.2848416268825531,6.833033084869385,-0.017967944964766502,-0.004581489,0.00061086525,8
6.781477928161621,0.2850065529346466,6.840014457702638,-0.019613279029726986,-0.010079277,0.0033597588,8
6.779030799865723,0.2888798713684082,6.852226734161378,-0.01914298348128796,-0.013439035,0.0030543262,8
6.775269508361816,0.2992333769798279,6.840426921844482,-0.01690142601728439,-0.008552114,0.0030543262,8
6.7700371742248535,0.3044226765632629,6.822138786315918,-0.0150662986561656,0.011911872,0.01985312,8
6.771653175354004,0.30086982250213623,6.818906784057617,-0.01468485128134489,0.015882496,0.024129177,8
6.7815423011779785,0.2865883708000183,6.830048561096191,-0.014222774654626846,-0.010690141499999998,0.007330383,8
6.787965297698975,0.2753863036632538,6.829968452453612,-0.014757545664906504,-0.022296581,0.005192355,8
6.789023399353027,0.2688521146774292,6.821578979492188,-0.017103467136621475,-0.0027488936,0.00061086525,8
6.777335166931152,0.2687956988811493,6.823921203613281,-0.01887278445065021,-0.008246681,0.009773844,8
6.770719051361084,0.2628725469112396,6.829895496368407,-0.018750330433249474,-0.00030543262000000003,-0.00030543262000000003,8
6.772869110107423,0.25073423981666565,6.838764190673827,-0.01824519224464893,0.009162978,-0.0018325958,8
6.7918949127197275,0.2420894801616669,6.837696075439452,-0.018214790150523186,-0.0143553335,-0.006414085,8
6.809654712677003,0.2425708323717117,6.8293418884277335,-0.017664792016148567,-0.017715093,-0.0012217305,8
6.813132762908936,0.25004956126213074,6.809722423553468,-0.01683785393834114,0.014049901000000002,0.0033597588,8
6.808828830718994,0.2530101537704468,6.8076605796813965,-0.01717359945178032,0.022602014,0.010995574,8
6.804890155792236,0.25977426767349243,6.811463356018066,-0.016410771757364273,0.021991149,0.0070249503,8
6.80588436126709,0.2621346414089203,6.824026107788086,-0.015263542532920837,0.0076358155,0.008552114,8
6.8075690269470215,0.2658490538597107,6.8293113708496085,-0.013073747977614405,0.008857545999999999,0.0067195175,8
6.801640033721924,0.2773224115371704,6.827500820159912,-0.011439249850809574,0.0125227375,0.005192355,8
6.787840843200684,0.28578197956085205,6.830771446228027,-0.011096689850091934,0.005497787,0.009773844,8
6.77738618850708,0.29159876704216003,6.837843894958496,-0.011661190539598463,-0.0027488936,0.0061086523,8
6.774691581726074,0.2899371981620789,6.848508834838867,-0.011943884193897249,-0.020463986,0.0036651916,8
6.7720255851745605,0.2881123721599579,6.853400707244872,-0.013027260079979895,-0.026267206,0.0061086523,8
6.7756123542785645,0.28904351592063904,6.84256649017334,-0.01369361113756895,-0.028099801,0.002443461,8
6.778467655181885,0.2888026535511017,6.824714183807372,-0.015432464890182018,-0.005497787,0.0027488936,8
6.783365249633789,0.2801431119441986,6.820211410522461,-0.017366915941238403,-0.0070249503,0.0012217305,8
6.792776107788086,0.2748764157295227,6.824702739715576,-0.01600039750337601,-0.01282817,0.005192355,8
6.80169153213501,0.279339462518692,6.819079399108888,-0.014798757620155813,-0.017104227,0.00030543262000000003,8
6.810948848724365,0.2818129062652588,6.811203956604004,-0.015561165288090706,-0.008246681,0.01038471,8
6.8206281661987305,0.2808087468147278,6.802634716033936,-0.015168391168117525,0.004886922,0.013439035,8
6.827193260192871,0.2783185541629791,6.7953128814697275,-0.014640736393630503,0.0067195175,0.009468411,8
6.8285274505615225,0.2753193974494934,6.79691743850708,-0.014682122506201269,0.012217305,0.008857545999999999,8
6.831288814544678,0.2724766135215759,6.803561687469482,-0.01543501019477844,0.005497787,0.005192355,8
6.830321788787843,0.2665084004402161,6.810126781463622,-0.016242077574133873,0.02076942,0.013133603,8
6.8159894943237305,0.25680604577064514,6.81705904006958,-0.017392167821526527,0.014049901000000002,0.0033597588,8
6.80408239364624,0.2453797459602356,6.824739933013916,-0.017278671264648438,0.017104227,0.010690141499999998,8
6.8008971214294425,0.23990508913993835,6.836040019989014,-0.016899650916457176,0.006414085,0.004276057,8
6.796929359436035,0.24365903437137604,6.849392414093018,-0.017040278762578964,-0.013439035,-0.0033597588,8
6.792562961578369,0.2471972405910492,6.855365753173827,-0.015294638462364675,-0.018936822,0.0012217305,8
6.789245128631593,0.24419820308685306,6.8528313636779785,-0.013881763443350792,-0.0070249503,0.00030543262000000003,8
6.790590763092041,0.245125949382782,6.8472676277160645,-0.012859067879617214,-0.017104227,-0.0030543262,8
6.788589954376222,0.2530210614204407,6.844466209411621,-0.012114306911826134,-0.0070249503,0.0021380284,8
6.7911696434021,0.2607662677764893,6.842408657073975,-0.012444199994206429,-0.008857545999999999,0.0018325958,8
6.803660392761231,0.2671661078929901,6.833281517028809,-0.011783688329160212,-0.007941248,0.006414085,8
6.818494319915772,0.2679992616176605,6.8242621421813965,-0.011986006051301956,-0.0070249503,0.007941248,8
6.823527812957764,0.2648427188396454,6.818216323852539,-0.013333069160580635,-0.01160644,-0.0009162979,8
6.8324875831604,0.26106375455856323,6.815223693847656,-0.013846717774868013,-0.004276057,0.0018325958,8
6.836384296417236,0.262747585773468,6.810863494873048,-0.014253432862460613,-0.01282817,-0.0027488936,8
6.8409156799316415,0.2694517970085144,6.802645206451416,-0.015043096616864203,-0.0070249503,-0.0009162979,8
6.8438663482666025,0.2771557867527008,6.797016143798827,-0.01586451381444931,-0.004276057,0.007941248,8
6.8418517112731925,0.288044810295105,6.799546241760254,-0.01634934917092323,0.019547688,0.009162978,8
6.836977958679199,0.29790568351745605,6.805818557739258,-0.017098363488912582,0.02321288,0.017715093,8
6.831500053405763,0.3005334138870239,6.818706512451173,-0.016576200723648068,0.008857545999999999,0.018325957,8
6.822417259216309,0.2970859706401825,6.826497554779053,-0.015609925612807276,0.009773844,0.02107485,8
6.812805652618407,0.2934057414531708,6.819157600402832,-0.016128914430737495,0.014660766,0.015577064,8
6.8108763694763175,0.2769491076469421,6.823808670043945,-0.017591355368494987,0.004276057,0.009468411,8
6.812068462371826,0.2560335099697113,6.838228702545166,-0.01758589781820774,-0.008246681,0.005497787,8
6.814244747161865,0.2382537722587585,6.847911834716798,-0.018088880926370617,-0.0067195175,0.0070249503,8
6.82282304763794,0.2297305762767792,6.844042778015138,-0.0182211771607399,-0.017715093,0.0036651916,8
6.8234381675720215,0.22635699808597565,6.844935894012451,-0.018268981948494908,-0.017104227,0.0061086523,8
6.822781562805176,0.2288206368684769,6.837493896484375,-0.01829271577298641,-0.0061086523,0.004276057,8
6.825807094573975,0.23084285855293274,6.833920001983643,-0.018311366438865658,-0.0033597588,0.003970624,8
6.831782817840576,0.2346402257680893,6.831894874572754,-0.016543971374630928,-0.0027488936,0.0012217305,8
6.832354545593263,0.2341881096363068,6.831669330596924,-0.013826311565935612,-0.004581489,0.00030543262000000003,8
6.830998420715332,0.2359985411167145,6.829464912414551,-0.012021115981042385,-0.005497787,-0.00061086525,8
6.829516887664795,0.2423270344734192,6.8235697746276855,-0.010008556768298149,-0.005192355,0.0009162979,8
