acc_x,acc_y,acc_z,gyro_x,gyro_y,gyro_z,label
0.0,0.0,0.0,0.0,0.0033597588,0.00030543262000000003,1
-0.021723007783293724,0.2856839597225189,-0.044668976217508316,-0.00025737934629432857,0.008857545999999999,0.00030543262000000003,1
-0.07378654181957245,0.9668771028518676,-0.15164846181869507,-0.0014774779556319118,0.01740966,0.004886922,1
-0.14625872671604154,1.9095633029937744,-0.3004392683506012,-0.0029600290581583977,0.00580322,0.0030543262,1
-0.2279522866010666,2.9652369022369385,-0.468006044626236,-0.0037002745084464546,0.0076358155,0.0027488936,1
-0.30979785323143005,4.0144944190978995,-0.6355267167091371,-0.004578655119985342,0.0030543262,0.00061086525,1
-0.3860956430435181,4.982513904571533,-0.7908678650856018,-0.005418464541435243,-0.011301007,-0.0015271631,1
-0.4540033638477325,5.833456516265869,-0.9282451272010804,-0.007343373261392116,-0.003970624,-0.0012217305,1
-0.5127182006835938,6.558302879333496,-1.0461207628250122,-0.007325619924813509,0.004581489,-0.0036651916,1
-0.5626068115234375,7.163218975067139,-1.1453670263290403,-0.00760393962264061,0.002443461,0.0067195175,1
-0.6045944094657898,7.661384582519531,-1.2279870510101318,-0.007117929868400097,0.009468411,0.0033597588,1
-0.6397828459739685,8.068133354187013,-1.29633629322052,-0.00881340354681015,-0.00580322,-0.0033597588,1
-0.6692710518836975,8.398417472839355,-1.3527364730834959,-0.010306889191269876,0.0061086523,0.0125227375,1
-0.694055438041687,8.665678024291992,-1.3992822170257568,-0.011161780916154385,-0.00061086525,0.009773844,1
-0.7149814963340759,8.88146686553955,-1.4377634525299072,-0.011591693386435507,0.008246681,0.007941248,1
-0.7339265942573547,9.056238174438477,-1.4708491563796997,-0.011683754622936249,0.0012217305,0.0027488936,1
-0.7539217472076416,9.199606895446776,-1.5022232532501218,-0.011524532921612264,0.0070249503,0.009162978,1
-0.7748761773109436,9.317716598510742,-1.5323286056518557,-0.01178282406181097,0.014966198,0.005497787,1
-0.7965707182884216,9.41545867919922,-1.561379313468933,-0.012717483565211296,0.006414085,0.007941248,1
-0.8188860416412354,9.496825218200684,-1.589606523513794,-0.012693683616817,0.011301007,0.0033597588,1
-0.8416844606399536,9.56501293182373,-1.6171551942825315,-0.014873568899929525,-0.00061086525,0.00061086525,1
-0.8648890256881714,9.6226167678833,-1.6441764831542969,-0.02051149122416973,-0.030543262,0.014049901000000002,1
-0.8884069323539734,9.671707153320312,-1.6707603931427002,-0.031311538070440285,-0.052534413,0.008552114,1
-0.9121761918067932,9.713956832885742,-1.6969926357269287,-0.041681908071041114,-0.08674286,0.009468411,1
-0.9361403584480286,9.750706672668457,-1.7229355573654177,-0.05330337211489677,-0.11759156,0.011301007,7
-0.9582401514053344,9.778119087219238,-1.7480909824371338,-0.07154230028390884,-0.109650314,0.022602014,7
-0.9732797145843506,9.78462028503418,-1.7710379362106323,-0.09521988779306413,-0.09896017,0.06780604,7
-0.9823461174964904,9.773639678955078,-1.7921086549758911,-0.12730006873607635,-0.093767814,0.14141529999999994,7
-0.98660147190094,9.748546600341797,-1.811683297157288,-0.16595937311649325,-0.07452556,0.20586158,7
-0.9869819283485411,9.712061882019043,-1.8300652503967283,-0.2083004117012024,-0.106595986,0.2864958,7
-0.984269082546234,9.666529655456543,-1.8474721908569336,-0.2592763602733612,-0.12644911,0.36957347,7
-0.9790669679641724,9.613707542419434,-1.8640999794006348,-0.3176349699497223,-0.02687807,0.4361577999999999,7
-0.9718605875968932,9.555002212524414,-1.88010573387146,-0.3886785507202149,0.07788532,0.48899764,7
-0.9630413651466371,9.491557121276855,-1.8956145048141482,-0.4730596840381622,0.13316862,0.57543504,7
-0.952932834625244,9.424338340759276,-1.9107184410095213,-0.5600351691246033,0.26267207,0.5317582,7
-0.9276647567749025,9.371745109558104,-1.8895572423934937,-0.6600474715232849,0.030543262,0.4896085,7
-0.8567941188812256,9.372727394104004,-1.7541884183883667,-0.7797608375549316,-0.13927728,0.55680364,7
-0.7477580904960632,9.418663024902344,-1.523176193237305,-0.8986829519271851,-0.19730948,0.6630941999999999,7
-0.6080687046051025,9.500706672668457,-1.21534526348114,-1.0075691938400269,0.083383106,0.62888575,7
-0.4437442123889923,9.611763954162598,-0.8457796573638916,-1.1428632736206057,0.43401974,0.35918877,7
-0.2596457302570343,9.746116638183594,-0.4266588687896729,-1.314958095550537,0.5006041,-0.063224554,7
-0.05966611206531525,9.899177551269533,0.032261937856674194,-1.5156885385513306,0.18906279,-0.36835176,7
0.15308035910129547,10.067275047302246,0.5231762528419495,-1.7263530492782593,0.4636467000000001,-0.2782491,7
0.376078724861145,10.24744701385498,1.0397822856903076,-1.9094940423965452,0.32711834,-0.10629055,7
0.6072958111763,10.43730640411377,1.5769875049591064,-2.0822398662567143,-0.59406644,0.101098195,7
0.827661395072937,10.59368896484375,2.1105852127075195,-2.1858115196228027,-0.7333437,0.24648413,7
0.9955022931098938,10.61966037750244,2.590676069259644,-2.234614372253418,-0.48899764,0.49113566,7
1.1190792322158811,10.53688144683838,3.0246729850769043,-2.2052671909332275,-0.56199604,0.79045963,7
1.2070358991622925,10.366151809692383,3.421921491622925,-2.1523725986480717,-0.39767328,0.9260716999999998,7
1.2663278579711914,10.124298095703123,3.789872884750366,-2.104656219482422,-0.5861251999999999,0.8396343000000001,7
1.3027105331420898,9.82638454437256,4.133790969848634,-2.0663595199584956,-0.4474588,0.6020076999999999,7
1.3206257820129397,9.482839584350586,4.458683490753174,-2.038506269454956,-0.35369098,0.59406644,7
1.3237135410308838,9.102701187133787,4.768263816833496,-2.028625249862671,-0.18020524,0.7480045,7
1.314888596534729,8.693150520324707,5.065554141998291,-2.01404333114624,-0.36835176,0.9221011,7
1.2964985370635986,8.260009765625,5.352953910827637,-1.9685896635055544,-0.32803464,1.0555751,7
1.2869170904159546,7.8290767669677725,5.62739896774292,-1.9030708074569704,-0.3903429,1.0305296,7
1.3249434232711792,7.452704906463622,5.878725528717041,-1.851523160934448,-0.56169057,0.96761054,7
1.4031184911727903,7.122811317443848,6.110799789428711,-1.8208794593811035,-0.54092115,0.90469146,7
1.514229655265808,6.829854488372803,6.32784366607666,-1.7961686849594116,-0.29168814,0.8927795000000001,7
1.6506166458129885,6.567252159118652,6.532065391540527,-1.7870396375656128,-0.30451632,0.93370754,7
1.807769775390625,6.328763961791992,6.72628116607666,-1.7555640935897827,-0.40653083,0.9068295,7
1.9816648960113523,6.109611988067628,6.912497520446777,-1.700025200843811,-0.54183745,0.8894198,7
2.169474601745605,5.905721187591553,7.0925846099853525,-1.6268980503082275,-0.49571714,0.9016371,7
2.3674724102020264,5.714662075042725,7.267120361328125,-1.5895849466323853,-0.3136793,0.9950995,7
2.574187994003296,5.5336012840271,7.437535762786865,-1.5788980722427368,-0.15118915,0.8781188,7
2.7793865203857417,5.3503074645996085,7.598350524902344,-1.5589641332626345,-0.09437868,0.7247916,7
2.958268165588379,5.140294551849365,7.733229160308838,-1.5376557111740112,0.032986723,0.75655663,7
3.114705801010132,4.906362533569336,7.846260070800781,-1.5239341259002686,0.3811799,0.71776664,7
3.2531011104583736,4.653286933898926,7.9417362213134775,-1.480452299118042,0.21960606,0.5180137,7
3.3771002292633057,4.384338855743408,8.023146629333496,-1.3848391771316528,0.03390302,0.23701571,7
3.4893615245819087,4.103531837463379,8.093194007873535,-1.2576054334640503,0.17348573,0.14172074,7
3.5922832489013667,3.812739610671997,8.154147148132324,-1.1307613849639893,0.26572640000000003,0.08979719,7
3.68774151802063,3.5137295722961426,8.207809448242188,-1.0031676292419434,0.26847526,-0.007330383,7
3.7771153450012207,3.208576202392578,8.255581855773926,-0.8663216829299927,0.15363261,-0.06291912,7
3.86164140701294,2.898282527923584,8.298637390136719,-0.7253938317298889,0.018936822,-0.09132435,7
3.92707085609436,2.6106104850769043,8.33362865447998,-0.5985391139984131,-0.006414085,-0.11026118,7
3.9471962451934814,2.4395570755004883,8.334185600280763,-0.5029209852218628,-0.0018325958,-0.0842994,7
3.948764324188232,2.3358230590820312,8.328390121459961,-0.4211233854293823,-0.007330383,-0.06658431,7
3.9335203170776367,2.3046271800994877,8.358256340026855,-0.34724777936935425,-0.11911872,0.0021380284,7
3.900213241577149,2.3331360816955566,8.377756118774414,-0.2911064028739929,-0.22693644,0.04184427,7
3.864774227142334,2.3888092041015625,8.380385398864746,-0.2526058554649353,-0.17806722,0.035430185,7
3.857329607009888,2.482757091522217,8.350455284118652,-0.235979363322258,-0.087659165,0.0021380284,7
3.895796298980713,2.5846846103668213,8.311971664428711,-0.24088971316814425,-0.111177474,-0.06169739,7
3.963238716125488,2.662545919418335,8.299313545227049,-0.2606821358203888,-0.092240654,-0.13164146,7
4.023366451263429,2.7392358779907227,8.337775230407715,-0.2813620269298553,-0.015271631,-0.19761491,7
4.068321228027344,2.8063201904296875,8.398001670837402,-0.3144455850124359,0.064751714,-0.24281894,7
4.118499755859375,2.841383695602417,8.464269638061522,-0.3557656407356262,0.048258353,-0.2406809,7
4.157394409179688,2.8022935390472408,8.532261848449707,-0.3943489789962769,0.049785517,-0.22357668,7
4.186438083648682,2.6939775943756104,8.579748153686522,-0.4246041178703308,0.13561209,-0.2098322,7
4.200360298156738,2.543144941329956,8.59267520904541,-0.4391586482524872,0.14874569,-0.17806722,7
4.185174465179443,2.3895814418792725,8.58475399017334,-0.4402066469192505,0.14019357,-0.1142318,7
4.1229872703552255,2.247760057449341,8.561433792114258,-0.4343940615653992,0.10903945,-0.042760565999999986,7
4.0239548683166495,2.106282949447632,8.540226936340332,-0.4256002604961395,0.05955936,-0.006414085,7
3.9289247989654537,1.8861733675003047,8.507550239562987,-0.4148570597171784,0.10323623,0.00580322,7
3.88462233543396,1.6139159202575684,8.506435394287111,-0.4012525677680969,0.12308934,0.030543262,7
3.85321307182312,1.345736742019653,8.525204658508299,-0.3677997291088104,0.05589417,0.047036625,7
3.819322824478149,1.1251327991485596,8.539849281311035,-0.3114387094974518,-0.051618114000000014,0.049785517,7
3.7860338687896733,0.9576926827430724,8.551551818847656,-0.2406856566667557,-0.13927728,0.07299839999999999,7
3.766051769256592,0.8728727102279663,8.532278060913086,-0.1736636757850647,-0.1133155,0.087659165,7
3.7888610363006587,0.915918231010437,8.574541091918945,-0.11715000122785567,-0.18051068,0.09101892,7
3.84094500541687,1.0569627285003662,8.713772773742676,-0.07471419125795364,-0.32742378,0.08643743400000001,7
3.8794465065002437,1.2115050554275513,8.831339836120605,-0.04553500562906265,-0.3659083,0.08582657,7
3.902013063430786,1.345247745513916,8.826733589172363,-0.015108115039765838,-0.32650748,0.0571159,7
3.9433979988098153,1.45959210395813,8.694771766662598,0.028583861887454987,-0.29229903,0.054061573,7
3.978617429733277,1.6087353229522705,8.56995677947998,0.06666103750467299,-0.2012801,0.0571159,7
3.995742082595825,1.7786039113998413,8.487307548522951,0.0821458175778389,-0.09010262,0.053145275,7
3.9653933048248287,1.9511514902114868,8.460198402404785,0.0779871717095375,-0.06750060599999999,0.00030543262000000003,7
3.900559186935425,2.0909674167633057,8.470650672912598,0.0626593679189682,-0.07391469,-0.05100725,7
3.8374643325805664,2.1751182079315186,8.493440628051758,0.03920372948050499,-0.06750060599999999,-0.09193522,7
3.7795729637146,2.217961311340332,8.484553337097168,0.015514704398810862,0.004886922,-0.12064589,7
3.755858421325684,2.227966070175171,8.455740928649902,-0.007549761328846215,0.061086524,-0.13805555,7
3.7672939300537114,2.216019630432129,8.43205738067627,-0.03151202201843262,0.08979719,-0.15210545,7
3.806143522262573,2.180310010910034,8.429363250732424,-0.050236910581588745,0.09590584,-0.14721853,7
3.860363960266113,2.1265733242034908,8.455286026000978,-0.06145898252725601,0.08735373,-0.105068825,7
3.9285247325897217,2.0704753398895264,8.489051818847656,-0.0647730678319931,0.06169739,-0.05222898,7
3.9917361736297607,2.000640392303467,8.49663257598877,-0.06337747722864151,0.040317107000000005,-0.003970624,7
4.045690059661865,1.932208776473999,8.474915504455566,-0.05778663605451584,0.032070424,0.022296581,7
4.093409061431885,1.8633533716201784,8.458184242248535,-0.05060185119509697,0.02076942,0.048258353,7
4.133430004119873,1.8068712949752808,8.469081878662111,-0.041320495307445526,-0.025350908,0.06536258,7
4.162306785583496,1.766985535621643,8.483579635620117,-0.029769979417324063,-0.023823744,0.09010262,7
4.181325912475587,1.7425528764724731,8.503965377807617,-0.01790572144091129,-0.054061573,0.09712757,7
4.176901340484618,1.745912790298462,8.528390884399414,-0.006651755422353745,-0.07696902,0.11148291,7
4.150977611541748,1.7695872783660889,8.532157897949219,0.003840845776721835,-0.037873644,0.12889257,7
4.1212244033813485,1.782967209815979,8.534175872802733,0.011735287494957449,-0.05925392700000001,0.12675454,7
4.090052604675293,1.7927418947219849,8.551505088806152,0.022142784669995308,-0.053450707,0.12064589,7
4.073254585266113,1.8004485368728638,8.56585693359375,0.03131191805005073,-0.05100725,0.109650314,7
4.060694217681885,1.810576677322388,8.56557559967041,0.039818719029426575,-0.042455133,0.09040806,8
4.052309989929198,1.8348546028137207,8.557010650634767,0.04586443677544594,-0.05467244,0.06566802,8
4.0478572845458975,1.8628137111663816,8.543262481689451,0.0463026762008667,-0.0012217305,0.041233405,8
4.04120683670044,1.8927316665649412,8.529959678649902,0.04326123744249344,-0.008857545999999999,0.035124752999999995,8
4.044270515441895,1.9256203174591064,8.510467529296875,0.03614380955696106,0.003970624,0.007941248,8
4.0573601722717285,1.9536899328231807,8.488041877746582,0.02763902209699154,0.018020526,-0.007941248,8
4.073575496673584,1.979386568069458,8.473520278930664,0.015662206336855892,0.021991149,-0.028405234,8
4.0823144912719735,2.0025558471679688,8.467353820800781,0.0036235081497579813,0.026572637000000003,-0.032986723,8
4.0820865631103525,2.0099210739135738,8.460541725158691,-0.00987399835139513,0.024740042,-0.034208454,8
4.074533462524413,2.0128984451293945,8.459859848022461,-0.021364161744713783,0.037873644,-0.024129177,8
4.0570502281188965,2.023458480834961,8.469414710998535,-0.030274905264377594,0.023823744,-0.012217305,8
4.041711330413818,2.0321593284606934,8.473285675048826,-0.034993711858987815,0.015271631,0.009468411,8
4.025942325592041,2.0251514911651607,8.479266166687013,-0.034406494349241264,0.03023783,0.032375857,8
4.026628494262694,2.0093514919281006,8.492213249206543,-0.03204682096838951,0.018325957,0.05009095,8
4.04408597946167,1.98295533657074,8.505239486694336,-0.02780112996697426,-0.008552114,0.037873644,8
4.063211441040038,1.9524343013763428,8.514804840087889,-0.02273920737206936,-0.01282817,0.029626964,8
4.0763535499572745,1.92628812789917,8.511271476745605,-0.02095058374106884,-0.0061086523,0.030543262,8
4.090392589569092,1.9065704345703125,8.500766754150389,-0.02036726102232933,0.0033597588,0.015577064,8
4.095770835876465,1.8821648359298704,8.497829437255861,-0.020086891949176792,-0.0012217305,0.0067195175,8
4.104503631591797,1.8682665824890137,8.498082160949707,-0.01917976886034012,-0.009162978,0.00030543262000000003,8
4.115003585815431,1.8559932708740237,8.500521659851074,-0.01769413612782955,-0.0143553335,-0.008857545999999999,8
4.129509925842285,1.8489032983779907,8.505661964416504,-0.0173106100410223,-0.0030543262,-0.00030543262000000003,8
4.140846252441406,1.8489099740982056,8.506392478942871,-0.015741238370537758,0.004581489,0.002443461,8
4.146777153015137,1.848173975944519,8.504753112792969,-0.013838738203048706,0.0067195175,0.007941248,8
4.14811372756958,1.851735234260559,8.50650691986084,-0.011077531613409521,0.0070249503,0.014049901000000002,8
4.150462627410889,1.8618568181991575,8.503785133361816,-0.009505643509328364,0.010690141499999998,0.020463986,8
4.144291877746582,1.873470902442932,8.497922897338867,-0.00806448794901371,0.0033597588,0.023823744,8
4.1307806968688965,1.88174831867218,8.491097450256348,-0.0073749241419136516,0.0125227375,0.013439035,8
4.112274169921875,1.8883270025253296,8.489873886108397,-0.006568313576281071,0.014660766,0.020158553,8
4.097642421722412,1.89709997177124,8.493194580078125,-0.007336351089179516,0.002443461,0.02321288,8
4.0848751068115225,1.9065256118774412,8.493474960327147,-0.007927256636321545,0.00030543262000000003,0.007330383,8
4.068676471710205,1.9210968017578125,8.485461235046388,-0.008671075105667114,-0.0009162979,0.01740966,8
4.054924488067627,1.9301303625106807,8.477712631225586,-0.009642083197832108,0.008246681,0.02565634,8
4.04818058013916,1.9433820247650144,8.472067832946777,-0.010231049731373787,-0.0009162979,0.022907447,8
4.0483312606811515,1.9536367654800413,8.474714279174805,-0.01088362094014883,-0.004886922,0.023518313,8
4.056062698364259,1.958897948265076,8.475289344787598,-0.010924341157078743,-0.0143553335,0.021685716,8
4.063375473022462,1.9535906314849851,8.467195510864258,-0.010998887009918691,-0.01160644,0.01740966,8
4.069791793823241,1.9477033615112305,8.466037750244139,-0.012057917192578316,0.0027488936,0.02443461,8
4.081592559814453,1.9441491365432741,8.471274375915527,-0.013804949820041656,-0.0021380284,0.012217305,8
4.097677230834962,1.9396793842315676,8.471597671508789,-0.015018412843346597,-0.005192355,0.009468411,8
4.109342098236084,1.933608174324036,8.474494934082031,-0.016764719039201736,0.0125227375,0.010995574,8
4.1200242042541495,1.9266966581344604,8.471194267272951,-0.017488880082964897,0.00030543262000000003,0.0027488936,8
4.1340041160583505,1.9206383228302,8.47575855255127,-0.017304904758930206,0.0027488936,0.008857545999999999,8
4.143733501434326,1.9149174690246584,8.475242614746094,-0.01783820241689682,0.00580322,0.008246681,8
4.147807598114014,1.909039855003357,8.479793548583983,-0.01821001246571541,0.013744468,0.010079277,8
4.1472253799438485,1.9058526754379272,8.482336044311522,-0.018817339092493057,0.0067195175,0.0070249503,8
4.142580032348634,1.90274977684021,8.487725257873535,-0.018907524645328518,0.0067195175,0.015882496,8
4.136359214782715,1.8991092443466189,8.492949485778809,-0.01842453703284264,0.004276057,0.014660766,8
4.1234989166259775,1.9014214277267456,8.493721961975098,-0.01730414666235447,-0.005497787,0.01740966,8
4.10842227935791,1.9042059183120728,8.491204261779785,-0.01638707146048546,0.008552114,0.013744468,8
4.0938920974731445,1.9090291261672971,8.486860275268555,-0.016026096418499947,-0.00061086525,0.007941248,8
4.080604553222656,1.9131611585617063,8.48685359954834,-0.01573927141726017,0.004886922,0.014966198,8
4.068965435028076,1.918298840522766,8.490872383117676,-0.016278216615319252,0.004276057,0.0067195175,8
4.064333915710448,1.9195085763931277,8.494783401489258,-0.01729004457592964,-0.0021380284,0.008552114,8
4.0627355575561515,1.9184701442718504,8.49788761138916,-0.018610989674925804,0.0021380284,0.009162978,8
4.073817729949951,1.9247422218322756,8.505266189575195,-0.020362045615911484,-0.004581489,-0.0036651916,8
4.088776111602783,1.92671537399292,8.511767387390138,-0.020455501973629,-0.006414085,0.0030543262,8
4.0975308418273935,1.9259737730026243,8.507914543151855,-0.02033908292651176,-0.011301007,0.01160644,8
4.100697040557861,1.9314098358154297,8.496121406555176,-0.01988254301249981,-0.0030543262,0.005497787,8
4.1057162284851065,1.9337223768234253,8.485419273376465,-0.019070997834205627,-0.007330383,0.00580322,8
4.1166157722473145,1.9387975931167605,8.479901313781737,-0.018644962459802628,0.006414085,0.0125227375,8
4.121693134307861,1.9455337524414065,8.472641944885254,-0.01893218047916889,0.011301007,0.015271631,8
4.119328498840332,1.9400079250335691,8.468599319458008,-0.01878031902015209,0.0076358155,0.012217305,8
4.112281322479248,1.9354830980300903,8.46599006652832,-0.018468882888555527,0.009162978,0.013744468,8
4.112343311309815,1.9322926998138428,8.467147827148438,-0.01913445815443993,0.01038471,0.0036651916,8
4.113173007965088,1.9263718128204343,8.46826171875,-0.0207281056791544,0.009468411,0.009773844,8
4.10835599899292,1.920068860054016,8.476616859436035,-0.02159523218870163,0.0143553335,0.0033597588,8
4.104016780853272,1.9103227853775024,8.483358383178711,-0.02177780121564865,-0.0012217305,0.005192355,8
4.102010250091554,1.9066567420959477,8.484475135803223,-0.021279357373714447,-0.0009162979,0.0015271631,8
4.10558032989502,1.9016921520233157,8.487575531005861,-0.01934091933071613,0.0009162979,0.009468411,8
4.1113319396972665,1.8975383043289185,8.495301246643066,-0.018181506544351574,-0.008552114,0.003970624,8
4.115018844604491,1.898466944694519,8.507305145263674,-0.01788072288036346,-0.0012217305,0.0070249503,8
4.119029998779297,1.9001333713531492,8.507548332214355,-0.017516419291496273,0.0021380284,0.002443461,8
4.121678829193115,1.9030890464782717,8.500436782836914,-0.017133625224232674,0.007330383,0.004276057,8
4.1225905418396005,1.9063460826873782,8.492021560668945,-0.016482559964060783,0.008246681,0.01038471,8
4.120940208435059,1.907740950584412,8.491786956787111,-0.016988025978207588,-0.00580322,0.004581489,8
4.116748332977295,1.9094167947769165,8.488228797912598,-0.01682232692837715,-0.003970624,0.010079277,8
4.11321496963501,1.914608597755432,8.491642951965332,-0.017032010480761528,0.0067195175,0.0125227375,8
4.107931613922118,1.9192030429840088,8.500143051147461,-0.0178521778434515,0.007330383,0.004276057,8
4.1066012382507315,1.9193228483200075,8.505641937255861,-0.01790318638086319,-0.0015271631,0.004276057,8
4.108403205871582,1.918815851211548,8.50129222869873,-0.019027981907129288,0.004581489,0.003970624,8
4.104420185089111,1.921429991722107,8.500322341918945,-0.01970506832003593,-0.002443461,0.0018325958,8
4.098621368408203,1.9225237369537356,8.496553421020508,-0.018858732655644417,-0.003970624,0.0070249503,8
4.099493980407715,1.924541473388672,8.493803977966309,-0.01874225027859211,0.0036651916,0.008552114,8
4.098741531372069,1.9299983978271484,8.49217700958252,-0.018996186554431915,-0.0012217305,0.01038471,8
4.095429420471191,1.9342248439788816,8.493269920349121,-0.018441054970026016,-0.011301007,0.010079277,8
4.09368371963501,1.936704516410828,8.498917579650879,-0.017977973446249962,0.004581489,0.005192355,8
4.0948004722595215,1.9351876974105835,8.506599426269531,-0.017953740432858467,0.015882496,0.009162978,8
4.099152565002441,1.929620742797852,8.506061553955076,-0.018786773085594174,0.0070249503,-0.0018325958,8
4.1038265228271475,1.9230498075485232,8.500968933105469,-0.019072942435741425,0.0070249503,0.011301007,8
4.103584289550781,1.9169967174530032,8.49858283996582,-0.02003672532737255,0.004581489,0.006414085,8
4.103058815002441,1.9179842472076416,8.495291709899902,-0.020047606900334358,0.009468411,0.0076358155,8
4.1089606285095215,1.9188154935836792,8.500005722045897,-0.0195209626108408,-0.002443461,0.009162978,8
4.119499683380127,1.9169167280197144,8.503379821777344,-0.01925419643521309,-0.006414085,0.010995574,8
4.126787662506104,1.9171626567840576,8.506080627441406,-0.019359011203050613,-0.0070249503,0.008246681,8
4.131519794464111,1.9168335199356081,8.506327629089355,-0.018967587500810627,0.002443461,0.00580322,8
4.1331191062927255,1.918509006500244,8.498214721679688,-0.017265353351831436,-0.004581489,0.0015271631,8
4.133981704711913,1.9149750471115112,8.492630958557129,-0.01604184880852699,0.007941248,0.00580322,8
4.136103630065918,1.9149686098098757,8.497524261474611,-0.016182253137230873,0.0067195175,0.009162978,8
4.140826225280762,1.91816246509552,8.50420093536377,-0.016373777762055397,-0.0021380284,0.005497787,8
4.144181728363037,1.917594075202942,8.498218536376951,-0.015699129551649094,-0.0021380284,0.0061086523,8
4.1350064277648935,1.9198971986770632,8.490406036376951,-0.015833256766200066,0.0067195175,0.008857545999999999,8
4.122326850891113,1.9271217584609983,8.488066673278809,-0.0164377000182867,0.00580322,0.013439035,8
4.108203411102295,1.9343175888061523,8.487070083618164,-0.015974912792444233,0.0009162979,0.009773844,8
4.0940775871276855,1.937948226928711,8.487483024597168,-0.015082827769219875,-0.005497787,0.01160644,8
4.083756446838379,1.9363112449646,8.486082077026367,-0.015361773781478403,0.004886922,0.015577064,8
4.0792012214660645,1.9369102716445925,8.488717079162598,-0.016075002029538155,0.003970624,0.013133603,8
4.0802249908447275,1.9374011754989624,8.488970756530763,-0.01630561053752899,0.0012217305,0.010995574,8
4.085421562194823,1.940201997756958,8.505401611328125,-0.015346855856478213,0.00580322,0.0033597588,8
4.089623928070068,1.9309762716293333,8.516264915466309,-0.01655949093401432,0.0036651916,0.0061086523,8
4.1003899574279785,1.921317219734192,8.518134117126465,-0.016433579847216606,0.0009162979,0.0076358155,8
4.109940052032472,1.9179542064666748,8.514547348022461,-0.016757341101765633,-0.0036651916,-0.005497787,8
4.113414764404297,1.914644241333008,8.509607315063478,-0.016737973317503933,-0.0070249503,0.010690141499999998,8
4.116206169128418,1.9123218059539795,8.502452850341799,-0.01522134616971016,-0.0021380284,0.009773844,8
4.116891860961913,1.9112913608551023,8.495843887329103,-0.014543778263032438,0.0015271631,0.0033597588,8
4.1120643615722665,1.9185528755187988,8.489527702331543,-0.0146314213052392,0.005192355,0.009162978,8
4.10521936416626,1.927783727645874,8.480628967285156,-0.01536707766354084,-0.0061086523,0.007941248,8
4.098768711090088,1.932340383529663,8.472528457641603,-0.015126128681004047,0.0015271631,0.01038471,8
