acc_x,acc_y,acc_z,gyro_x,gyro_y,gyro_z,label
0.0,0.0,0.0,0.0,-0.0021380284,-0.03573562,1
-0.005857853218913078,0.2890704572200775,0.02549249492585659,-0.003489104565232992,-0.03604105,-0.053145275,1
-0.01976400800049305,0.9783402085304259,0.08911001682281494,-0.011240364983677864,-0.050396383,-0.059864793,1
-0.038912191987037666,1.932208776473999,0.18158330023288727,-0.021353384479880333,-0.064751714,-0.04337143,1
-0.060233481228351586,3.00041127204895,0.2907610237598419,-0.033731140196323395,-0.07819075,-0.027488936,1
-0.08128166943788527,4.061992168426514,0.4057509601116181,-0.04621320590376854,-0.073303826,-0.021380283,1
-0.10053561627864838,5.040909290313722,0.5189347267150879,-0.05634361505508422,-0.062002823,-0.008552114,1
-0.11728695780038835,5.900918006896973,0.625913143157959,-0.06336398422718048,-0.06963864,-0.009468411,1
-0.13137461245059967,6.6329522132873535,0.7248453497886658,-0.06677807867527008,-0.09162979,0.0033597588,1
-0.14294661581516266,7.243321895599365,0.8153588175773621,-0.06633245199918747,-0.08704830000000001,-0.01985312,1
-0.15226705372333527,7.7453975677490225,0.8974600434303284,-0.061078235507011414,-0.07849618,-0.032070424,1
-0.15926183760166168,8.15421199798584,0.9648686051368712,-0.05528754740953445,-0.07666359,-0.028099801,1
-0.1641947627067566,8.484871864318848,1.0175288915634155,-0.04991461709141731,-0.071776666,-0.033292156,1
-0.16743002831935885,8.751116752624513,1.0580384731292725,-0.0459674671292305,-0.06963864,-0.025961773,1
-0.1692877560853958,8.96477222442627,1.0886495113372805,-0.043869316577911384,-0.052839845,-0.017715093,1
-0.17003656923770905,9.135748863220217,1.111250638961792,-0.04420403763651848,-0.0580322,-0.020158553,1
-0.1698826253414154,9.272199630737305,1.1273573637008667,-0.04540381580591202,-0.042760565999999986,-0.025350908,1
-0.16900666058063507,9.380805015563963,1.13824200630188,-0.04459397494792938,-0.03023783,-0.03268129,1
-0.16754160821437836,9.466967582702637,1.1448993682861328,-0.04220693930983544,-0.0143553335,-0.04642576,1
-0.16561315953731534,9.53508758544922,1.1481844186782837,-0.0406159870326519,-0.021991149,-0.04520403,7
-0.16275136172771454,9.588641166687012,1.148686170578003,-0.04043249040842056,-0.01740966,-0.046120327,7
-0.150628000497818,9.629656791687012,1.1458396911621094,-0.04333041235804558,-0.013133603,-0.0580322,7
-0.12856394052505493,9.660367012023926,1.1400048732757568,-0.04857251793146133,-0.01038471,-0.071776666,7
-0.09835135191679,9.682766914367676,1.1317225694656372,-0.05565840005874634,-0.011301007,-0.08093964,7
-0.061649180948734277,9.698500633239746,1.1214903593063354,-0.06481271237134932,-0.016187929,-0.105374254,7
-0.01990082673728466,9.70890998840332,1.109739899635315,-0.07749249786138535,0.00061086525,-0.15332718,7
0.026092804968357086,9.715005874633787,1.0967146158218384,-0.09630991518497467,0.013133603,-0.21227567,7
0.07553072273731233,9.717632293701172,1.0826554298400881,-0.12469781935214995,0.029321533,-0.28893927,7
0.12745541334152222,9.717520713806152,1.067846417427063,-0.16174934804439545,0.049785517,-0.33475417,7
0.1815749555826187,9.71517562866211,1.0523781776428225,-0.2033480703830719,0.021380283,-0.34483343,7
0.2360003739595413,9.711013793945312,1.037636399269104,-0.25122201442718506,0.015271631,-0.35399640000000004,7
0.2639494836330414,9.704949378967283,1.0466417074203491,-0.3058618009090424,0.030848695,-0.3594942,7
0.26215460896492004,9.697301864624023,1.081822633743286,-0.3654736280441284,0.05375614,-0.3998113,7
0.23605000972747806,9.688335418701172,1.1385107040405271,-0.421624481678009,0.061391957,-0.4089743,7
0.19011558592319489,9.678274154663086,1.212823510169983,-0.4783376455307007,0.007330383,-0.32406402,7
0.1289404332637787,9.66741180419922,1.300500750541687,-0.5359466671943665,-0.102319926,-0.20463985,7
0.055179983377456665,9.655868530273438,1.3993083238601685,-0.5926938056945801,-0.25289822,-0.058948494,7
-0.02868702635169029,9.643776893615724,1.5070532560348509,-0.649865984916687,-0.3191771,0.028405234,7
-0.12069115787744522,9.631243705749512,1.6219992637634275,-0.7015188932418823,-0.3100141,-0.13225232,7
-0.21928521990776065,9.618348121643066,1.7427914142608645,-0.7248873710632324,-0.1337795,-0.398895,7
-0.3233529031276703,9.603970527648926,1.869010329246521,-0.7178376317024231,0.009162978,-0.40408736,7
-0.4296816289424896,9.565296173095703,2.0075638294219966,-0.7264207005500793,-0.022907447,-0.3475823,7
-0.5375648736953735,9.498350143432617,2.1596500873565674,-0.7624481916427612,-0.096516706,-0.36071593,7
-0.6467218995094299,9.40865421295166,2.3226523399353027,-0.7709466814994812,-0.047036625,-0.42546764,7
-0.7571064233779907,9.300357818603516,2.4947941303253174,-0.7715643644332886,0.11759156,-0.47952923,7
-0.8680422902107239,9.177812576293944,2.6734883785247803,-0.7862664461135864,0.1872302,-0.47586402,7
-0.9796533584594728,9.043453216552734,2.85786771774292,-0.7989276051521301,0.027794369,-0.52473325,7
-1.0919259786605835,8.899412155151367,3.047029972076416,-0.8282110691070557,-0.12614368,-0.4746423,7
-1.204484462738037,8.74798583984375,3.239588737487793,-0.8588961958885193,-0.26450464,-0.39003745,7
-1.3173726797103882,8.590468406677246,3.4350574016571045,-0.8936604261398315,-0.23365596,-0.36987892,7
-1.4310041666030884,8.424821853637695,3.6316781044006343,-0.9365679621696472,-0.12217305,-0.37598756,7
-1.5406289100646973,8.208272933959961,3.8277740478515625,-0.9659460186958312,0.0036651916,-0.4098906,7
-1.6378542184829712,8.014101982116701,4.03395414352417,-0.9860584139823914,0.01985312,-0.44409904,7
-1.7412298917770386,7.859841823577881,4.203963279724121,-1.0047560930252075,-0.0027488936,-0.47219884,7
-1.875692129135132,7.69710636138916,4.2517075538635245,-1.0210152864456177,0.16249016,-0.64904433,7
-1.9282066822052,7.77816915512085,4.336396217346191,-1.0017679929733276,0.32314770000000004,-0.5757405,7
-2.0115199089050293,7.92266321182251,4.538802623748778,-1.0067331790924072,0.30024028,-0.6169739000000001,7
-2.0438714027404785,7.815071105957031,4.704527854919434,-1.0339255332946775,0.15882497,-0.623388,7
-2.0054559707641597,7.6108946800231925,4.882441520690918,-1.0544762611389158,0.32620203,-0.6151413,7
-1.9953505992889404,7.468732833862305,5.067095756530762,-1.0646493434906006,0.36163223,-0.548557,7
-2.070606231689453,7.379597187042236,5.241921424865723,-1.0768355131149292,0.23732115,-0.50946164,7
-2.2269480228424072,7.300305366516112,5.389237403869629,-1.0931252241134644,0.1423316,-0.5299255999999999,7
-2.4154720306396484,7.198490619659424,5.509292602539063,-1.1098692417144775,0.16982053,-0.58093286,7
-2.5490002632141118,7.08289098739624,5.629030227661133,-1.1338107585906982,0.15118915,-0.61727935,7
-2.626338481903076,6.993276119232178,5.7122535705566415,-1.1599998474121094,-0.04428773,-0.61178154,7
-2.6739840507507324,6.8877854347229,5.748840808868407,-1.187663435935974,0.17348573,-0.65118235,7
-2.6886606216430664,6.76475715637207,5.8352909088134775,-1.2134902477264404,0.1600467,-0.5882632,7
-2.658411979675293,6.643401145935059,5.958036422729492,-1.2281616926193235,0.35338554,-0.5925393,7
-2.64874267578125,6.530198097229004,6.107308864593506,-1.2371392250061035,0.44898596,-0.6252206,7
-2.694164037704468,6.419445991516112,6.272215843200684,-1.244056224822998,0.47494772,-0.64660084,7
-2.801855564117432,6.305130481719972,6.463103771209718,-1.248120665550232,0.3662137,-0.6401868000000001,7
-2.9471609592437744,6.1988701820373535,6.700312614440918,-1.2519060373306274,0.43463063,-0.67256266,7
-3.113128662109375,6.139955997467041,6.910823345184326,-1.2654507160186768,0.16310102,-0.6065891999999999,7
-3.254517078399658,6.044118404388428,7.11039400100708,-1.285928726196289,0.08246681,-0.6759224,7
-3.3902220726013184,5.883224964141847,7.46760368347168,-1.3423442840576172,-0.18387043,-0.87964594,7
-3.616518259048462,5.652838706970215,7.958584308624268,-1.4110364913940432,-0.5516113,-0.9914343,7
-3.916723489761353,5.4268412590026855,8.391623497009277,-1.4362913370132446,-0.5174029,-0.78038037,7
-4.2459774017333975,5.140975475311278,8.70416259765625,-1.3721107244491575,-0.44898596,-0.552833,7
-4.56940507888794,4.674956321716309,8.888721466064453,-1.259408950805664,-0.025350908,-0.46853364,7
-4.713644027709961,4.2350101470947275,9.118748664855957,-1.1599514484405518,-0.2733622000000001,-0.42058071,7
-4.890154838562012,3.8243198394775386,9.310760498046877,-1.0557432174682615,-0.3555236,-0.36071593,7
-5.041851043701172,3.3952248096466064,9.20743465423584,-0.9498199820518494,-0.017104227,-0.28924468,7
-5.0628929138183585,3.0231728553771973,9.024897575378418,-0.837052583694458,0.13469578,-0.24007004,7
-5.039504051208496,2.727035522460937,8.871042251586914,-0.7154240012168884,0.20158553,-0.25350907,7
-5.015051364898682,2.531119108200073,8.734848976135254,-0.6018102169036865,0.2098322,-0.28221974,7
-4.955357551574707,2.3248414993286133,8.60447883605957,-0.5023024082183838,0.21410827,-0.27091873,7
-4.857422351837158,2.100177764892578,8.487480163574219,-0.413801372051239,0.23426682,-0.25320363,7
-4.805098533630371,1.8784530162811282,8.401740074157715,-0.331518292427063,0.35369098,-0.25381452,7
-4.821835994720459,1.698821783065796,8.36336612701416,-0.2571331560611725,0.45081854,-0.2764165,7
-4.859947204589844,1.577756643295288,8.405268669128418,-0.1958237737417221,0.45112398,-0.34147367,7
-4.834481716156006,1.5245529413223269,8.51966381072998,-0.15984071791172028,0.32070425,-0.3930918,7
-4.717549800872803,1.6022331714630127,8.641310691833496,-0.15913976728916168,0.20891592,-0.41508293,7
-4.614113807678223,1.7515383958816528,8.722442626953125,-0.1950131207704544,0.15760323,-0.4428773,7
-4.528922080993652,1.8769596815109253,8.759591102600098,-0.2490748763084412,0.15118915,-0.4642576,7
-4.438014030456543,1.9278185367584229,8.752315521240233,-0.2934468686580658,0.14874569,-0.4465425,7
-4.3858299255371085,1.9011259078979488,8.715739250183105,-0.32360756397247314,0.16523905,-0.42424592,7
-4.390669345855713,1.8207653760910036,8.655502319335938,-0.3413702249526977,0.1777618,-0.41080686,7
-4.420765399932861,1.723645806312561,8.565139770507812,-0.34780988097190857,0.19120082,-0.38362336,7
-4.476996898651123,1.5698813199996948,8.478896141052246,-0.3453512787818909,0.20433442,-0.32345316,7
-4.528860569000244,1.364898681640625,8.389425277709961,-0.3324263095855713,0.20189096,-0.24953845,7
-4.570990085601807,1.1386247873306274,8.295257568359375,-0.3096364140510559,0.19181168,-0.16371189,7
-4.601819515228272,0.8929826021194458,8.199422836303711,-0.2799876630306244,0.19486602,-0.11362094,7
-4.63828182220459,0.6405067443847656,8.118742942810059,-0.24010060727596286,0.21533,-0.07147124,7
-4.698899745941162,0.4029426276683808,8.051483154296875,-0.18689389526844025,0.2452624,0.0036651916,7
-4.802544593811035,0.21528306603431704,7.985238075256348,-0.1251525729894638,0.2742785,0.06872234,7
-4.88549280166626,0.1040266454219818,7.9379615783691415,-0.06042797863483429,0.15057829,0.17654006,7
-4.905652046203613,0.0991569608449936,7.895939350128174,0.016634181141853333,-0.06750060599999999,0.28405234,7
-4.924984931945801,0.18829397857189176,7.870288848876952,0.09520728141069412,-0.15424347,0.30818152,7
-4.998061656951903,0.3187775909900665,7.852923393249513,0.16805827617645264,-0.070554934,0.23762658,7
-5.100524425506592,0.4612131714820862,7.912121295928955,0.22422946989536285,0.044898596,0.183565,7
-5.197165489196777,0.6652812361717224,7.994417667388916,0.2655608057975769,0.043982297,0.16126843,7
-5.230653762817383,0.9290335774421692,8.07325267791748,0.2803575694561005,-0.013133603,0.16249016,7
-5.216864109039307,1.2049636840820312,8.152422904968263,0.2502443492412567,-0.061391957,0.14813483,7
-5.211879253387451,1.4613715410232544,8.213647842407228,0.18905650079250336,-0.081855945,0.10751228,7
-5.22417688369751,1.6701250076293943,8.233288764953612,0.1193462684750557,-0.090713486,0.048258353,7
-5.244123935699463,1.8099520206451416,8.200225830078125,0.058082137256860726,-0.07391469,0.015577064,7
-5.23103666305542,1.8831346035003664,8.131251335144043,0.01724720001220703,-0.109650314,-0.005497787,7
-5.173068046569824,1.915954351425171,8.038079261779785,0.0018536143470555546,-0.20250183,-0.003970624,7
-5.099794387817383,1.9225748777389529,7.958922863006593,0.003766544861719012,-0.28771752,0.015577064,7
-5.041755676269531,1.9098738431930544,7.9177894592285165,0.01137387938797474,-0.31184670000000003,0.01985312,7
-5.013584613800049,1.8888994455337524,7.929669380187987,0.01876605860888958,-0.23915374,0.0125227375,7
-5.000410556793213,1.8545787334442136,7.97730827331543,0.021771231666207317,-0.16798794,0.006414085,7
-4.990331172943115,1.8051775693893437,8.026727676391603,0.026028594002127647,-0.14141529999999994,-0.0015271631,7
-4.982635021209717,1.7479406595230105,8.065118789672853,0.034858498722314835,-0.121256754,-0.019547688,7
-4.975934982299805,1.6953492164611816,8.103603363037111,0.041826315224170685,-0.106595986,-0.047647487,7
-4.958427906036377,1.6354880332946775,8.151537895202638,0.04133875295519829,-0.09682214,-0.05925392700000001,7
-4.925236225128174,1.5644370317459106,8.195403099060059,0.03621165081858635,-0.06352998,-0.047036625,7
-4.8841705322265625,1.4865925312042236,8.22430419921875,0.029593914747238163,-0.042760565999999986,-0.032070424,7
-4.8460798263549805,1.4165735244750977,8.234103202819824,0.024708718061447144,-0.02107485,-0.016493361,7
-4.8233256340026855,1.3674890995025637,8.241762161254883,0.021404622122645375,0.011301007,-0.002443461,7
-4.811936378479004,1.3468670845031738,8.249908447265625,0.01893714442849159,0.03848451,0.017104227,7
-4.80940055847168,1.3424299955368042,8.263540267944336,0.01520312950015068,0.028710667,0.027183503,7
-4.804763317108153,1.3438735008239746,8.279495239257812,0.010798712261021136,0.010690141499999998,0.020158553,8
-4.799670696258545,1.3578931093215942,8.295026779174805,0.006188026629388332,0.0012217305,0.023823744,8
-4.797619819641113,1.3791183233261108,8.300435066223145,7.248955080285668e-05,-0.0033597588,0.027488936,8
-4.78552770614624,1.394047498703003,8.298421859741211,-0.0038253595121204853,-0.0030543262,0.032375857,8
-4.7742581367492685,1.4044326543807983,8.286739349365233,-0.005782329011708498,0.007330383,0.039095376,8
-4.763768196105957,1.4253479242324831,8.279475212097168,-0.0048756240867078296,0.0061086523,0.04062254,8
-4.758035659790039,1.4543817043304443,8.274650573730469,-0.003444262547418475,-0.00030543262000000003,0.04062254,8
-4.758313655853272,1.4799115657806396,8.264582633972168,-0.000627461529802531,0.01038471,0.03481932,8
-4.761319160461426,1.5029568672180176,8.255496025085451,0.0021585775539278984,0.019547688,0.025350908,8
-4.764535427093506,1.5188201665878296,8.24652099609375,0.004390667658299208,0.013439035,0.024740042,8
-4.772768974304199,1.5410122871398926,8.240179061889647,0.005527944769710302,-0.0030543262,0.020158553,8
-4.7836575508117685,1.5686352252960205,8.241985321044924,0.00520970206707716,-0.003970624,0.018325957,8
-4.7931904792785645,1.578571915626526,8.242236137390138,0.005925872363150121,-0.002443461,0.013133603,8
-4.803078651428223,1.58124840259552,8.239798545837402,0.007272356655448675,0.004276057,0.0061086523,8
-4.808877468109131,1.578723430633545,8.233710289001465,0.007672181818634272,-0.0015271631,-0.002443461,8
-4.812243938446045,1.57517409324646,8.227822303771973,0.00827978178858757,-0.01282817,-0.0061086523,8
-4.814687252044678,1.5690817832946775,8.226663589477539,0.009549621492624285,-0.005192355,-0.00580322,8
-4.820870876312256,1.5665555000305176,8.22697639465332,0.013168996199965477,-0.015882496,-0.015577064,8
-4.828775405883789,1.5647175312042236,8.239069938659668,0.014658855274319647,-0.013133603,-0.00030543262000000003,8
-4.833763599395752,1.557417631149292,8.247994422912598,0.01390109583735466,-0.0125227375,-0.005192355,8
-4.827714443206787,1.544884443283081,8.251133918762207,0.01349039375782013,-0.004581489,-0.008246681,8
-4.814769744873047,1.5286680459976196,8.246718406677246,0.012680122628808022,-0.0070249503,0.005192355,8
-4.805773735046387,1.5067721605300903,8.239554405212402,0.013116948306560516,-0.021991149,0.0070249503,8
-4.800325870513916,1.4897496700286863,8.230724334716799,0.013389338739216328,-0.027183503,0.014049901000000002,8
-4.803804397583008,1.4817482233047483,8.234471321105957,0.01284250523895025,-0.026572637000000003,0.02443461,8
-4.805635452270508,1.4791401624679563,8.245684623718263,0.01135400403290987,-0.02076942,0.024129177,8
-4.7969584465026855,1.4784818887710571,8.250283241271973,0.010096333920955658,-0.010690141499999998,0.028710667,8
-4.785341739654541,1.474907636642456,8.250838279724121,0.010849696584045887,-0.0061086523,0.025350908,8
-4.771564960479736,1.4839588403701782,8.257537841796875,0.011457853950560093,-0.004886922,0.021685716,8
-4.771132946014403,1.5003321170806885,8.257560729980469,0.009216861799359322,-0.0018325958,0.0076358155,8
-4.7761268615722665,1.514314889907837,8.253329277038574,0.006529667880386114,0.0015271631,0.0021380284,8
-4.774632453918457,1.5218024253845217,8.247367858886719,0.005711480975151062,-0.006414085,0.011301007,8
-4.76207447052002,1.5250869989395142,8.239529609680176,0.006158369593322277,-0.002443461,0.01160644,8
-4.744325637817383,1.5327563285827637,8.23796558380127,0.007730818819254638,0.005192355,0.020158553,8
-4.726707935333252,1.540219783782959,8.239160537719728,0.010649140924215315,-0.0018325958,0.01160644,8
-4.717822074890137,1.5488126277923584,8.239278793334961,0.012035395950078964,0.008552114,0.018020526,8
-4.71984338760376,1.5589964389801023,8.256067276000978,0.011975182220339777,-0.002443461,0.004276057,8
-4.726761817932129,1.5695871114730835,8.269085884094237,0.009402527473866941,-0.002443461,-0.0012217305,8
-4.732401371002197,1.5773580074310305,8.274370193481445,0.00562329636886716,0.01160644,0.007330383,8
-4.7347917556762695,1.580087184906006,8.275934219360353,0.0030722972005605693,0.004276057,0.0061086523,8
-4.7349162101745605,1.573691487312317,8.269739151000978,0.0007023660000413656,-0.00030543262000000003,0.0070249503,8
-4.735668182373047,1.5691989660263062,8.259640693664549,-0.000862325367052108,0.00030543262000000003,0.021991149,8
-4.743765830993652,1.566295146942139,8.253037452697754,-0.0008683415944688022,-0.0036651916,0.016187929,8
-4.753675937652588,1.563767671585083,8.252368927001951,0.0003195460594724864,-0.022907447,0.010690141499999998,8
-4.763132095336914,1.5549588203430176,8.253897666931152,0.0019185519777238371,-0.011911872,0.014049901000000002,8
-4.767823696136475,1.545316219329834,8.253114700317383,0.002360638463869691,-0.014966198,0.010995574,8
-4.767663955688477,1.5383111238479614,8.255923271179201,0.0033632037229835987,-0.009773844,-0.00030543262000000003,8
-4.769742965698242,1.538424015045166,8.256616592407228,0.004950930830091238,0.0067195175,0.0061086523,8
-4.7725868225097665,1.5412147045135498,8.261781692504883,0.004707624204456806,-0.0015271631,0.0018325958,8
-4.776641845703125,1.547788143157959,8.271831512451174,0.004133915062993765,0.00061086525,0.0067195175,8
-4.7745208740234375,1.551791787147522,8.280648231506348,0.004733603913336992,0.007941248,0.005192355,8
-4.763209342956543,1.5485582351684568,8.27812671661377,0.004287882708013058,-0.003970624,0.007330383,8
-4.750302314758301,1.5451265573501587,8.270123481750487,0.003895967500284314,-0.00061086525,0.008857545999999999,8
-4.742489814758301,1.541698694229126,8.269621849060059,0.004147785250097513,-0.00580322,0.006414085,8
-4.734679698944092,1.5451422929763794,8.277497291564941,0.004329903982579708,-0.004276057,0.008857545999999999,8
-4.735376358032227,1.5459219217300415,8.280169486999513,0.004511674866080284,-0.004276057,0.01038471,8
-4.744351863861084,1.539926290512085,8.282845497131348,0.005098124500364065,-0.0033597588,0.0067195175,8
-4.750921249389648,1.5372865200042725,8.287747383117676,0.004966203588992357,0.008246681,0.00580322,8
-4.7553019523620605,1.541359782218933,8.28685188293457,0.0038332142867147923,-0.0033597588,0.0018325958,8
-4.755209922790527,1.5457558631896973,8.286492347717285,0.003077890956774354,0.002443461,0.018020526,8
-4.742389678955078,1.5495010614395142,8.289505958557129,0.003980851266533136,-0.0027488936,0.008246681,8
-4.733593463897705,1.5485153198242188,8.291228294372559,0.004807411693036556,-0.00030543262000000003,0.008552114,8
-4.734888076782227,1.5536648035049438,8.299064636230469,0.00472823204472661,-0.009162978,0.014049901000000002,8
-4.744098663330078,1.55829918384552,8.31179141998291,0.006322582717984915,-0.0070249503,0.010079277,8
-4.753684997558594,1.558571219444275,8.311352729797362,0.006240533664822578,-0.00030543262000000003,0.014049901000000002,8
-4.754595279693604,1.5483603477478027,8.298599243164062,0.007063234690576792,-0.0036651916,0.019547688,8
-4.7482523918151855,1.5436149835586548,8.291538238525389,0.007712111808359624,-0.00580322,0.010079277,8
-4.743772029876709,1.5477536916732788,8.28134822845459,0.006430864334106445,-0.007941248,0.005497787,8
-4.739022254943848,1.553789734840393,8.286320686340332,0.006525730714201927,0.002443461,0.013744468,8
-4.737684726715088,1.558948636054993,8.291037559509277,0.007175022270530462,-0.005192355,0.0061086523,8
-4.741209983825684,1.5593926906585691,8.289529800415039,0.007111518178135157,-0.0070249503,0.005497787,8
-4.743498802185059,1.5572116374969482,8.28834342956543,0.007970974780619144,-0.01038471,0.003970624,8
-4.744467735290527,1.5483953952789309,8.279886245727539,0.008904332295060158,-0.014966198,0.01740966,8
-4.7439165115356445,1.538663387298584,8.273917198181152,0.010786461643874643,-0.014049901000000002,0.01985312,8
-4.735167980194092,1.5406943559646606,8.272975921630861,0.011424505151808262,-0.031154128,0.014049901000000002,8
-4.727073669433594,1.5512304306030271,8.284039497375487,0.010582571849226952,-0.034208454,0.0067195175,8
-4.724067211151123,1.555988073348999,8.298567771911621,0.009752196259796621,-0.027794369,0.008552114,8
-4.726203918457031,1.5532299280166626,8.304585456848145,0.009459073655307293,-0.040011674,-0.00061086525,8
-4.727418899536133,1.5479217767715454,8.307326316833496,0.008923719637095928,-0.023823744,0.0009162979,8
-4.728628158569336,1.537295699119568,8.308012962341309,0.007313767448067666,-0.023823744,0.0030543262,8
-4.730636596679688,1.5238027572631836,8.3094482421875,0.005997221451252699,-0.016798794,0.00061086525,8
-4.731824398040772,1.5227991342544556,8.311470985412598,0.0030576554127037525,0.0070249503,0.01038471,8
-4.731140613555908,1.5288217067718506,8.30732250213623,0.0004967908025719224,0.014660766,0.011301007,8
-4.727597236633301,1.5398197174072266,8.302287101745605,-0.0011554184602573516,0.029321533,0.01740966,8
-4.71739387512207,1.560060739517212,8.302558898925781,-0.0005397428758442402,0.021991149,0.012217305,8
-4.713045120239258,1.5820727348327637,8.304277420043945,-0.001839745556935668,0.02687807,0.0033597588,8
-4.7171149253845215,1.591559886932373,8.295160293579103,-0.0030571138486266136,0.0143553335,-0.004886922,8
-4.716442584991455,1.5934782028198242,8.287301063537598,-0.004337504506111145,0.0070249503,-0.0015271631,8
-4.705385208129883,1.5877676010131836,8.279863357543945,-0.00652276026085019,-0.0021380284,0.003970624,8
-4.701206684112549,1.5748236179351809,8.274796485900879,-0.007939759641885756,-0.013439035,0.00030543262000000003,8
-4.702442169189453,1.5588120222091677,8.262418746948242,-0.006905250251293182,-0.0076358155,0.009468411,8
-4.7077364921569815,1.5510735511779783,8.267251014709473,-0.004264575429260732,-0.004581489,0.018020526,8
-4.717687129974365,1.5381225347518919,8.273053169250487,-0.002521982649341225,-0.009468411,0.016187929,8
-4.732575416564941,1.52688467502594,8.28310489654541,-0.0038135615177452564,-0.022602014,0.0009162979,8
-4.749434947967528,1.5216635465621948,8.295943260192871,-0.005357543006539346,-0.015577064,0.008857545999999999,8
-4.757857799530028,1.5149433612823486,8.309659957885742,-0.006432724185287952,-0.022296581,-0.00030543262000000003,8
-4.757396221160889,1.501020431518555,8.312768936157228,-0.006738349795341493,-0.025045475,0.019242255,8
-4.753358840942383,1.4843374490737915,8.312604904174805,-0.004903494380414486,-0.029321533,0.014049901000000002,8
-4.750190734863281,1.471153736114502,8.319512367248535,-0.0018182683270424604,-0.015271631,0.021380283,8
-4.741599082946777,1.4572224617004397,8.326882362365723,0.0016571349697187545,-0.0030543262,0.022602014,8
-4.730193138122559,1.4501802921295166,8.324558258056639,0.0050023156218230716,0.0027488936,0.012217305,8
-4.721348762512207,1.4519248008728027,8.327529907226562,0.00698933657258749,-0.002443461,0.010995574,8
-4.71234130859375,1.4545429944992063,8.331855773925781,0.007739319466054438,-0.005497787,0.019547688,8
-4.708464622497559,1.4699610471725464,8.330001831054688,0.008455323986709118,-0.005497787,0.016493361,8
-4.703587532043457,1.4916110038757324,8.330703735351562,0.008730347268283367,-0.010995574,0.014049901000000002,8
-4.696774959564209,1.507739782333374,8.339595794677733,0.008935608901083471,-0.0030543262,0.01282817,8
-4.691723823547363,1.5163671970367432,8.337716102600098,0.006768758874386549,0.00580322,0.017715093,8
-4.679997444152832,1.5200397968292236,8.331104278564451,0.00585920223966241,0.0009162979,0.014660766,8
-4.670435428619385,1.53069806098938,8.329501152038574,0.0055962223559618,0.01038471,0.017104227,8
-4.6710524559021,1.5366904735565186,8.32424259185791,0.00500523392111063,0.014966198,0.017104227,8
-4.678810119628906,1.5394622087478638,8.315920829772951,0.004683042410761118,0.0076358155,0.009162978,8
-4.688061714172363,1.5408146381378174,8.306032180786133,0.0029113353230059147,0.014049901000000002,0.0015271631,8
-4.692671298980713,1.5375535488128662,8.302160263061522,0.0011015754425898194,0.0009162979,0.0070249503,8
-4.695410251617432,1.5341138839721682,8.296905517578125,0.0002134741807822138,0.013744468,0.014049901000000002,8
-4.69658088684082,1.541545033454895,8.292788505554201,-0.00043646202539093787,0.01160644,0.009162978,8
-4.6960649490356445,1.5485167503356934,8.290346145629883,-0.00048064548172988,0.0076358155,0.00030543262000000003,8
-4.6975369453430185,1.5471572875976562,8.287387847900389,-0.0007795027922838926,0.0036651916,0.0061086523,8
-4.703096389770508,1.5411216020584106,8.283103942871094,-0.0008359976345673202,-0.004581489,0.0036651916,8
-4.712573051452637,1.5278325080871582,8.276616096496582,-0.0010537522612139585,-0.013439035,0.008552114,8
-4.717854022979736,1.5197402238845823,8.280686378479004,0.00025299651315435767,-0.011911872,0.0143553335,8
-4.723912239074707,1.5136699676513672,8.290786743164062,0.0011933917412534356,-0.01160644,0.0030543262,8
-4.722508430480957,1.5067884922027588,8.308096885681152,0.0016488877590745687,-0.013439035,-0.002443461,8
-4.718253612518311,1.5014698505401611,8.314753532409668,0.0008473527268506588,-0.003970624,-0.0012217305,8
-4.711580276489258,1.4977078437805176,8.321450233459473,0.0007810379611328244,0.0027488936,0.00030543262000000003,8
-4.709692001342773,1.4879878759384155,8.327319145202638,0.0023208127822726965,-0.006414085,0.0125227375,8
-4.710104465484619,1.4839378595352173,8.330745697021483,0.0037309657782316212,0.0018325958,0.009773844,8
-4.705626010894775,1.486174464225769,8.331304550170897,0.005881450604647398,0.005497787,0.010079277,8
-4.697984218597412,1.4861189126968384,8.330485343933105,0.008004637435078621,0.0012217305,0.015577064,8
-4.6883578300476065,1.4945695400238037,8.331784248352049,0.010255075991153715,0.0027488936,0.0143553335,8
-4.683897495269775,1.5067837238311768,8.331298828125,0.01101440005004406,-0.006414085,0.0143553335,8
-4.6855201721191415,1.513550877571106,8.326495170593263,0.011100681498646736,-0.005497787,0.014049901000000002,8
-4.685294151306152,1.5093283653259275,8.31773853302002,0.01210104953497648,-0.005192355,0.01160644,8
-4.684564590454102,1.5038461685180664,8.316527366638184,0.012493766844272614,-0.004886922,0.018020526,8
-4.685169696807861,1.5042864084243774,8.317367553710938,0.012549346312880516,-0.004276057,0.013133603,8
-4.68771505355835,1.5155742168426514,8.319986343383789,0.011806821450591087,-0.005497787,0.00580322,8
-4.7011990547180185,1.5287054777145386,8.327274322509767,0.009037503972649574,0.0033597588,0.00061086525,8
-4.7058210372924805,1.5300273895263672,8.320089340209961,0.006983897648751736,0.0030543262,-0.0027488936,8
-4.703454494476318,1.5215078592300415,8.302400588989258,0.006056164857000113,0.0009162979,0.004276057,8
-4.701985836029053,1.513267159461975,8.291844367980957,0.007464776746928692,-0.0030543262,0.01038471,8
-4.7083940505981445,1.5156043767929075,8.293074607849121,0.008487741462886333,-0.01038471,0.015882496,8
-4.719169616699219,1.5190471410751345,8.291782379150389,0.008947625756263733,-0.015882496,0.0033597588,8
-4.727927684783936,1.5224143266677856,8.297055244445799,0.007953817956149578,-0.014049901000000002,0.0061086523,8
-4.732706546783447,1.5205270051956177,8.302760124206543,0.006919729057699442,-0.005497787,0.008552114,8
-4.732245445251465,1.516377091407776,8.299272537231445,0.008338054642081259,-0.004276057,0.0061086523,8
-4.723486423492432,1.508770227432251,8.299849510192871,0.01038256473839283,-0.0027488936,0.004886922,8
-4.721750736236572,1.496389865875244,8.300458908081055,0.012324856594204904,-0.0067195175,0.016493361,8
-4.725413799285889,1.4920207262039185,8.315090179443361,0.014244125224649906,-0.01038471,0.014049901000000002,8
-4.724453926086426,1.5056817531585691,8.335936546325684,0.014210908673703669,-0.01038471,0.00580322,8
-4.721984386444092,1.5179961919784546,8.344541549682617,0.01174618024379015,-0.0030543262,0.0015271631,8
-4.712911128997803,1.5215599536895752,8.342167854309082,0.00983143039047718,-0.00061086525,0.0027488936,8
-4.7071805000305185,1.5103216171264648,8.336731910705566,0.0088356276974082,0.0030543262,0.002443461,8
-4.694344997406006,1.5026551485061646,8.330164909362793,0.009588677436113358,-0.007941248,0.0143553335,8
-4.684355735778809,1.5010820627212524,8.322062492370605,0.011229695752263071,-0.0012217305,0.005192355,8
-4.68390417098999,1.5065965652465818,8.327571868896483,0.012302041053771973,-0.010690141499999998,0.014660766,8
-4.684877395629883,1.5120894908905032,8.332341194152832,0.01302487775683403,-0.008246681,0.011911872,8
-4.687116146087647,1.5174880027770996,8.342532157897951,0.011957544833421707,-0.005497787,-0.004581489,8
-4.68446683883667,1.5176345109939575,8.344231605529785,0.010461248457431791,-0.00061086525,0.004581489,8
-4.680883884429932,1.511521577835083,8.341078758239746,0.00984733272343874,-0.007941248,0.0125227375,8
-4.681612491607666,1.5049021244049072,8.338644981384277,0.010823439806699751,-0.0015271631,0.009468411,8
