acc_x,acc_y,acc_z,gyro_x,gyro_y,gyro_z,label
0.0,0.0,0.0,0.0,0.054367006,0.013133603,1
0.0989762917160988,0.2713293731212616,-0.015818770974874496,-0.0008676418219693005,0.05925392700000001,0.015577064,1
0.3357209265232086,0.918290078639984,-0.05290987715125084,-0.002983052982017398,0.04886922,0.016187929,1
0.6645265221595764,1.8135942220687864,-0.103241465985775,-0.005756046622991562,0.04062254,0.016798794,1
1.0289942026138306,2.8178422451019287,-0.1571493297815323,-0.008431152440607548,0.04428773,0.0143553335,1
1.3814315795898438,3.8221158981323238,-0.20750804245471954,-0.011546120047569277,0.03359759,0.015882496,1
1.7068027257919312,4.747559547424316,-0.25701212882995605,-0.015292039141058922,0.035430185,0.012217305,1
1.99478280544281,5.5592851638793945,-0.306782603263855,-0.018561849370598796,0.038179077,0.018936822,1
2.245699882507324,6.257351875305176,-0.3950523436069489,-0.02278534695506096,0.038179077,0.020463986,1
2.447721242904663,6.8349127769470215,-0.4197033643722534,-0.025774149224162102,0.024129177,0.013744468,1
2.6154804229736333,7.31003475189209,-0.4548532068729401,-0.02797088958323002,0.027488936,0.020158553,1
2.757488965988159,7.697465419769287,-0.501981258392334,-0.029844656586647037,0.03634648,0.025045475,1
2.871605396270752,8.017492294311522,-0.5932075381278992,-0.0328507162630558,0.026572637000000003,0.022296581,1
2.9610519409179688,8.27565860748291,-0.6819996237754822,-0.03511224687099457,0.027488936,0.010995574,1
3.034616231918335,8.476479530334473,-0.7486267685890198,-0.03572327271103859,0.031154128,0.023518313,1
3.092111825942993,8.638796806335451,-0.7868744134902954,-0.03689923509955406,0.03023783,0.022296581,1
3.1400046348571777,8.772903442382812,-0.7813571691513062,-0.037861645221710205,0.029626964,0.022296581,1
3.175980806350708,8.875945091247559,-0.7286686897277832,-0.0401686429977417,0.0421497,0.016187929,1
3.1995241641998287,8.947005271911621,-0.6262987852096558,-0.04072149470448494,0.030848695,0.019547688,1
3.223162174224853,9.006998062133789,-0.519015371799469,-0.04192068800330162,0.027183503,0.020158553,1
3.2400405406951904,9.058773040771484,-0.4319332540035248,-0.04146083444356918,0.004581489,0.014049901000000002,1
3.2502894401550293,9.104425430297852,-0.3922950923442841,-0.03913585096597672,0.013133603,0.01160644,1
3.2614448070526123,9.14548397064209,-0.4028145968914032,-0.03745440766215325,0.009162978,0.010079277,1
3.2739193439483643,9.183601379394533,-0.4547130465507507,-0.03727081418037415,0.0036651916,0.016798794,1
3.2902612686157227,9.216209411621094,-0.5445240736007689,-0.03821646049618721,0.002443461,0.017715093,1
3.3113601207733154,9.235556602478027,-0.6318750977516174,-0.03945811092853546,0.008246681,0.014660766,1
3.3283166885375977,9.248488426208496,-0.6867433190345764,-0.041763946413993835,0.020158553,0.013744468,1
3.342371940612793,9.262195587158203,-0.6993297338485718,-0.04531629383563995,0.025961773,0.015271631,1
3.357404947280884,9.271088600158693,-0.6730260252952576,-0.04768263921141625,0.03634648,0.02076942,1
3.367746114730835,9.278005599975586,-0.6046919822692871,-0.04998267069458962,0.03634648,0.016187929,1
3.374699592590332,9.281267166137695,-0.5241823792457581,-0.05421453714370728,0.022907447,0.01863139,1
3.3728728294372563,9.287761688232422,-0.4658284783363342,-0.05997578799724579,0.01863139,0.016493361,1
3.3656294345855717,9.294678688049316,-0.4582997262477875,-0.06552761048078537,0.03390302,0.01740966,1
3.3584017753601074,9.30303955078125,-0.4992082118988037,-0.07124575227499008,0.04520403,0.013439035,1
3.357837915420532,9.31565761566162,-0.5804042220115662,-0.07980547845363617,0.03848451,0.019242255,1
3.3668215274810787,9.327634811401367,-0.6703493595123291,-0.08908156305551529,0.052839845,0.02076942,1
3.3773303031921387,9.33921718597412,-0.755182683467865,-0.09945261478424072,0.07971791,0.038179077,1
3.3844568729400635,9.350457191467283,-0.8124691843986511,-0.11397223174571992,0.083383106,0.03359759,1
3.3903200626373287,9.349847793579102,-0.8132642507553101,-0.13328604400157928,0.07574729,0.042455133,1
3.3924126625061035,9.347257614135742,-0.7552105188369751,-0.15508317947387695,0.074830994,0.048258353,7
3.3900852203369136,9.35423755645752,-0.6932986974716187,-0.17525465786457062,0.077579886,0.05681047,7
3.378014087677002,9.35999584197998,-0.6463340520858765,-0.1964641511440277,0.116675265,0.05467244,7
3.360104322433472,9.368387222290039,-0.6325756907463074,-0.21960783004760745,0.122478485,0.06383542,7
3.355735540390014,9.38106632232666,-0.6664750576019287,-0.2428860813379288,0.13255776,0.079107046,7
3.3669724464416504,9.387619018554688,-0.7336670756340027,-0.2704547047615051,0.16829337,0.11728613,7
3.401036500930786,9.376946449279783,-0.8118116855621338,-0.3051649332046509,0.14049901,0.13591751,7
3.441246747970581,9.362215042114258,-0.8453292250633241,-0.3535688519477844,0.07513642,0.18997909,7
3.4730224609375,9.355267524719238,-0.8388251662254333,-0.4193511307239533,0.019547688,0.2275473,7
3.492431640625,9.347137451171877,-0.8115452527999878,-0.4960355460643768,-0.008552114,0.24373524,7
3.523463726043701,9.308759689331056,-0.7884171605110168,-0.5774765014648438,0.08063421400000001,0.29626966,7
3.598639488220215,9.261360168457033,-0.7241908311843872,-0.6672771573066711,0.0009162979,0.4092797,7
3.680281639099121,9.212432861328123,-0.6586377620697021,-0.777918815612793,0.034513887,0.45448375,7
3.716441154479981,9.121929168701172,-0.6313584446907043,-0.9222992658615112,0.37507126,0.5030475000000001,7
3.731438875198364,9.009920120239258,-0.6510332226753235,-1.0805678367614746,0.3222314000000001,0.54367006,7
3.723994255065918,8.90869426727295,-0.6995307207107544,-1.2223796844482422,0.09865474,0.5751295999999999,7
3.7037138938903813,8.786941528320312,-0.772887110710144,-1.3684546947479248,-0.06261369,0.75625116,7
3.732692241668701,8.572189331054688,-0.7364103198051453,-1.5690577030181885,-0.0036651916,0.97402465,7
3.820158243179321,8.298371315002441,-0.3011823892593384,-1.8574846982955933,-0.45020768,1.0338894,7
3.862171411514282,8.012736320495605,0.4056892096996307,-2.161360502243042,-1.2425,1.0577132,7
3.878727912902832,7.819790840148926,1.0806909799575806,-2.3464903831481934,-0.96486163,0.9691377,7
3.9889409542083736,7.70228385925293,1.5851739645004272,-2.3437273502349854,-0.07086037,0.8206975000000001,7
4.240023612976073,7.548416614532472,2.0270116329193115,-2.221395254135132,0.25503623,0.7504479000000001,7
4.5655012130737305,7.214645862579347,2.488478899002075,-2.116516590118408,0.25289822,0.84482664,7
4.806033134460449,6.646505832672119,2.9661591053009038,-2.0815963745117188,0.36041048,0.9993755,7
4.81842041015625,5.978677272796631,3.3064179420471187,-2.0435652732849117,0.41722095,1.0656544,7
4.678694725036621,5.284822940826416,3.5476737022399902,-1.962262749671936,0.05375614,0.84329945,7
4.685567378997803,5.006811141967773,3.9102375507354736,-1.9281443357467647,-0.2489276,0.8249735,7
4.876189231872559,5.221295833587647,4.46890926361084,-1.9680417776107788,-0.11636983,0.6740898,7
5.034388065338135,5.42584753036499,4.905649185180664,-1.9896878004074097,0.10842858,0.68019843,7
5.166280269622803,5.390077590942383,5.216604232788086,-1.9408525228500368,0.22968534,0.6078109,7
5.3343658447265625,5.206994533538818,5.532647132873535,-1.879668116569519,-0.02107485,0.73364913,7
5.53414249420166,4.951431751251222,5.76819372177124,-1.805142879486084,0.037873644,0.7819075,7
5.7622785568237305,4.729708671569824,5.888430118560791,-1.769591212272644,0.073303826,0.7528914000000001,7
5.919207572937013,4.569949150085449,5.928619861602782,-1.7884929180145264,0.22082779,0.6826419,7
6.069001197814941,4.3643012046813965,6.060002326965332,-1.8154737949371336,0.26236662,0.66950834,7
6.17175817489624,4.0454421043396005,6.2638468742370605,-1.7998791933059692,0.12736541,0.7470882,7
6.190156936645508,3.7191143035888667,6.368595600128174,-1.744595289230347,0.22113322,0.7113526,7
6.287701606750487,3.5248851776123047,6.309022426605225,-1.6965532302856443,0.2782491,0.6423248,7
6.39008378982544,3.2553281784057617,6.417752265930176,-1.6667227745056152,0.21685717,0.6392705,7
6.374956607818604,2.819117784500122,6.646740436553955,-1.6259257793426514,0.3622431,0.6768387,7
6.336793899536133,2.4540328979492188,6.864005088806152,-1.5807652473449707,0.4578435,0.6404922,7
6.294597625732423,2.2235589027404785,6.932830810546875,-1.5422946214675903,0.44990227,0.636827,7
6.251525402069093,2.0634009838104252,6.9151248931884775,-1.4938009977340698,0.50762904,0.6239988000000001,7
6.190446853637695,1.854448676109314,7.013011455535889,-1.4580028057098389,0.51923543,0.63499445,7
6.09261417388916,1.5738195180892944,7.149057865142822,-1.435943603515625,0.559858,0.59864795,7
5.977748394012451,1.2169691324234009,7.2531375885009775,-1.4198201894760132,0.63438356,0.5222898,7
5.908260822296143,0.9351040124893188,7.322165966033935,-1.3985484838485718,0.6933321,0.53969944,7
5.867676258087157,0.7111002206802368,7.385619163513184,-1.373132586479187,0.7312057,0.5213734999999999,7
5.840578556060791,0.44748201966285706,7.49522066116333,-1.3515104055404663,0.8194756999999999,0.52656585,7
5.775371074676514,0.14790640771389008,7.614795207977295,-1.3304033279418943,0.9447031,0.4456262,7
5.6987366676330575,-0.1271854192018509,7.748274803161621,-1.3074547052383425,1.0036516,0.4877759,7
5.568138599395752,-0.411145955324173,7.938666820526122,-1.2656853199005127,1.0345002,0.44440445,7
5.393560886383057,-0.7619151473045349,8.281488418579103,-1.2057982683181765,0.8726209999999999,0.3680463,7
5.3517189025878915,-1.2709975242614746,8.67910099029541,-1.1424198150634766,0.86315256,0.3277292,7
5.422274589538574,-1.6921559572219849,9.004100799560547,-1.053237795829773,0.54702985,0.3631594,7
5.47353458404541,-2.023278951644897,9.234460830688477,-0.924368977546692,0.17195857,0.24190263,7
5.44173526763916,-2.325998544692993,9.279335021972656,-0.7691658139228821,0.2929099,0.16493362,7
5.3278231620788565,-2.5143933296203613,9.33697509765625,-0.594664454460144,0.34025195,0.08093964,7
5.156614780426025,-2.65138840675354,9.32036304473877,-0.4514971077442169,0.34177909999999995,0.049785517,7
4.920057773590088,-2.766731739044189,9.161301612854004,-0.3261881768703461,0.32436943,0.017715093,7
4.6681318283081055,-2.8276498317718506,8.962092399597168,-0.2104588747024536,0.3622431,0.013744468,7
4.4251742362976065,-2.8711671829223637,8.784672737121582,-0.1002712994813919,0.4266894,0.002443461,7
4.213215827941895,-2.894914150238037,8.679561614990233,-0.004363654647022486,0.5109888,-0.008246681,7
4.034566402435304,-2.885748624801636,8.637672424316406,0.06184099614620209,0.5674938,-0.0015271631,7
3.933182954788208,-2.8424432277679443,8.610223770141603,0.11242745816707612,0.5571090999999999,-0.024740042,7
3.904879331588745,-2.762126445770264,8.601031303405763,0.15338850021362305,0.48716503,-0.03634648,7
3.890268564224243,-2.639411211013794,8.596580505371094,0.1823457777500153,0.41080686,0.016187929,7
3.854794025421143,-2.496150255203247,8.578999519348145,0.20777006447315216,0.48930305,0.08216137400000001,7
3.8090486526489262,-2.353466510772705,8.561074256896973,0.2322137653827667,0.5571090999999999,0.106901415,7
3.7540378570556636,-2.250473976135254,8.587446212768555,0.25839486718177795,0.63285637,0.12095132,7
3.7080292701721187,-2.1663565635681152,8.66921329498291,0.27574414014816284,0.51007247,0.1282817,7
3.6888399124145512,-2.062164783477783,8.754805564880371,0.2629477381706238,0.3894266,0.124311075,7
3.670351266860962,-1.9647986888885496,8.81042766571045,0.237691730260849,0.32467487,0.099571034,7
3.615169286727905,-1.900654435157776,8.885200500488281,0.2196943759918213,0.31520647,0.050396383,7
3.5322275161743164,-1.8520128726959229,8.97909164428711,0.19957368075847626,0.29046643,0.03573562,7
3.433720827102661,-1.795804738998413,9.021289825439453,0.17725634574890134,0.31337386,0.042760565999999986,7
3.3184173107147217,-1.7326418161392212,8.998346328735352,0.16304625570774078,0.34177909999999995,0.06750060599999999,7
3.1792197227478027,-1.7082403898239136,8.977031707763672,0.15073677897453308,0.2761111,0.05222898,7
3.0413920879364014,-1.7279213666915894,9.007223129272461,0.1397915929555893,0.25228736,0.060170225999999986,7
2.9288213253021236,-1.7572344541549685,9.050118446350098,0.14036181569099426,0.33536503,0.05009095,7
2.831954002380371,-1.7343198060989382,9.136308670043944,0.14989158511161804,0.2501493,0.032986723,7
2.745941638946533,-1.6313766241073608,9.235669136047363,0.1414368599653244,0.14294247,0.003970624,7
2.6793386936187744,-1.5178260803222656,9.285080909729004,0.12684625387191772,0.12217305,-0.007941248,7
2.652898073196411,-1.4140068292617798,9.27992057800293,0.1191529706120491,0.15424347,-0.02076942,7
2.6508400440216064,-1.297222375869751,9.277152061462402,0.11155185103416444,0.1001819,-0.028099801,7
2.6620965003967285,-1.1885344982147217,9.284472465515137,0.0997098833322525,0.08368854,-0.023823744,7
2.687376976013184,-1.1040802001953125,9.28786563873291,0.085673488676548,0.09407325,-0.0076358155,8
2.709838628768921,-1.0373163223266602,9.274434089660645,0.07511407881975174,0.044593163,-0.010690141499999998,8
2.7287302017211914,-0.989332914352417,9.267428398132324,0.06169058382511139,0.051618114000000014,-0.013439035,8
2.7398781776428223,-0.9745940566062928,9.239747047424316,0.04464084282517433,0.0033597588,-0.004276057,8
2.744990825653076,-0.9915791153907776,9.191446304321287,0.02798379771411419,-0.016187929,-0.009773844,8
2.7494571208953857,-1.0208488702774048,9.163633346557617,0.015916099771857258,0.0030543262,0.0009162979,8
2.764425754547119,-1.0369303226470947,9.164112091064453,0.008518318645656109,0.049480084,-0.0143553335,8
2.770603656768799,-1.0443012714385986,9.167515754699707,0.004171245731413364,0.028710667,0.0030543262,8
2.7681987285614014,-1.069082260131836,9.167798042297363,0.0009599549230188132,0.0027488936,0.016798794,8
2.758693218231201,-1.0882347822189329,9.179926872253418,-0.0011641818564385176,-0.0070249503,0.025961773,8
2.752016305923462,-1.101410984992981,9.18864917755127,-0.0012094572884961965,-0.027794369,0.0290161,8
2.7430591583251958,-1.096050500869751,9.192062377929688,0.0002236941218143329,-0.02076942,0.04550946,8
2.729858636856079,-1.0815231800079346,9.183568000793457,0.0036131250672042366,-0.038179077,0.04550946,8
2.719347715377808,-1.0635839700698853,9.170382499694824,0.009684072807431221,-0.049785517,0.042455133,8
2.709040403366089,-1.0427662134170532,9.15463638305664,0.019281474873423576,-0.05467244,0.054061573,8
2.705063343048096,-1.0330747365951538,9.142297744750977,0.02969510294497013,-0.043676864,0.055283304000000005,8
2.709300994873047,-1.0188655853271484,9.139119148254396,0.03654248639941216,-0.03970624,0.04886922,8
2.7160255908966064,-0.998041808605194,9.140091896057127,0.040233634412288666,-0.03481932,0.03634648,8
2.718223094940185,-0.9814305305480956,9.13547134399414,0.04349697008728981,-0.013439035,0.035430185,8
2.7228240966796875,-0.9749181866645812,9.127130508422852,0.045440275222063065,-0.01160644,0.03390302,8
2.7224299907684326,-0.9715422987937928,9.13339138031006,0.044638358056545265,-0.014049901000000002,0.028405234,8
2.7204222679138184,-0.970850110054016,9.139058113098145,0.04114748165011406,-0.010995574,0.023823744,8
2.722499370574951,-0.9600157141685486,9.143445014953613,0.036918379366397865,-0.0061086523,0.01985312,8
2.722941398620605,-0.9436292052268982,9.158086776733398,0.032071657478809364,0.0067195175,0.018020526,8
2.716574192047119,-0.9149419665336608,9.166227340698242,0.02569202333688736,0.013133603,0.016493361,8
2.7050507068634038,-0.888580858707428,9.171810150146484,0.019583582878112796,0.016798794,0.02076942,8
2.6962459087371826,-0.868550181388855,9.17165470123291,0.013092485256493092,0.0036651916,0.022296581,8
2.6993889808654785,-0.8596692681312561,9.165410995483398,0.00951595976948738,0.009468411,0.03023783,8
2.7052910327911377,-0.8540806770324707,9.167970657348633,0.006328187417238951,0.002443461,0.019547688,8
2.716724634170532,-0.8458544611930847,9.174153327941896,0.00313165714032948,0.004886922,0.03023783,8
2.7327396869659424,-0.8399285078048706,9.1776704788208,-0.0008047273149713874,-0.017104227,0.030848695,8
2.7388293743133545,-0.8406413793563843,9.174548149108887,-0.003221457591280341,-0.0061086523,0.02107485,8
2.740740299224853,-0.8435225486755371,9.177742004394533,-0.005937665700912476,0.0012217305,0.02443461,8
2.743098258972168,-0.8462238907814026,9.181410789489746,-0.008694077841937542,0.0012217305,0.031154128,8
2.740902900695801,-0.8417280316352844,9.185636520385742,-0.010918442159891129,0.0033597588,0.035430185,8
2.736844539642334,-0.8415599465370178,9.188061714172363,-0.014094228856265543,0.007330383,0.028405234,8
2.7381913661956787,-0.8427506685256958,9.184532165527344,-0.01543037034571171,0.0033597588,0.022907447,8
2.745378971099853,-0.8472308516502379,9.17455768585205,-0.017106039449572563,0.007941248,0.017104227,8
2.7510807514190674,-0.8553627729415894,9.169891357421877,-0.0183836929500103,0.0015271631,0.027183503,8
2.7535622119903564,-0.8560913205146791,9.17210292816162,-0.02102148905396461,0.0021380284,0.0125227375,8
2.754782199859619,-0.8519161939620972,9.173067092895508,-0.021848419681191444,0.0009162979,0.014966198,8
2.762158155441284,-0.8478222489356995,9.166362762451172,-0.023139294236898426,-0.0009162979,0.014049901000000002,8
2.77335786819458,-0.8407972455024719,9.162860870361328,-0.024025255814194683,0.010995574,0.017104227,8
2.775780200958252,-0.8325345516204834,9.168594360351562,-0.02485010400414467,0.004276057,0.02107485,8
2.777360200881958,-0.8271416425704956,9.16844654083252,-0.024355797097086903,-0.005192355,0.02076942,8
2.7763144969940186,-0.8307600617408752,9.168415069580078,-0.024994589388370514,0.005192355,0.029626964,8
2.7703487873077397,-0.8254529237747192,9.169384002685547,-0.025659194216132164,0.0030543262,0.026267206,8
2.765952587127685,-0.8190074563026428,9.165838241577148,-0.026265861466526985,0.0021380284,0.02565634,8
2.7619283199310303,-0.8135749697685242,9.165533065795898,-0.026983657851815224,0.0036651916,0.02687807,8
2.757517099380493,-0.811204731464386,9.17207145690918,-0.02943428047001362,0.0143553335,0.020463986,8
2.7542026042938232,-0.8094676733016968,9.176468849182127,-0.03127837926149368,0.005497787,0.018936822,8
2.752612352371216,-0.8125507831573486,9.179539680480957,-0.031523000448942184,-0.0009162979,0.01985312,8
2.7507033348083496,-0.8126909732818604,9.179444313049316,-0.03187408670783043,0.00061086525,0.03023783,8
2.7527217864990234,-0.8169169425964355,9.180554389953613,-0.03214968740940094,0.009773844,0.01985312,8
2.7550301551818848,-0.8255611062049866,9.181960105895996,-0.033941827714443214,0.0015271631,0.017104227,8
2.760704517364502,-0.8326086997985841,9.18644905090332,-0.034802082926034934,0.0061086523,0.01160644,8
2.7667720317840576,-0.8454813957214355,9.18724250793457,-0.037861600518226624,0.011301007,0.01160644,8
2.7693428993225098,-0.8548707365989685,9.188334465026855,-0.0391564778983593,-0.0036651916,0.0143553335,8
2.7704122066497803,-0.8566736578941345,9.184651374816896,-0.03697576001286506,-0.008857545999999999,0.014966198,8
2.7761452198028564,-0.8499222397804259,9.179271697998047,-0.03576445206999779,0.0015271631,0.018936822,8
2.7831647396087646,-0.8394051790237427,9.173694610595703,-0.03530224785208702,0.0061086523,0.01863139,8
2.7839677333831787,-0.8259621858596802,9.173254013061523,-0.034637995064258575,0.014660766,0.017715093,8
2.781158447265625,-0.8244754076004028,9.169278144836426,-0.03521320968866348,0.007330383,0.02321288,8
2.775535345077514,-0.8258876204490662,9.173828125,-0.03517736867070198,-0.0015271631,0.021685716,8
2.7745044231414795,-0.8339954614639282,9.181181907653807,-0.03334516286849976,-0.0030543262,0.016187929,8
2.780993700027466,-0.8379539251327515,9.1812744140625,-0.032580893486738205,0.009773844,0.015882496,8
2.7823827266693115,-0.8353477120399475,9.175135612487793,-0.031854599714279175,-0.0012217305,0.010079277,8
2.7858870029449463,-0.8357121348381042,9.170886039733887,-0.031324394047260284,0.012217305,0.015577064,8
2.788430690765381,-0.8392211794853209,9.172317504882812,-0.031995199620723724,0.0143553335,0.018325957,8
2.787921667098999,-0.8456323146820068,9.170165061950684,-0.031686071306467056,0.012217305,0.015271631,8
2.78081488609314,-0.8447737693786621,9.174455642700195,-0.0314650796353817,0.0061086523,0.01985312,8
2.7786328792572017,-0.8441120386123657,9.174346923828123,-0.031444020569324486,0.009468411,0.018936822,8
2.7787234783172607,-0.8425406813621521,9.173455238342283,-0.030781427398324013,0.01985312,0.017104227,8
2.782989978790283,-0.8400327563285828,9.170458793640137,-0.031285665929317474,0.036651913,0.028405234,8
2.7865147590637207,-0.8395771980285645,9.166948318481444,-0.031273670494556434,0.04337143,0.02443461,8
2.7790446281433105,-0.8448914289474487,9.165602684020996,-0.031749524176120765,0.045814894,0.021380283,8
2.7721073627471924,-0.8510502576828003,9.16922092437744,-0.031477514654397964,0.06750060599999999,0.028710667,8
2.7650296688079834,-0.8552231192588806,9.168912887573242,-0.03162350133061409,0.016187929,0.034513887,8
2.76656174659729,-0.8471857309341431,9.153848648071287,-0.03060929290950298,-0.010690141499999998,0.025961773,8
2.7738518714904785,-0.8402472734451294,9.157651901245117,-0.02776893973350525,0.015882496,0.01740966,8
2.7802143096923833,-0.8392969965934753,9.165735244750977,-0.027428317815065384,0.01160644,0.024129177,8
2.7700331211090092,-0.8407505750656128,9.17180633544922,-0.028799936175346375,0.005497787,0.021991149,8
2.7624123096466064,-0.8356596231460571,9.173806190490724,-0.028207667171955112,0.0033597588,0.01160644,8
2.754835844039917,-0.8323044776916504,9.17602252960205,-0.026106508448719982,0.0143553335,0.013133603,8
2.7490408420562744,-0.8301985859870911,9.18221664428711,-0.02572787180542946,0.008552114,0.015271631,8
2.7495672702789307,-0.8315100669860841,9.182299613952637,-0.026781847700476646,0.02107485,0.016798794,8
2.7486517429351807,-0.8293863534927368,9.188941955566406,-0.029075773432850838,0.04062254,0.02076942,8
2.745628118515014,-0.8293673992156982,9.189455032348633,-0.03118832409381866,0.017104227,0.021685716,8
2.743533134460449,-0.8290184140205383,9.175302505493164,-0.031385082751512534,-0.0021380284,0.02076942,8
2.7444982528686523,-0.8263878822326659,9.158823013305664,-0.0296775009483099,0.011301007,0.023823744,8
2.750457286834717,-0.8254300951957703,9.1550874710083,-0.029515733942389488,0.00061086525,0.022907447,8
2.755718469619751,-0.8139270544052124,9.153820991516113,-0.02915460802614689,-0.0009162979,0.025961773,8
2.7578649520874023,-0.8021085858345032,9.156044006347656,-0.029454650357365605,0.002443461,0.025350908,8
2.7550747394561768,-0.7978739142417908,9.159690856933594,-0.031003043055534363,0.009162978,0.019547688,8
2.755798816680908,-0.7963508367538452,9.164664268493652,-0.0318625345826149,0.009162978,0.019547688,8
2.753117799758911,-0.797904372215271,9.1729097366333,-0.03279098495841026,0.011911872,0.013439035,8
2.745516538619995,-0.8043636679649353,9.175323486328123,-0.0323808528482914,0.008857545999999999,0.014049901000000002,8
2.742469310760498,-0.8113580942153931,9.172728538513184,-0.03203479573130608,0.0076358155,0.019547688,8
2.743393659591675,-0.8168140649795532,9.17268180847168,-0.031808704137802124,-0.0027488936,0.014660766,8
2.7431199550628658,-0.819807767868042,9.179037094116213,-0.03188914060592652,0.009162978,0.01740966,8
2.741018056869507,-0.8234822750091553,9.179163932800293,-0.03128321096301079,0.0018325958,0.021685716,8
2.7399230003356934,-0.8260818123817444,9.178308486938477,-0.03195219486951828,0.013439035,0.017104227,8
2.7463083267211914,-0.8179177045822144,9.17100715637207,-0.034119639545679085,0.0061086523,0.010995574,8
2.75473952293396,-0.8071476817131042,9.16521453857422,-0.034563302993774414,0.009773844,0.0143553335,8
2.764512300491333,-0.7977463603019714,9.164311408996582,-0.03588258847594261,0.013744468,0.014660766,8
2.7712571620941158,-0.7959721088409424,9.16407585144043,-0.0372503288090229,0.0076358155,0.021685716,8
2.767608642578125,-0.8063792586326599,9.16037654876709,-0.03823559358716011,0.011301007,0.019547688,8
2.7668781280517583,-0.8090227246284485,9.15537166595459,-0.03783530369400978,0.0070249503,0.0125227375,8
2.7619786262512207,-0.8106522560119629,9.157262802124023,-0.037114132195711136,0.010995574,0.01985312,8
2.757563591003418,-0.8107604384422302,9.160411834716797,-0.03749847412109375,0.010995574,0.023518313,8
2.7609031200408936,-0.8133143782615662,9.159941673278807,-0.03681378811597824,-0.0021380284,0.015271631,8
2.7634961605072017,-0.8133106827735901,9.16170883178711,-0.03528138995170593,0.015577064,0.015577064,8
2.7644054889678955,-0.8073201179504395,9.16634464263916,-0.03600333258509636,0.0027488936,0.013439035,8
2.7619879245758057,-0.8077117800712585,9.170804977416992,-0.0358564630150795,0.0125227375,0.014966198,8
2.7615184783935547,-0.813014030456543,9.172849655151367,-0.03521929681301117,0.00030543262000000003,0.005497787,8
2.768224239349365,-0.8206768035888672,9.172211647033693,-0.035200078040361404,0.0030543262,0.01282817,8
2.779987335205078,-0.8183977603912354,9.175474166870117,-0.035234637558460236,0.0070249503,0.01985312,8
2.7852377891540527,-0.819025456905365,9.17354679107666,-0.035740118473768234,0.012217305,0.01740966,8
2.785703420639038,-0.8226685523986816,9.172091484069824,-0.03578214347362518,0.004581489,0.01740966,8
2.7827379703521733,-0.8237900137901306,9.177241325378418,-0.03527166321873665,0.017104227,0.01985312,8
2.780913591384888,-0.8292048573493958,9.18281078338623,-0.03466768562793732,0.0143553335,0.0125227375,8
2.7805135250091557,-0.8271346688270569,9.178832054138184,-0.0351591631770134,0.009773844,0.013439035,8
2.7738149166107178,-0.819885790348053,9.175718307495117,-0.03603915497660637,0.011301007,0.017715093,8
2.7714312076568604,-0.8106117248535156,9.173429489135742,-0.03724614903330803,0.005497787,0.014049901000000002,8
2.772055625915528,-0.8090606927871704,9.169455528259276,-0.03813332691788674,0.020158553,0.017715093,8
2.771769762039185,-0.8113332986831665,9.17524242401123,-0.0388898216187954,0.0027488936,0.0143553335,8
2.771857261657715,-0.8119706511497498,9.173871994018556,-0.03849255293607712,0.011911872,0.009162978,8
2.772547721862793,-0.8102617859840393,9.163366317749023,-0.03868260607123375,0.014049901000000002,0.017715093,8
2.772046566009521,-0.8076879382133484,9.1613130569458,-0.03921002522110939,0.022602014,0.015271631,8
2.774912118911743,-0.8094888925552368,9.162830352783203,-0.0393839068710804,0.016798794,0.014049901000000002,8
2.782473564147949,-0.8142690658569336,9.16035270690918,-0.03975017741322517,0.004581489,0.01160644,8
2.781078815460205,-0.8215771317481995,9.147159576416016,-0.03826579824090004,0.013133603,0.010995574,8
2.775735378265381,-0.8249174356460571,9.144461631774902,-0.03818506002426148,0.010079277,0.019242255,8
2.7711503505706787,-0.8259483575820923,9.156296730041504,-0.03814847394824028,0.018936822,0.014966198,8
2.770815134048462,-0.8235808610916138,9.171196937561037,-0.038258887827396386,0.0076358155,0.01282817,8
2.7730207443237305,-0.8196625709533691,9.177209854125977,-0.038000617176294334,0.023823744,0.014049901000000002,8
2.771427631378174,-0.8149473667144775,9.176307678222656,-0.03986141458153725,0.023518313,0.014049901000000002,8
2.7662272453308105,-0.8120208382606506,9.171502113342283,-0.04411668330430985,0.022602014,0.009468411,8
2.7648017406463623,-0.813100278377533,9.172446250915527,-0.045345500111579895,0.017715093,0.009162978,8
2.76685094833374,-0.8160783648490906,9.178547859191896,-0.04619691148400307,0.014660766,0.015271631,8
2.7689015865325928,-0.8251677155494691,9.177695274353027,-0.0474093072116375,0.015882496,0.010079277,8
2.767263650894165,-0.8371015787124634,9.172377586364746,-0.04680618271231651,0.02321288,0.0143553335,8
2.7654831409454346,-0.8438850045204163,9.175572395324707,-0.04603249952197075,0.018936822,0.0143553335,8
2.765108823776245,-0.8484175801277161,9.178919792175293,-0.044115077704191215,0.007330383,0.014966198,8
2.7610199451446533,-0.8471958041191101,9.172111511230467,-0.04304064065217972,0.010995574,0.02107485,8
2.760708808898926,-0.8440268039703369,9.167940139770508,-0.04123577475547791,0.008857545999999999,0.009468411,8
2.759361743927002,-0.8400093317031859,9.175735473632812,-0.038588404655456536,0.002443461,0.011301007,8
2.757753849029541,-0.8383433222770691,9.180962562561037,-0.03718001767992973,0.005192355,0.0067195175,8
2.757370948791504,-0.8395172357559204,9.179817199707033,-0.03731881082057953,0.009773844,0.009162978,8
2.75433611869812,-0.8355400562286377,9.17406940460205,-0.03790085390210152,0.008857545999999999,0.01740966,8
2.7485599517822266,-0.8343339562416077,9.175125122070312,-0.038675617426633835,0.010079277,0.011301007,8
2.7475197315216064,-0.8341425657272339,9.169088363647461,-0.03939878940582275,0.009773844,0.012217305,8
2.7551798820495605,-0.8399503231048584,9.164873123168944,-0.039623096585273736,0.005192355,0.01282817,8
2.759927988052368,-0.8393043875694275,9.154461860656738,-0.03810570016503334,0.005497787,0.018325957,8
2.7570154666900635,-0.8290624618530273,9.147937774658203,-0.03850885480642319,0.0143553335,0.013439035,8
2.7562291622161865,-0.8240353465080261,9.146020889282227,-0.03759889304637909,0.009773844,0.015271631,8
2.7594218254089355,-0.8249788284301758,9.15040111541748,-0.03649073094129562,0.011911872,0.017715093,8
2.764520168304444,-0.8308749198913574,9.15959930419922,-0.03620897233486176,-0.0061086523,0.016798794,8
2.7611925601959233,-0.8341622352600098,9.15504264831543,-0.037310503423213966,0.010079277,0.018936822,8
2.7538158893585205,-0.8332565426826477,9.15394687652588,-0.03710954636335373,0.021380283,0.030543262,8
