timestamp,rel_time,acc_x,acc_y,acc_z,gyro_x,gyro_y,gyro_z,azimuth,pitch,roll,label
0.0,0.0,0.0,0.0,0.0,0.0,8.102822,0.036651913,191.57545,-162.07867,-22.532705,STD
4073689.25,4.525009345002218e-08,-1.2055163097102195e-05,8.755851740716025e-05,4.709402674052399e-06,-2.3362656065728515e-05,0.73884153,0.03268129,192.44627,-160.7884,-25.697277,STD
28261898.0,4.896630230177834e-07,-8.355847239727154e-05,0.000607439607847482,3.266365092713386e-05,-0.00011126593744847924,0.7449501999999999,0.030543262,191.66992,-160.58711,-23.6203,STD
99650888.0,2.3235884327732492e-06,-0.0002943664730992168,0.002141778590157628,0.00011514210927998647,-0.0003330682229716331,0.75228053,0.036651913,191.71075,-159.4329,-23.517063,STD
254822864.0,7.451906185451662e-06,-0.0007520858198404312,0.005476757418364286,0.00029436228214763105,-0.000782944611273706,0.7703011,0.035124752999999995,191.75124,-158.64203,-23.408676,STD
537805376.0,1.8908282072516158e-05,-0.0015859021805226803,0.011558512225747108,0.0006210975698195398,-0.0015768567100167274,0.77396625,0.03970624,191.7994,-157.84032,-23.299217,STD
997681792.0,4.100413934793323e-05,-0.0029394328594207764,0.021441763266921043,0.0011519064428284764,-0.002844400005415082,0.75655663,0.038789943,191.84904,-157.03363000000004,-23.189714,STD
1686041472.0,7.930227729957551e-05,-0.004963180050253868,0.036235008388757706,0.0019461842020973563,-0.0047185784205794334,0.72784597,0.03848451,191.90396,-156.21967,-23.079857,STD
2654447616.0,0.00014091278717387468,-0.007806897629052401,0.057046078145504,0.00306322006508708,-0.007311017718166113,0.6973026999999999,0.035124752999999995,191.96297,-155.40941,-22.973587,STD
3952079360.0,0.0002332567673875019,-0.01161313708871603,0.08493153750896454,0.0045595308765769005,-0.010723183862864971,0.81183994,0.063224554,192.01613,-154.58856,-22.831663,STD
5623679488.0,0.0003650353755801916,-0.016510745510458946,0.1208525002002716,0.0064864386804401875,-0.015169765800237656,0.7715228,0.06261369,192.08879,-153.73187,-22.739008,STD
7707892736.0,0.0005456506623886526,-0.022610189393162727,0.16563895344734192,0.008888179436326027,-0.0207488052546978,0.7648033000000001,0.062002823,192.14896,-152.91896,-22.603392000000003,STD
10236046336.0,0.0007847514934837818,-0.030000142753124237,0.21996361017227173,0.011800514534115791,-0.027552887797355652,0.75502944,0.07819075,192.22063,-152.05733,-22.474499,STD
13231385600.0,0.0010920894565060735,-0.038745272904634476,0.28432542085647583,0.015249848365783691,-0.035643868148326874,0.7480045,0.07513642,192.28815,-151.20193,-22.347496,STD
16708731904.0,0.00147723825648427,-0.04888536036014557,0.35904231667518616,0.019252855330705643,-0.04506247863173485,0.7309003000000001,0.09040806,192.36826,-150.33867,-22.218262,STD
20674535424.0,0.0019494353327900171,-0.06043551489710808,0.44425228238105774,0.023816542699933052,-0.05585167184472084,0.70432764,0.09987647,192.44879,-149.4714,-22.092236,STD
25127241728.0,0.0025173635222017765,-0.07338736206293106,0.5399212837219238,0.028938686475157738,-0.06799818575382233,0.6395759,0.10445796,192.54134,-148.60934,-21.975618,STD
30057912320.0,0.0031888941302895546,-0.08771099150180817,0.6458566784858704,0.034608565270900726,-0.08135880529880524,0.5732970000000001,0.10140363,192.63918,-147.76047,-21.862947,STD
35451027456.0,0.003970991354435682,-0.10335738211870193,0.7617244124412537,0.04080788418650627,-0.09571301937103271,0.5329799,0.103847094,192.74623,-146.92061,-21.755083,STD
41285398528.0,0.004869504366070032,-0.12026119977235794,0.8870686292648315,0.04751185327768326,-0.11088122427463531,0.45998153,0.096516706,192.86801,-146.09373,-21.669378,STD
47535140864.0,0.005889462772756815,-0.13834352791309357,1.0213326215744019,0.05469028651714325,-0.12652486562728882,0.3848451,0.09560041,193.00017,-145.31486999999996,-21.588669,STD
54170644480.0,0.007034784182906151,-0.15751489996910095,1.163879632949829,0.06230873987078667,-0.1423378735780716,0.33750305,0.08307768,193.13655,-144.55188,-21.518126,STD
61159510016.0,0.008308440446853638,-0.17767798900604248,1.3140130043029785,0.07032959908246994,-0.15803898870944977,0.13347405,0.040927973,193.31113,-143.82906,-21.501186,STD
68467417088.0,0.009712902829051018,-0.198730006814003,1.4709949493408203,0.07871305197477341,-0.17277535796165466,-0.023823744,0.0030543262,193.48558,-143.21176,-21.481663,STD
76058935296.0,0.011248808354139328,-0.22056563198566437,1.634063720703125,0.0874180719256401,-0.18592001497745514,0.0009162979,0.01038471,193.66649,-142.59892,-21.461832,STD
83898187776.0,0.012916498817503452,-0.24307841062545776,1.8024485111236572,0.09640317410230637,-0.19757215678691864,0.030543262,0.014966198,193.87032,-142.01056,-21.477886,STD
91949490176.0,0.014715449884533882,-0.26616278290748596,1.9753820896148682,0.10562708973884583,-0.20787286758422852,0.015271631,0.013439035,194.08072,-141.49278,-21.493504,STD
100177829888.0,0.016644524410367012,-0.289715439081192,2.152111768722534,0.11504938453435898,-0.21685437858104706,0.019242255,0.00580322,194.28249,-140.98145,-21.494692,STD
108549259264.0,0.01870204135775566,-0.31363651156425476,2.3319082260131836,0.1246308758854866,-0.2245701104402542,0.017715093,0.0125227375,194.4929,-140.45763,-21.493528,STD
117031239680.0,0.020885756239295006,-0.337830513715744,2.5140721797943115,0.13433405756950378,-0.2310791313648224,0.03145956,0.011911872,194.69708,-139.9393,-21.487131,STD
125592879104.0,0.023193078115582466,-0.3622070252895355,2.697939872741699,0.14412330090999603,-0.2364639788866043,0.024740042,0.011301007,194.90837,-139.42041,-21.479982,STD
134205104128.0,0.02562098205089569,-0.38668113946914673,2.8828864097595215,0.15396513044834137,-0.24075746536254883,0.017104227,0.016187929,195.11867,-138.90854,-21.46536,STD
142840758272.0,0.028166133910417557,-0.41117382049560547,3.068328380584717,0.1638283133506775,-0.244050532579422,0.015577064,0.014966198,195.3281,-138.393,-21.44849,STD
151474683904.0,0.03082517720758915,-0.4356119930744171,3.253725290298462,0.17368391156196594,-0.24640460312366486,0.01740966,0.01160644,195.53929,-137.88599,-21.428333,STD
160083738624.0,0.033594340085983276,-0.4599286615848541,3.43858003616333,0.1835053414106369,-0.24789109826087952,0.022602014,0.012217305,195.7507,-137.37856000000002,-21.40376,STD
168646770688.0,0.03646981716156006,-0.4840628206729889,3.6224381923675537,0.19326834380626678,-0.24857021868228912,0.02687807,0.007941248,195.96,-136.87712,-21.377375,STD
177144610816.0,0.03944772481918335,-0.507959246635437,3.8048877716064453,0.20295090973377228,-0.24853365123271942,0.01863139,0.004581489,196.17097,-136.37549,-21.34889,STD
185559973888.0,0.04252411425113678,-0.5315684676170349,3.985557794570923,0.21253325045108795,-0.24782311916351318,0.019547688,0.00580322,196.37848,-135.88222,-21.314665,STD
193877393408.0,0.04569496586918831,-0.5548464059829712,4.164115905761719,0.2219976782798767,-0.24650385975837708,0.013744468,0.00580322,196.58783,-135.38867,-21.281282,STD
202083139584.0,0.04895663261413574,-0.5777539610862732,4.340267658233643,0.23132850229740143,-0.2446385771036148,0.008552114,0.006414085,196.79642,-134.90045,-21.244347,STD
210165137408.0,0.052305202931165695,-0.6002587080001831,4.513754367828369,0.24051080644130707,-0.24228890240192413,0.013133603,0.0076358155,197.00328,-134.4155,-21.20379,STD
218112835584.0,0.055737003684043884,-0.6223366856575012,4.684353351593018,0.24952878057956696,-0.2395027130842209,0.008552114,0.005192355,197.21187,-133.93555,-21.163898,STD
225917108224.0,0.05924811214208603,-0.6439676880836487,4.851872444152832,0.25836876034736633,-0.23631499707698822,0.013744468,0.01038471,197.4208,-133.44629,-21.104584,STD
233570189312.0,0.06283504515886307,-0.665134847164154,5.016148090362549,0.26701879501342773,-0.23278817534446716,0.016798794,0.0012217305,197.6267,-132.96146000000002,-21.047949,STD
241065541632.0,0.06649420410394669,-0.685824453830719,5.177042484283447,0.2754687964916229,-0.22897323966026306,0.0143553335,-0.0018325958,197.8333,-132.48106,-20.986712,STD
248397758464.0,0.0702223926782608,-0.7060256600379944,5.334442138671875,0.28371015191078186,-0.22490549087524414,0.0143553335,0.007941248,198.03761,-132.0042,-20.92162,STD
255562481664.0,0.07401619106531143,-0.7257302403450012,5.488255977630615,0.29173585772514343,-0.22060921788215637,0.011301007,0.010690141499999998,198.23967,-131.53339,-20.857822,STD
262556303360.0,0.0778723731637001,-0.7449323534965515,5.6384124755859375,0.29954028129577637,-0.21609775722026825,0.021380283,0.0030543262,198.43658,-131.06847,-20.790154,STD
269376684032.0,0.08178788423538208,-0.7636282444000244,5.7848591804504395,0.3071189820766449,-0.21143734455108643,0.015577064,0.0070249503,198.6389,-130.60245,-20.72071,STD
276021837824.0,0.08575979620218277,-0.7818161249160767,5.9275593757629395,0.3144686222076416,-0.2066277712583542,0.01863139,-0.0009162979,198.83105,-130.15132,-20.651077,STD
282490765312.0,0.0897853747010231,-0.7994959950447083,6.066492557525635,0.321586936712265,-0.20171363651752472,0.021685716,0.009162978,199.02652,-129.6951,-20.57582,STD
288783007744.0,0.09386204928159714,-0.8166692852973938,6.201651096343994,0.3284724950790405,-0.1967320740222931,0.020158553,0.004276057,199.21632,-129.25015,-20.504839,STD
294898761728.0,0.09798718988895416,-0.8333389163017273,6.333039283752441,0.33512482047080994,-0.19170641899108887,0.022296581,0.008857545999999999,199.40565,-128.80669,-20.42694,STD
300838715392.0,0.10215823352336884,-0.8495089411735535,6.460672378540039,0.34154418110847473,-0.18663983047008514,0.0143553335,-0.00030543262000000003,199.59262,-128.37178,-20.354174,STD
306603982848.0,0.10637284815311432,-0.8651846051216125,6.58457612991333,0.34773144125938416,-0.18153440952301025,0.016187929,0.0012217305,199.7769,-127.9395,-20.27486,STD
312196104192.0,0.11062879860401154,-0.8803719282150269,6.7047834396362305,0.35368812084198,-0.17641191184520721,0.011301007,0.008857545999999999,199.96219,-127.51258,-20.197552,STD
317616947200.0,0.11492405086755753,-0.8950779438018799,6.821335792541504,0.3594162166118622,-0.17128679156303406,0.04550946,-0.02321288,200.1285,-127.09896,-20.122433,STD
322868740096.0,0.11925651133060455,-0.9093102216720581,6.934280872344971,0.36491823196411133,-0.16627536714076996,0.013744468,-0.0125227375,200.31903,-126.67356,-20.045012,STD
327953973248.0,0.12362417578697205,-0.9230771064758301,7.043671607971191,0.3701970875263214,-0.16136637330055237,0.004276057,0.0027488936,200.48825,-126.26771,-19.96505,STD
332875333632.0,0.12802518904209137,-0.936387300491333,7.149566650390625,0.3752560615539551,-0.1565243899822235,0.002443461,0.009773844,200.66187,-125.86055,-19.887362,STD
337635737600.0,0.13245789706707,-0.9492500424385071,7.252028465270996,0.3800986707210541,-0.1516958326101303,0.009773844,0.002443461,200.83336,-125.4617,-19.808916,STD
342238265344.0,0.1369207501411438,-0.9616749286651611,7.351123332977295,0.38472869992256165,-0.14688865840435028,0.005192355,0.0143553335,201.01013,-125.062546,-19.725416,STD
346686128128.0,0.14141228795051575,-0.9736717939376831,7.446920394897461,0.3891501724720001,-0.14212721586227417,0.0009162979,0.0015271631,201.17775,-124.67772,-19.648376000000006,STD
350982701056.0,0.14593087136745453,-0.98525071144104,7.539491176605225,0.39336737990379333,-0.1374211460351944,-0.0015271631,-0.0033597588,201.34674,-124.29631,-19.566444,STD
355131359232.0,0.15047511458396912,-0.9964219331741333,7.628909111022949,0.3973847031593323,-0.13278843462467194,0.00030543262000000003,0.0009162979,201.51285,-123.91913,-19.485111,STD
359135641600.0,0.1550435721874237,-1.0071958303451538,7.715249061584473,0.4012066721916199,-0.12822946906089783,0.0036651916,0.0070249503,201.67645,-123.54906,-19.404387,STD
362999119872.0,0.15963488817214966,-1.017582893371582,7.798587322235107,0.4048379361629486,-0.12374695390462875,0.013133603,0.002443461,201.8347,-123.18448,-19.324045,STD
366725365760.0,0.16424785554409027,-1.0275936126708984,7.879001140594482,0.40828317403793335,-0.11935175955295563,0.021380283,0.0021380284,201.99153,-122.82325,-19.240717,STD
370318016512.0,0.16888152062892914,-1.0372384786605835,7.956567287445068,0.41154706478118896,-0.11504646390676498,0.01160644,0.0009162979,202.14763,-122.469124,-19.15987,STD
373780676608.0,0.17353466153144836,-1.0465278625488281,8.031364440917969,0.4146344065666199,-0.1108720675110817,0.0061086523,0.004276057,202.29866,-122.11603999999998,-19.076353,STD
377117016064.0,0.178206205368042,-1.0554722547531128,8.103468894958496,0.4175499975681305,-0.10681822896003723,0.019242255,0.008552114,202.44496,-121.77218,-18.991886,STD
380330606592.0,0.18289533257484436,-1.0640819072723389,8.172958374023438,0.42029857635498047,-0.10287012159824371,0.027488936,0.003970624,202.59108,-121.43205,-18.910295,STD
383425052672.0,0.18760107457637787,-1.0723669528961182,8.239910125732422,0.42288488149642944,-0.09902627766132355,0.016493361,0.007330383,202.73824,-121.09486,-18.826517000000006,STD
386403926016.0,0.19232255220413208,-1.0803375244140625,8.304399490356445,0.42531368136405945,-0.09528680890798569,0.022296581,0.009468411,202.87556,-120.764946,-18.741451,STD
389270765568.0,0.19705906510353088,-1.0880036354064941,8.366501808166504,0.42758962512016296,-0.0916471928358078,0.014966198,0.007330383,203.0172,-120.44096,-18.659851,STD
392029044736.0,0.20180954039096832,-1.0953749418258667,8.426291465759277,0.42971745133399963,-0.0881342813372612,0.015271631,0.00580322,203.15332,-120.11928,-18.576302,STD
394682171392.0,0.20657344162464142,-1.1024610996246338,8.483840942382812,0.43170166015625,-0.08470939844846725,0.015577064,-0.003970624,203.28802,-119.80989,-18.496723,STD
397233520640.0,0.21135003864765167,-1.10927152633667,8.539223670959473,0.4335468113422394,-0.08139047771692276,0.0076358155,0.003970624,203.4248,-119.496544,-18.414217,STD
399686402048.0,0.21613846719264984,-1.11581552028656,8.592509269714355,0.4352574050426483,-0.07817769795656204,0.014049901000000002,0.0061086523,203.55354,-119.19508,-18.334522,STD
402044092416.0,0.22093833982944489,-1.1221020221710205,8.643767356872559,0.43683770298957825,-0.07505878061056137,0.008552114,0.0015271631,203.68588,-118.89809,-18.2572,STD
404309770240.0,0.22575031220912933,-1.128142237663269,8.693061828613281,0.43829041719436646,-0.07202764600515366,0.004581489,0.0125227375,203.81604,-118.602295,-18.174791,STD
406486548480.0,0.23057186603546143,-1.1339877843856812,8.740387916564941,0.4395986795425415,-0.0691002830862999,0.013133603,0.011911872,203.94034,-118.313614,-18.096395,STD
408577474560.0,0.23540255427360535,-1.139691948890686,8.785735130310059,0.44074392318725586,-0.06628204137086868,0.016798794,0.0067195175,204.06894,-118.02188,-18.012207,STD
410585530368.0,0.2402418553829193,-1.1452915668487549,8.82911491394043,0.44171079993247986,-0.06356268376111984,0.015577064,0.0033597588,204.1946,-117.73487,-17.927988,STD
412513599488.0,0.24508929252624512,-1.150768518447876,8.87060832977295,0.44248899817466736,-0.06097262725234032,0.01863139,0.008552114,204.31638,-117.44863,-17.84274,STD
414364532736.0,0.24994443356990814,-1.156105399131775,8.91029167175293,0.4430735111236572,-0.05848761275410652,0.02107485,0.008552114,204.44287,-117.171585,-17.76577,STD
416141082624.0,0.25480711460113525,-1.1612728834152222,8.948225021362305,0.4434971213340759,-0.056141093373298645,0.028405234,0.013744468,204.5662,-116.89087,-17.685774,STD
417845936128.0,0.2596770226955414,-1.1662534475326538,8.984476089477539,0.4437972605228424,-0.05391756445169449,0.03145956,0.021380283,204.69568,-116.61012,-17.603014,STD
419481681920.0,0.2645535171031952,-1.1710655689239502,9.019143104553223,0.44403842091560364,-0.05182446539402008,0.03604105,0.018325957,204.81996,-116.331184,-17.521523000000002,STD
421050875904.0,0.2694362699985504,-1.1757243871688843,9.052309036254883,0.44426798820495605,-0.049837738275527954,0.025350908,0.018020526,204.95605,-116.04682,-17.43637,STD
422555975680.0,0.2743249535560608,-1.1802326440811157,9.083996772766113,0.444460928440094,-0.04796326532959938,0.028710667,0.012217305,205.08374,-115.76644,-17.352476,STD
423999340544.0,0.27921992540359497,-1.1845930814743042,9.114230155944824,0.4445996582508087,-0.046221617609262466,0.03145956,0.01740966,205.22672,-115.47501,-17.267166,STD
425383329792.0,0.2841202914714813,-1.1888086795806885,9.143047332763672,0.4447422921657562,-0.04462824761867523,0.03359759,0.021685716,205.36565,-115.19003,-17.184063000000002,STD
426710138880.0,0.2890261709690094,-1.1928837299346924,9.170486450195312,0.44493624567985535,-0.04314975440502167,0.027488936,0.021991149,205.51662,-114.90004,-17.100344,STD
427981996032.0,0.29393675923347473,-1.1968342065811157,9.196599960327148,0.44513630867004395,-0.04177408292889595,0.03573562,0.025961773,205.6607,-114.6116,-17.013678,STD
429200965632.0,0.2988523542881012,-1.2006758451461792,9.221442222595215,0.4453025460243225,-0.04049534350633621,0.018325957,0.0143553335,205.83006,-114.31247,-16.932907,STD
430369112064.0,0.30377230048179626,-1.204420804977417,9.245121002197266,0.4454379975795746,-0.039311449974775314,0.022907447,0.020463986,205.9892,-114.01594,-16.84421,STD
431488368640.0,0.3086962401866913,-1.2080802917480469,9.26773738861084,0.4455454647541046,-0.038227204233407974,0.023823744,0.018325957,206.18036,-113.70349,-16.76106,STD
432560668672.0,0.31362396478652954,-1.211632490158081,9.2893705368042,0.44567322731018066,-0.03722060099244118,0.023823744,0.02076942,206.36658,-113.398544,-16.675089,STD
433587847168.0,0.3185553252696991,-1.2150497436523438,9.310090065002441,0.4458763301372528,-0.036280374974012375,0.014660766,0.02076942,206.5501,-113.10109,-16.591507,STD
434571673600.0,0.3234901428222656,-1.2183430194854736,9.329943656921387,0.44606655836105347,-0.03538062423467636,0.022907447,0.025045475,206.77333,-112.76628,-16.498281,STD
435513884672.0,0.32842838764190674,-1.2215263843536377,9.348976135253906,0.44614923000335693,-0.03454139083623886,0.025350908,0.023823744,206.99332,-112.44031499999998,-16.407953,STD
436416118784.0,0.3333699405193329,-1.2246140241622925,9.367219924926758,0.44608092308044434,-0.03375010937452316,0.02687807,0.016798794,207.27261,-112.0542,-16.300756,STD
437279981568.0,0.3383145332336426,-1.2276216745376587,9.38469123840332,0.445906400680542,-0.033004049211740494,0.034513887,0.020463986,207.53893,-111.67835,-16.1903,STD
438107013120.0,0.3432619869709015,-1.2305569648742676,9.401437759399414,0.4456655979156494,-0.03229803964495659,0.046120327,0.02076942,207.90599,-111.20078999999998,-16.05131,STD
438898688000.0,0.34821224212646484,-1.2334191799163818,9.417542457580566,0.44539400935173035,-0.03161171078681946,0.032986723,0.015882496,208.25719,-110.74768,-15.913448,STD
439656480768.0,0.3531651794910431,-1.2362076044082642,9.43308162689209,0.4451233446598053,-0.03094150312244892,0.03481932,0.018325957,208.76888,-110.09224,-15.702442,STD
440381734912.0,0.3581208288669586,-1.2389378547668457,9.448128700256348,0.44488346576690674,-0.030278105288743973,0.038179077,0.017104227,209.24121,-109.4845,-15.494604,STD
441075761152.0,0.36307886242866516,-1.2416377067565918,9.462750434875488,0.4447013735771179,-0.02961922436952591,0.030543262,0.01282817,209.67899,-108.917,-15.289012,STD
441739870208.0,0.36803901195526123,-1.2442994117736816,9.476980209350586,0.444537490606308,-0.028977541252970695,0.03726278,0.0076358155,210.07846,-108.318665,-15.045099,STD
442375307264.0,0.3730013072490692,-1.2469011545181274,9.490836143493652,0.4443267285823822,-0.028351357206702232,0.025350908,0.008552114,210.45825,-107.7573,-14.806856,STD
442983219200.0,0.37796589732170105,-1.2494233846664429,9.504337310791016,0.4440101981163025,-0.027706146240234375,0.028710667,0.005497787,210.83052,-107.157524,-14.535549,STD
443564785664.0,0.3829324245452881,-1.2518366575241089,9.517502784729004,0.44352221488952637,-0.027033571153879166,0.034208454,0.005192355,211.18149,-106.59248,-14.270326,STD
444121088000.0,0.3879012167453766,-1.2541073560714722,9.530356407165527,0.44279298186302185,-0.02635486051440239,0.022602014,-0.00061086525,211.5141,-106.06395,-14.014839000000002,STD
444653174784.0,0.39287179708480835,-1.2562087774276733,9.542850494384766,0.44179555773735046,-0.025643954053521156,0.021991149,-0.0070249503,211.82137000000003,-105.57141,-13.763957,STD
445162061824.0,0.39784395694732666,-1.2581181526184082,9.554872512817383,0.44053760170936584,-0.02494698017835617,0.03145956,-0.00580322,212.11104,-105.10378,-13.519546,STD
445648732160.0,0.40281781554222107,-1.2598192691802979,9.566340446472168,0.43903300166130066,-0.024213293567299843,0.027183503,-0.00580322,212.248638005,-104.885620378,-13.39927054215,STD
446114103296.0,0.4077930748462677,-1.2613290548324585,9.577320098876953,0.437338650226593,-0.023456593975424767,0.020463986,-0.002443461,212.38249,-104.6734,-13.2822695,STD
446559092736.0,0.41276970505714417,-1.2626594305038452,9.587868690490723,0.4355027377605438,-0.022671876475214958,0.023518313,-0.009468411,212.63243,-104.2671,-13.05367,STD
446984585216.0,0.41774752736091614,-1.2637994289398193,9.598012924194336,0.43354520201683044,-0.021867744624614716,0.018325957,-0.007330383,212.87549,-103.88395,-12.829177,STD
447391367168.0,0.4227272570133209,-1.2647424936294556,9.607781410217285,0.43148618936538696,-0.021032016724348068,0.017104227,-0.014660766,213.09894,-103.52519,-12.613344,STD
447780257792.0,0.42770814895629883,-1.2655280828475952,9.617206573486328,0.42936378717422485,-0.0201686080545187,0.008246681,-0.0143553335,213.31581,-103.18309,-12.401129,STD
448152043520.0,0.4326901137828827,-1.26619291305542,9.62631893157959,0.4272131323814392,-0.019260289147496223,0.0070249503,-0.021991149,213.52753,-102.85823,-12.19435,STD
448507445248.0,0.43767303228378296,-1.2667557001113892,9.635127067565918,0.42502352595329285,-0.01828133501112461,-0.0033597588,-0.023518313,213.73482,-102.55046,-11.992073,STD
448847151104.0,0.44265681505203247,-1.2672255039215088,9.643627166748047,0.4227612614631653,-0.017230575904250145,0.007941248,-0.017715093,213.92696,-102.260056,-11.795224,STD
449171849216.0,0.4476414918899536,-1.2676129341125488,9.651812553405762,0.4204080402851105,-0.016145337373018265,-0.0018325958,-0.02107485,214.12482000000003,-101.989235,-11.609023,STD
449482194944.0,0.4526270031929016,-1.2679393291473389,9.65966510772705,0.4180077910423279,-0.015006255358457565,-0.01160644,-0.025350908,214.31145,-101.73391,-11.426385,STD
449778810880.0,0.45761334896087646,-1.2682133913040161,9.667166709899902,0.41561463475227356,-0.013823886401951313,-0.013133603,-0.02076942,214.49495,-101.49183,-11.248241,STD
450062286848.0,0.46260055899620056,-1.2684041261672974,9.674297332763672,0.4133296608924866,-0.012586127035319805,-0.008857545999999999,-0.029932396,214.67207,-101.26918,-11.080006,STD
450333179904.0,0.4675883650779724,-1.2684845924377441,9.681039810180664,0.41124144196510315,-0.011302238330245018,-0.019242255,-0.02443461,214.85641,-101.0515,-10.910441,STD
450592047104.0,0.47257688641548157,-1.2684627771377563,9.687423706054688,0.40935561060905457,-0.009968508966267109,-0.005497787,-0.033292156,215.0252,-100.8534,-10.751847,STD
450839445504.0,0.4775659441947937,-1.2683494091033936,9.693480491638184,0.4076687693595886,-0.008604306727647781,-0.014966198,-0.02687807,215.19725,-100.66083,-10.591913,STD
451075833856.0,0.48255568742752075,-1.2681853771209717,9.699222564697266,0.40622323751449585,-0.007207993417978287,-0.0061086523,-0.03176499,215.35913,-100.482635,-10.439847,STD
451301736448.0,0.48754599690437317,-1.2680195569992065,9.704655647277832,0.40507349371910095,-0.005810286849737167,-0.013133603,-0.03359759,215.52219,-100.31233,-10.289383,STD
451517579264.0,0.4925369918346405,-1.2678968906402588,9.709787368774414,0.40425989031791687,-0.00438494049012661,-0.009773844,-0.032986723,215.67802000000003,-100.156715,-10.146802,STD
451723821056.0,0.4975284934043884,-1.2678583860397339,9.714634895324707,0.4037837088108063,-0.002936267526820302,-0.0143553335,-0.04428773,215.83246,-100.014244,-10.011959,STD
451920887808.0,0.5025204420089722,-1.267940878868103,9.719213485717773,0.4036453664302826,-0.0014855490298941731,-0.016798794,-0.042455133,215.97496,-80.12125400000002,-9.878729,STD
452109205504.0,0.5075126886367798,-1.2681488990783691,9.723546981811523,0.40377235412597656,-2.4105587726808153e-05,-0.011301007,-0.029321533,216.11118,-80.24805,-9.7491255,STD
452289134592.0,0.5125054121017456,-1.2684797048568726,9.727659225463867,0.40408188104629517,0.0014341247733682394,-0.0076358155,-0.036957346,216.24367,-80.361115,-9.628484,STD
452461035520.0,0.5174984335899353,-1.2689554691314697,9.731545448303223,0.40451720356941223,0.00287058693356812,-0.0030543262,-0.037873644,216.36925,-80.47051,-9.5068,STD
452625301504.0,0.5224918723106384,-1.2696502208709717,9.735139846801758,0.40506404638290405,0.004284326918423176,-0.007941248,-0.032375857,216.49184,-80.571945,-9.388947,STD
452782260224.0,0.5274856090545654,-1.2706156969070435,9.738401412963867,0.4057018756866455,0.005680627189576626,-0.010079277,-0.03573562,216.6063,-80.664055,-9.277003,STD
452932239360.0,0.5324798822402954,-1.271847128868103,9.741354942321777,0.4063805341720581,0.007071210071444511,-0.010079277,-0.028099801,216.71748,-80.754395,-9.163571,STD
453075533824.0,0.5374743342399597,-1.2733391523361206,9.744025230407715,0.40705743432044983,0.008441442623734474,-0.0067195175,-0.03268129,216.82697,-80.82609000000002,-9.065689,STD
453212471296.0,0.5424690842628479,-1.2751017808914185,9.746455192565918,0.4077102541923523,0.00978000182658434,-0.009468411,-0.034513887,216.93443,-80.89546999999997,-8.967575,STD
453343313920.0,0.5474640727043152,-1.2771426439285278,9.748682975769043,0.40831923484802246,0.011076830327510834,-0.01863139,-0.03359759,217.03392,-80.95776,-8.875005,STD
453468356608.0,0.5524595975875854,-1.2794464826583862,9.75074577331543,0.4088900685310364,0.012336044572293758,-0.00580322,-0.03390302,217.1247,-81.014725,-8.786009,STD
453587828736.0,0.5574555397033691,-1.2819675207138062,9.752678871154785,0.40946128964424133,0.013551030308008194,-0.0067195175,-0.027794369,217.219,-81.06907,-8.697156,STD
453702025216.0,0.5624516010284424,-1.2846602201461792,9.754508018493652,0.4100615084171295,0.014744611456990242,-0.0015271631,-0.0290161,217.30603,-81.1142,-8.617917,STD
453811142656.0,0.5674477815628052,-1.287460207939148,9.756226539611816,0.4106859862804413,0.015900004655122757,-0.004581489,-0.02443461,217.39299,-81.15809,-8.5372925,STD
453915443200.0,0.5724446773529053,-1.2903149127960205,9.757827758789062,0.41132423281669617,0.016994468867778778,-0.0033597588,-0.02443461,217.47684,-81.196495,-8.461238,STD
454015123456.0,0.5774416923522949,-1.2932504415512085,9.759320259094238,0.4119034707546234,0.01803121715784073,-0.007941248,-0.02107485,217.5607,-81.23424,-8.384822999999999,STD
454110412800.0,0.5824388265609741,-1.2962911128997803,9.760710716247559,0.4123561680316925,0.019002016633749008,-0.010079277,-0.015271631,217.64738,-81.27125500000002,-8.305698,STD
454201507840.0,0.5874360799789429,-1.299446702003479,9.76198673248291,0.41262730956077576,0.019927432760596275,0.002443461,-0.018325957,217.72873,-81.30471999999997,-8.230352,STD
454288572416.0,0.5924333333969116,-1.3027081489562988,9.763108253479004,0.4126753807067871,0.020765304565429688,0.00580322,-0.009773844,217.81068,-81.33774,-8.151935,STD
454371835904.0,0.5974306464195251,-1.3060580492019653,9.764046669006348,0.41246965527534485,0.021516261622309685,0.008246681,-0.01038471,217.88559,-81.36416,-8.08602,STD
454451429376.0,0.6024280786514282,-1.309417486190796,9.76481819152832,0.41202500462532043,0.022216683253645897,0.010079277,-0.009773844,217.95761,-81.3909,-8.019093,STD
454527549440.0,0.6074287295341492,-1.312707781791687,9.765437126159668,0.4113612771034241,0.02284640073776245,0.01160644,-0.009162978,218.03662000000003,-81.41241,-7.9553723,STD
454600327168.0,0.6124299168586731,-1.3159267902374268,9.765907287597656,0.4105776846408844,0.02339881658554077,0.007941248,-0.0030543262,218.11443,-81.43533000000002,-7.891455,STD
454669959168.0,0.6174308061599731,-1.3190727233886719,9.766229629516602,0.40977320075035095,0.023856960237026215,0.007941248,-0.0021380284,218.19016,-81.45817,-7.826753999999998,STD
454736543744.0,0.6224314570426941,-1.3221442699432373,9.766433715820312,0.4090201258659363,0.02424405887722969,0.019547688,0.004276057,218.26141,-81.4835,-7.760558599999999,STD
454800244736.0,0.6274318695068359,-1.325140357017517,9.76655387878418,0.4083746373653412,0.024587200954556465,0.022907447,-0.0030543262,218.33336,-81.5033,-7.699553999999999,STD
454861193216.0,0.6324321627616882,-1.3280174732208252,9.76662540435791,0.40786638855934143,0.024832719936966896,0.021685716,0.002443461,218.40265,-81.52039,-7.635662599999999,STD
454919520256.0,0.6374322772026062,-1.3306869268417358,9.766677856445312,0.4074958264827728,0.024998722597956657,0.018936822,0.0067195175,218.46967,-81.53761,-7.575900999999999,STD
454975324160.0,0.6424321532249451,-1.3330903053283691,9.766730308532715,0.40725043416023254,0.025077370926737785,0.022602014,-0.0018325958,218.53206,-81.54593,-7.5211916,STD
455028736000.0,0.6474319696426392,-1.335203766822815,9.7667818069458,0.4071000814437866,0.02509572170674801,0.028710667,0.007330383,218.59221,-81.56051,-7.461902,STD
455079886848.0,0.6524316668510437,-1.3370075225830078,9.76683235168457,0.4070178270339966,0.02507125400006771,0.024740042,-0.005497787,218.65848,-81.56945999999998,-7.407605999999999,STD
455128842240.0,0.6574311256408691,-1.3384945392608643,9.766877174377441,0.40700650215148926,0.025011951103806496,0.015271631,0.0021380284,218.7222,-81.58519,-7.346564999999999,STD
455175733248.0,0.6624305248260498,-1.3396793603897095,9.7669038772583,0.40712887048721313,0.024923330172896385,0.015271631,0.0021380284,218.75366150165505,-81.5902941940014,-7.32015041588926,STD
455220625408.0,0.6674296259880066,-1.340560793876648,9.766913414001465,0.407417893409729,0.024834707379341125,0.011301007,-0.0030543262,218.78427,-81.59526,-7.2944520000000015,STD
455263649792.0,0.6724287271499634,-1.3411083221435547,9.766932487487793,0.4078640043735504,0.02474026381969452,0.015271631,-0.0070249503,218.85011,-81.60934,-7.2362113,STD
455304871936.0,0.6774278283119202,-1.3412960767745972,9.766985893249512,0.40845805406570435,0.024616580456495285,0.011911872,-0.013133603,218.91777,-81.61955,-7.1796007,STD
455344390144.0,0.6824268102645874,-1.3411105871200562,9.767091751098633,0.4091903567314148,0.024508683010935783,0.005497787,-0.008857545999999999,218.98317000000003,-81.63361,-7.122828500000002,STD
455382269952.0,0.6874258518218994,-1.3406044244766235,9.767245292663574,0.41004449129104614,0.024424780160188675,0.004581489,-0.016798794,219.04652,-81.63955,-7.072889999999999,STD
455418576896.0,0.6924256682395935,-1.339822769165039,9.767440795898438,0.4110054075717926,0.02435394749045372,0.00061086525,-0.01282817,219.11923,-81.65361,-7.013645,STD
455453409280.0,0.6974253058433533,-1.3387748003005981,9.767684936523438,0.41205930709838867,0.024319319054484367,0.007941248,-0.011911872,219.18729,-81.6667,-6.9592924,STD
455486832640.0,0.7024247646331787,-1.3374682664871216,9.767983436584473,0.4131935238838196,0.02429468184709549,0.0076358155,-0.014049901000000002,219.25655,-81.67546999999998,-6.9078045,STD
455518912512.0,0.7074243426322937,-1.3359098434448242,9.768341064453125,0.4143965244293213,0.02428601123392582,-0.00580322,-0.016187929,219.32573,-81.68697,-6.8573,STD
455549681664.0,0.712424099445343,-1.334106206893921,9.768763542175293,0.41565772891044617,0.024306420236825943,0.00030543262000000003,-0.023518313,219.3879,-81.69551,-6.8106800000000005,STD
455579238400.0,0.7174237966537476,-1.3320786952972412,9.76926040649414,0.41693028807640076,0.024378858506679535,-0.005192355,-0.017104227,219.45436,-81.70926,-6.761407000000001,STD
455607615488.0,0.722423255443573,-1.329870343208313,9.769850730895996,0.4181113541126251,0.024495989084243774,-0.005192355,-0.022296581,219.51634,-81.71757,-6.7190013,STD
455634878464.0,0.7274227142333984,-1.3275381326675415,9.770520210266113,0.4191821813583374,0.02463722601532936,-0.020158553,-0.022602014,219.57512000000003,-81.7323,-6.673137700000002,STD
455661092864.0,0.7324219942092896,-1.325154185295105,9.771220207214355,0.4202168881893158,0.02483697049319744,-0.025350908,-0.024129177,219.62996,-81.74833000000002,-6.6304564,STD
455686291456.0,0.7374211549758911,-1.3227673768997192,9.771902084350586,0.4212985038757324,0.02510419860482216,-0.025961773,-0.020463986,219.68849,-81.76619000000002,-6.5878929999999984,STD
455710507008.0,0.7424201369285583,-1.3203967809677124,9.772518157958984,0.42252686619758606,0.02541293203830719,-0.04428773,-0.031154128,219.75272,-81.78045,-6.5502167,STD
455733805056.0,0.7474191188812256,-1.3180595636367798,9.773026466369629,0.42398151755332947,0.025795290246605873,-0.054061573,-0.0290161,219.8097,-81.79687,-6.512931299999999,STD
455756251136.0,0.7524181008338928,-1.3157728910446167,9.773394584655762,0.4256625175476074,0.026226067915558815,-0.06047566,-0.02443461,219.86981,-81.80704,-6.4783864,STD
455777845248.0,0.7574170231819153,-1.3135453462600708,9.77360725402832,0.42756494879722595,0.02673892118036747,-0.06414085,-0.027488936,219.92815,-81.81555,-6.447643,STD
455798652928.0,0.7624159455299377,-1.3113497495651245,9.773721694946289,0.429660439491272,0.027287444099783897,-0.06963864,-0.030543262,219.9873,-81.81945999999998,-6.4161773,STD
455818706944.0,0.767414927482605,-1.3091559410095215,9.773786544799805,0.4319271147251129,0.02787245251238346,-0.06750060599999999,-0.01863139,220.0358,-81.830826,-6.382275,STD
455838040064.0,0.772413969039917,-1.306911587715149,9.773829460144043,0.4343641400337219,0.02849283628165722,-0.06627888,-0.02076942,220.08537,-81.836075,-6.353801,STD
455856685056.0,0.7774129509925842,-1.3045706748962402,9.77387523651123,0.4369700253009796,0.0291501022875309,-0.062308256,-0.015882496,220.13022,-81.84863,-6.3169055,STD
455874674688.0,0.7824118137359619,-1.3021289110183716,9.773927688598633,0.4397573471069336,0.029805593192577362,-0.061391957,-0.005497787,220.17442000000003,-81.859604,-6.2799190000000005,STD
455892041728.0,0.7874106764793396,-1.2995902299880981,9.773985862731934,0.442739874124527,0.030461102724075317,-0.06414085,-0.008552114,220.21779,-81.87136,-6.246297,STD
455908818944.0,0.7924097180366516,-1.2969694137573242,9.774049758911133,0.44588610529899597,0.031123442575335503,-0.06078109,-0.00061086525,220.25218,-81.89029000000002,-6.203867400000001,STD
455925006336.0,0.7974085807800293,-1.2942825555801392,9.774117469787598,0.4491581320762634,0.03177614137530327,-0.062002823,-0.0015271631,220.28825,-81.90512,-6.165666000000001,STD
455940669440.0,0.8024076223373413,-1.2915740013122559,9.77420425415039,0.45255112648010254,0.03241227567195892,-0.05681047,0.0067195175,220.31186,-81.92560999999998,-6.121897,STD
455955808256.0,0.8074067234992981,-1.288901686668396,9.774331092834473,0.4560788571834564,0.033026549965143204,-0.04917465,-0.00030543262000000003,220.33511,-81.94139,-6.083901,STD
455970455552.0,0.8124057054519653,-1.2862955331802368,9.774499893188477,0.4597548544406891,0.033591728657484055,-0.057421334,-0.005192355,220.36226,-81.957375,-6.0427413,STD
455984644096.0,0.8174047470092773,-1.2837423086166382,9.774678230285645,0.463594526052475,0.03412778303027153,-0.056505036,-0.004581489,220.38425,-81.97527,-6.003552,STD
455998406656.0,0.822403609752655,-1.2812350988388062,9.774843215942383,0.467591792345047,0.03464575484395027,-0.053450707,-0.0009162979,220.40736,-81.98549,-5.969195,STD
456011743232.0,0.8274025917053223,-1.2787761688232422,9.774983406066895,0.47170665860176086,0.03513477370142937,-0.043676864,-0.009773844,220.42815,-81.9927,-5.9393616,FKL
456024653824.0,0.8324016332626343,-1.2763721942901611,9.775094032287598,0.47589871287345886,0.03559471666812897,-0.03848451,-0.01038471,220.44507,-82.00301999999998,-5.906068,FKL
456037203968.0,0.8374035358428955,-1.2740797996520996,9.775218963623047,0.48007863759994507,0.0360342338681221,-0.04184427,-0.009773844,220.46155,-82.01137,-5.8758870000000005,FKL
456049393664.0,0.8424049615859985,-1.271930456161499,9.775383949279785,0.48419028520584106,0.036433376371860504,-0.03023783,-0.014049901000000002,220.46263,-82.01961999999997,-5.847383,FKL
456061222912.0,0.8474062085151672,-1.2699275016784668,9.775602340698242,0.48821374773979187,0.03682035580277443,-0.032375857,-0.006414085,220.46828,-82.03385,-5.8157477,FKL
456072724480.0,0.8524073958396912,-1.2680615186691284,9.775880813598633,0.4921467900276184,0.03719013184309006,-0.020158553,-0.010995574,220.46696,-82.04088,-5.790394,FKL
456083898368.0,0.8574086427688599,-1.2663378715515137,9.776217460632324,0.4960305988788605,0.03753216192126274,-0.016798794,-0.01740966,220.47531,-82.049065,-5.7687254,FKL
456094777344.0,0.862409770488739,-1.2647730112075806,9.776605606079102,0.49993792176246643,0.037882182747125626,-0.017715093,-0.010079277,220.48106,-82.06175,-5.745297,FKL
456105394176.0,0.8674107193946838,-1.2633522748947144,9.777033805847168,0.5038694739341736,0.03821061551570892,-0.004581489,-0.01160644,220.47882,-82.06711,-5.725281,FKL
456115716096.0,0.8724114894866943,-1.2620304822921753,9.777484893798828,0.5077543258666992,0.03853350877761841,-0.01160644,-0.014660766,220.48253,-82.07873000000002,-5.7036877,FKL
456125775872.0,0.8774120211601257,-1.2607661485671997,9.777942657470703,0.5115388035774231,0.03888782486319542,-0.003970624,-0.010079277,220.47614,-82.085915,-5.6828556,FKL
456135606272.0,0.8824125528335571,-1.2595146894454956,9.77839183807373,0.5152649283409119,0.039263226091861725,0.011301007,-0.011301007,220.4699,-82.08913000000003,-5.665204,FKL
456145207296.0,0.8874128460884094,-1.2582377195358276,9.778813362121582,0.5189738869667053,0.039635635912418365,0.0070249503,-0.0143553335,220.4687,-82.09926999999998,-5.642828,FKL
456154578944.0,0.8924130797386169,-1.2569035291671753,9.779158592224121,0.5227330327033997,0.04000170901417732,0.0067195175,-0.012217305,220.46213,-82.11076,-5.6205387,FKL
456163721216.0,0.8974141478538513,-1.255481481552124,9.77938175201416,0.5266063809394836,0.040352385491132736,-0.00061086525,-0.016187929,220.4594,-82.11822,-5.59893,FKL
456172666880.0,0.9024150967597961,-1.2539421319961548,9.779478073120117,0.5306391716003418,0.04073944687843323,0.00580322,-0.011301007,220.45268,-82.13171,-5.575296400000001,FKL
456181415936.0,0.9074181318283081,-1.252249836921692,9.779439926147461,0.5348870158195496,0.041137199848890305,0.002443461,0.0021380284,220.45023,-82.13785,-5.548776,FKL
456190001152.0,0.9124218821525574,-1.2503818273544312,9.779260635375977,0.5393775701522827,0.041517384350299835,-0.008552114,-0.0021380284,220.44868,-82.14435999999998,-5.5266514,FKL
456198422528.0,0.9174251556396484,-1.2482880353927612,9.77888298034668,0.5440623760223389,0.04191804304718971,-0.0125227375,-0.0021380284,220.44576,-82.157196,-5.500449,FKL
456206647296.0,0.9224277138710022,-1.2459197044372559,9.778249740600586,0.5488967895507812,0.042331576347351074,-0.008552114,-0.0061086523,220.44188,-82.16167,-5.4725733,FKL
456214740992.0,0.9274299144744873,-1.2432106733322144,9.777310371398926,0.5538615584373474,0.04274332895874977,-0.007941248,0.0061086523,220.43976,-82.17121,-5.4408755,FKL
456222670848.0,0.932431697845459,-1.2400894165039062,9.776022911071777,0.5589544773101807,0.043121088296175,-0.013133603,0.007330383,220.43872,-82.175804,-5.414333999999998,FKL
456230469632.0,0.937433123588562,-1.236480474472046,9.774358749389648,0.5641874670982361,0.04344388470053673,-0.010995574,0.0143553335,220.44162000000003,-82.18592,-5.376471,FKL
456238137344.0,0.9424341320991516,-1.2323046922683716,9.772306442260742,0.5695870518684387,0.04368527606129646,-0.0067195175,0.02076942,220.44536,-82.19296999999997,-5.3395660000000005,FKL
456245673984.0,0.9474347829818726,-1.2275341749191284,9.769878387451172,0.5751418471336365,0.043872106820344925,-0.0143553335,0.029626964,220.45753,-82.20638000000002,-5.2966285000000015,FKL
456253079552.0,0.9524351358413696,-1.222185492515564,9.767108917236328,0.580808162689209,0.043971337378025055,-0.02321288,0.040317107000000005,220.4685,-82.21451,-5.252803299999999,FKL
456260354048.0,0.9574352502822876,-1.2162741422653198,9.76402473449707,0.5865541100502014,0.04397442564368248,-0.03634648,0.05772676700000001,220.49112,-82.229256,-5.198665599999999,FKL
456267530240.0,0.9624351263046265,-1.2098108530044556,9.760627746582031,0.5923808813095093,0.04386444389820099,-0.029932396,0.05009095,220.51068,-82.23725999999998,-5.1505218,FKL
456274575360.0,0.967434823513031,-1.202808141708374,9.75692367553711,0.598287045955658,0.04361266642808914,-0.04642576,0.061086524,220.54204,-82.253265,-5.0921288,FKL
456281522176.0,0.9724344611167908,-1.1952943801879883,9.752943992614746,0.6042476296424866,0.043208494782447815,-0.03634648,0.06811147,220.56377,-82.26574000000002,-5.039618,FKL
456288370688.0,0.9774340391159058,-1.187296748161316,9.7487154006958,0.6102399826049805,0.04262811690568924,-0.04184427,0.07452556,220.5983,-82.27591,-4.9822044000000005,FKL
456295153664.0,0.9824334979057312,-1.1789335012435913,9.744241714477539,0.616243839263916,0.041885387152433395,-0.06536258,0.08368854,220.63414,-82.28815999999998,-4.92351,FKL
456301838336.0,0.9874326586723328,-1.1703358888626099,9.739518165588379,0.6222409605979919,0.040979307144880295,-0.06750060599999999,0.08735373,220.6647,-82.29602,-4.866760299999998,FKL
456308457472.0,0.9924318194389343,-1.1615872383117676,9.734519004821777,0.6282267570495605,0.0399320013821125,-0.08552113,0.09468412,220.70595,-82.31145500000002,-4.8103932999999985,FKL
456314978304.0,0.997430682182312,-1.1527550220489502,9.729220390319824,0.634198784828186,0.03873593732714653,-0.09590584,0.09773844,220.74483,-82.322754,-4.755888,FKL
456321433600.0,1.0024296045303345,-1.143922209739685,9.72354507446289,0.640166163444519,0.03738131746649742,-0.106901415,0.11301007,220.78038,-82.335045,-4.698151,FKL
456327823360.0,1.0074284076690674,-1.135165810585022,9.717418670654297,0.6461383104324341,0.03585200756788254,-0.119729586,0.10873401,220.81917,-82.34158000000002,-4.6462374,FKL
456334147584.0,1.0124272108078003,-1.1265145540237427,9.710728645324707,0.6520827412605286,0.03416353464126587,-0.124311075,0.119729586,220.85597,-82.350746,-4.5892534000000005,FKL
456340406272.0,1.0174258947372437,-1.1179821491241455,9.703367233276367,0.6579588651657104,0.03229990601539612,-0.13836098,0.129198,220.89844,-82.353424,-4.5346913,FKL
456346599424.0,1.022424578666687,-1.1095603704452515,9.69527530670166,0.6637603044509888,0.03023773990571499,-0.13744467,0.14049901,220.93675,-82.35186,-4.485825,FKL
456352727040.0,1.02742338180542,-1.1012341976165771,9.686415672302246,0.6694920063018799,0.027963589876890182,-0.13683382,0.14202617,220.9782,-82.34785500000002,-4.437917,FKL
456358789120.0,1.0324221849441528,-1.0929311513900757,9.676828384399414,0.6751781105995178,0.025437375530600548,-0.14905111,0.1563815,221.01927,-82.34183,-4.384009,FKL
456364818432.0,1.0374208688735962,-1.0845648050308228,9.666576385498047,0.6808475852012634,0.022664664313197136,-0.14813483,0.1685988,221.05553,-82.33584599999998,-4.3320947,FKL
456370782208.0,1.04241943359375,-1.0761268138885498,9.65561580657959,0.6865219473838806,0.01965288072824478,-0.15241088,0.17318029999999998,221.09428,-82.32635,-4.2814865,FKL
456376713216.0,1.0474179983139038,-1.0676372051239014,9.64387035369873,0.6922184228897095,0.01640154980123043,-0.122478485,0.17745635,221.12177000000003,-82.31593000000002,-4.2300825,FKL
456382578688.0,1.052416443824768,-1.0590201616287231,9.631278991699219,0.6979630589485168,0.012847600504755974,-0.14202617,0.18448131,221.16689,-82.30117,-4.172121,FKL
456388411392.0,1.0574150085449219,-1.0499943494796753,9.617799758911133,0.7038038969039917,0.008974402211606503,-0.15943582,0.22052236,221.20105,-82.29196999999998,-4.107315,FKL
456394211328.0,1.0624135732650757,-1.04038405418396,9.603442192077637,0.709752082824707,0.004832148551940918,-0.16310102,0.24220806,221.23488,-82.27503,-4.0460650000000005,FKL
456399945728.0,1.06741201877594,-1.0301660299301147,9.588301658630371,0.7157549262046814,0.0004778660659212619,-0.16279559,0.25045475,221.27087000000003,-82.25765,-3.9798856,FKL
456405647360.0,1.0724104642868042,-1.019341230392456,9.572441101074219,0.72175532579422,-0.0040974547155201435,-0.16279559,0.26389378,221.31429,-82.24534,-3.8895624,FKL
456411316224.0,1.0774091482162476,-1.0080699920654297,9.555739402770996,0.7276298403739929,-0.008918609470129013,-0.14966199,0.29260445,221.35216,-82.235794,-3.7954752,FKL
456416952320.0,1.08240807056427,-0.996498703956604,9.538103103637695,0.7332638502120972,-0.013990643434226513,-0.129198,0.29840767,221.38914,-82.229675,-3.7012854,FKL
456422555648.0,1.0874073505401611,-0.9847970604896545,9.519551277160645,0.7384655475616455,-0.01934078522026539,-0.12614368,0.3115413,221.42543,-82.22029,-3.599527,FKL
456428126208.0,1.0924065113067627,-0.9731124043464661,9.50011157989502,0.7430739998817444,-0.024974433705210686,-0.11911872,0.32192600000000005,221.4555,-82.20909,-3.5060127,FKL
456433664000.0,1.0974056720733643,-0.961611807346344,9.479778289794922,0.746992290019989,-0.030871331691741943,-0.09132435,0.33750305,221.47758,-82.195854,-3.4108198,FKL
456439201792.0,1.102405071258545,-0.9504833221435547,9.458515167236328,0.7502061724662781,-0.037058550864458084,-0.093767814,0.35643986,221.50525,-82.17518000000003,-3.3136606,FKL
456444706816.0,1.107404351234436,-0.9398633241653442,9.436299324035645,0.7527076601982117,-0.04353784769773483,-0.08246681,0.36377025,221.52167000000003,-82.16111,-3.2235844,FKL
456450179072.0,1.1124036312103271,-0.9297919273376465,9.413104057312012,0.7544884085655212,-0.05027006193995476,-0.07422013,0.36132678,221.53905,-82.14492,-3.133454,FKL
456455618560.0,1.1174037456512451,-0.9203015565872192,9.388900756835938,0.7555444836616516,-0.057274021208286285,-0.07544186,0.3811799,221.55371,-82.114456,-3.0460799,FKL
456461058048.0,1.122403860092163,-0.9113683700561523,9.363680839538574,0.7559289932250977,-0.06454068422317505,-0.06627888,0.39858958,221.56299,-82.08479,-2.9632354,FKL
456466464768.0,1.1274038553237915,-0.902970016002655,9.337430953979492,0.7556903958320618,-0.07204123586416245,-0.05467244,0.40561453,221.56593,-82.05263000000002,-2.8805240000000003,FKL
456471871488.0,1.1324042081832886,-0.8949750661849976,9.30998706817627,0.7547886967658997,-0.0798133909702301,-0.05222898,0.42546764,221.5677,-82.01387,-2.7918684,FKL
456477245440.0,1.1374045610427856,-0.8870909810066223,9.280991554260254,0.7530590891838074,-0.08789537847042084,-0.05100725,0.4343252,221.56671,-81.97234,-2.7073827,FKL
456482586624.0,1.1424046754837036,-0.8790847063064575,9.250166893005371,0.7504115700721741,-0.09627459943294525,-0.04795292,0.44776422,221.56342,-81.923615,-2.6142702,FKL
456487927808.0,1.147404670715332,-0.8708709478378296,9.217437744140625,0.7469859719276428,-0.10491811484098434,-0.028710667,0.47983465,221.5541,-81.871124,-2.5169623,FKL
456493236224.0,1.1524046659469604,-0.8623730540275574,9.1827392578125,0.7429102063179016,-0.11385809630155563,0.0018325958,0.5027421,221.5521,-81.82373,-2.3974025,FKL
456498544640.0,1.1574044227600098,-0.8534425497055054,9.145960807800293,0.7383560538291931,-0.12311473488807678,0.013744468,0.5207626000000001,221.54907000000003,-81.77665999999998,-2.2736275000000004,FKL
456503820288.0,1.162404179573059,-0.8437163233757019,9.106815338134766,0.7336336970329285,-0.13268354535102844,0.0070249503,0.5381723,221.54211,-81.72474,-2.1476192000000003,FKL
456509095936.0,1.167404294013977,-0.8328450918197632,9.065037727355957,0.7289946675300598,-0.14258995652198792,0.028405234,0.56138515,221.52496,-81.656975,-2.0078034,FKL
456514338816.0,1.172404408454895,-0.8203635215759277,9.020381927490234,0.7243428826332092,-0.15286798775196075,0.056505036,0.59498274,221.50702,-81.583885,-1.8642429,FKL
456519581696.0,1.1774042844772339,-0.8058483004570007,8.972624778747559,0.7195904850959778,-0.16351233422756195,0.07238753,0.61941737,221.49779,-81.496216,-1.7035292000000002,FKL
456524824576.0,1.1824040412902832,-0.7891824841499329,8.921928405761719,0.7147109508514404,-0.17449988424777985,0.12217305,0.64934975,221.46977,-81.4024,-1.5394449,FKL
456530034688.0,1.187403917312622,-0.7703856825828552,8.868610382080078,0.7097049355506897,-0.18581846356391907,0.14110987,0.68477994,221.44525,-81.30249,-1.3715389,FKL
456535244800.0,1.1924035549163818,-0.7496649622917175,8.812960624694824,0.7045966982841492,-0.19745537638664246,0.18875736,0.70616025,221.41714,-81.21385,-1.1561818,FKL
456540454912.0,1.197403073310852,-0.7273248434066772,8.755241394042969,0.6994228363037109,-0.2093861848115921,0.24037547,0.7483099,221.38136,-81.12084,-0.93228334,FKL
456545632256.0,1.2024024724960327,-0.7036789059638977,8.695677757263184,0.6942429542541504,-0.22161155939102173,0.28771752,0.79779,221.34048,-81.01658,-0.68402725,FKL
456550809600.0,1.2074018716812134,-0.6791346073150635,8.63442611694336,0.6892004609107971,-0.23412521183490753,0.34330627,0.83291477,221.28317,-80.90623000000002,-0.43750516,FKL
456555986944.0,1.212401270866394,-0.6540770530700684,8.57164478302002,0.6844289302825928,-0.24697273969650269,0.3839288,0.8723155999999999,221.21022,-80.76945500000002,-0.17849703,FKL
456561164288.0,1.2174005508422852,-0.6290975213050842,8.507576942443848,0.680140495300293,-0.26019665598869324,0.41080686,0.90469146,221.12665,-80.624115,0.07861889999999999,FKL
456566308864.0,1.2224005460739136,-0.6047308444976807,8.4424409866333,0.6765764951705933,-0.2738417983055115,0.42730024,0.93187493,221.0287,-80.43855,0.3253987,FKL
456571453440.0,1.227400541305542,-0.5812190771102905,8.376456260681152,0.6742489337921143,-0.2879861891269684,0.4392121,0.95233893,220.92567000000003,-80.23731,0.5698946999999999,FKL
456576598016.0,1.2324031591415405,-0.5588381290435791,8.30980396270752,0.6737629175186157,-0.3027026653289795,0.4175264,0.9630291,220.80751,-79.991936,0.78373903,FKL
456581742592.0,1.23740553855896,-0.537800669670105,8.242695808410645,0.6755179166793823,-0.3180384337902069,0.44684792,0.97005403,220.67282000000003,-79.735176,0.99065715,FKL
456586887168.0,1.2424074411392212,-0.5184751749038696,8.175348281860352,0.6801839470863342,-0.33414071798324585,0.453262,0.9761627,220.55199,-79.45522,1.1940103000000002,FKL
456591998976.0,1.2474089860916138,-0.5011864304542542,8.107954025268555,0.6883520483970642,-0.3510248064994812,0.44715336,0.95417154,220.39777,-79.11418,1.3462396,FKL
456597110784.0,1.2524104118347168,-0.4857763946056366,8.041199684143066,0.7002939581871033,-0.3687446415424347,0.42913285,0.9294315,220.2461,-78.75168000000002,1.4910618999999998,FKL
456602222592.0,1.2574114799499512,-0.4720490872859955,7.975735187530518,0.7161893248558044,-0.3873835504055023,0.34483343,0.9101892,220.1167,-78.38094,1.6270571000000005,FKL
456607334400.0,1.2624125480651855,-0.45964059233665466,7.9120097160339355,0.7362861633300781,-0.407015323638916,0.28863382,0.9257663,219.9291,-77.908264,1.7153661,FKL
456612446208.0,1.2674133777618408,-0.4480650722980499,7.850280284881592,0.7608457803726196,-0.42777958512306213,0.27672195,0.91232723,219.75583,-77.41861999999998,1.7854373,FKL
456617558016.0,1.2724140882492065,-0.4366978704929352,7.790859699249268,0.7898244261741638,-0.44973498582839966,0.24740042,0.90010995,219.58319,-76.87245,1.8602706,FKL
456622637056.0,1.2774146795272827,-0.4248678386211395,7.73407506942749,0.8230108618736267,-0.47283434867858887,0.2284636,0.8949176,219.4118,-76.31851,1.9273797,FKL
456627716096.0,1.2824150323867798,-0.4119710326194763,7.680206775665283,0.860163152217865,-0.49702614545822144,0.24007004,0.8940013000000001,219.22699,-75.70106,2.0138366000000003,FKL
456632795136.0,1.2874152660369873,-0.39738741517066956,7.629517555236816,0.9009349346160889,-0.5222072601318359,0.24037547,0.8918633,219.0517,-75.08796,2.0953794,FKL
456637874176.0,1.2924152612686157,-0.3806275725364685,7.582181930541992,0.9449068903923035,-0.548227846622467,0.23090707,0.8866709,218.88425,-74.46608,2.2346344,FKL
456642953216.0,1.2974152565002441,-0.3613578677177429,7.538247108459473,0.9914486408233643,-0.5748973488807678,0.2312125,0.8793405000000001,218.71503,-73.85398,2.36723,FKL
456648032256.0,1.3024152517318726,-0.33930742740631104,7.497719764709473,1.039974570274353,-0.6020190119743347,0.2125811,0.85918194,218.56976,-73.25194499999998,2.5532815,FKL
456653111296.0,1.3074151277542114,-0.31448811292648315,7.460309028625488,1.0898016691207886,-0.6293647289276123,0.20769419,0.84116143,218.42145,-72.66925,2.731965,FKL
456658190336.0,1.3124152421951294,-0.28690052032470703,7.425741672515869,1.1402963399887085,-0.656726062297821,0.2003638,0.81153446,218.3034,-72.12213,2.9600337000000003,FKL
456663236608.0,1.3174153566360474,-0.2565792202949524,7.393944263458252,1.19075608253479,-0.6839282512664795,0.1957823,0.79045963,218.18675,-71.59428,3.180242,FKL
456668282880.0,1.3224153518676758,-0.22355808317661285,7.364985942840576,1.2404158115386963,-0.7107943296432495,0.19608775,0.7666359,218.07367,-71.09043,3.3865314,FKL
456673329152.0,1.3274152278900146,-0.18799060583114624,7.338992595672607,1.2885154485702515,-0.7371839284896851,0.18906279,0.75533485,217.98132,-70.62601,3.6364207,FKL
456678375424.0,1.332414984703064,-0.1504851132631302,7.316359996795654,1.3340634107589722,-0.7630004286766052,0.16432275,0.7357872,217.89655,-70.18030999999999,3.8732636,FKL
456683421696.0,1.3374145030975342,-0.11159374564886093,7.297438144683838,1.376172423362732,-0.7881267070770264,0.13439035,0.7113526,217.84277000000003,-69.80842,4.150809,FKL
456688467968.0,1.3424139022827148,-0.0718492642045021,7.282371997833252,1.415016770362854,-0.8124745488166809,0.09285152,0.68325275,217.80109,-69.45025,4.4183154,FKL
456693514240.0,1.3474130630493164,-0.031742215156555176,7.271226406097412,1.4510897397994995,-0.8359306454658508,0.024129177,0.6591236,217.77686,-69.11381999999999,4.678967,FKL
456698560512.0,1.352412462234497,0.008328594267368317,7.2644758224487305,1.4850802421569824,-0.858322262763977,-0.052839845,0.6084218000000001,217.80046,-68.92591999999999,4.908324,FKL
456703606784.0,1.3574119806289673,0.04806400090456009,7.2628865242004395,1.5178065299987793,-0.8794568181037903,-0.14813483,0.57879484,217.84866,-68.75878,5.1382656,FKL
456708653056.0,1.3624117374420166,0.0871950089931488,7.267142295837402,1.5500121116638184,-0.8991548418998718,-0.22357668,0.5488624,217.9029,-68.600365,5.3316903,FKL
456713699328.0,1.3674113750457764,0.12548759579658508,7.277804851531982,1.5823452472686768,-0.9172621965408325,-0.29779682,0.52778757,217.9845,-68.4704,5.523197,FKL
456718745600.0,1.3724113702774048,0.1627243161201477,7.295424461364746,1.6154237985610962,-0.9337198734283447,-0.33628133,0.5186246,218.07814,-68.36169,5.7086415,FKL
456723791872.0,1.3774112462997437,0.19876651465892792,7.320316314697266,1.6495566368103027,-0.9484397768974304,-0.3100141,0.4981606,218.17688,-68.28535500000001,5.881515,FKL
456728805376.0,1.382411241531372,0.23356591165065765,7.35261869430542,1.6846630573272705,-0.9613868594169617,-0.2959642,0.46609017,218.25159,-68.17466,5.9863253,FKL
456733818880.0,1.3874109983444214,0.2670835554599762,7.39222526550293,1.720758318901062,-0.9725174307823181,-0.2510656,0.44501534,218.31049,-68.08921,6.079972,FKL
456738832384.0,1.3924109935760498,0.2992831766605377,7.438747406005859,1.758020043373108,-0.981910228729248,-0.19425514,0.41263947,218.36546,-68.01458000000001,6.156992,FKL
456743845888.0,1.3974109888076782,0.33002957701683044,7.491666793823242,1.7965720891952515,-0.9895402193069458,-0.13988814,0.3753767,218.4122,-67.957886,6.228241400000001,FKL
456748859392.0,1.402410864830017,0.35834386944770813,7.549546241760254,1.8364430665969849,-0.995381236076355,-0.13225232,0.33078352,218.45932,-67.91342,6.2860293,FKL
456753872896.0,1.4074108600616455,0.38333597779273987,7.611072063446045,1.877659797668457,-0.9994235634803772,-0.11453723,0.3371976,218.4731,-67.85706,6.3396125,FKL
456758886400.0,1.4124106168746948,0.4054598808288574,7.675417900085449,1.92001211643219,-1.001807689666748,-0.03176499,0.27947086,218.47803,-67.81437,6.3555975,FKL
456763899904.0,1.417410135269165,0.42559680342674255,7.741959571838379,1.9632246494293213,-1.0026718378067017,-0.01740966,0.2666427,218.49086,-67.78359,6.3895397,FKL
456768913408.0,1.4224094152450562,0.4444926083087921,7.809950351715088,2.0069992542266846,-1.001931071281433,-0.0030543262,0.23365596,218.4451,-67.715614,6.3310437,FKL
456773926912.0,1.4274088144302368,0.4627702832221985,7.878556728363037,2.051023483276367,-0.9995631575584412,0.008246681,0.21960606,218.39621,-67.64741,6.274856,FKL
456778940416.0,1.4324082136154175,0.48078638315200806,7.946823596954346,2.09504771232605,-0.9955943822860718,-0.0021380284,0.21471913,218.36758,-67.5843,6.271904,FKL
456783953920.0,1.4374074935913086,0.4987475574016571,8.013777732849121,2.1388654708862305,-0.9900885224342346,-0.0125227375,0.22602014,218.33609,-67.537605,6.26846,FKL
456788967424.0,1.4424066543579102,0.5167451500892639,8.078611373901367,2.1823365688323975,-0.9832006692886353,-0.008246681,0.22785273,218.31589,-67.48031999999999,6.305665,FKL
456793980928.0,1.4474058151245117,0.5348060727119446,8.140647888183594,2.2253618240356445,-0.9751163721084595,-0.005497787,0.23915374,218.29703,-67.4296,6.348083,FKL
456798994432.0,1.4524050951004028,0.5529701113700867,8.199324607849121,2.268047571182251,-0.9659792184829712,-0.0070249503,0.27275133,218.28003,-67.35477,6.4202595,FKL
456804007936.0,1.4574042558670044,0.5713017582893372,8.254253387451172,2.3108913898468018,-0.9559521079063416,-0.0421497,0.34269542,218.26662,-67.273125,6.5059843,FKL
456809021440.0,1.462403416633606,0.5898740887641907,8.304993629455566,2.3543174266815186,-0.9452461004257202,-0.09132435,0.3555236,218.2536,-67.15717,6.6048,FKL
456814034944.0,1.4674025774002075,0.6088048815727234,8.350796699523926,2.398569345474243,-0.933991551399231,-0.11759156,0.35643986,218.23837000000003,-67.04326,6.7164416,FKL
456819048448.0,1.4724026918411255,0.628233790397644,8.390995025634766,2.443910598754883,-0.9222226142883301,-0.11453723,0.3484986,218.21391,-66.883965,6.831041,FKL
456824061952.0,1.4774028062820435,0.6486552357673645,8.426398277282715,2.490811586380005,-0.9099472165107727,-0.11728613,0.36651915,218.19536,-66.726875,6.9525046,FKL
456829075456.0,1.482403039932251,0.6705558896064758,8.457772254943848,2.5397446155548096,-0.8971356153488159,-0.106595986,0.38545597,218.16344,-66.52702,7.0797789999999985,FKL
456834088960.0,1.487403154373169,0.6942841410636902,8.485806465148926,2.59100604057312,-0.8838112950325012,-0.06383542,0.38820487,218.12363,-66.33458,7.2011023000000005,FKL
456839102464.0,1.492403268814087,0.7199056148529053,8.511125564575195,2.6444969177246094,-0.8700635433197021,-0.031154128,0.40866885,218.07986,-66.14806999999999,7.328690499999999,FKL
456844115968.0,1.4974031448364258,0.7474664449691772,8.534287452697754,2.70011568069458,-0.8559918403625488,0.02687807,0.42119157,218.01624,-65.92723000000001,7.4838429999999985,FKL
456849129472.0,1.502402901649475,0.7768845558166504,8.55568790435791,2.757721424102783,-0.8416749835014343,0.100792766,0.43218717,217.9379,-65.709885,7.634912,FKL
456854142976.0,1.5074024200439453,0.808053731918335,8.575657844543457,2.817166566848755,-0.8271833658218384,0.18051068,0.44012842,217.8421,-65.49426,7.7775693,FKL
456859156480.0,1.5124019384384155,0.840770959854126,8.594503402709961,2.8782336711883545,-0.8125554919242859,0.23945917,0.42485678,217.737,-65.26736,7.930559,FKL
456864169984.0,1.5174013376235962,0.874822199344635,8.61249828338623,2.940699338912964,-0.7978730201721191,0.28283059999999993,0.4147775,217.61446,-65.038925,8.0753565,FKL
456869183488.0,1.5224006175994873,0.909973680973053,8.629854202270508,3.0043234825134277,-0.78321373462677,0.31520647,0.3930918,217.48813,-64.80738000000001,8.210433,FKL
456874196992.0,1.5273997783660889,0.9459998607635498,8.646751403808594,3.0688748359680176,-0.7686506509780884,0.33353242,0.37690386,217.35599,-64.578224,8.336843,FKL
456879210496.0,1.5323988199234009,0.9827007055282593,8.663291931152344,3.134155750274658,-0.7542238235473633,0.34391713,0.35308012,217.22061,-64.34607,8.45477,FKL
456884224000.0,1.537398338317871,1.019901990890503,8.67948055267334,3.200007915496826,-0.7399471402168274,0.33933565,0.33841935,217.08688,-64.118774,8.566510000000001,FKL
456889237504.0,1.5423977375030518,1.057435154914856,8.695181846618652,3.2662158012390137,-0.7258272767066956,0.30695978,0.31031954,216.96225,-63.89200200000001,8.669628999999999,FKL
456894251008.0,1.5473971366882324,1.095136046409607,8.710124015808105,3.33251953125,-0.7118481993675232,0.26542094,0.28619036,216.84435,-63.675243,8.76789,FKL
456899264512.0,1.5523966550827026,1.1328643560409546,8.723980903625488,3.3986992835998535,-0.6979673504829407,0.22449298,0.27366763,216.73589,-63.460632,8.864181,FKL
456904278016.0,1.5573997497558594,1.170556664466858,8.73556900024414,3.4646732807159424,-0.6841098666191101,0.19272798,0.25625798,216.64105,-63.261684,8.953574,FKL
456909291520.0,1.5624041557312012,1.2081420421600342,8.744247436523438,3.5303256511688232,-0.6702545285224915,0.15118915,0.23793201,216.55988,-63.05844,9.047204,FKL
456914305024.0,1.5674079656600952,1.2455552816390991,8.750009536743164,3.5953102111816406,-0.6563372611999512,0.122783914,0.22357668,216.48653,-62.87571,9.136671,FKL
456919318528.0,1.5724111795425415,1.2827423810958862,8.752820014953613,3.6592934131622314,-0.6423710584640503,0.10293079,0.20952678,216.41219,-62.671635,9.229549,FKL
456924332032.0,1.5774139165878296,1.3196758031845093,8.752837181091309,3.722071409225464,-0.6283572316169739,0.110872045,0.20647246,216.33937000000003,-62.482674,9.319273,FKL
456929345536.0,1.5824161767959595,1.3563436269760132,8.750351905822754,3.7835373878479004,-0.6142798662185669,0.12461651,0.20555615,216.27258,-62.303596,9.405414,FKL
456934359040.0,1.5874180793762207,1.3926911354064941,8.745668411254883,3.84369158744812,-0.6001611948013306,0.14813483,0.19914207,216.20816,-62.122784,9.496258,FKL
456939339776.0,1.5924195051193237,1.4286344051361084,8.73909854888916,3.9026107788085938,-0.586021363735199,0.1685988,0.1966986,216.14142,-61.951088,9.584108,FKL
456944353280.0,1.597420573234558,1.4641002416610718,8.730915069580078,3.9603912830352783,-0.5718550086021423,0.20463985,0.19333886,216.06516,-61.784615,9.672133,FKL
456949366784.0,1.6024214029312134,1.499024748802185,8.721358299255371,4.017138481140137,-0.5576843023300171,0.26572640000000003,0.19761491,215.97743,-61.62096,9.753113,FKL
456954380288.0,1.6074219942092896,1.533339023590088,8.710600852966309,4.072774887084961,-0.5435585975646973,0.28527406,0.18661933,215.89145,-61.45781,9.827581,FKL
456959393792.0,1.6124225854873657,1.5669660568237305,8.698740005493164,4.127013683319092,-0.529453456401825,0.29901853,0.16371189,215.79353,-61.30734,9.890641,FKL
456964374528.0,1.6174228191375732,1.5997967720031738,8.685821533203125,4.17971658706665,-0.515346109867096,0.29352075,0.14996742,215.69177,-61.15065799999999,9.950755,FKL
456969388032.0,1.6224228143692017,1.6316924095153809,8.671839714050293,4.230858325958252,-0.5011537075042725,0.28985557,0.13164146,215.59116,-61.011864,9.999787,FKL
456974401536.0,1.6274263858795166,1.662508487701416,8.656733512878418,4.280450820922852,-0.48684120178222656,0.28008172,0.09590584,215.5014,-60.88704,10.043939,FKL
456979415040.0,1.6324297189712524,1.6921886205673218,8.640508651733398,4.328558444976807,-0.4723341763019562,0.2434298,0.077579886,215.42108,-60.7808,10.090128,FKL
456984428544.0,1.6374324560165405,1.7206635475158691,8.623130798339844,4.3752546310424805,-0.45763418078422546,0.19700404,0.052839845,215.34871,-60.673756,10.123917,FKL
456989442048.0,1.6424347162246704,1.7477847337722778,8.604490280151367,4.42056941986084,-0.4427335858345032,0.17287487,0.01985312,215.28482,-60.584663,10.151579,FKL
456994422784.0,1.647436499595642,1.7732455730438232,8.584332466125488,4.464450359344482,-0.4276096522808075,0.12034045,-0.008246681,215.24385,-60.50688,10.183074,FKL
456999403520.0,1.6524379253387451,1.7967740297317505,8.562433242797852,4.5068535804748535,-0.4122799038887024,0.07666359,-0.051923547,215.20097,-60.4282,10.199269,FKL
457004384256.0,1.6574389934539795,1.8182698488235474,8.538862228393555,4.547391891479492,-0.3967762589454651,0.028099801,-0.08032878,215.17526,-60.35923,10.219217,FKL
457009397760.0,1.6624401807785034,1.8376657962799072,8.513714790344238,4.585667133331299,-0.38115042448043823,-0.008857545999999999,-0.112704635,215.16472,-60.299152,10.230991,FKL
457014378496.0,1.6674408912658691,1.8550304174423218,8.487151145935059,4.621333599090576,-0.3654472827911377,-0.029932396,-0.1386664,215.1552,-60.23812,10.220303,FKL
457019359232.0,1.6724412441253662,1.8704272508621216,8.459318161010742,4.654071807861328,-0.3497159779071808,-0.028405234,-0.16920967,215.15443,-60.19259,10.201758,FKL
457024372736.0,1.6774413585662842,1.8838587999343872,8.430404663085938,4.683565139770508,-0.3340344727039337,-0.025350908,-0.18936823,215.16052,-60.14771700000001,10.182259,FKL
457029386240.0,1.6824414730072021,1.8952856063842773,8.400623321533203,4.70950984954834,-0.31841179728507996,0.0021380284,-0.19853121,215.16225,-60.111877,10.154839,FKL
457034399744.0,1.687441349029541,1.9046810865402222,8.370168685913086,4.731651306152344,-0.3028818666934967,0.03359759,-0.22113322,215.17273,-60.09652,10.123195,FKL
457039380480.0,1.6924411058425903,1.9118125438690186,8.339350700378418,4.749347686767578,-0.28746703267097473,0.07269296,-0.23457226,215.17372000000003,-60.085194,10.087421,FKL
457044361216.0,1.6974406242370605,1.9164118766784668,8.308488845825195,4.761906623840332,-0.27222946286201477,0.105374254,-0.26542094,215.17339,-60.07455,10.038985,FKL
457049374720.0,1.7024401426315308,1.918341040611267,8.277826309204102,4.768887042999268,-0.25715938210487366,0.14019357,-0.28160888,215.16312,-60.095913,9.990079,FKL
457054388224.0,1.707439661026001,1.9176372289657593,8.24750804901123,4.770183563232422,-0.24226397275924683,0.17379116,-0.29626966,215.14851,-60.115307,9.930592,FKL
457059401728.0,1.7124391794204712,1.9143341779708862,8.217681884765625,4.765707015991211,-0.2275405377149582,0.20280726,-0.31184670000000003,215.1491,-60.209934,9.843289,FKL
457064382464.0,1.7174385786056519,1.908447504043579,8.188525199890137,4.755350589752197,-0.21296794712543488,0.21777347,-0.32650748,215.146,-60.306423,9.75207,FKL
457069395968.0,1.7224383354187012,1.8999751806259155,8.160196304321289,4.739002704620361,-0.19852422177791595,0.21105394,-0.35277468,215.15198,-60.442028,9.649408,FKL
457074376704.0,1.727437973022461,1.8888394832611084,8.132772445678711,4.716662883758545,-0.18420839309692383,0.20097467,-0.36560285,215.15454,-60.57681,9.547145,FKL
457079390208.0,1.7324374914169312,1.8749624490737915,8.1063232421875,4.688320159912109,-0.1699758619070053,0.17959438,-0.37232238,215.18007000000003,-60.76331999999999,9.433725,FKL
457084370944.0,1.7374367713928223,1.8582003116607666,8.080972671508789,4.6538987159729,-0.1558028757572174,0.16462818,-0.3912592,215.20903,-60.949795,9.316745,FKL
457089351680.0,1.7424358129501343,1.8383435010910034,8.056893348693848,4.613255023956299,-0.14164283871650696,0.13530666,-0.4083634,215.24684,-61.14222,9.205577,FKL
457094365184.0,1.7474347352981567,1.8151930570602417,8.034281730651855,4.566256046295166,-0.12742358446121216,0.09865474,-0.42149702,215.30136,-61.3926,9.073726,FKL
457099378688.0,1.7524335384368896,1.7885483503341675,8.013392448425293,4.51276969909668,-0.11305025219917297,0.06169739,-0.44012842,215.36517,-61.65172,8.942185,FKL
457104392192.0,1.7574323415756226,1.758196234703064,7.994488716125488,4.452747344970703,-0.09843477606773376,0.034513887,-0.4550946,215.44559,-61.97653199999999,8.7852955,FKL
457109372928.0,1.7624309062957764,1.7237573862075806,7.977977752685547,4.386338233947754,-0.08348243683576584,0.00580322,-0.4709771,215.5367,-62.31391,8.630303999999999,FKL
457114353664.0,1.7674293518066406,1.6848984956741333,7.964221000671387,4.313690185546875,-0.06811277568340302,-0.03268129,-0.49602258,215.64731,-62.728764,8.443375,FKL
457119367168.0,1.7724277973175049,1.6416778564453125,7.953118324279785,4.23541259765625,-0.05228869244456291,-0.06505715,-0.52687126,215.76416,-63.15285,8.255334,FKL
457124380672.0,1.7774266004562378,1.594325065612793,7.9443745613098145,4.152286529541016,-0.03596781566739082,-0.08093964,-0.5540548000000001,215.88693,-63.589634,8.066262,FKL
457129394176.0,1.7824255228042603,1.5432119369506836,7.937577247619629,4.0650835037231445,-0.019117916002869606,-0.09285152,-0.5681046999999999,216.01994,-64.103615,7.815492999999999,FKL
457134374912.0,1.7874243259429932,1.488804817199707,7.932232856750488,3.9745545387268066,-0.001751517876982689,-0.12614368,-0.6047566,216.16545,-64.62445,7.558353,FKL
457139355648.0,1.7924230098724365,1.4315729141235352,7.927860736846924,3.8814024925231934,0.016182012856006622,-0.13347405,-0.6264423000000001,216.29709,-65.16095,7.277611999999999,FKL
457144369152.0,1.7974215745925903,1.37213933467865,7.923850059509277,3.7863609790802,0.03472471237182617,-0.14294247,-0.6575964,216.4399,-65.70241,6.9915967000000006,FKL
457149382656.0,1.8024282455444336,1.3111629486083984,7.919358730316162,3.6902036666870117,0.05395589396357536,-0.13561209,-0.70280045,216.57428,-66.24675,6.6918993,FKL
457154396160.0,1.80743408203125,1.248814344406128,7.913748741149902,3.593949794769287,0.07401496171951294,-0.12034045,-0.72295904,216.70605,-66.80485,6.3937917,FKL
457159409664.0,1.812439203262329,1.1850115060806274,7.905491352081299,3.499391555786133,0.09485707432031631,-0.096516706,-0.7654141999999999,216.83723,-67.36227,6.079425,FKL
457164423168.0,1.81744384765625,1.1196353435516357,7.893399715423584,3.4084722995758057,0.1164294183254242,-0.014966198,-0.8145888000000001,216.94398,-67.90507,5.7679730000000005,FKL
457169436672.0,1.8224478960037231,1.0525397062301636,7.876680374145508,3.3232643604278564,0.1384466290473938,0.0720821,-0.88453287,217.04578,-68.4298,5.440551,FKL
457174417408.0,1.8274509906768799,0.9840877056121826,7.855268955230713,3.245011329650879,0.16022229194641113,0.13927728,-0.8888089,217.07365,-68.7936,5.0807400000000005,FKL
457179398144.0,1.8324532508850098,0.9178944826126099,7.833227634429932,3.171199321746826,0.18054160475730896,0.3943135,-0.68844515,217.01149,-69.0642,4.734916,FKL
457184378880.0,1.8374547958374023,0.856748640537262,7.815591335296631,3.101194143295288,0.19809265434741974,0.21227567,-0.4792238,216.96481,-69.02396999999999,4.4095416,FKL
457189359616.0,1.8424556255340576,0.8025197982788086,7.809427738189697,3.037139415740967,0.21206748485565186,-0.6411031,0.06750060599999999,216.97441,-68.86391400000001,4.2755632000000015,FKL
457194340352.0,1.847455620765686,0.7571293711662292,7.820734024047852,2.9819037914276123,0.2207779735326767,-1.7159204,0.4343252,217.2141,-68.65804,4.375981,FKL
457199321088.0,1.8524551391601562,0.7251202464103699,7.852499008178711,2.9478468894958496,0.22118893265724182,-1.1829406,1.3243558000000002,217.13933,-68.136505,4.6850595,FKL
457204301824.0,1.8574540615081787,0.7071926593780518,7.906364917755127,2.9410226345062256,0.21082568168640137,0.07147124,1.6716328,217.22768,-67.44516999999999,5.126456299999999,FKL
457209282560.0,1.862452507019043,0.6973166465759277,7.98193359375,2.957141876220703,0.19134724140167236,0.3472769,0.8927795000000001,217.45969,-66.82328000000001,5.528851,FKL
457214263296.0,1.8674505949020386,0.6883262395858765,8.078514099121094,2.987659215927124,0.16463333368301392,0.24190263,0.14996742,217.33417000000003,-65.43271999999999,6.0948653,FKL
457219244032.0,1.872448205947876,0.6685649156570435,8.194645881652832,3.011078119277954,0.13371556997299194,0.05467244,-0.204029,217.1994,-64.326355,6.4952407,FKL
457224257536.0,1.8774456977844238,0.6291744709014893,8.32758617401123,3.0091207027435303,0.10125793516635895,-0.4111123,-0.35643986,217.16797000000003,-63.48199,6.5460577,FKL
457229271040.0,1.8824450969696045,0.5739173293113708,8.464134216308594,2.9721858501434326,0.07202664017677307,-0.45112398,-0.6924158,217.14108,-63.16747,6.4241214000000015,FKL
457234284544.0,1.887444019317627,0.5064440965652466,8.596125602722168,2.8969571590423584,0.048694223165512085,-0.2574797,-0.9221011,217.32407,-63.85791800000001,5.813456,FKL
457239298048.0,1.8924425840377808,0.43429508805274963,8.71996021270752,2.791651964187622,0.0322737991809845,-0.18753563,-0.947452,217.55333,-64.82745,5.2076855,FKL
457244278784.0,1.897440791130066,0.36402013897895813,8.83374309539795,2.666649103164673,0.023253852501511574,-0.44409904,-0.9660834,217.98729,-66.260254,4.7527313,FKL
457249292288.0,1.902438759803772,0.3005901575088501,8.942083358764648,2.545717239379883,0.02198350429534912,-1.0454959,-0.9984592,218.48244,-67.81344,4.3155837,FKL
457254305792.0,1.9074366092681885,0.2480805665254593,9.048229217529297,2.4472899436950684,0.028330326080322266,-1.8145752,-1.0650436,219.1275,-69.20263,4.1872506000000005,FKL
457259286528.0,1.9124342203140259,0.2083110809326172,9.149744987487793,2.3717126846313477,0.041496455669403076,-2.564107,-1.1102476,219.92609,-70.62208000000003,4.1001825,FKL
457264267264.0,1.9174314737319946,0.1828024983406067,9.244424819946289,2.318791627883911,0.060221750289201736,-2.9211576,-1.169807,220.63164,-71.09805,4.1710496,FKL
457269280768.0,1.9224286079406738,0.17226922512054443,9.32999038696289,2.2846407890319824,0.08300015330314636,-2.7550023,-1.3359623,221.4015,-71.54008499999998,4.21783,FKL
457274294272.0,1.9274300336837769,0.17786261439323425,9.40365982055664,2.2652435302734375,0.10852499306201935,-2.1050417,-1.6533068,222.15402000000003,-71.83115,4.2973485,FKL
457279307776.0,1.9324313402175903,0.19776003062725067,9.465607643127441,2.2585129737854004,0.13566072285175323,-1.1695015,-1.7537941000000004,222.7655,-72.03447,4.3481884000000015,FKL
457284321280.0,1.9374322891235352,0.23024220764636993,9.515737533569336,2.2623367309570312,0.163987934589386,-0.20555615,-1.8622227,223.26727,-72.3257,4.3465643,FKL
457289334784.0,1.9424328804016113,0.27214205265045166,9.55392837524414,2.275284767150879,0.19302496314048767,0.50854534,-1.8741345,223.57437,-72.52363000000003,4.287163,FKL
457294348288.0,1.9474331140518188,0.3198111653327942,9.580086708068848,2.2963039875030518,0.2225549817085266,0.90377516,-1.8695531000000003,223.7078,-72.72393000000002,4.1517696000000015,FKL
457299361792.0,1.9524332284927368,0.36956658959388733,9.594117164611816,2.324397325515747,0.2525106370449066,1.0216721,-1.8961257,223.72899,-72.93585999999998,3.9619558,FKL
457304375296.0,1.9574331045150757,0.41752299666404724,9.595952033996582,2.358600616455078,0.2828693985939026,0.9275989,-1.9437732,223.69984,-73.13731,3.7582114,FKL
457309356032.0,1.962432622909546,0.46026575565338135,9.585753440856934,2.398057222366333,0.31356221437454224,0.7153232,-1.9755383,223.64034,-73.31403,3.4173233999999995,FKL
457314336768.0,1.967431902885437,0.494843065738678,9.564022064208984,2.4420268535614014,0.3444828689098358,0.40958515,-1.9813415,223.63516,-73.48510999999998,3.094318,FKL
457319317504.0,1.972430944442749,0.519492506980896,9.53148365020752,2.4897313117980957,0.37547391653060913,0.23304509,-1.9740111,223.63025,-73.60283000000003,2.629617,FKL
457324331008.0,1.9774298667907715,0.5339027047157288,9.48917293548584,2.54030442237854,0.40639927983283997,-0.1386664,-1.9034561,223.75816,-73.70243,2.2315652000000004,FKL
457329311744.0,1.9824285507202148,0.5381541848182678,9.437773704528809,2.592728853225708,0.43717098236083984,-0.47067168,-1.7467692,223.89844,-73.71257,1.7571076,FKL
457334325248.0,1.9874272346496582,0.5333136916160583,9.377069473266602,2.64534592628479,0.4678008556365967,-0.67011917,-1.5580118,224.09018,-73.70763000000002,1.342769,FKL
457339338752.0,1.9924265146255493,0.5204290747642517,9.306835174560547,2.696638584136963,0.49824440479278564,-0.66675943,-1.3768903,224.31158,-73.6397,0.9616914,FKL
457344352256.0,1.9974256753921509,0.5011127591133118,9.226819038391113,2.7454700469970703,0.5284283757209778,-0.5021312,-1.1817188,224.51448,-73.56573,0.65079784,FKL
457349365760.0,2.002424716949463,0.4768695831298828,9.13674545288086,2.7907652854919434,0.5583078861236572,-0.25717425,-0.9746355,224.69423,-73.55264,0.37861887,FKL
457354379264.0,2.0074236392974854,0.4493415951728821,9.036605834960938,2.8318915367126465,0.5877984762191772,0.015271631,-0.73731434,224.79361,-73.52666500000002,0.16010498,FKL
457359360000.0,2.012422561645508,0.4201241731643677,8.926512718200684,2.86842942237854,0.6167126893997192,0.25503623,-0.51893,224.81197000000003,-73.48499,-0.018699352,FKL
457364340736.0,2.017421245574951,0.39089351892471313,8.807126998901367,2.900780200958252,0.6448512077331543,0.47219884,-0.32436943,224.77081,-73.49675,-0.12755387,FKL
457369354240.0,2.0224199295043945,0.36329030990600586,8.679323196411133,2.929694175720215,0.6719222664833069,0.6600399,-0.15088372,224.65298,-73.47751600000002,-0.19827397,FKL
457374367744.0,2.027418613433838,0.3386474847793579,8.544031143188477,2.955831527709961,0.6975885033607483,0.80878556,-0.013439035,224.47714,-73.56197,-0.28211012,FKL
457379381248.0,2.0324172973632812,0.31725698709487915,8.40294075012207,2.979642391204834,0.7215800881385803,0.929126,0.09162979,224.24727,-73.613716,-0.33941287,FKL
457384361984.0,2.0374157428741455,0.2993677258491516,8.257579803466797,3.001535177230835,0.7436617016792297,1.0225884,0.17684549,223.97537000000003,-73.686775,-0.34807196,FKL
457389342720.0,2.0424141883850098,0.2849360704421997,8.10970401763916,3.0216715335845947,0.7635801434516907,1.0546589,0.22204952,223.68306,-73.71516,-0.34261972,FKL
457394356224.0,2.047412633895874,0.27380287647247314,7.9610419273376465,3.0401127338409424,0.7811571359634399,1.042747,0.25992316,223.37193,-73.70826,-0.31918836,FKL
457399369728.0,2.0524110794067383,0.2657344341278076,7.813291549682617,3.0569074153900146,0.7962552309036255,0.9761627,0.25961772,223.07277,-73.663376,-0.25898114,FKL
457404383232.0,2.0574095249176025,0.2599831521511078,7.668992519378662,3.072023868560791,0.8088058829307556,0.8677341000000001,0.25259277,222.78674,-73.583176,-0.18579853,FKL
457409363968.0,2.062407970428467,0.2558744251728058,7.530402183532715,3.0854392051696777,0.8188165426254272,0.75533485,0.22052236,222.53777,-73.488045,-0.09068958,FKL
457414377472.0,2.06740665435791,0.25198930501937866,7.400790214538574,3.097038745880127,0.8262655138969421,0.6114761,0.18234327,222.32922,-73.35672,0.011223706000000002,FKL
457419358208.0,2.0724050998687744,0.24694328010082245,7.283195972442627,3.1067140102386475,0.8312750458717346,0.5571090999999999,0.16340645,222.12874,-73.213036,0.11043568,FKL
457424371712.0,2.0774035453796387,0.2383066862821579,7.183963298797607,3.1141531467437744,0.8340424299240112,0.48899764,0.10720685,222.01215,-73.052444,0.20290142,FKL
457429385216.0,2.082402229309082,0.22369663417339325,7.109401702880859,3.1190438270568848,0.8346900343894958,0.49693888,0.05100725,221.89151,-72.87456999999998,0.28429586,FKL
457434365952.0,2.0874006748199463,0.20186512172222137,7.062983989715576,3.1213343143463135,0.8333135843276978,0.58184916,-0.0009162979,221.79156,-72.74996,0.27072236,FKL
457439346688.0,2.0923991203308105,0.1726166009902954,7.045566558837891,3.1212167739868164,0.8300125002861023,0.6817255999999999,-0.06780604,221.69063,-72.61957,0.23356238,FKL
457444327424.0,2.097397565841675,0.1361595243215561,7.055882453918457,3.118675470352173,0.824917733669281,0.7987063,-0.11911872,221.52905,-72.730225,-0.036046326,FKL
457449340928.0,2.102396011352539,0.09297700226306915,7.091214656829834,3.1135482788085938,0.8181552886962891,0.893085,-0.17043139999999998,221.3529,-72.82155999999998,-0.31955716,FKL
457454354432.0,2.107395648956299,0.04351946339011192,7.149012565612793,3.1056554317474365,0.8099555373191833,0.94989544,-0.22907446,221.15932,-72.97469,-0.66367525,FKL
457459367936.0,2.1123952865600586,-0.011222071014344692,7.225561141967773,3.09454345703125,0.8006409406661987,0.99173975,-0.2929099,220.94966,-73.117455,-1.0142114,FKL
457464381440.0,2.1173946857452393,-0.07032798230648041,7.317376136779785,3.079751968383789,0.7905765771865845,1.0112875,-0.3371976,220.7358,-73.293846,-1.3936015,FKL
457469362176.0,2.12239408493042,-0.13249938189983368,7.420797348022461,3.060854911804199,0.7801628112792969,1.0137309,-0.39828414,220.52238,-73.47456,-1.7809593999999995,FKL
457474375680.0,2.1273934841156006,-0.196456640958786,7.532390117645264,3.037470817565918,0.769806444644928,0.99265605,-0.43157628,220.31207,-73.66584,-2.1571176,FKL
457479389184.0,2.1323928833007812,-0.2609744071960449,7.6492085456848145,3.0096259117126465,0.7598510384559631,0.9468411,-0.4636467000000001,220.12158,-73.896866,-2.5292497000000003,FKL
457484369920.0,2.137392282485962,-0.3249208331108093,7.768685817718506,2.9775359630584717,0.7506206631660461,0.9053023,-0.49480084,219.93834,-74.14495,-2.896021,FKL
457489350656.0,2.1423916816711426,-0.38742130994796753,7.888929843902588,2.9416723251342773,0.7423951625823975,0.85154617,-0.5299255999999999,219.78365,-74.43995,-3.2233615,FKL
457494364160.0,2.1473910808563232,-0.44783321022987366,8.00865650177002,2.902733564376831,0.7354171276092529,0.78893244,-0.5555819000000001,219.64409,-74.74929,-3.5431786,FKL
457499377664.0,2.1523914337158203,-0.5055276155471802,8.126668930053711,2.8614211082458496,0.7299066781997681,0.7165449,-0.5891795,219.5387,-75.08166,-3.820938,FKL
457504358400.0,2.1573915481567383,-0.559846818447113,8.242318153381348,2.819136381149292,0.7260403037071228,0.63255095,-0.6243043,219.45529,-75.42538,-4.093275,FKL
457509371904.0,2.1623921394348145,-0.61011803150177,8.354970932006836,2.7772626876831055,0.7239620685577393,0.5543602,-0.66523224,219.40088,-75.76841,-4.3325157,FKL
457514352640.0,2.1673924922943115,-0.6561384797096252,8.464131355285645,2.7363688945770264,0.7237959504127502,0.5299255999999999,-0.70280045,219.35637000000003,-76.122185,-4.5716934,FKL
457519333376.0,2.1723926067352295,-0.6978608965873718,8.569353103637695,2.6967248916625977,0.7255357503890991,0.46395215,-0.72234815,219.34601,-76.47468,-4.802527,FKL
457524346880.0,2.1773927211761475,-0.7352778315544128,8.67013931274414,2.6585047245025635,0.729090690612793,0.43768495,-0.76144356,219.35551,-76.76836,-4.9988294,FKL
457529360384.0,2.1823928356170654,-0.7684239745140076,8.765986442565918,2.62180233001709,0.734460175037384,0.4260785,-0.7974846,219.37941,-77.0709,-5.1901755,FKL
457534373888.0,2.1873929500579834,-0.797422468662262,8.856426239013672,2.586587429046631,0.7415569424629211,0.42943826,-0.82863873,219.40799,-77.347,-5.3678393,FKL
457539354624.0,2.1923928260803223,-0.8224678039550781,8.941010475158691,2.5527219772338867,0.7502596974372864,0.43218717,-0.85062987,219.44035,-77.619484,-5.5459995000000015,FKL
457544368128.0,2.197392702102661,-0.8439136743545532,9.019369125366211,2.5199637413024902,0.7604014277458191,0.44012842,-0.8717046999999999,219.47842000000003,-77.87196,-5.7172446,FKL
457549381632.0,2.202392339706421,-0.8622254133224487,9.091196060180664,2.487997055053711,0.771824836730957,0.4364632000000001,-0.8897252,219.51852,-78.11391,-5.886946,FKL
457554362368.0,2.2073919773101807,-0.8778456449508667,9.156203269958496,2.456559419631958,0.7844208478927612,0.45051312,-0.9126327,219.54451,-78.34524,-6.056817,FKL
457559343104.0,2.2123916149139404,-0.8912396430969238,9.214021682739258,2.4254837036132812,0.7980251908302307,0.45356745,-0.92485,219.57368,-78.55742,-6.2215776,FKL
457564356608.0,2.217391014099121,-0.9028100967407227,9.264389991760254,2.394660472869873,0.8124529123306274,0.45142943,-0.9300423,219.58258,-78.76302,-6.4076843,FKL
457569370112.0,2.2223904132843018,-0.9128850102424622,9.307182312011719,2.3640708923339844,0.8275308012962341,0.45020768,-0.93767816,219.59018,-78.94926,-6.5912285000000015,FKL
457574383616.0,2.227391481399536,-0.9217674136161804,9.342241287231445,2.3336915969848633,0.8431034684181213,0.4560109000000001,-0.94042706,219.58374,-79.11304,-6.79263,FKL
457579364352.0,2.2323923110961914,-0.9295157194137573,9.369728088378906,2.303546905517578,0.8590519428253174,0.46853364,-0.93492925,219.57501,-79.25878,-6.987085,FKL
457584377856.0,2.2373931407928467,-0.936178982257843,9.38972282409668,2.273651599884033,0.8752745985984802,0.4654793,-0.9233228,219.55362,-79.37751,-7.196448299999999,FKL
457589391360.0,2.242396354675293,-0.9418225288391113,9.402348518371582,2.2440712451934814,0.891657829284668,0.47616947,-0.9049969,219.52396,-79.479546,-7.39646,FKL
457594404864.0,2.247399091720581,-0.946526050567627,9.407951354980469,2.2148873805999756,0.9080846905708313,0.47555858,-0.88056225,219.49757,-79.56841,-7.584212,FKL
457599385600.0,2.25240159034729,-0.9503121972084045,9.406839370727539,2.1861259937286377,0.9244406819343567,0.46731192,-0.8570439000000001,219.46692,-79.641685,-7.767905000000002,FKL
457604399104.0,2.25740385055542,-0.9530887007713318,9.399426460266113,2.157689332962036,0.9406563639640808,0.46944994,-0.82558435,219.43243,-79.70803000000002,-7.9364567,FKL
457609379840.0,2.2624056339263916,-0.9547724723815918,9.386202812194824,2.1294968128204346,0.9566767811775208,0.46273044,-0.795652,219.39314,-79.75972,-8.099901,FKL
457614393344.0,2.267407178878784,-0.9552729725837708,9.367866516113281,2.101489543914795,0.9724828004837036,0.45906523,-0.7528914000000001,219.35144,-79.81098,-8.24515,FKL
457619374080.0,2.2724084854125977,-0.9545168280601501,9.345331192016602,2.07354998588562,0.9880109429359436,0.44837508,-0.73945236,219.3097,-79.85986,-8.380233,FKL
457624387584.0,2.277409553527832,-0.9524343013763428,9.319958686828613,2.045440673828125,1.0032191276550293,0.43401974,-0.7150178,219.26953,-79.913536,-8.494766,FKL
457629368320.0,2.282410144805908,-0.9490689635276794,9.29288101196289,2.016939640045166,1.018035650253296,0.40286562,-0.6774496,219.23434,-79.97558000000002,-8.588355,FKL
457634381824.0,2.2874107360839844,-0.9446884989738464,9.264978408813477,1.9877933263778687,1.0324244499206543,0.376293,-0.6563747,219.20328,-80.03192,-8.674987,FKL
457639362560.0,2.2924110889434814,-0.9395436644554138,9.237030029296875,1.9577858448028564,1.0463500022888184,0.34025195,-0.63407815,219.17804,-80.11582,-8.736187,FKL
457644376064.0,2.2974112033843994,-0.9339586496353149,9.20976734161377,1.9267408847808838,1.0597730875015259,0.30909783,-0.62949663,219.16104,-80.19055,-8.792102,FKL
457649389568.0,2.3024113178253174,-0.9282221794128418,9.18383502960205,1.8945081233978271,1.0726912021636963,0.28619036,-0.6203337,219.13492,-80.27098000000002,-8.856732000000003,FKL
457654370304.0,2.3074111938476562,-0.9226993322372437,9.159820556640625,1.8609968423843384,1.0851677656173706,0.2864958,-0.6230826,219.11322,-80.340034,-8.919001,FKL
457659383808.0,2.312411069869995,-0.9177894592285156,9.138259887695312,1.826155424118042,1.0972323417663574,0.27152961,-0.6377433000000001,219.10434,-80.39723000000002,-8.977329,FKL
457664397312.0,2.317410945892334,-0.9138472676277161,9.119621276855469,1.7899425029754639,1.1090147495269775,0.28008172,-0.6560693,219.0812,-80.44285,-9.05857,FKL
457669378048.0,2.3224105834960938,-0.9111872911453247,9.104316711425781,1.752325177192688,1.1206426620483398,0.27183503,-0.6774496,219.06902,-80.47202,-9.139644,FKL
457674391552.0,2.3274102210998535,-0.9101477265357971,9.092548370361328,1.7134366035461426,1.132262110710144,0.25809056,-0.70280045,219.0422,-80.48216,-9.232071,FKL
457679372288.0,2.332409620285034,-0.9110880494117737,9.084327697753906,1.673560619354248,1.1439425945281982,0.2302962,-0.7415904000000001,219.02426,-80.47112,-9.32885,FKL
457684385792.0,2.337409019470215,-0.9142850041389465,9.079404830932617,1.6329532861709595,1.1557954549789429,0.20738874,-0.7703011,218.98502,-80.41032,-9.471883,FKL
457689399296.0,2.3424084186553955,-0.9199436902999878,9.077319145202637,1.5918453931808472,1.1678732633590698,0.18509217,-0.81397796,218.95514,-80.31775,-9.623702,FKL
457694412800.0,2.347407817840576,-0.9281983375549316,9.077540397644043,1.5503716468811035,1.1802572011947632,0.16493362,-0.8558222,218.90968,-80.16918000000003,-9.811948,FKL
457699393536.0,2.352407217025757,-0.939115047454834,9.079455375671387,1.5085681676864624,1.193029522895813,0.17348573,-0.8906415000000001,218.86324,-79.99568000000002,-10.003101,FKL
457704374272.0,2.3574063777923584,-0.9526847004890442,9.082440376281738,1.46645188331604,1.20627760887146,0.18936823,-0.93187493,218.80705,-100.242714,-10.238025,FKL
457709387776.0,2.362405776977539,-0.9688135385513306,9.085811614990234,1.4240097999572754,1.220047116279602,0.204029,-0.9642508,218.74922,-100.50004,-10.471475,FKL
457714368512.0,2.3674049377441406,-0.987301230430603,9.089008331298828,1.3812888860702515,1.2343560457229614,0.21685717,-0.9779953,218.67007,-100.81244,-10.73825,FKL
457719382016.0,2.372404098510742,-1.0078107118606567,9.091582298278809,1.3384095430374146,1.2492022514343262,0.22510384,-1.0054842,218.58846,-101.14691,-11.008283,FKL
457724362752.0,2.3774032592773438,-1.0300344228744507,9.093135833740234,1.2954802513122559,1.2646256685256958,0.2406809,-1.0268645,218.48938,-101.524506,-11.298969,FKL
457729376256.0,2.382402181625366,-1.0535169839859009,9.09321403503418,1.2526638507843018,1.2805930376052856,0.25076020000000004,-1.0421360999999998,218.39014,-101.91269,-11.585418,FKL
457734389760.0,2.3874013423919678,-1.0777614116668701,9.091371536254883,1.2101384401321411,1.2970536947250366,0.2648101,-1.0555751,218.28592000000003,-102.31077,-11.866979,FKL
457739403264.0,2.3924005031585693,-1.1021703481674194,9.086989402770996,1.168113350868225,1.314009428024292,0.28008172,-1.0708468,218.17307,-102.73389,-12.15581,FKL
457744384000.0,2.397399663925171,-1.126139760017395,9.07942008972168,1.1267980337142944,1.331417202949524,0.29749137,-1.0699303999999998,218.05693,-103.15489,-12.433148,FKL
457749397504.0,2.4023995399475098,-1.1491162776947021,9.068060874938965,1.0863689184188843,1.3492326736450195,0.32009340000000003,-1.0742066,217.92422,-103.585,-12.704264,FKL
457754411008.0,2.4073994159698486,-1.1709493398666382,9.052892684936523,1.046714425086975,1.367417573928833,0.3484986,-1.0763446,217.78748,-104.01131,-12.963108,FKL
457759424512.0,2.4123995304107666,-1.1915020942687988,9.033905982971191,1.0077463388442993,1.385899305343628,0.3717115,-1.0699303999999998,217.63744,-104.42896,-13.199576,FKL
457764405248.0,2.4173996448516846,-1.210707187652588,9.0112886428833,0.9695805311203003,1.4047038555145264,0.39736784,-1.0809261,217.48221,-104.85097,-13.430241,FKL
457769385984.0,2.4223995208740234,-1.228507161140442,8.985218048095703,0.9323190450668335,1.4238258600234985,0.4196644000000001,-1.0891727,217.30824,-105.28759,-13.656682,FKL
457774399488.0,2.4273993968963623,-1.2448407411575317,8.955838203430176,0.8960481882095337,1.4432727098464966,0.42821655,-1.102001,217.13544,-105.72601,-13.876868,FKL
457779380224.0,2.432399272918701,-1.259657382965088,8.923288345336914,0.860836923122406,1.463026523590088,0.42638394,-1.1087204,216.9643,-106.15942,-14.087347,FKL
457784393728.0,2.43739914894104,-1.2729113101959229,8.887693405151367,0.8267461657524109,1.4830800294876099,0.4288274,-1.1160508,216.7887,-106.62928,-14.313507,FKL
457789374464.0,2.442399024963379,-1.2845721244812012,8.8491849899292,0.7938246130943298,1.5034475326538086,0.42760566,-1.1279627,216.61824,-107.09783,-14.533372,FKL
457794355200.0,2.4473986625671387,-1.2946577072143555,8.807934761047363,0.7621325850486755,1.5241202116012573,0.4260785,-1.1328496,216.44083,-107.60117,-14.768603,FKL
457799368704.0,2.4523983001708984,-1.3032774925231934,8.764204978942871,0.7317590713500977,1.545080542564392,0.4166101,-1.1533136,216.26813,-108.10642,-15.002295000000002,FKL
457804382208.0,2.457397937774658,-1.3105151653289795,8.718238830566406,0.7027621865272522,1.5662764310836792,0.40225476,-1.1640037,216.09087,-108.63978600000002,-15.243064000000002,FKL
457809362944.0,2.462397336959839,-1.3163576126098633,8.67026424407959,0.6751086711883545,1.587651014328003,0.4089743,-1.17897,215.91098,-109.17351,-15.481177,FKL
457814376448.0,2.4673967361450195,-1.3208043575286865,8.620489120483398,0.6487355828285217,1.609205722808838,0.40225476,-1.1795808,215.73563,-109.732834,-15.732276,FKL
457819357184.0,2.4723961353302,-1.3238991498947144,8.569116592407227,0.6234461665153503,1.6308884620666504,0.42455134,-1.1914927,215.54993,-110.287125,-15.979955,FKL
457824370688.0,2.4773964881896973,-1.3256820440292358,8.516325950622559,0.5990513563156128,1.6526572704315186,0.43493605,-1.2027937,215.36603,-110.860954,-16.23092,FKL
457829384192.0,2.4823966026306152,-1.3262327909469604,8.4623384475708,0.5753993391990662,1.674505591392517,0.44623706,-1.2156218,215.17586,-111.43177,-16.475737,FKL
457834397696.0,2.4873971939086914,-1.325614333152771,8.407349586486816,0.5523614287376404,1.6964515447616577,0.45265114,-1.2250903,214.97574,-112.02366,-16.721203,FKL
457839378432.0,2.4923975467681885,-1.3238319158554077,8.351593971252441,0.5300703644752502,1.7185016870498657,0.4529566,-1.2431108,214.77388,-112.613754,-16.963856,FKL
457844391936.0,2.4973983764648438,-1.3208695650100708,8.295248031616211,0.5086622834205627,1.7406632900238037,0.44593164,-1.2522738000000002,214.56526,-113.22561,-17.207094,FKL
457849405440.0,2.502399206161499,-1.3165934085845947,8.23816967010498,0.48832693696022034,1.7629649639129639,0.4297437,-1.2596041,214.35916,-113.83729,-17.44708,FKL
457854418944.0,2.507399797439575,-1.3108789920806885,8.180221557617188,0.46923819184303284,1.7853879928588867,0.40866885,-1.2779301,214.1529,-114.46275,-17.694715,FKL
457859432448.0,2.5124006271362305,-1.3034796714782715,8.121114730834961,0.4508478343486786,1.8079192638397217,0.38026363,-1.2904528,213.95398,-115.08551,-17.936722,FKL
457864413184.0,2.5174012184143066,-1.2941280603408813,8.06053352355957,0.43234992027282715,1.8304671049118042,0.34574974,-1.3026701,213.76212,-115.69972,-18.17809,FKL
457869393920.0,2.5224015712738037,-1.28276789188385,7.998249053955078,0.4123823940753937,1.8528929948806763,0.32895094,-1.310306,213.5693,-116.318634,-18.418959,FKL
457874407424.0,2.5274016857147217,-1.2694092988967896,7.934072494506836,0.3895135521888733,1.875053882598877,0.33536503,-1.319469,213.37872,-116.92757,-18.657125,FKL
457879388160.0,2.5324018001556396,-1.2544466257095337,7.867981910705566,0.36208364367485046,1.8968085050582886,0.37140608,-1.3213016000000002,213.1768,-117.5564,-18.867002,FKL
457884401664.0,2.5374016761779785,-1.2383729219436646,7.800001621246338,0.3284356892108917,1.918012261390686,0.4297437,-1.3182472,212.96646,-118.168,-19.06732,FKL
457889382400.0,2.5424015522003174,-1.2218964099884033,7.730227470397949,0.2870788276195526,1.9384998083114624,0.5198463,-1.3267993,212.72186,-118.83003,-19.233364,FKL
457894395904.0,2.5474014282226562,-1.2058360576629639,7.658782482147217,0.2366088479757309,1.958131194114685,0.6282749,-1.3213016000000002,212.45992,-119.467545,-19.376797,FKL
457899376640.0,2.552401065826416,-1.1910792589187622,7.585692882537842,0.1759871244430542,1.9767478704452515,0.73426,-1.3142766,212.14447,-120.17797,-19.490755,FKL
457904357376.0,2.557400703430176,-1.178575038909912,7.510897159576416,0.10446750372648239,1.994179129600525,0.84940815,-1.2974777,211.81328,-120.846405,-19.572037,FKL
457909370880.0,2.5624001026153564,-1.1692591905593872,7.43410062789917,0.021495092660188675,2.0102617740631104,0.8900306999999998,-1.2886202,211.43541,-121.65465,-19.6782,FKL
457914384384.0,2.567401885986328,-1.164368987083435,7.354373931884766,-0.07354624569416046,2.024916410446167,0.9477574,-1.2791518,211.03253,-122.42975,-19.750355,FKL
457919397888.0,2.5724034309387207,-1.1645760536193848,7.271044731140137,-0.18051321804523468,2.037898302078247,0.99082345,-1.2770138,210.58647,-123.30837,-19.860355,FKL
457924411392.0,2.5774049758911133,-1.170802354812622,7.182677268981934,-0.2994407117366791,2.0489840507507324,0.99265605,-1.2666291,210.14407000000003,-124.15448,-19.950747,FKL
457929392128.0,2.5824060440063477,-1.1837035417556763,7.088000297546387,-0.43029487133026123,2.057964324951172,0.97005403,-1.2632693000000002,209.65237,-125.10954,-20.102444,FKL
457934405632.0,2.587407112121582,-1.2036402225494385,6.985640525817871,-0.5731275081634521,2.0646677017211914,0.9071349,-1.1951579,209.18579,-126.0092,-20.22805,FKL
457939386368.0,2.5924079418182373,-1.230884075164795,6.874571323394775,-0.7278308272361755,2.0691089630126953,0.84391034,-1.1053606000000002,208.68224,-127.0392,-20.432148,FKL
457944367104.0,2.5974085330963135,-1.2657792568206787,6.754313945770264,-0.8940432667732239,2.0714142322540283,0.8014551999999999,-1.0283916,208.2003,-128.0242,-20.615557,FKL
457949380608.0,2.6024117469787598,-1.308864951133728,6.624144077301025,-1.071656346321106,2.0717904567718506,0.7501425,-0.93523467,207.70145,-129.14545,-20.848253,FKL
457954394112.0,2.607414484024048,-1.3601561784744263,6.484698295593262,-1.2595939636230469,2.070460319519043,0.6899723000000001,-0.8332202,207.23141,-130.23068,-21.053944,FKL
457959374848.0,2.6124167442321777,-1.4199095964431763,6.336368083953857,-1.4570271968841553,2.0677034854888916,0.6545420999999999,-0.7333437,206.73431,-131.44395,-21.3111,FKL
457964355584.0,2.6174185276031494,-1.4888068437576294,6.180330276489258,-1.6628499031066895,2.063850164413452,0.63346726,-0.64476824,206.26668,-132.63003999999998,-21.53795,FKL
457969369088.0,2.622420072555542,-1.5678308010101318,6.018294334411621,-1.875786542892456,2.0592496395111084,0.61544675,-0.56077427,205.82771,-133.79327,-21.732813,FKL
457974382592.0,2.6274213790893555,-1.6573936939239502,5.851964473724365,-2.094430446624756,2.0542571544647217,0.6096435,-0.51068336,205.3615,-135.05087,-21.986431,FKL
457979363328.0,2.6324222087860107,-1.7566947937011719,5.683286190032959,-2.3168747425079346,2.0492093563079834,0.58459806,-0.48716503,204.91971,-136.29471,-22.215895,FKL
457984376832.0,2.637422800064087,-1.864850640296936,5.513992786407471,-2.5414605140686035,2.0443520545959473,0.5561928,-0.4822781,204.4518,-137.564,-22.554888,FKL
457989357568.0,2.642423152923584,-1.980608344078064,5.345534801483154,-2.766911029815674,2.039797067642212,0.5039638,-0.48624873,204.0028,-138.81537,-22.87903,FKL
457994371072.0,2.647423505783081,-2.102822780609131,5.179224967956543,-2.992072343826294,2.0355114936828613,0.4700608,-0.49113566,203.55894,-140.0047,-23.22176,FKL
457999384576.0,2.652423620223999,-2.2303404808044434,5.016313076019287,-3.216026782989502,2.0313570499420166,0.464563,-0.47433686,203.1294,-141.16342,-23.546003,FKL
458004398080.0,2.657423734664917,-2.3618111610412598,4.858176231384277,-3.4382517337799072,2.027064800262451,0.44806966,-0.4474588,202.71597,-142.27957,-23.85997,FKL
458009411584.0,2.6624250411987305,-2.4959704875946045,4.706135272979736,-3.6583263874053955,2.0222716331481934,0.4746423,-0.42149702,202.31346,-143.28392,-24.143420000000006,FKL
458014392320.0,2.667426109313965,-2.631563901901245,4.56123161315918,-3.8767342567443848,2.0166068077087402,0.50762904,-0.41263947,201.92114,-144.23514,-24.41173,FKL
458019405824.0,2.672427177429199,-2.767326831817627,4.424508094787598,-4.094052791595459,2.0099852085113525,0.5732970000000001,-0.40133846,201.54915,-145.08841,-24.604465,FKL
458024386560.0,2.6774280071258545,-2.901397705078125,4.296820163726807,-4.311246871948242,2.0021424293518066,0.66675943,-0.38759398,201.17477,-145.86465,-24.770288,FKL
458029367296.0,2.6824285984039307,-3.032095193862915,4.178924083709717,-4.52919864654541,1.9929722547531128,0.77457714,-0.3830125,200.81114,-146.58466,-24.838583,FKL
458034380800.0,2.6874289512634277,-3.1583642959594727,4.070876598358154,-4.748171329498291,1.9824467897415161,0.85154617,-0.39614612,200.44354,-147.25807,-24.885748,FKL
458039394304.0,2.6924290657043457,-3.27984356880188,3.9719483852386475,-4.967726230621338,1.9706298112869263,0.8863655,-0.4083634,200.07428,-147.89786,-24.910439,FKL
458044375040.0,2.6974289417266846,-3.3962719440460205,3.8812081813812256,-5.187196731567383,1.9576690196990967,0.86742866,-0.43279803,199.75589,-148.46463,-24.757406,FKL
458049388544.0,2.7024288177490234,-3.507467269897461,3.7976086139678955,-5.405780792236328,1.9437891244888306,0.79901177,-0.45662177,199.44878,-149.01508,-24.610247,FKL
458054369280.0,2.707428455352783,-3.6132986545562744,3.720017194747925,-5.6226983070373535,1.9292221069335938,0.6780604,-0.49449542,199.15038,-149.56587,-24.457981,FKL
458059382784.0,2.712428092956543,-3.7136647701263428,3.647223711013794,-5.837188243865967,1.914255976676941,0.52412236,-0.528093,198.87524,-150.11623,-24.33388,FKL
458064396288.0,2.7174274921417236,-3.8083600997924805,3.5780606269836426,-6.048688888549805,1.8991905450820923,0.35705075,-0.56046885,198.6115,-150.68971000000005,-24.237724,FKL
458069377024.0,2.7224268913269043,-3.897059202194214,3.511380910873413,-6.2568359375,1.8842601776123047,0.21013765,-0.57360244,198.37485,-151.26125,-24.1755,FKL
458074357760.0,2.727426052093506,-3.979583978652954,3.446105718612671,-6.461417198181152,1.8695834875106812,0.10842858,-0.5824600000000001,198.14043,-151.86995,-24.143320000000006,FKL
458079371264.0,2.7324254512786865,-4.056057453155518,3.3811428546905518,-6.662547588348389,1.8551559448242188,0.028710667,-0.5897904,197.92917,-152.4695,-24.140896,FKL
458084384768.0,2.737424612045288,-4.126682758331299,3.3156003952026367,-6.860334396362305,1.8409223556518555,0.022907447,-0.5858198,197.71393,-153.10663,-24.118784,FKL
458089398272.0,2.7424237728118896,-4.191798686981201,3.2487804889678955,-7.054900169372559,1.8267208337783813,0.059864793,-0.56321776,197.51257,-153.71356,-24.10119,FKL
458094379008.0,2.747422695159912,-4.251513481140137,3.1801979541778564,-7.2464213371276855,1.812260627746582,0.08643743400000001,-0.55833083,197.29422,-154.35048,-24.077545,FKL
458099392512.0,2.7524216175079346,-4.305403232574463,3.1097097396850586,-7.435230731964111,1.7972781658172607,0.094989546,-0.55833083,197.08293,-154.95197,-24.04404,FKL
458104373248.0,2.757420539855957,-4.353428363800049,3.0372798442840576,-7.621669292449951,1.7816307544708252,0.12461651,-0.5204572000000001,196.86511,-155.56656,-23.989094,FKL
458109353984.0,2.7624192237854004,-4.396577835083008,2.9631385803222656,-7.806188106536865,1.7651698589324951,0.17470746,-0.50946164,196.6415,-156.13733,-23.927988,FKL
458114367488.0,2.7674179077148438,-4.4359283447265625,2.887531042098999,-7.989208221435547,1.7479008436203003,0.21655174,-0.48380527,196.43018,-156.71083000000004,-23.803232,FKL
458119348224.0,2.772416591644287,-4.47300386428833,2.810791254043579,-8.171133995056152,1.72968327999115,0.21991149,-0.45142943,196.22923,-157.23077,-23.672935,FKL
458124361728.0,2.7774152755737305,-4.509186267852783,2.7332215309143066,-8.352337837219238,1.7104427814483643,0.22479841,-0.40591997,196.01796,-157.75693,-23.53977,FKL
458129375232.0,2.782413959503174,-4.545838832855225,2.6552534103393555,-8.533275604248047,1.6901605129241943,0.20097467,-0.3576616,195.82724,-158.24417,-23.409353,FKL
458134388736.0,2.7874128818511963,-4.584251880645752,2.5773255825042725,-8.714415550231934,1.668857216835022,0.15699236,-0.27763826,195.66747,-158.69199,-23.27473,FKL
458139369472.0,2.7924118041992188,-4.625143527984619,2.499572515487671,-8.896017074584961,1.6465978622436523,0.105374254,-0.20280726,195.48969,-159.14303999999996,-23.202719,FKL
458144382976.0,2.797410726547241,-4.66888427734375,2.4219212532043457,-9.078235626220703,1.6234989166259766,0.046120327,-0.14202617,195.34312,-159.56514,-23.13701,FKL
458149396480.0,2.8024096488952637,-4.715735912322998,2.3442931175231934,-9.260987281799316,1.5996999740600586,0.014660766,-0.11148291,195.18341,-159.98422,-23.128885,FKL
458154377216.0,2.807408571243286,-4.765758991241455,2.2665963172912598,-9.443658828735352,1.5753153562545776,0.011301007,-0.08643743400000001,195.04837,-160.37819,-23.121716,FKL
458159357952.0,2.8124072551727295,-4.818882465362549,2.188896656036377,-9.625518798828125,1.5503734350204468,-0.010995574,-0.06811147,194.90483,-160.78368,-23.152103,FKL
458164371456.0,2.817405939102173,-4.874556064605713,2.1118555068969727,-9.80517578125,1.5248745679855347,-0.038789943,-0.0580322,194.77191,-161.16873,-23.181074,FKL
458169384960.0,2.822404623031616,-4.932246685028076,2.0362181663513184,-9.98120403289795,1.4987512826919556,-0.06536258,-0.027183503,194.62785,-161.5439,-23.23966,FKL
458174398464.0,2.8274035453796387,-4.991194725036621,1.9639365673065186,-10.150814056396484,1.4718595743179321,-0.13652839,-0.004276057,194.49632,-161.88676,-23.314838,FKL
458179379200.0,2.832402467727661,-5.050717830657959,1.8967375755310059,-10.311541557312012,1.4440373182296753,-0.23457226,0.03726278,194.38284,-162.1651,-23.411757,FKL
458184359936.0,2.8374011516571045,-5.110065937042236,1.8358536958694458,-10.461767196655273,1.4151285886764526,-0.36010507,0.073303826,194.28712,-162.40555,-23.531069,FKL
458189373440.0,2.842399835586548,-5.168375015258789,1.7819634675979614,-10.600835800170898,1.3849769830703735,-0.4474588,0.09682214,194.20755,-162.60413,-23.661047,FKL
458194386944.0,2.8473987579345703,-5.2248382568359375,1.7356308698654175,-10.728206634521484,1.3535107374191284,-0.5002986,0.12522738,194.15373,-162.61478,-23.83949,FKL
458199400448.0,2.852397918701172,-5.278573513031006,1.6972122192382812,-10.84351921081543,1.3207274675369263,-0.52870387,0.13836098,194.10822,-162.5975,-24.031029,FKL
458204381184.0,2.8573968410491943,-5.328830718994141,1.666916847229004,-10.946537971496582,1.2866748571395874,-0.5348125,0.15882497,194.08833,-162.46692,-24.20473,FKL
458209361920.0,2.862396001815796,-5.37502908706665,1.6445510387420654,-11.037250518798828,1.2514814138412476,-0.516792,0.15668693,194.06522,-162.32834,-24.377846,FKL
458214375424.0,2.8673951625823975,-5.416671276092529,1.6299080848693848,-11.115675926208496,1.2152249813079834,-0.46883908,0.14691310000000002,194.04927,-162.09537,-24.510431,FKL
458219356160.0,2.872394323348999,-5.453474521636963,1.6226487159729004,-11.181859970092773,1.178071141242981,-0.42577308,0.1328632,194.03004,-161.87059,-24.638584,FKL
458224369664.0,2.877394437789917,-5.485149383544922,1.6224778890609741,-11.235791206359863,1.1401386260986328,-0.37598756,0.12980886,193.99567,-161.58093,-24.722141,FKL
458229383168.0,2.882394552230835,-5.511672496795654,1.6288933753967285,-11.277643203735352,1.101621150970459,-0.33169982,0.119729586,193.95374,-161.30868999999996,-24.797792,FKL
458234396672.0,2.8873956203460693,-5.532986164093018,1.6414400339126587,-11.30750560760498,1.0626879930496216,-0.29565877,0.10842858,193.90855,-160.99478,-24.845821,FKL
458239377408.0,2.8923964500427246,-5.5492634773254395,1.659435749053955,-11.325963973999023,1.0235223770141602,-0.26358834,0.1020145,193.86177,-160.69826,-24.884878,FKL
458244358144.0,2.897397041320801,-5.560654163360596,1.682253360748291,-11.333540916442871,0.9843428134918213,-0.22021692,0.08827003,193.81915,-160.40851999999995,-24.914158,FKL
458249371648.0,2.902397394180298,-5.567275047302246,1.709280014038086,-11.33071231842041,0.9453271627426147,-0.19822577,0.06780604,193.77513,-160.13345,-24.94318,FKL
458254352384.0,2.907397508621216,-5.569231033325195,1.7399227619171143,-11.317943572998047,0.9066628813743591,-0.18387043,0.0571159,193.72932,-159.87996,-24.964388,FKL
458259365888.0,2.912397623062134,-5.5665364265441895,1.7736238241195679,-11.295720100402832,0.8685587048530579,-0.17256944,0.054061573,193.68512,-159.64218,-24.981518,FKL
458264346624.0,2.9173974990844727,-5.559126853942871,1.8098593950271606,-11.264559745788574,0.8311818242073059,-0.16523905,0.036957346,193.63571,-159.42355,-24.9997,FKL
458269360128.0,2.9223971366882324,-5.546982288360596,1.8481391668319702,-11.225007057189941,0.7946956753730774,-0.15149458,0.02443461,193.58554,-159.22111999999996,-25.00958,FKL
458274373632.0,2.9273970127105713,-5.530117988586426,1.888005256652832,-11.177620887756348,0.7592450380325317,-0.14080444,0.014660766,193.53386,-159.03862,-25.020823,FKL
458279354368.0,2.932396650314331,-5.50846004486084,1.9288885593414307,-11.122737884521484,0.7249394059181213,-0.13744467,0.01160644,193.48404,-158.87302,-25.016645,FKL
458284367872.0,2.9373960494995117,-5.481707572937012,1.9699385166168213,-11.060251235961914,0.6918615102767944,-0.12461651,0.0018325958,193.43024,-158.72628999999995,-25.00982,FKL
458289381376.0,2.9423954486846924,-5.449747562408447,2.010406255722046,-10.990219116210938,0.6600430011749268,-0.121256754,0.0015271631,193.40349,-158.59157,-24.98982,FKL
458294394880.0,2.947394847869873,-5.413060188293457,2.049670934677124,-10.913233757019043,0.6295086741447449,-0.10842858,0.0027488936,193.37381,-158.47173999999995,-24.965574,FKL
458299408384.0,2.95239520072937,-5.372097492218018,2.0871503353118896,-10.829843521118164,0.6002232432365417,-0.108123146,0.004276057,193.35718,-158.36108000000004,-24.92653,FKL
458304389120.0,2.957395315170288,-5.327452182769775,2.1223905086517334,-10.740787506103516,0.5722002387046814,-0.10170906,-0.00030543262000000003,193.33875,-158.26466000000005,-24.883621,FKL
458309369856.0,2.962395191192627,-5.279667854309082,2.154956817626953,-10.646732330322266,0.5454229116439819,-0.09193522,-0.0033597588,193.32239,-158.1816,-24.845837,FKL
458314383360.0,2.967395067214966,-5.229368686676025,2.1845030784606934,-10.548384666442871,0.5198537111282349,-0.06841691,0.0061086523,193.30737,-158.10371,-24.802277,FKL
458319396864.0,2.9723949432373047,-5.177178382873535,2.210752248764038,-10.446436882019043,0.49548766016960144,-0.047647487,0.0015271631,193.28816,-158.03638999999995,-24.759352,FKL
458324410368.0,2.9773948192596436,-5.123661041259766,2.2334775924682617,-10.341512680053711,0.4722830057144165,-0.02076942,-0.005192355,193.256,-157.98941000000005,-24.720661,FKL
458329423872.0,2.9823949337005615,-5.069324970245361,2.252531051635742,-10.23415756225586,0.45025455951690674,0.004886922,-0.009773844,193.22253,-157.95338,-24.677656,FKL
458334437376.0,2.9873969554901123,-5.01465368270874,2.267763137817383,-10.124855995178223,0.4293966293334961,0.03481932,-0.021991149,193.16806,-157.94253999999995,-24.650793,FKL
458339450880.0,2.992398738861084,-4.960037708282471,2.2793638706207275,-10.014006614685059,0.4096747934818268,0.056199603,-0.022296581,193.1158,-157.93492,-24.61912,FKL
458344464384.0,2.9974002838134766,-4.9058685302734375,2.2875280380249023,-9.90196418762207,0.3910653591156006,0.06658431,-0.024740042,193.05391,-157.964,-24.611164,FKL
458349477888.0,3.002401828765869,-4.8526105880737305,2.2929036617279053,-9.789159774780273,0.3735899329185486,0.07513642,-0.019547688,192.99326,-157.99803,-24.59747,FKL
458354458624.0,3.0074033737182617,-4.800670146942139,2.2960736751556396,-9.675982475280762,0.35721343755722046,0.08704830000000001,-0.016798794,192.92297,-158.03795,-24.600222,FKL
458359439360.0,3.012404680252075,-4.750336170196533,2.297553777694702,-9.562962532043457,0.3419160842895508,0.103847094,-0.010079277,192.8551,-158.08446,-24.598545,FKL
458364420096.0,3.0174057483673096,-4.70177698135376,2.2977957725524902,-9.450788497924805,0.327625036239624,0.1151481,0.0033597588,192.79068,-158.12685,-24.5943,FKL
458369400832.0,3.022406578063965,-4.655190944671631,2.2971980571746826,-9.340237617492676,0.31427130103111267,0.12644911,0.0021380284,192.72426,-158.15433000000004,-24.613878,FKL
458374414336.0,3.02740740776062,-4.610784530639648,2.2961151599884033,-9.232107162475586,0.3017955422401428,0.14782938,-0.0027488936,192.65923,-158.17975,-24.627062,FKL
458379427840.0,3.032410144805908,-4.5687737464904785,2.2948927879333496,-9.127309799194336,0.29012128710746765,0.17134771,0.009773844,192.6092,-158.19193,-24.635185,FKL
458384441344.0,3.037412405014038,-4.529258728027344,2.293757200241089,-9.026474952697754,0.27919766306877136,0.19364429,0.008246681,192.5524,-158.20775,-24.640738,FKL
458389422080.0,3.042414426803589,-4.492340564727783,2.2928998470306396,-8.930248260498047,0.2689778208732605,0.19730948,-0.0070249503,192.50423,-158.21756000000005,-24.642866,FKL
458394402816.0,3.0474159717559814,-4.458063125610352,2.2924036979675293,-8.839151382446289,0.25945767760276794,0.20952678,-0.013133603,192.45543,-158.2296,-24.636728,FKL
458399383552.0,3.052417039871216,-4.426459789276123,2.2923424243927,-8.753639221191406,0.25060123205184937,0.20922135,-0.021991149,192.41016,-158.24103,-24.626556,FKL
458404364288.0,3.057417869567871,-4.397644996643066,2.2928061485290527,-8.674226760864258,0.24236305058002472,0.1994475,-0.027183503,192.36507,-158.25486999999995,-24.616663,FKL
458409377792.0,3.0624184608459473,-4.371775150299072,2.293891668319702,-8.601445198059082,0.23473361134529114,0.19272798,-0.043982297,192.315,-158.27463,-24.60912,FKL
458414358528.0,3.0674188137054443,-4.3490095138549805,2.2956817150115967,-8.535818099975586,0.2276662141084671,0.19058995,-0.053145275,192.27032,-158.30215,-24.591938,FKL
458419372032.0,3.0724189281463623,-4.329598426818848,2.298258066177368,-8.478080749511719,0.22111482918262482,0.17898351,-0.06811147,192.22258,-158.3341,-24.582129,FKL
458424352768.0,3.077418804168701,-4.313750743865967,2.3016905784606934,-8.428855895996094,0.21503150463104248,0.17898351,-0.07971791,192.17104,-158.37393,-24.563824,FKL
458429366272.0,3.082418441772461,-4.301520824432373,2.3060874938964844,-8.388548851013184,0.20937195420265198,0.15943582,-0.09040806,192.12088,-158.41353999999995,-24.55574,FKL
458434379776.0,3.0874180793762207,-4.2924275398254395,2.311746597290039,-8.356951713562012,0.2040892094373703,0.14294247,-0.095294975,192.07013,-158.45093,-24.547945,FKL
458439393280.0,3.0924179553985596,-4.286105632781982,2.3188931941986084,-8.333866119384766,0.19915136694908142,0.13011430000000002,-0.08552113,192.01404,-158.51422,-24.534414,FKL
458444374016.0,3.0974178314208984,-4.282980442047119,2.327256202697754,-8.319052696228027,0.19448809325695038,0.112399206,-0.061086524,191.96524,-158.56876,-24.525625,FKL
458449387520.0,3.102419137954712,-4.283531665802002,2.336574077606201,-8.31236457824707,0.19010062515735626,0.1142318,-0.08368854,191.93053,-158.61697,-24.488073,FKL
458454401024.0,3.1074202060699463,-4.2879557609558105,2.3466622829437256,-8.313440322875977,0.1858912706375122,0.10323623,-0.09590584,191.9106,-158.6463,-24.455523,FKL
458459414528.0,3.1124210357666016,-4.296365737915039,2.357400417327881,-8.321856498718262,0.18177977204322815,0.08979719,-0.10170906,191.88707,-158.67862,-24.42591,FKL
458464428032.0,3.1174216270446777,-4.308850288391113,2.3686773777008057,-8.337174415588379,0.17771559953689575,0.07086037,-0.09407325,191.8353,-158.7332,-24.441927,FKL
458469408768.0,3.122421979904175,-4.325409412384033,2.380384683609009,-8.358583450317383,0.17363859713077545,0.04184427,-0.09193522,191.7847,-158.77945,-24.464907,FKL
458474422272.0,3.127422332763672,-4.346043586730957,2.392422914505005,-8.385336875915527,0.16950789093971252,0.011301007,-0.10445796,191.71965,-158.83118000000005,-24.518465,FKL
458479403008.0,3.13242244720459,-4.370433330535889,2.404693365097046,-8.416593551635742,0.16532865166664124,-0.025350908,-0.10751228,191.66373,-158.87758,-24.578377,FKL
458484383744.0,3.137422561645508,-4.397990703582764,2.4170987606048584,-8.451437950134277,0.16113685071468353,-0.07727446,-0.10415252,191.613,-158.92131,-24.649342,FKL
458489397248.0,3.1424224376678467,-4.428159236907959,2.4295458793640137,-8.488950729370117,0.15696218609809875,-0.124005646,-0.09682214,191.54593,-158.96939,-24.765675,FKL
458494377984.0,3.1474220752716064,-4.4604034423828125,2.441943883895874,-8.528172492980957,0.15285030007362366,-0.17470746,-0.08552113,191.48915,-159.0185,-24.892527,FKL
458499391488.0,3.152421712875366,-4.494196891784668,2.454207181930542,-8.568255424499512,0.1488827019929886,-0.19517145,-0.07727446,191.43323,-159.06706,-25.021616,FKL
458504372224.0,3.157421112060547,-4.528975009918213,2.4662508964538574,-8.60850715637207,0.1451103389263153,-0.22571471,-0.070249505,191.38847,-159.11426,-25.16193,FKL
458509385728.0,3.162421464920044,-4.564201354980469,2.477994441986084,-8.64826488494873,0.14158959686756134,-0.27000242,-0.06383542,191.35909,-159.15985,-25.314344,FKL
458514366464.0,3.167421579360962,-4.599300861358643,2.4893410205841064,-8.686829566955566,0.13841453194618225,-0.269697,-0.061391957,191.32892,-159.21258999999995,-25.458906,FKL
458519379968.0,3.172421455383301,-4.633676052093506,2.5001864433288574,-8.72346305847168,0.13557825982570648,-0.2855795,-0.052534413,191.30992,-159.26004,-25.613949,FKL
458524393472.0,3.1774213314056396,-4.666879177093506,2.5104916095733643,-8.757576942443848,0.13309185206890106,-0.28496864,-0.042760565999999986,191.29002,-159.31118999999995,-25.75452,FKL
458529406976.0,3.1824212074279785,-4.698540687561035,2.5202364921569824,-8.78868293762207,0.13091392815113068,-0.27214047,-0.032986723,191.2729,-159.35696000000004,-25.89157,FKL
458534387712.0,3.1874208450317383,-4.728339672088623,2.52935791015625,-8.81634521484375,0.12903514504432678,-0.25717425,-0.029626964,191.26195,-159.39532,-26.015245,FKL
458539368448.0,3.192420244216919,-4.755992889404297,2.537750720977783,-8.840161323547363,0.12737515568733215,-0.23640485,-0.018325957,191.25337,-159.42282,-26.12923,FKL
458544349184.0,3.1974196434020996,-4.781283855438232,2.545330047607422,-8.859856605529785,0.12587088346481323,-0.204029,-0.013133603,191.24487,-159.44525,-26.229471000000004,FKL
458549362688.0,3.202418804168701,-4.804068088531494,2.5520317554473877,-8.875292778015137,0.12444623559713364,-0.17592919,-0.0070249503,191.23732,-159.45883,-26.321825,FKL
458554343424.0,3.2074177265167236,-4.824203968048096,2.5577874183654785,-8.886298179626465,0.12303802371025085,-0.14905111,-0.00030543262000000003,191.23012,-159.45903,-26.39976,FKL
458559356928.0,3.212416648864746,-4.841498374938965,2.5624921321868896,-8.892515182495117,0.12159041315317154,-0.12614368,0.00061086525,191.21951,-159.4536,-26.469873,FKL
458564370432.0,3.2174160480499268,-4.855804920196533,2.5660617351531982,-8.893678665161133,0.12005522102117538,-0.09132435,0.015882496,191.19746,-159.43991,-26.520624,FKL
458569351168.0,3.2224154472351074,-4.867305755615234,2.568549633026123,-8.890167236328125,0.11839384585618973,-0.07941248,0.01160644,191.17003,-159.4244,-26.572704,FKL
458574364672.0,3.227414846420288,-4.876168251037598,2.5700037479400635,-8.882328033447266,0.11657985299825668,-0.05497787,0.0070249503,191.13988,-159.39902,-26.609652,FKL
458579378176.0,3.2324142456054688,-4.882552146911621,2.570542097091675,-8.870499610900879,0.11460213363170624,-0.040927973,0.005192355,191.10938,-159.37117,-26.6461,FKL
458584391680.0,3.2374136447906494,-4.8866071701049805,2.5703091621398926,-8.855002403259277,0.11245466768741608,-0.016493361,0.00580322,191.07426,-159.34096,-26.673508,FKL
458589372416.0,3.24241304397583,-4.888526916503906,2.569462299346924,-8.836222648620605,0.11013426631689072,0.0030543262,0.01160644,191.03568,-159.30914,-26.696657,FKL
458594353152.0,3.2474122047424316,-4.888538837432861,2.5681707859039307,-8.814600944519043,0.10763857513666153,0.0015271631,0.008246681,190.99489,-159.27701000000005,-26.720087,FKL
458599366656.0,3.2524116039276123,-4.88686466217041,2.56659197807312,-8.790539741516113,0.10495209693908691,0.01985312,0.0070249503,190.95218,-159.23793,-26.73015,FKL
458604380160.0,3.257411003112793,-4.883763313293457,2.564866065979004,-8.764400482177734,0.10212913900613785,0.029932396,0.0125227375,190.91249,-159.2033,-26.74278,FKL
458609393664.0,3.2624104022979736,-4.87947416305542,2.563122510910034,-8.736532211303711,0.09916065633296967,0.048258353,0.0009162979,190.8644,-159.16656,-26.750694,FKL
458614374400.0,3.267409563064575,-4.874213218688965,2.561476469039917,-8.707355499267578,0.09607364237308502,0.056199603,0.008857545999999999,190.82469,-159.13307,-26.756357,FKL
458619387904.0,3.2724087238311768,-4.868180751800537,2.560029983520508,-8.67724895477295,0.09290651977062225,0.06688975,0.008857545999999999,190.77785,-159.0937,-26.760586,FKL
