timestamp,rel_time,acc_x,acc_y,acc_z,gyro_x,gyro_y,gyro_z,azimuth,pitch,roll,label
0.0,0.0,0.0,0.0,0.0,0.0,-0.012217305,0.015882496,341.37277,-152.07318,12.516773,STD
193845904.0,4.467753100811933e-08,9.174357728625182e-06,8.662451728014275e-05,1.5501791494898498e-05,-2.677824681995844e-07,-0.013133603,0.0061086523,341.1038200000001,-151.83533,12.653464,STD
1344830208.0,4.853361588175176e-07,6.372370262397453e-05,0.0006009264034219086,0.00010758751886896789,-1.4678031448056572e-06,-0.02107485,0.011911872,340.83765,-151.60286000000005,12.790549,STD
4741816832.0,2.377404143771855e-06,0.0002249737735837698,0.002118682721629739,0.00037950839032419026,-5.371310635382542e-06,-0.028710667,0.012217305,340.56516,-151.36862,12.9264,STD
12125495296.0,7.576748885185225e-06,0.0005759337800554931,0.005417411681264639,0.0009708142606541514,-1.3792038771498483e-05,-0.03176499,0.01038471,340.2916,-151.14479,13.062955,STD
25590790144.0,1.9108358173980378e-05,0.0012168462853878736,0.01143267098814249,0.0020496430806815624,-2.986323306686245e-05,-0.03176499,0.008246681,340.0161700000001,-150.92088,13.199420000000002,STD
47473152000.0,4.127484135096893e-05,0.0022598630748689175,0.021207209676504135,0.0038036596961319447,-5.5285836424445733e-05,-0.028099801,0.0018325958,339.73654,-150.70346,13.336229,STD
80227221504.0,7.961267692735419e-05,0.003823295934125781,0.03583674877882004,0.006430348381400108,-9.160894114756957e-05,-0.023518313,0.01282817,339.45807,-150.4895,13.476559,STD
126306320384.0,0.00014083429414313287,0.006025900598615408,0.056416139006614685,0.010127369314432144,-0.00014625444600824267,-0.018020526,0.016798794,339.17288,-150.27591,13.617195,STD
188050309120.0,0.00023276374849956483,0.008981551975011826,0.08398925513029099,0.01508358120918274,-0.00022038562747184187,-0.023518313,0.009773844,338.8858600000001,-150.07063,13.757297,STD
267587878912.0,0.0003640828945208341,0.012793528847396374,0.11950594931840897,0.021470656618475914,-0.00031096863676793873,-0.02443461,0.003970624,338.59586,-149.86754,13.901635999999998,STD
366757511168.0,0.00054411735618487,0.017549965530633926,0.16378718614578247,0.02943633683025837,-0.0004270554054528475,-0.018020526,0.004276057,338.30246,-149.66425,14.047349,STD
487049527296.0,0.0007825486827641726,0.023322001099586487,0.21749860048294067,0.03910025954246521,-0.0005716909072361887,-0.025961773,0.004581489,338.04514,-149.3775,14.206678,STD
629569552384.0,0.0010891641722992063,0.03016204945743084,0.2811342179775238,0.05055103078484535,-0.0007515910547226667,-0.026572637000000003,0.0027488936,337.7823,-149.09188999999995,14.369297,STD
795022458880.0,0.0014735483564436436,0.03810306265950203,0.3550093173980713,0.0638449490070343,-0.0009665422257967293,-0.029321533,0.009162978,337.52023,-148.81316,14.531017000000002,STD
983714693120.0,0.0019449118990451097,0.04715866595506668,0.4392613172531128,0.07900620996952057,-0.0012149317190051079,-0.02687807,0.0018325958,337.2506,-148.53671,14.691717,STD
1195571937280.0,0.0025119069032371044,0.057324040681123734,0.5338577628135681,0.09602832049131393,-0.0014968228060752153,-0.030848695,0.0061086523,336.9839,-148.26639,14.853224,STD
1430168403968.0,0.0031828887294977903,0.06857731938362122,0.6386093497276306,0.11487647145986557,-0.0018145741196349263,-0.030543262,0.002443461,336.7092600000001,-147.99937,15.014264,STD
1686765305856.0,0.003964263014495373,0.08088172227144241,0.7531869411468506,0.13549073040485382,-0.0021773329935967922,-0.028710667,-0.0033597588,336.43246,-147.73593,15.175324,STD
1964354306048.0,0.004862006288021803,0.09418740123510361,0.8771411180496216,0.1577894538640976,-0.0025651908945292234,-0.027183503,-0.0036651916,336.15298,-147.48123,15.336975,STD
2261703196672.0,0.005881131161004305,0.1084337830543518,1.0099226236343384,0.18167302012443542,-0.0029663711320608854,-0.02565634,-0.012217305,335.86658,-147.22666999999996,15.497143,STD
2577402691584.0,0.007025603204965591,0.12355183064937592,1.1509028673171997,0.20702756941318512,-0.00340435653924942,-0.016798794,-0.004886922,335.5793,-146.97572,15.662252,STD
2909911121920.0,0.008298383094370365,0.13946621119976044,1.2993942499160767,0.23372863233089447,-0.003876123111695051,-0.018020526,-0.007330383,335.28577,-146.7325,15.822779,STD
3257595068416.0,0.00970157328993082,0.15609727799892426,1.4546682834625244,0.2616444230079651,-0.004356234334409237,-0.020463986,-0.0012217305,334.99146,-146.49432,15.988024,STD
3618768420864.0,0.011236238293349743,0.17336294054985046,1.6159727573394775,0.29063892364501953,-0.0048395986668765545,-0.013439035,0.002443461,334.69113,-146.25737,16.154749,STD
3991724621824.0,0.012902675196528435,0.1911802589893341,1.7825461626052856,0.320574551820755,-0.00531249912455678,-0.008552114,0.0033597588,334.389,-146.02881000000005,16.321297,STD
4374765240320.0,0.014700544998049736,0.20946678519248962,1.9536306858062744,0.35131439566612244,-0.005789348389953375,-0.016187929,-0.0012217305,334.0839,-145.8011,16.486578,STD
4766224089088.0,0.01662876270711422,0.22814171016216278,2.1284828186035156,0.38272416591644287,-0.006255118176341057,-0.021380283,-0.0012217305,333.77524,-145.5826,16.654804000000002,STD
5164485836800.0,0.01868540421128273,0.24712687730789185,2.3063817024230957,0.4146738052368164,-0.00670415535569191,-0.02107485,-0.0018325958,333.46216,-145.36455,16.822012,STD
5568002523136.0,0.020868221297860146,0.2663474380970001,2.4866366386413574,0.4470386803150177,-0.007136359810829163,-0.027183503,0.0027488936,333.1488,-145.15169,16.987811999999998,STD
5975304044544.0,0.02317461557686329,0.28573232889175415,2.668591260910034,0.4797004163265228,-0.007566002197563648,-0.03756821,-0.004276057,332.82968,-144.94017,17.15101,STD
6385006804992.0,0.025601591914892197,0.3052148222923279,2.851628303527832,0.5125476717948914,-0.00798982847481966,-0.044898596,-0.0021380284,332.5107700000001,-144.73535,17.316269000000002,STD
6795818958848.0,0.02814594842493534,0.32473263144493103,3.035170793533325,0.545476496219635,-0.008374740369617939,-0.044593163,-0.009468411,332.18484,-144.53392,17.478485,STD
7206543556608.0,0.03080439753830433,0.3442281186580658,3.218684434890747,0.5783905982971191,-0.008731420151889324,-0.040317107000000005,-0.0061086523,331.85898,-144.33316000000005,17.642622,STD
7616079593472.0,0.03357291221618652,0.3636484146118164,3.4016778469085693,0.6112014651298523,-0.009049400687217712,-0.04550946,-0.0027488936,331.52948,-144.14037,17.803932,STD
8023420960768.0,0.03644774109125137,0.3829452097415924,3.5837016105651855,0.643828272819519,-0.009343072772026062,-0.03756821,-0.009162978,331.1916,-143.94673,17.968515,STD
8427654873088.0,0.03942513465881348,0.40207475423812866,3.764348268508911,0.6761976480484009,-0.009625819511711597,-0.029932396,-0.013439035,330.85233,-143.75797,18.133291,STD
8827959246848.0,0.04250112920999527,0.4209977090358734,3.9432506561279297,0.7082435488700867,-0.009915678761899471,-0.024740042,-0.008857545999999999,330.50885,-143.57068,18.300222,STD
9223598505984.0,0.04567178711295128,0.43967896699905396,4.12007999420166,0.7399070262908936,-0.01016223430633545,-0.012217305,-0.00580322,330.15735,-143.39111,18.469925,STD
9613920436224.0,0.04893321171402931,0.45808738470077515,4.2945451736450195,0.7711356282234192,-0.010396715253591537,-0.014049901000000002,-0.008246681,329.8035,-143.20498999999995,18.637825,STD
9998349369344.0,0.05228158086538315,0.47619563341140747,4.466388702392578,0.8018832206726074,-0.010608036071062088,-0.009773844,-0.009468411,329.4431,-143.03069,18.811018,STD
10376383037440.0,0.05571310594677925,0.49397990107536316,4.635386943817139,0.8321096897125244,-0.010831009596586227,-0.013744468,0.0030543262,329.0833,-142.85332,18.984423,STD
10747588378624.0,0.05922838672995567,0.5114189982414246,4.801346302032471,0.8617799282073975,-0.011081431992352009,-0.013133603,0.0067195175,328.7153600000001,-142.67998,19.158329,STD
11111596294144.0,0.0628192126750946,0.5284963250160217,4.9641008377075195,0.8908647894859314,-0.011331687681376934,-0.014049901000000002,-0.0015271631,328.3445,-142.51001000000005,19.331404,STD
11468095356928.0,0.06648194044828415,0.5451973080635071,5.123511791229248,0.9193393588066101,-0.011590346693992615,-0.014660766,-0.00061086525,327.97232,-142.3392,19.507294,STD
11816828665856.0,0.07021322846412659,0.5615100264549255,5.279463768005371,0.9471831917762756,-0.011878643184900284,-0.02565634,-0.00061086525,327.59607,-142.17068,19.679333,STD
12157588602880.0,0.07400987297296524,0.5774248838424683,5.431864261627197,0.9743797779083252,-0.012186945416033268,-0.02565634,0.0036651916,327.21478,-142.00693,19.854898,STD
12490212638720.0,0.07786864042282104,0.5929344892501831,5.58064079284668,1.0009162425994873,-0.012512418441474438,-0.03023783,0.0018325958,326.83105,-141.84201000000004,20.026236,STD
12814580187136.0,0.08178651332855225,0.6080334782600403,5.725739002227783,1.0267829895019531,-0.012865201570093632,-0.029321533,-0.00580322,326.44165,-141.67847,20.198732,STD
13130607362048.0,0.08576058596372604,0.6227182149887085,5.86712121963501,1.051973581314087,-0.013204955495893955,-0.032986723,-0.00580322,326.05124,-141.52231,20.370623,STD
13438245928960.0,0.08978857100009918,0.6369866728782654,6.004765510559082,1.0764840841293335,-0.013556783087551594,-0.0290161,-0.0067195175,325.6529,-141.36032,20.543024,STD
13737474916352.0,0.09386725723743439,0.6508384346961975,6.138662338256836,1.1003131866455078,-0.01391592063009739,-0.029321533,-0.008857545999999999,325.2517,-141.20598,20.713802,STD
14028303761408.0,0.09799405187368393,0.664274275302887,6.268815517425537,1.1234617233276367,-0.01427634060382843,-0.02076942,-0.002443461,324.89914,-140.91863999999995,20.86463,STD
14310763921408.0,0.10216689109802246,0.6772961020469666,6.395239353179932,1.1459324359893799,-0.014641188085079193,-0.021685716,-0.005497787,324.54282,-140.63358,21.010826,STD
14584908873728.0,0.10638301074504852,0.6899069547653198,6.5179572105407715,1.1677298545837402,-0.015023579820990562,-0.01863139,-0.0076358155,324.1823,-140.35326,21.160706,STD
14850813067264.0,0.11064030975103378,0.702110767364502,6.637001991271973,1.1888600587844849,-0.015392296947538853,-0.010995574,-0.008246681,323.81735,-140.0805,21.31069,STD
15108566679552.0,0.11493676155805588,0.7139121890068054,6.752413749694824,1.209330439567566,-0.015730490908026695,-0.013744468,-0.007330383,323.4505,-139.80968,21.45867,STD
15358273519616.0,0.11927025020122528,0.7253167033195496,6.86423921585083,1.229149580001831,-0.016052376478910446,-0.01038471,-0.004276057,323.0776,-139.54321000000002,21.609425,STD
15600052076544.0,0.123638816177845,0.7363303303718567,6.972530364990234,1.2483271360397339,-0.01633458584547043,-0.016187929,-0.0027488936,322.7037,-139.28557,21.757263,STD
15834032373760.0,0.12804071605205536,0.7469596266746521,7.07734489440918,1.2668735980987549,-0.016580386087298393,-0.017104227,-0.011301007,322.323,-139.02785,21.90498,STD
16060351774720.0,0.13247419893741608,0.7572115659713745,7.178744316101074,1.2848002910614014,-0.016772110015153885,-0.015577064,-0.0012217305,321.94385,-138.78098,22.055733,STD
16279157080064.0,0.13693760335445404,0.7670935392379761,7.276793956756592,1.3021191358566284,-0.016939802095294,-0.016493361,-0.00030543262000000003,321.558,-138.53162,22.201887,STD
16490601381888.0,0.14142930507659912,0.7766132950782776,7.3715620040893555,1.3188425302505493,-0.01705177314579487,-0.01985312,-0.0015271631,321.17053,-138.29424,22.349120000000006,STD
16694844063744.0,0.14594809710979462,0.7857787609100342,7.4631195068359375,1.334983468055725,-0.017158370465040207,-0.018325957,-0.0036651916,320.7785,-138.05171,22.496746,STD
16892048703488.0,0.1504923701286316,0.7945981025695801,7.551539421081543,1.350555181503296,-0.017246879637241364,-0.023518313,0.004886922,320.38705,-137.82236,22.644,STD
17082380976128.0,0.1550607979297638,0.8030796051025391,7.636895656585693,1.3655712604522705,-0.017323238775134087,-0.013744468,0.004886922,319.9859,-137.58986000000002,22.791883,STD
17266011799552.0,0.1596522033214569,0.8112317323684692,7.719263553619385,1.3800454139709473,-0.01737637259066105,-0.014049901000000002,0.007330383,319.5868,-137.36526,22.938663,STD
17443111043072.0,0.1642652302980423,0.8190630078315735,7.79871940612793,1.393991470336914,-0.017435351386666298,-0.01160644,0.0125227375,319.18158,-137.14104,23.088018,STD
17613851721728.0,0.1688995212316513,0.8265818953514099,7.875340461730957,1.407423496246338,-0.017497671768069267,-0.0067195175,0.014966198,318.7719,-136.92383999999998,23.237259,STD
17778406850560.0,0.17355313897132874,0.8337970972061157,7.9492034912109375,1.4203554391860962,-0.017551559954881668,-0.0061086523,0.009773844,318.35822,-136.70831,23.385092,STD
17936949444608.0,0.1782250702381134,0.8407171368598938,8.0203857421875,1.432801365852356,-0.017576951533555984,-0.0018325958,0.015577064,317.94135,-136.4993,23.536871,STD
18089651470336.0,0.18291431665420532,0.847350537776947,8.088963508605957,1.444775104522705,-0.01760270446538925,0.0012217305,0.014966198,317.5182,-136.28885,23.685509,STD
18236682797056.0,0.18761992454528809,0.8537057638168335,8.155013084411621,1.456290602684021,-0.01763736829161644,0.0033597588,0.016493361,317.0918,-136.08612,23.835903,STD
18378213294080.0,0.19234123826026917,0.8597911596298218,8.218609809875488,1.467361569404602,-0.017647869884967804,0.011301007,0.0143553335,316.65833,-135.88718,23.9864,STD
18514412830720.0,0.1970771849155426,0.8656150698661804,8.279828071594238,1.478001594543457,-0.01764707639813423,0.014966198,0.010079277,316.22107,-135.687,24.135695,STD
18645444984832.0,0.20182709395885468,0.8711856007575989,8.33874225616455,1.4882240295410156,-0.017616229131817818,0.00580322,0.00580322,315.78043,-135.49467,24.282969,STD
18771473334272.0,0.20659030973911285,0.8765108585357666,8.395425796508789,1.498042106628418,-0.017582792788743973,0.009468411,0.008246681,315.3321,-135.30123999999998,24.433142,STD
18892657262592.0,0.21136605739593506,0.881598711013794,8.449949264526367,1.507468819618225,-0.017578331753611565,0.00061086525,0.0076358155,314.88336,-135.11057,24.57713,STD
19009156153344.0,0.21615365147590637,0.8864569067955017,8.5023832321167,1.5165170431137085,-0.017549583688378334,0.010079277,0.004581489,314.42505,-134.9274,24.724405,STD
19121123098624.0,0.22095248103141785,0.8910931348800659,8.552796363830566,1.5251991748809814,-0.017536422237753868,0.008857545999999999,0.0027488936,313.9675,-134.7375,24.867586,STD
19228711190528.0,0.22576196491718292,0.8955148458480835,8.60125732421875,1.5335274934768677,-0.017522532492876053,-0.0018325958,0.0012217305,313.5052,-134.5581,25.009504,STD
19332069326848.0,0.23058153688907623,0.899729311466217,8.647830963134766,1.5415140390396118,-0.017531437799334526,-0.0036651916,-0.004276057,313.03564,-134.3743,25.15074,STD
19431342211072.0,0.23541724681854248,0.9037425518035889,8.692584037780762,1.5491700172424316,-0.017562484368681908,-0.006414085,0.0033597588,312.56708,-134.19804,25.29188,STD
19526670352384.0,0.24026203155517578,0.9075626730918884,8.735577583312988,1.5565073490142822,-0.017621958628296852,-0.005497787,0.0036651916,312.0913700000001,-134.0197,25.42974,STD
19618192162816.0,0.24511465430259705,0.9111965894699097,8.776873588562012,1.5635372400283813,-0.01767813041806221,-0.010995574,0.010079277,311.61646,-133.84912,25.568422,STD
19706043957248.0,0.24997475743293762,0.9146509170532227,8.816533088684082,1.5702706575393677,-0.017734652385115623,-0.0125227375,0.00030543262000000003,311.13303,-133.6749,25.703524,STD
19790355759104.0,0.25484204292297363,0.9179320335388184,8.854613304138184,1.5767182111740112,-0.017788724973797798,-0.009773844,-0.0009162979,310.6485600000001,-133.50836,25.84105,STD
19871253397504.0,0.25971606373786926,0.921046257019043,8.8911714553833,1.5828901529312134,-0.017823973670601845,-0.015271631,0.0061086523,310.16214,-133.34464,25.975815,STD
19948864798720.0,0.26459643244743347,0.9239996075630188,8.926263809204102,1.5887964963912964,-0.017849186435341835,-0.005497787,0.0012217305,309.6644,-133.17908,26.109777,STD
20023307403264.0,0.26948288083076477,0.9267981052398682,8.959942817687988,1.594447135925293,-0.01789221726357937,-0.017715093,-0.00030543262000000003,309.1715,-133.01721,26.240719,STD
20094698651648.0,0.2743750512599945,0.9294462203979492,8.99226188659668,1.5998542308807373,-0.01791120134294033,-0.021685716,-0.0036651916,308.66852,-132.86072,26.372246,STD
20163153887232.0,0.2792726755142212,0.9319469332695007,9.023272514343262,1.60503351688385,-0.01788516156375408,-0.009773844,0.0030543262,308.16193,-132.70448000000002,26.505495,STD
20228782161920.0,0.28417542576789856,0.9343032240867615,9.053023338317871,1.6099997758865356,-0.017837921157479286,-0.013744468,0.00030543262000000003,307.73276,-132.36542,26.531494,STD
20291690430464.0,0.28908321261405945,0.936518132686615,9.081562995910645,1.6147668361663818,-0.0177588053047657,-0.01038471,0.002443461,307.3002,-132.03738,26.562326,STD
20351983550464.0,0.29399555921554565,0.9385949373245239,9.10893726348877,1.6193475723266602,-0.017644403502345085,-0.0061086523,-0.006414085,306.86554,-131.70956,26.58841,STD
20409760088064.0,0.29891237616539,0.9405367970466614,9.135191917419434,1.6237542629241943,-0.017504774034023285,-0.015271631,-0.009162978,306.43457,-131.38806,26.613941,STD
20465116512256.0,0.3038341999053955,0.9423467516899109,9.160370826721191,1.6279985904693604,-0.017332520335912704,-0.01282817,-0.00580322,305.9983,-131.07256999999998,26.640436,STD
20518149292032.0,0.3087599277496338,0.9440284967422485,9.184515953063965,1.6320908069610596,-0.017141057178378105,-0.0070249503,0.00061086525,305.56308,-130.76006999999998,26.665304,STD
20568946507776.0,0.31368935108184814,0.945585310459137,9.207667350769043,1.6360408067703247,-0.016971085220575333,-0.009162978,-0.0030543262,305.1276200000001,-130.44977,26.686945,STD
20617596239872.0,0.31862229108810425,0.9470205903053284,9.229864120483398,1.6398581266403198,-0.016787897795438766,-0.011301007,-0.008246681,304.69073,-130.14972,26.709871000000003,STD
20664182374400.0,0.3235585689544678,0.9483376145362854,9.251144409179688,1.6435514688491821,-0.016597723588347435,-0.00030543262000000003,-0.009773844,304.25015,-129.84912,26.73366,STD
20708788797440.0,0.3284980356693268,0.9495397806167603,9.27154541015625,1.647128939628601,-0.016393151134252548,0.0021380284,-0.0021380284,303.8124,-129.55753,26.756187,STD
20751493103616.0,0.33344051241874695,0.9506303668022156,9.291101455688477,1.6505982875823975,-0.016165846958756447,0.005192355,-0.008246681,303.36816,-129.26752,26.775946,STD
20792370790400.0,0.3383859097957611,0.9516127109527588,9.309846878051758,1.6539667844772339,-0.015943970531225204,0.003970624,-0.01038471,302.92545,-128.98279,26.797655,STD
20831495258112.0,0.34333404898643494,0.9524900317192078,9.327815055847168,1.6572411060333252,-0.01573019102215767,-0.002443461,-0.009773844,302.48187,-128.7045,26.817606,STD
20868937809920.0,0.34828487038612366,0.9532654881477356,9.345036506652832,1.6604275703430176,-0.015541624277830124,0.0061086523,-0.010995574,302.0329,-128.42743000000002,26.837872,STD
20904765554688.0,0.35323819518089294,0.9539423584938049,9.361542701721191,1.6635321378707886,-0.015365781262516975,0.0015271631,-0.009162978,301.589,-128.15768,26.855799,STD
20939045601280.0,0.35819384455680847,0.9545236825942993,9.377362251281738,1.666560173034668,-0.015177552588284016,-0.004581489,-0.013439035,301.14102,-127.89093,26.872282,STD
20971840864256.0,0.3631516993045807,0.9550126194953918,9.392523765563965,1.669516921043396,-0.014981360174715519,-0.00061086525,-0.009162978,300.69196,-127.629974,26.89159,STD
21003212161024.0,0.36811167001724243,0.9554121494293213,9.407054901123047,1.6724072694778442,-0.014795936644077301,-0.01038471,-0.009773844,300.24615,-127.37243,26.905497,STD
21033218211840.0,0.3730737566947937,0.9557251334190369,9.420980453491211,1.6752357482910156,-0.014577318914234638,-0.01038471,-0.010690141499999998,299.79584,-127.12424,26.921753,STD
21061915639808.0,0.3780377209186554,0.9559545516967773,9.434326171875,1.6780065298080444,-0.014322631992399693,-0.010995574,-0.009468411,299.3476,-126.87735,26.936617,STD
21089358970880.0,0.38300344347953796,0.9561032652854919,9.44711685180664,1.6807234287261963,-0.014033738523721695,-0.02321288,-0.004886922,298.90186,-126.638084,26.950289,STD
21115598536704.0,0.3879709541797638,0.9561740159988403,9.459375381469727,1.6833903789520264,-0.013701127842068672,-0.022296581,-0.00030543262000000003,298.45145,-126.40469,26.965488,STD
21140686766080.0,0.3929399847984314,0.9561695456504822,9.471123695373535,1.6860105991363525,-0.013326811604201794,-0.013133603,-0.0036651916,298.00043,-126.17438,26.978962,STD
21164671893504.0,0.3979106843471527,0.9560924172401428,9.482383728027344,1.6885875463485718,-0.012934395112097263,-0.017104227,-0.0033597588,297.5527600000001,-125.949646,26.992744,STD
21187597959168.0,0.40288296341896057,0.9559451937675476,9.493175506591797,1.6911242008209229,-0.012493039481341839,-0.020463986,-0.0018325958,297.10062,-125.73218,27.006819,STD
21209511100416.0,0.4078565835952759,0.9557303786277771,9.503519058227539,1.6936233043670654,-0.012018618173897266,-0.0143553335,0.0021380284,296.64578,-125.51555,27.02191,STD
21230455357440.0,0.41283151507377625,0.9554504752159119,9.513434410095215,1.6960874795913696,-0.011521981097757816,-0.01282817,0.00580322,296.19202,-125.30562,27.036062,STD
21250470576128.0,0.4178076684474945,0.9551078081130981,9.52293872833252,1.6985191106796265,-0.010992963798344135,-0.008246681,-0.0036651916,295.73288,-125.098206,27.048492,STD
21269596602368.0,0.42278504371643066,0.9547047019004822,9.532050132751465,1.700920581817627,-0.01041474100202322,-0.009162978,-0.004886922,295.2749,-124.89748,27.063206,STD
21287871184896.0,0.42776352167129517,0.9542433619499207,9.54078483581543,1.703294038772583,-0.009794928133487701,-0.004276057,0.0018325958,294.8121,-124.699715,27.07833,STD
21305329975296.0,0.4327475428581238,0.9537243247032166,9.54916000366211,1.7056432962417603,-0.009169093333184719,-0.0125227375,0.0015271631,294.3509,-124.50343,27.089401,STD
21322008625152.0,0.4377322196960449,0.9531514644622803,9.557190895080566,1.7079682350158691,-0.00851101242005825,-0.007941248,0.0027488936,293.8838,-124.31612,27.104202,STD
21337940688896.0,0.44271740317344666,0.9525268077850342,9.564891815185547,1.710270643234253,-0.007858864031732082,-0.005497787,0.003970624,293.41815,-124.12697,27.117409,STD
21353159720960.0,0.44770321249961853,0.9518523216247559,9.572278022766113,1.7125520706176758,-0.007205209694802761,-0.013439035,0.005497787,292.95273,-123.945854,27.130032,STD
21367695081472.0,0.4526897370815277,0.9511298537254333,9.579361915588379,1.7148141860961914,-0.006556399166584015,-0.010690141499999998,0.005192355,292.48163,-123.765396,27.143427000000006,STD
21381576130560.0,0.4576767683029175,0.9503613114356995,9.586156845092773,1.7170583009719849,-0.0059094359166920185,-0.009468411,0.0030543262,292.01166,-123.58929,27.155325,STD
21394832228352.0,0.4626642167568207,0.9495484828948975,9.592676162719727,1.7192857265472412,-0.0052694352343678474,-0.006414085,0.002443461,291.53873,-123.41612,27.16758,STD
21407490637824.0,0.4676520824432373,0.9486930966377258,9.598931312561035,1.721497654914856,-0.004632287658751011,-0.012217305,-0.002443461,291.06567,-123.24547,27.176912,STD
21419576524800.0,0.47264036536216736,0.9477967619895935,9.604934692382812,1.7236952781677246,-0.004032470751553774,-0.017715093,-0.0033597588,290.5902700000001,-123.07652,27.187040000000003,STD
21431117152256.0,0.47762903571128845,0.9468611478805542,9.610696792602539,1.7258796691894531,-0.0034868991933763027,-0.02076942,0.007941248,290.11496,-122.9136,27.198408,STD
21442133491712.0,0.4826180040836334,0.9458721280097961,9.616232872009277,1.7280973196029663,-0.0029585310257971287,-0.024129177,0.005192355,289.7288,-122.65731,27.139992,STD
21452650708992.0,0.48760926723480225,0.9447919130325317,9.621566772460938,1.7304613590240479,-0.0024522868916392326,-0.025350908,0.002443461,289.34515,-122.40571,27.08452,STD
21462689775616.0,0.49260056018829346,0.9436209201812744,9.626730918884277,1.7329964637756348,-0.0019699118565768003,-0.029932396,0.0036651916,289.0125,-122.10286,26.990438,STD
21472271663104.0,0.49759218096733093,0.9423849582672119,9.631780624389648,1.735677719116211,-0.0015102996258065104,-0.028710667,-0.00030543262000000003,288.842845074433,-121.947797346388,26.939200304925603,STD
21481417342976.0,0.5025838613510132,0.9411066770553589,9.636763572692871,1.7384823560714722,-0.001088875811547041,-0.030543262,-0.017104227,288.67987,-121.79883999999998,26.88998,STD
21490145689600.0,0.5075756907463074,0.9398069381713867,9.641722679138184,1.7413896322250366,-0.0007037429022602737,-0.021685716,-0.015577064,288.3842,-121.47604,26.780806,STD
21498475577344.0,0.5125676989555359,0.9385043978691101,9.646696090698242,1.7443723678588867,-0.00035396459861658514,-0.021991149,-0.02321288,288.1297600000001,-121.13948,26.661386,STD
21506423783424.0,0.5175597667694092,0.9372164607048035,9.651708602905273,1.7473610639572144,-4.7276065743062645e-05,-0.016187929,-0.02443461,287.8772600000001,-120.81137,26.54539,STD
21514007085056.0,0.5225518941879272,0.9359620213508606,9.656784057617188,1.7502777576446533,0.00024160867906175554,-0.01863139,-0.032070424,287.67264,-120.48186,26.431368,STD
21521242259456.0,0.5275442600250244,0.9347824454307556,9.661955833435059,1.7529425621032715,0.0004946319968439639,-0.02076942,-0.03268129,287.4734,-120.159134,26.319471000000004,STD
21528146083840.0,0.5325367450714111,0.9337127208709717,9.667237281799316,1.7552176713943481,0.0007720483699813485,-0.006414085,-0.028710667,287.34213,-119.85407,26.229351,STD
21534733238272.0,0.5375296473503113,0.9327765107154846,9.672524452209473,1.7571094036102295,0.001084418734535575,-0.008552114,-0.03359759,287.22333,-119.55247,26.135149,STD
21541016305664.0,0.5425229668617249,0.9319939017295837,9.677724838256836,1.7586253881454468,0.001422892208211124,-0.008552114,-0.031154128,287.20874,-119.28872,26.087418,STD
21547009966080.0,0.5475167036056519,0.9313824772834778,9.682757377624512,1.7597736120224,0.0017985464073717594,-0.0033597588,-0.03023783,287.2003200000001,-119.03457,26.03744,STD
21552726802432.0,0.5525104999542236,0.930957019329071,9.687549591064453,1.7605624198913574,0.002261974848806858,0.00580322,-0.025045475,287.3545200000001,-118.83052,26.062593,STD
21558179397632.0,0.5575060844421387,0.9307343363761902,9.692028999328613,1.7609970569610596,0.0028183695394545794,0.007941248,-0.028710667,287.51535,-118.63536,26.082985,STD
21563380334592.0,0.5625019073486328,0.9307186007499695,9.696137428283691,1.7610867023468018,0.0035085531417280436,0.009162978,-0.022296581,287.9652,-118.53856,26.24417,STD
21568340099072.0,0.5674976706504822,0.9308688044548035,9.699711799621582,1.7608145475387573,0.0043288301676511765,0.0125227375,-0.020158553,288.41266,-118.45436,26.395948,STD
21573071273984.0,0.5724939107894897,0.9311466217041016,9.702597618103027,1.7601637840270996,0.005266844294965267,0.01863139,-0.004276057,289.4330700000001,-118.581375,26.835787,STD
21577582247936.0,0.5774900913238525,0.9315187931060791,9.704672813415527,1.7591242790222168,0.0063372100703418255,0.02565634,-0.0030543262,290.4156,-118.7266,27.248533,STD
21581883506688.0,0.5824872255325317,0.9319548606872559,9.705811500549316,1.7576829195022583,0.007492796052247286,0.022602014,-0.00061086525,291.78076,-118.97484,27.788757,STD
21585985536000.0,0.5874841809272766,0.9324708580970764,9.706000328063965,1.7558495998382568,0.008708466775715351,0.014966198,0.0030543262,293.07376,-119.2422,28.294828000000006,STD
21589896724480.0,0.5924808979034424,0.9330823421478271,9.705222129821777,1.7536321878433228,0.009964126162230968,0.01863139,0.0070249503,294.18735,-119.397705,28.636261,STD
21593625460736.0,0.5974776148796082,0.9337190985679626,9.703572273254395,1.7511333227157593,0.011238180100917816,0.011301007,0.014049901000000002,295.26328,-119.5648,28.958632,STD
21597180133376.0,0.6024740934371948,0.9343041777610779,9.701157569885254,1.7484618425369263,0.012525969184935093,0.014049901000000002,0.016493361,296.2956,-119.73853,29.261885,STD
21600569131008.0,0.6074705719947815,0.9347958564758301,9.69811725616455,1.7456929683685303,0.013794652186334133,-0.002443461,0.013439035,297.30264,-119.92113,29.551256,STD
21603798745088.0,0.6124671101570129,0.9351751804351807,9.694600105285645,1.742878794670105,0.0150113794952631,-0.015882496,0.0076358155,298.2761799999999,-120.10506399999998,29.823057,STD
21606877364224.0,0.6174636483192444,0.9354254603385925,9.690739631652832,1.7400660514831543,0.016150327399373055,-0.025045475,0.018936822,299.21497,-120.28296,30.07256,STD
21609813377024.0,0.6224602460861206,0.9355319738388062,9.68665885925293,1.7372969388961792,0.017196377739310265,-0.01740966,0.015577064,300.12744,-120.4532,30.300697,STD
21612610977792.0,0.6274573802947998,0.935464084148407,9.682479858398438,1.7346043586730957,0.018139714375138283,-0.031154128,0.0015271631,301.0276,-120.620476,30.51362,STD
21615278555136.0,0.6324554681777954,0.9351856708526611,9.678319931030273,1.7320152521133423,0.01898571476340294,-0.03390302,-0.007941248,301.90128,-120.78416,30.713003000000004,STD
21617820303360.0,0.6374536752700806,0.9346755743026733,9.67430591583252,1.7294933795928955,0.01970130018889904,-0.03756821,-0.00580322,302.7223,-120.925644,30.880457,STD
21620242513920.0,0.6424520611763,0.9339157342910767,9.670578956604004,1.726966381072998,0.02027888596057892,-0.028710667,-0.01863139,303.52603,-121.05514,31.029015,STD
21622551478272.0,0.6474504470825195,0.9329478144645691,9.667224884033203,1.7243415117263794,0.02073114924132824,-0.028099801,-0.025350908,304.32602,-121.17786,31.164986,STD
21624751390720.0,0.652448832988739,0.9318340420722961,9.664301872253418,1.721522569656372,0.021035974845290184,-0.020463986,-0.027488936,305.1091,-121.29225,31.287733000000006,STD
21626848542720.0,0.657447099685669,0.9305946230888367,9.661822319030762,1.7184243202209473,0.02120085246860981,-0.014966198,-0.036651913,305.9242,-121.414474,31.413937,STD
21628847128576.0,0.6624453067779541,0.9292174577713013,9.659761428833008,1.7149697542190552,0.02123289555311203,-0.007330383,-0.04062254,306.72424,-58.470108,31.529537,STD
21630751342592.0,0.6674433946609497,0.9277389049530029,9.658092498779297,1.7111785411834717,0.02115880325436592,-0.0015271631,-0.048258353,307.53717,-58.35478199999999,31.641863,STD
21632565379072.0,0.6724414229393005,0.9262184500694275,9.65678882598877,1.7071188688278198,0.020969847217202187,-0.0015271631,-0.04642576,307.805200583294,-58.31690796793549,31.677836897540196,STD
21634293432320.0,0.6774393916130066,0.9247093200683594,9.655824661254883,1.7028523683547974,0.020672408863902092,-0.0015271631,-0.043982297,308.071841021932,-58.2792303701087,31.713624215918895,STD
21635939696640.0,0.6824372410774231,0.9232593774795532,9.655176162719727,1.6984349489212036,0.020271645858883858,-0.004886922,-0.028710667,308.33923,-58.241447,31.749512,STD
21637508366336.0,0.6874352097511292,0.9219116568565369,9.65482234954834,1.6939173936843872,0.019791562110185623,-0.006414085,-0.03634648,309.13287,-58.154358,31.829021,STD
21639003635712.0,0.6924330592155457,0.9207034111022949,9.654742240905762,1.689344882965088,0.019249556586146355,-0.005192355,-0.03604105,309.9163200000001,-58.06794,31.90617,STD
21640427601920.0,0.6974313259124756,0.9196743965148926,9.654903411865234,1.6848148107528687,0.01867961697280407,-0.010995574,-0.03756821,310.70654,-57.98380699999999,31.979832,STD
21641784459264.0,0.7024296522140503,0.9188598990440369,9.655267715454102,1.680450201034546,0.018091464415192604,-0.025350908,-0.027794369,311.48932,-57.905396,32.046898,STD
21643078402048.0,0.7074279189109802,0.9182482361793518,9.655787467956543,1.6763590574264526,0.017511213198304176,-0.025961773,-0.013744468,312.2223,-57.854,32.086586,STD
21644309430272.0,0.7124261856079102,0.9177790880203247,9.656404495239258,1.6726338863372803,0.016954438760876656,-0.021991149,-0.01282817,312.95135,-57.811047,32.117523,STD
21645483835392.0,0.7174243330955505,0.9174238443374634,9.657097816467285,1.6692919731140137,0.016459321603178978,-0.023823744,-0.01038471,313.64563,-57.779755,32.137159999999994,STD
21646601617408.0,0.7224225401878357,0.9171853065490723,9.65788459777832,1.6662757396697998,0.016011329367756844,-0.025045475,-0.005192355,314.33298,-57.75375,32.151165,STD
21647666970624.0,0.7274206876754761,0.9170470833778381,9.658785820007324,1.6635515689849854,0.015625063329935074,-0.0290161,-0.0033597588,315.00748,-57.737316,32.155945,STD
21648681992192.0,0.7324188351631165,0.9169722199440002,9.65982723236084,1.661110520362854,0.015290878713130951,-0.025350908,-0.0015271631,315.67502,-57.7254,32.156,STD
21649648779264.0,0.7374169826507568,0.9169244170188904,9.661020278930664,1.6589287519454956,0.01499564666301012,-0.018936822,-0.01038471,316.34268,-57.720665,32.149277000000005,STD
21650569428992.0,0.7424151301383972,0.9168674945831299,9.662359237670898,1.6569654941558838,0.014727490022778511,-0.023823744,-0.010995574,317.00812,-57.71926,32.1396,STD
21651446038528.0,0.7474130988121033,0.9167694449424744,9.663838386535645,1.6551837921142578,0.014470482245087624,-0.016493361,-0.008857545999999999,317.65903,-57.732513,32.115074,STD
21652280705024.0,0.7524111866950989,0.9166005849838257,9.66545295715332,1.6535494327545166,0.014242413453757763,-0.007941248,-0.014049901000000002,318.30704,-57.7539,32.083054,STD
21653075525632.0,0.7574090361595154,0.916323721408844,9.667187690734863,1.6520098447799683,0.014027916826307774,-0.004886922,-0.020463986,318.95026,-57.780113,32.046143,STD
21653832597504.0,0.7624069452285767,0.9158813953399658,9.669010162353516,1.650476336479187,0.013843542896211147,-0.004886922,-0.026267206,319.27376066100896,-57.79718687259111,32.0237882539191,STD
21654554017792.0,0.7674046754837036,0.9152429103851318,9.670910835266113,1.6488807201385498,0.013656329363584518,0.0036651916,-0.027794369,319.58478,-57.813602,32.002296,STD
21655239786496.0,0.7724025249481201,0.9144103527069092,9.672908782958984,1.6471737623214722,0.013470571488142014,0.013744468,-0.035430185,320.23828,-57.84301,31.963284,STD
21655894097920.0,0.7774001955986023,0.9133870005607605,9.675021171569824,1.64531409740448,0.013309200294315815,0.011911872,-0.03359759,320.9051,-57.873173,31.924511,STD
21656516952064.0,0.782397985458374,0.9121755361557007,9.677263259887695,1.6432628631591797,0.013174481689929962,0.01038471,-0.03390302,321.5633,-57.912247,31.877039,STD
21657110446080.0,0.7873958945274353,0.9107806086540222,9.679646492004395,1.6410068273544312,0.013071839697659016,0.0067195175,-0.043676864,322.22684,-57.955036,31.826416,STD
21657674579968.0,0.7923938035964966,0.9092116951942444,9.68217658996582,1.6386007070541382,0.013047683984041214,0.0009162979,-0.04337143,322.88568,-58.00188000000001,31.772924,STD
21658211450880.0,0.7973917126655579,0.9074870347976685,9.684858322143555,1.6361033916473389,0.013088736683130264,-0.008246681,-0.044593163,323.57022,-58.04969000000001,31.718943,STD
21658723155968.0,0.8023899793624878,0.9056558609008789,9.68769645690918,1.6336017847061157,0.0131915844976902,-0.016187929,-0.045814894,324.24936,-58.10486,31.65895,STD
21659211792384.0,0.8073883056640625,0.9037734866142273,9.690692901611328,1.6311790943145752,0.013392031192779541,-0.028099801,-0.040927973,324.9201,-58.169346,31.591108,STD
21659677360128.0,0.8123888373374939,0.9019414186477661,9.693853378295898,1.6289550065994263,0.013665501959621906,-0.042455133,-0.046120327,325.58813,-58.24255,31.514673,STD
21660119859200.0,0.8173891305923462,0.9002243280410767,9.697165489196777,1.626988172531128,0.01398976519703865,-0.05222898,-0.03634648,326.2447200000001,-58.318863,31.435717,STD
21660541386752.0,0.8223891258239746,0.8986831307411194,9.700581550598145,1.625268816947937,0.01438725646585226,-0.046731193,-0.034208454,326.8951,-58.40470500000001,31.348001,STD
21660941942784.0,0.8273888230323792,0.8973720073699951,9.704058647155762,1.623787522315979,0.014837972819805145,-0.049480084,-0.019547688,327.52487,-58.49395,31.256441,STD
21661323624448.0,0.8323929309844971,0.8963603377342224,9.70754623413086,1.6224379539489746,0.015328172594308853,-0.03390302,-0.01740966,328.14163,-58.59112,31.157223,STD
21661688528896.0,0.8373963236808777,0.895665168762207,9.711014747619629,1.6211559772491455,0.015853235498070717,-0.04062254,-0.01282817,328.7610200000001,-58.687897,31.059282,STD
21662034558976.0,0.842399001121521,0.895205020904541,9.714466094970703,1.6198079586029053,0.016398509964346886,-0.036651913,-0.011301007,329.3517,-58.789005,30.957155,STD
21662363811840.0,0.8474010229110718,0.8948653340339661,9.717915534973145,1.618255853652954,0.01693432778120041,-0.028710667,-0.004886922,329.9385,-58.89114,30.854176,STD
21662678384640.0,0.8524025678634644,0.8945375680923462,9.721391677856445,1.616382122039795,0.017500918358564377,-0.030543262,-0.0018325958,330.5118700000001,-59.001430000000006,30.744547,STD
21662978277376.0,0.8574038147926331,0.8941153883934021,9.72494888305664,1.6140928268432617,0.018126443028450012,-0.028405234,-0.012217305,331.07715,-59.11660799999999,30.629612,STD
21663263490048.0,0.8624045848846436,0.893520712852478,9.728606224060059,1.6113553047180176,0.01883077062666416,-0.027794369,-0.010690141499999998,331.6773,-59.219585,30.529541,STD
21663534022656.0,0.8674049377441406,0.892717182636261,9.732318878173828,1.6082547903060913,0.019660111516714096,-0.028405234,-0.007330383,332.2716,-59.32997,30.422935,STD
21663791972352.0,0.872404932975769,0.8916727304458618,9.736044883728027,1.6048688888549805,0.020650319755077362,-0.026267206,-0.020463986,332.88742,-59.445965,30.312057,STD
21664037339136.0,0.8774046897888184,0.8903591632843018,9.739748001098633,1.6012680530548096,0.02181399054825306,-0.025350908,-0.024129177,333.49643,-59.563362,30.200302,STD
21664272220160.0,0.88240647315979,0.8887568116188049,9.743378639221191,1.5975315570831299,0.023164521902799606,-0.027794369,-0.032070424,334.08798,-59.697914,30.071705,STD
21664496615424.0,0.8874081373214722,0.8870123624801636,9.746753692626953,1.5938410758972168,0.024694306775927544,-0.026267206,-0.04642576,334.67163,-59.838966000000006,29.936598,STD
21664710524928.0,0.8924092650413513,0.8852714896202087,9.749688148498535,1.590378761291504,0.02635090798139572,-0.030848695,-0.053145275,335.2509,-59.98839,29.792686,STD
21664913948672.0,0.8974100351333618,0.8836718797683716,9.75205135345459,1.5871868133544922,0.02811993658542633,-0.028710667,-0.05925392700000001,335.8214700000001,-60.14512,29.64177,STD
21665106886656.0,0.9024105072021484,0.882337212562561,9.75373363494873,1.5842729806900024,0.029925715178251266,-0.023823744,-0.061391957,336.3866,-60.30421,29.487377,STD
21665291436032.0,0.9074108004570007,0.8812412023544312,9.754680633544922,1.581579566001892,0.03171072527766228,-0.023823744,-0.06597344599999999,336.89716,-60.47322,29.322357,STD
21665467596800.0,0.9124106764793396,0.880321741104126,9.754858016967773,1.5790375471115112,0.033419135957956314,-0.03268129,-0.07544186,337.4052700000001,-60.64477,29.154102,STD
21665635368960.0,0.9174103736877441,0.8795648217201233,9.754246711730957,1.5765947103500366,0.035000257194042206,-0.034208454,-0.071776666,337.8919,-60.806046,28.995144,STD
21665794752512.0,0.9224096536636353,0.8789687752723694,9.752838134765625,1.574208378791809,0.0364203006029129,-0.04153884,-0.06536258,338.37997,-60.96990200000001,28.83338,STD
21665945747456.0,0.9274088740348816,0.8785324692726135,9.750704765319824,1.5718172788619995,0.03765290975570679,-0.04917465,-0.06841691,338.87384,-61.13133000000001,28.673399,STD
21666090450944.0,0.932407796382904,0.8782539367675781,9.747941970825195,1.569361686706543,0.03865503892302513,-0.05681047,-0.073303826,339.36603,-61.292213,28.513418,STD
21666228862976.0,0.9374069571495056,0.8780573606491089,9.744732856750488,1.5668272972106934,0.039437346160411835,-0.06566802,-0.06414085,339.8435,-61.45545,28.351318,STD
21666358886400.0,0.9424057602882385,0.8778566718101501,9.741262435913086,1.5642166137695312,0.04003515839576721,-0.084910266,-0.052839845,340.3232700000001,-61.6201,28.187757,STD
21666484715520.0,0.9474045038223267,0.8775957822799683,9.737737655639648,1.5614696741104126,0.0404832698404789,-0.09315695,-0.04428773,340.8044700000001,-61.781525,28.02776,STD
21666604253184.0,0.9524054527282715,0.8772270679473877,9.734378814697266,1.5584994554519653,0.04078466072678566,-0.11178834,-0.03268129,341.29086,-61.939987,27.871088,STD
21666717499392.0,0.9574061632156372,0.8766902089118958,9.731348037719727,1.5552194118499756,0.04100748151540756,-0.106901415,-0.025350908,341.77896,-62.10495,27.708769,STD
21666826551296.0,0.9624066352844238,0.8758854269981384,9.728843688964844,1.5514928102493286,0.0411592498421669,-0.09621128,-0.020158553,342.2664,-62.26785699999999,27.54797,STD
21666929311744.0,0.9674068093299866,0.8747496604919434,9.72694206237793,1.547253131866455,0.04127379506826401,-0.092240654,-0.010079277,342.7569299999999,-62.43924300000001,27.380814,STD
21667027877888.0,0.972406804561615,0.8732419610023499,9.725651741027832,1.5424739122390747,0.04133470356464386,-0.06994407,-0.006414085,343.2333,-62.611458,27.21172,STD
21667122249728.0,0.9774066805839539,0.8713175654411316,9.724935531616211,1.5371310710906982,0.04137339070439339,-0.05375614,-0.008246681,343.73373,-62.787563,27.040667,STD
21667212427264.0,0.9824063777923584,0.8689295053482056,9.724721908569336,1.5312025547027588,0.041426751762628555,-0.02107485,-0.0033597588,344.21564,-62.96175,26.87065,STD
21667298410496.0,0.9874060153961182,0.86607426404953,9.72490119934082,1.5247377157211304,0.04150005057454109,0.00061086525,0.007330383,344.70657,-63.137104,26.699896000000006,STD
21667380199424.0,0.9924054741859436,0.8627817034721375,9.725337982177734,1.5178371667861938,0.04157539829611778,0.02107485,0.0067195175,345.18134,-63.315445,26.525606,STD
21667457794048.0,0.9974048137664795,0.8590800762176514,9.72586441040039,1.510606050491333,0.041633281856775284,0.034513887,0.008246681,345.6358600000001,-63.504486,26.340971000000003,STD
21667531194368.0,1.002403974533081,0.8549967408180237,9.726289749145508,1.5031503438949585,0.04166320711374283,0.03848451,0.0061086523,346.08154,-63.69481,26.154621,STD
21667602497536.0,1.0074028968811035,0.850519597530365,9.726459503173828,1.4955819845199585,0.04164369776844978,0.049785517,0.0143553335,346.51199999999994,-63.881214,25.971231,STD
21667669606400.0,1.0124017000198364,0.845586359500885,9.72625732421875,1.4880244731903076,0.041574735194444656,0.051923547,0.014049901000000002,346.93933,-64.07068000000001,25.784782,STD
21667734618112.0,1.0174002647399902,0.8401516675949097,9.725564002990723,1.480591058731079,0.041459910571575165,0.04795292,0.015271631,347.34576,-64.25901999999999,25.598982,STD
21667795435520.0,1.0223991870880127,0.8341929316520691,9.724222183227539,1.4733951091766357,0.041299968957901,0.030543262,0.014660766,347.75174,-64.44751,25.412996,STD
21667854155776.0,1.0273979902267456,0.8277063369750977,9.72216510772705,1.466543436050415,0.041067950427532196,0.023518313,0.014049901000000002,348.13675,-64.64528,25.216616,STD
21667910778880.0,1.0324013233184814,0.8206785321235657,9.719386100769043,1.4601927995681763,0.04078413546085358,0.017104227,0.019547688,348.52353,-64.84115,25.0227,STD
21667963207680.0,1.0374040603637695,0.8131462335586548,9.715932846069336,1.4544060230255127,0.04044429585337639,0.002443461,0.015882496,348.9083,-65.03858000000001,24.827124,STD
21668013539328.0,1.0424062013626099,0.8051317930221558,9.711846351623535,1.4492952823638916,0.04006214812397957,-0.01160644,0.015577064,349.29163,-65.23318499999999,24.634672,STD
21668061773824.0,1.0474077463150024,0.7966916561126709,9.707194328308105,1.4449530839920044,0.03965010493993759,-0.01740966,0.016493361,349.6668,-65.43215,24.436968,STD
21668107911168.0,1.0524089336395264,0.7879975438117981,9.70213794708252,1.4414451122283936,0.039231523871421814,-0.015882496,0.010995574,350.0413200000001,-65.63249,24.238075,STD
21668151951360.0,1.0574095249176025,0.7791961431503296,9.696856498718262,1.4387446641921997,0.038779642432928085,-0.020463986,0.005192355,350.40616,-65.83722,24.033363,STD
21668193894400.0,1.06240975856781,0.7704126834869385,9.69157886505127,1.4366865158081055,0.03828185424208641,-0.021380283,-0.0070249503,350.7671,-66.044624,23.82614,STD
21668233740288.0,1.0674095153808594,0.7617539167404175,9.686506271362305,1.4351091384887695,0.03772437945008278,-0.017715093,-0.0143553335,351.11462,-66.25030500000001,23.619545,STD
21668273586176.0,1.0724090337753296,0.753303587436676,9.681818008422852,1.4338083267211914,0.03710979223251343,-0.0033597588,-0.015882496,351.45715,-66.45645999999999,23.412271,STD
21668311334912.0,1.0774081945419312,0.7451545596122742,9.677647590637207,1.4325758218765259,0.03642060607671738,0.01985312,-0.016493361,351.80136,-66.659706,23.208076,STD
21668346986496.0,1.0824071168899536,0.737443208694458,9.674057006835938,1.4311453104019165,0.03564656525850296,0.03023783,-0.014660766,352.1428,-66.861244,23.005512,STD
21668380540928.0,1.087406039237976,0.7302724719047546,9.671101570129395,1.4292932748794556,0.03478652611374855,0.04520403,-0.028710667,352.48285,-67.06371,22.80234,STD
21668414095360.0,1.092404842376709,0.7236629128456116,9.668822288513184,1.4268858432769775,0.033852722495794296,0.06658431,-0.035124752999999995,352.815,-67.26191999999999,22.603094,STD
21668445552640.0,1.0974034070968628,0.7176148891448975,9.667220115661621,1.4238442182540894,0.032856326550245285,0.07086037,-0.048258353,353.15634,-67.45452,22.410898,STD
21668474912768.0,1.102401852607727,0.7120873928070068,9.666208267211914,1.4201959371566772,0.03186912089586258,0.07727446,-0.04917465,353.48727,-67.6447,22.221426,STD
21668504272896.0,1.1074001789093018,0.7070420980453491,9.665708541870117,1.4159680604934692,0.0308894831687212,0.0720821,-0.048258353,353.8283,-67.83173000000001,22.03565,STD
21668531535872.0,1.1123985052108765,0.7024432420730591,9.6656494140625,1.4111859798431396,0.02997145801782608,0.060170225999999986,-0.053145275,354.16574,-68.02059,21.849157,STD
21668558798848.0,1.1173967123031616,0.6982520222663879,9.665952682495117,1.4059094190597534,0.029119936749339104,0.047647487,-0.0571159,354.50125,-68.2071,21.664442,STD
21668583964672.0,1.1223949193954468,0.6944107413291931,9.666498184204102,1.400327205657959,0.028393762186169624,0.03756821,-0.058643065,354.83588,-68.39407,21.480328,STD
21668609130496.0,1.127393126487732,0.6908696889877319,9.6671724319458,1.3946149349212646,0.027799343690276146,0.034208454,-0.06078109,355.17816,-68.57595,21.30166,STD
21668632199168.0,1.1323912143707275,0.6875942945480347,9.667851448059082,1.3889508247375488,0.027367204427719116,0.0143553335,-0.05955936,355.52426,-68.75709,21.124712,STD
21668655267840.0,1.13739013671875,0.6845494508743286,9.668411254882812,1.3834772109985352,0.027103424072265625,0.004581489,-0.058948494,355.8637,-68.93638,20.948725,STD
21668676239360.0,1.1423890590667725,0.6816986799240112,9.668734550476074,1.378232479095459,0.027038995176553726,0.0027488936,-0.06169739,356.2025799999999,-69.115974,20.773012,STD
21668697210880.0,1.1473878622055054,0.6790077686309814,9.66871166229248,1.3732521533966064,0.027144744992256165,-0.0021380284,-0.063224554,356.53244,-69.29373000000001,20.597446,STD
21668716085248.0,1.1523865461349487,0.6764512658119202,9.668336868286133,1.3685559034347534,0.027435680851340294,-0.022602014,-0.06414085,356.86395,-69.47189,20.422354,STD
21668734959616.0,1.1573851108551025,0.6740078926086426,9.667634010314941,1.3641568422317505,0.027885692194104195,-0.017104227,-0.069027774,357.1854,-69.650024,20.246386,STD
21668753833984.0,1.1623836755752563,0.6715957522392273,9.666585922241211,1.3600009679794312,0.02846311777830124,-0.021380283,-0.07086037,357.5012,-69.82871,20.069479,STD
21668772708352.0,1.1673821210861206,0.669137179851532,9.665178298950195,1.3560341596603394,0.0291756521910429,-0.01038471,-0.06963864,357.8074299999999,-70.00695999999999,19.892944,STD
21668789485568.0,1.1723805665969849,0.6665747165679932,9.663333892822266,1.3522324562072754,0.03000291995704174,-0.0076358155,-0.074830994,358.11777,-70.18468,19.716484,STD
21668806262784.0,1.17737877368927,0.6638597249984741,9.66098403930664,1.3485760688781738,0.030906377360224724,-0.009162978,-0.076358154,358.4228,-70.35979,19.542437,STD
21668823040000.0,1.1823769807815552,0.6611045598983765,9.658164024353027,1.345118522644043,0.031877290457487106,-0.004276057,-0.08155051,358.71713,-70.5441,19.35923,STD
21668837720064.0,1.1873751878738403,0.6584247350692749,9.654918670654297,1.3419137001037598,0.03291544318199158,0.0009162979,-0.07147124,359.00882,-70.72282,19.181358,STD
21668852400128.0,1.1923733949661255,0.6559337973594666,9.65131950378418,1.3390824794769287,0.034036070108413696,0.008857545999999999,-0.06688975,359.29675,-70.90464,19.000364,STD
21668867080192.0,1.1973713636398315,0.6537332534790039,9.647439002990723,1.3367462158203125,0.0352126844227314,0.014049901000000002,-0.055588737,359.5809,-71.07994000000002,18.82548,STD
21668881760256.0,1.2023694515228271,0.6520141959190369,9.643428802490234,1.3350402116775513,0.036413583904504776,0.006414085,-0.04153884,359.85074,-71.24806,18.657045,STD
21668896440320.0,1.2073674201965332,0.6509842276573181,9.639459609985352,1.334089994430542,0.03764064237475395,0.008552114,-0.027794369,0.113513954,-71.411766,18.492964,STD
21668909023232.0,1.2123655080795288,0.6508224606513977,9.635693550109863,1.3339306116104126,0.03886684402823448,0.016187929,-0.017104227,0.35973465,-71.56846,18.334873,STD
21668921606144.0,1.2173635959625244,0.6516805291175842,9.63227653503418,1.334551453590393,0.04007665067911148,0.018020526,0.008857545999999999,0.6048005,-71.71568,18.186415,STD
21668934189056.0,1.2223618030548096,0.6537513136863708,9.629387855529785,1.33587646484375,0.04124316945672035,0.035124752999999995,0.026267206,0.8238046999999998,-71.85135,18.047997,STD
21668946771968.0,1.2273600101470947,0.6572200059890747,9.627202033996582,1.3378151655197144,0.04234589263796806,0.03970624,0.047647487,1.0441935,-71.97721999999997,17.919367,STD
21668959354880.0,1.2323628664016724,0.6622400879859924,9.625879287719727,1.3400384187698364,0.04340825974941254,0.052839845,0.06261369,1.2401744,-72.09128,17.801931,STD
21668969840640.0,1.2373656034469604,0.6687888503074646,9.625449180603027,1.342348337173462,0.04443056881427765,0.07788532,0.09621128,1.4295472,-72.19248,17.696753,STD
21668980326400.0,1.2423681020736694,0.6767398118972778,9.625889778137207,1.344527006149292,0.04538024589419365,0.10476339,0.116980694,1.600993,-72.279045,17.606148,STD
21668990812160.0,1.2473701238632202,0.685937225818634,9.627159118652344,1.3463842868804932,0.04629075154662132,0.13897185,0.14080444,1.7611941000000002,-72.355255,17.526298999999998,STD
21669001297920.0,1.2523717880249023,0.6961233615875244,9.629196166992188,1.3478338718414307,0.0471748411655426,0.17440203,0.15699236,1.9124041,-72.41476999999998,17.46369,STD
21669011783680.0,1.2573730945587158,0.70699143409729,9.631930351257324,1.3488556146621704,0.04804922640323639,0.19822577,0.16462818,2.055416,-72.47018,17.40539,STD
21669022269440.0,1.2623741626739502,0.7181987166404724,9.635235786437988,1.349604606628418,0.04891763627529144,0.2125811,0.17043139999999998,2.1972888,-72.51928000000002,17.354439000000006,STD
21669032755200.0,1.2673749923706055,0.7294123768806458,9.63897705078125,1.350279688835144,0.0497756227850914,0.22357668,0.16615535,2.331637,-72.56915,17.302605,STD
21669043240960.0,1.2723755836486816,0.7403856515884399,9.64295482635498,1.3511582612991333,0.05062096193432808,0.22327125,0.16340645,2.4768128,-72.6255,17.2453,STD
21669051629568.0,1.2773765325546265,0.7509128451347351,9.646947860717773,1.3525444269180298,0.05144475772976875,0.22296582,0.14569137,2.617455,-72.68699000000002,17.18259,STD
21669060018176.0,1.2823771238327026,0.7608948945999146,9.650744438171387,1.3546820878982544,0.052223484963178635,0.21013765,0.13622294,2.7588708,-72.76553,17.101349,STD
21669068406784.0,1.2873775959014893,0.7702640295028687,9.654134750366211,1.3578025102615356,0.05292317271232605,0.18967366,0.10720685,2.9020116,-72.85355,17.010374,STD
21669076795392.0,1.2923778295516968,0.7790213227272034,9.656901359558105,1.3620718717575073,0.05351880565285683,0.17256944,0.09865474,3.0426419,-72.94783000000002,16.910973000000002,STD
21669085184000.0,1.2973778247833252,0.7871927618980408,9.65883731842041,1.3676228523254395,0.053952693939208984,0.16584991,0.08246681,3.186027,-73.05035,16.802402,STD
21669093572608.0,1.3023775815963745,0.7948176264762878,9.65977954864502,1.3744770288467407,0.054174456745386124,0.14049901,0.070554934,3.3277826,-73.15791,16.686451,STD
21669101961216.0,1.3073772192001343,0.8019442558288574,9.659601211547852,1.3825732469558716,0.05416209623217583,0.1328632,0.06627888,3.4661187999999994,-73.265755,16.569345000000002,STD
21669110349824.0,1.3123767375946045,0.808631181716919,9.65820598602295,1.3918392658233643,0.05385666340589523,0.11759156,0.06291912,3.6028664,-73.37129,16.451206,STD
21669118738432.0,1.3173761367797852,0.8149449229240417,9.655524253845215,1.4021940231323242,0.05322436988353729,0.099265605,0.06627888,3.7428164,-73.47416,16.335201,STD
21669127127040.0,1.3223754167556763,0.8209852576255798,9.6515531539917,1.4134918451309204,0.05227142572402954,0.10140363,0.06658431,3.8770456,-73.57327,16.222029,STD
21669135515648.0,1.3273745775222778,0.8268856406211853,9.646355628967285,1.4255212545394897,0.05094532296061516,0.09468412,0.069027774,4.0193963,-73.6675,16.111824,STD
21669141807104.0,1.3323734998703003,0.8328188061714172,9.640060424804688,1.4380768537521362,0.04926165193319321,0.07574729,0.07971791,4.158139,-73.75296999999998,16.010094,STD
21669148098560.0,1.3373725414276123,0.8390048742294312,9.632862091064453,1.4509544372558594,0.047242335975170135,0.08002335,0.08002335,4.292288,-73.83806,15.906729,FKL
21669154390016.0,1.3423713445663452,0.8456087708473206,9.624953269958496,1.4639590978622437,0.04492533206939697,0.074830994,0.093462385,4.4345026,-73.904045,15.823177,FKL
21669160681472.0,1.347371220588684,0.8527276515960693,9.616560935974121,1.4768667221069336,0.04236805438995361,0.07574729,0.096516706,4.5737809999999985,-73.97215,15.737075,FKL
21669166972928.0,1.3523709774017334,0.8604108691215515,9.607900619506836,1.4894970655441284,0.03958447650074959,0.07360926,0.10781772,4.707674,-74.01846,15.673487,FKL
21669173264384.0,1.3573706150054932,0.868672251701355,9.59925365447998,1.501668095588684,0.03663200885057449,0.081855945,0.11881329,4.8379693,-74.064964,15.610637,FKL
21669179555840.0,1.3623700141906738,0.8775080442428589,9.590810775756836,1.5132708549499512,0.033513132482767105,0.086132,0.12583824,4.9682617,-74.1007,15.558912,FKL
21669185847296.0,1.367369294166565,0.8868703246116638,9.582563400268555,1.524368166923523,0.030291274189949036,0.09132435,0.12980886,5.0952864,-74.13605,15.5092,FKL
21669192138752.0,1.3723690509796143,0.8967086672782898,9.574498176574707,1.5350078344345093,0.026951566338539124,0.093767814,0.13072516,5.2253065,-74.16640500000003,15.464753,FKL
21669198430208.0,1.377368688583374,0.9068809151649475,9.566553115844727,1.5450903177261353,0.02351398766040802,0.112399206,0.13775012,5.348113,-74.19565,15.422609,FKL
21669204721664.0,1.382369041442871,0.9172595739364624,9.558663368225098,1.5545140504837036,0.020028816536068916,0.12034045,0.13897185,5.4698970000000005,-74.22295,15.381665,FKL
21669211013120.0,1.3873692750930786,0.9278215765953064,9.550734519958496,1.5631818771362305,0.01650654897093773,0.12705997,0.14721853,5.585685,-74.245804,15.344194,FKL
21669217304576.0,1.392369270324707,0.9385495781898499,9.54267406463623,1.5710277557373047,0.012979255989193916,0.13927728,0.15393804,5.702129,-74.27323,15.304557999999998,FKL
21669223596032.0,1.397369146347046,0.9494438171386719,9.534374237060547,1.5781266689300537,0.00947569403797388,0.12950343,0.1600467,5.8222265,-74.29875,15.267132,FKL
21669229887488.0,1.4023689031600952,0.9605036973953247,9.525740623474121,1.584547758102417,0.006044120993465185,0.14996742,0.18448131,5.928616000000001,-74.31418599999998,15.241151,FKL
21669236178944.0,1.4073684215545654,0.9718834161758423,9.516487121582031,1.590357780456543,0.0026321648620069027,0.15790866,0.21105394,6.040537400000002,-74.326004,15.21751,FKL
21669242470400.0,1.4123681783676147,0.9837673902511597,9.506307601928711,1.5957103967666626,-0.0007455796585418284,0.16798794,0.23945917,6.144374,-74.33352,15.200459,FKL
21669248761856.0,1.4173678159713745,0.9965865612030029,9.494729995727539,1.6018705368041992,-0.0040908753871917725,0.089491755,0.2406809,6.265978,-74.33447,15.189762,FKL
21669255053312.0,1.4223679304122925,1.0107132196426392,9.481307029724121,1.6099001169204712,-0.007444431073963642,0.12522738,0.29626966,6.333185,-74.29395,15.217301,FKL
21669261344768.0,1.4273678064346313,1.0259815454483032,9.465706825256348,1.6190398931503296,-0.010904298163950443,0.16523905,0.33200526,6.42177,-74.25835,15.239594,FKL
21669267636224.0,1.4323720932006836,1.0422435998916626,9.447428703308105,1.6284061670303345,-0.014462633989751339,0.204029,0.3463606,6.441808,-74.16959,15.299804,FKL
21669273927680.0,1.4373759031295776,1.059299111366272,9.426633834838867,1.637544870376587,-0.018168512731790543,0.22907446,0.3747658,6.4533176,-74.064545,15.371865,FKL
21669280219136.0,1.442379117012024,1.076897144317627,9.403597831726074,1.6458680629730225,-0.02203860878944397,0.09682214,0.35796702,6.501062,-73.97006999999998,15.435887,FKL
21669286510592.0,1.447381854057312,1.0946851968765259,9.378439903259277,1.6529555320739746,-0.02605009824037552,0.08063421400000001,0.40500367,6.5068519999999985,-73.84187,15.54075,FKL
21669292802048.0,1.452384114265442,1.1122733354568481,9.3511962890625,1.6584935188293457,-0.03020467795431614,0.122478485,0.44104472,6.534949299999999,-73.722176,15.636909,FKL
21669299093504.0,1.4573860168457031,1.1293107271194458,9.321929931640625,1.6623661518096924,-0.034491319209337234,0.14813483,0.4560109000000001,6.587064999999999,-73.60798,15.737151,FKL
21669305384960.0,1.4623874425888062,1.1454803943634033,9.290724754333496,1.6646308898925781,-0.03883730247616768,0.16340645,0.46486846,6.628398,-73.489685,15.842373,FKL
21669311676416.0,1.4673885107040405,1.160474419593811,9.25765323638916,1.6654291152954102,-0.04312437027692795,0.15760323,0.47739118,6.6889753,-73.392746,15.935889,FKL
21669317967872.0,1.4723892211914062,1.1739799976348877,9.222770690917969,1.6650123596191406,-0.04727185517549515,0.14782938,0.47983465,6.745054700000002,-73.29969,16.02603,FKL
21669324259328.0,1.4773896932601929,1.185778260231018,9.186117172241211,1.6635915040969849,-0.05116274952888489,0.13836098,0.47983465,6.8152537,-73.22776999999998,16.09974,FKL
21669328453632.0,1.4823898077011108,1.195724606513977,9.147719383239746,1.6613432168960571,-0.05470332130789757,0.13041973,0.4859433,6.8861985,-73.1578,16.173506,FKL
21669332647936.0,1.4873898029327393,1.2037692070007324,9.107626914978027,1.6583186388015747,-0.05783398449420929,0.15088372,0.48197266,6.9618564,-73.11159,16.221981,FKL
21669338939392.0,1.4923895597457886,1.2099369764328003,9.065911293029785,1.6544803380966187,-0.06050162389874458,0.14508049,0.4783075,7.0460577,-73.068726,16.270844,FKL
21669343133696.0,1.4973890781402588,1.2143402099609375,9.022602081298828,1.6499282121658325,-0.06264780461788177,0.19761491,0.47433686,7.1129336,-73.044136,16.300022,FKL
21669349425152.0,1.5023884773254395,1.2174162864685059,8.977581024169922,1.6452689170837402,-0.06421123445034027,0.22815818,0.47036624,7.186946400000001,-73.024796,16.326961999999998,FKL
21669353619456.0,1.5073877573013306,1.219520092010498,8.930822372436523,1.6409822702407837,-0.06512822210788727,0.24617869,0.45265114,7.256987599999999,-73.02229,16.340816,FKL
21669357813760.0,1.5123869180679321,1.220863938331604,8.882512092590332,1.6373308897018433,-0.06539816409349442,0.25473082,0.45723262,7.319316400000001,-73.01711,16.35801,FKL
21669364105216.0,1.5173859596252441,1.221639633178711,8.832822799682617,1.6345466375350952,-0.06508743017911911,0.25076020000000004,0.45937067,7.3468037,-72.99064,16.387947,FKL
21669368299520.0,1.522384762763977,1.2221014499664307,8.781919479370117,1.6329741477966309,-0.06428923457860947,0.19639318,0.4437936,7.386939999999999,-72.9698,16.413794,FKL
21669372493824.0,1.5273834466934204,1.222760796546936,8.729970932006836,1.633408546447754,-0.0630737692117691,0.08704830000000001,0.41172317,7.444830400000002,-72.95444499999998,16.435589999999998,FKL
21669378785280.0,1.532383918762207,1.2237920761108398,8.677315711975098,1.6363192796707153,-0.0616074800491333,0.063224554,0.44776422,7.4678655,-72.90221,16.482191,FKL
21669382979584.0,1.5373845100402832,1.2249486446380615,8.624445915222168,1.6416032314300537,-0.0600740984082222,0.1133155,0.49388456,7.501616499999999,-72.856125,16.521829999999998,FKL
21669389271040.0,1.5423848628997803,1.226019263267517,8.57182788848877,1.6491739749908447,-0.05862720310688019,0.18906279,0.53878313,7.498769,-72.76026,16.596937,FKL
21669393465344.0,1.5473849773406982,1.227044939994812,8.519838333129883,1.658913254737854,-0.0573764406144619,0.27672195,0.5910121,7.4759784,-72.64827,16.683807,FKL
21669397659648.0,1.552384853363037,1.2280627489089966,8.4688138961792,1.6707096099853516,-0.05637700855731964,0.2855795,0.57360244,7.469014599999999,-72.56525400000002,16.73526,FKL
21669403951104.0,1.5573844909667969,1.229105830192566,8.419052124023438,1.6844568252563477,-0.05563950538635254,0.27122417,0.56688297,7.441683999999999,-72.46472,16.801138,FKL
21669408145408.0,1.562383770942688,1.2302227020263672,8.370933532714844,1.7000386714935303,-0.05528285354375839,0.22327125,0.5653558000000001,7.422569999999999,-72.36415,16.86231,FKL
21669414436864.0,1.5673829317092896,1.2315119504928589,8.325135231018066,1.7173024415969849,-0.055408213287591934,0.19608775,0.5653558000000001,7.4022303,-72.265816,16.920025,FKL
21669418631168.0,1.5723819732666016,1.2330530881881714,8.282431602478027,1.735779881477356,-0.056062377989292145,0.14569137,0.5491679,7.4052167,-72.1743,16.965714000000002,FKL
21669422825472.0,1.5773807764053345,1.234896183013916,8.2440185546875,1.7541251182556152,-0.057368192821741104,0.0888809,0.52412236,7.418964,-72.08003000000002,17.008017000000002,FKL
21669429116928.0,1.5823794603347778,1.236973524093628,8.210724830627441,1.7712005376815796,-0.05947728455066681,0.15088372,0.52626044,7.4181237000000015,-71.987465,17.041948,FKL
21669433311232.0,1.5873780250549316,1.238879680633545,8.182502746582031,1.7862582206726074,-0.06255362182855606,0.28588495,0.54641896,7.412976299999999,-71.891335,17.071576999999998,FKL
21669437505536.0,1.592376470565796,1.2402970790863037,8.1591796875,1.7986876964569092,-0.06664080172777176,0.45081854,0.5421429,7.422672299999999,-71.84459,17.072058,FKL
21669443796992.0,1.5973749160766602,1.2411082983016968,8.140177726745605,1.8081520795822144,-0.07174725830554962,0.55863625,0.50610185,7.410133,-71.79443,17.066053,FKL
21669450088448.0,1.6023755073547363,1.241106629371643,8.125080108642578,1.8144278526306152,-0.0778542309999466,0.6261369000000001,0.46609017,7.419996,-71.788185,17.028617999999998,FKL
21669454282752.0,1.607375979423523,1.2400538921356201,8.113713264465332,1.817683219909668,-0.08495335280895233,0.62949663,0.4343252,7.4185505,-71.78376999999998,16.983036,FKL
21669458477056.0,1.6123762130737305,1.237706184387207,8.105883598327637,1.8181509971618652,-0.09306813031435013,0.6249151,0.40103304,7.4262853,-71.80245,16.921723999999998,FKL
21669462671360.0,1.6173762083053589,1.2339690923690796,8.101024627685547,1.8166813850402832,-0.10212566703557968,0.63407815,0.36346483,7.4304557,-71.82798000000003,16.85163,FKL
21669468962816.0,1.6223763227462769,1.2287994623184204,8.098593711853027,1.8140064477920532,-0.11207442730665207,0.63591075,0.31031954,7.470097999999999,-71.88476999999997,16.743666,FKL
21669473157120.0,1.6273759603500366,1.2226929664611816,8.097867965698242,1.8101791143417358,-0.12285615503787994,0.5873469,0.28802297,7.5219383,-71.93834,16.638361,FKL
21669479448576.0,1.6323790550231934,1.2162212133407593,8.098014831542969,1.8056985139846802,-0.13451169431209564,0.5305365,0.25167647,7.580734700000002,-71.99361,16.505587,FKL
21669483642880.0,1.6373814344406128,1.209742784500122,8.098508834838867,1.8016468286514282,-0.14696325361728668,0.44990227,0.21135938,7.6625137,-72.05459599999998,16.370910000000002,FKL
21669487837184.0,1.642383098602295,1.203684687614441,8.098726272583008,1.7993420362472534,-0.16017529368400574,0.35918877,0.18203785,7.7491364,-72.07339,16.271713000000002,FKL
21669494128640.0,1.6473841667175293,1.1984785795211792,8.098315238952637,1.7991645336151123,-0.17404963076114655,0.23487769,0.1572978,7.870646000000002,-72.100876,16.16815,FKL
21669498322944.0,1.6523847579956055,1.1945111751556396,8.096976280212402,1.801395058631897,-0.18849027156829834,0.13225232,0.15577064,8.011931,-72.12552,16.06685,FKL
21669502517248.0,1.6573848724365234,1.1919519901275635,8.094325065612793,1.8059524297714233,-0.20346860587596893,0.04062254,0.1777618,8.108901,-72.07511,15.9963045,FKL
21669508808704.0,1.6623843908309937,1.190934419631958,8.090015411376953,1.8127319812774658,-0.21895048022270203,-0.013439035,0.20097467,8.225788,-72.02367,15.928501,FKL
21669513003008.0,1.6673835515975952,1.191741704940796,8.08366870880127,1.8218683004379272,-0.23493078351020813,-0.019242255,0.24007004,8.321864,-71.90951,15.908459,FKL
21669519294464.0,1.6723827123641968,1.194633960723877,8.074946403503418,1.8334909677505493,-0.25141391158103943,-0.04642576,0.2751948,8.439794000000001,-71.78737,15.896118,FKL
21669523488768.0,1.6773817539215088,1.1995470523834229,8.063752174377441,1.8471996784210205,-0.2684934437274933,-0.063224554,0.30085114,8.534236,-71.61621,15.9184265,FKL
21669527683072.0,1.6823805570602417,1.2063580751419067,8.050046920776367,1.8625249862670898,-0.2862273156642914,-0.018936822,0.34330627,8.6166725,-71.42979,15.951952,FKL
21669533974528.0,1.6873793601989746,1.2148641347885132,8.033631324768066,1.878914475440979,-0.3046620786190033,0.03726278,0.39675698,8.660606,-71.173225,16.034302,FKL
21669538168832.0,1.6923779249191284,1.224835991859436,8.014264106750488,1.8958171606063843,-0.32388344407081604,0.1282817,0.4269948,8.681046,-70.903114,16.115376,FKL
21669544460288.0,1.6973764896392822,1.2363780736923218,7.99173641204834,1.9132847785949707,-0.3439052999019623,0.2773328,0.48716503,8.656348,-70.601974,16.226105,FKL
21669548654592.0,1.7023751735687256,1.2496438026428223,7.96587610244751,1.931477665901184,-0.3646753430366516,0.38820487,0.50518554,8.617948,-70.299355,16.327151999999998,FKL
21669552848896.0,1.7073743343353271,1.2642786502838135,7.936591625213623,1.9500807523727417,-0.38609081506729126,0.41508293,0.52503866,8.5623255,-69.97381999999999,16.45286,FKL
21669559140352.0,1.7123733758926392,1.2798643112182617,7.903865337371826,1.9687250852584839,-0.40799182653427124,0.45356745,0.535118,8.472308,-69.64995,16.570383,FKL
21669563334656.0,1.7173722982406616,1.2960790395736694,7.867932319641113,1.9869259595870972,-0.430123507976532,0.45356745,0.54183745,8.354716999999999,-69.29133,16.721148,FKL
21669567528960.0,1.722371220588684,1.3126497268676758,7.82907772064209,2.0042173862457275,-0.45233577489852905,0.4465425,0.54367006,8.229713,-68.93424,16.867613000000002,FKL
21669573820416.0,1.7273701429367065,1.32931387424469,7.787631511688232,2.0202443599700928,-0.4744374752044678,0.49266282,0.5571090999999999,8.095933,-68.599754,17.006994,FKL
21669578014720.0,1.732369065284729,1.3458245992660522,7.743936061859131,2.0347273349761963,-0.49621593952178955,0.5207626000000001,0.5497787,7.972630499999998,-68.28173000000001,17.139060999999998,FKL
21669584306176.0,1.7373679876327515,1.3619084358215332,7.69852352142334,2.0478289127349854,-0.5174155831336975,0.54275376,0.5522222,7.856433999999999,-67.98496,17.271683,FKL
21669588500480.0,1.742366909980774,1.3773045539855957,7.651946544647217,2.059832811355591,-0.5378185510635376,0.5458081,0.5525276,7.7400484,-67.70591999999999,17.397799,FKL
21669592694784.0,1.7473657131195068,1.3917230367660522,7.604817867279053,2.0711441040039062,-0.5571840405464172,0.5366451,0.5497787,7.640678,-67.46498000000001,17.514398999999994,FKL
21669598986240.0,1.7523647546768188,1.4048817157745361,7.557733058929443,2.082181930541992,-0.5753183364868164,0.5158757,0.5671884,7.543634,-67.23756999999999,17.634562,FKL
21669603180544.0,1.7573636770248413,1.4165349006652832,7.511410713195801,2.0933992862701416,-0.592077374458313,0.5357288,0.56382865,7.4582586,-67.04406,17.722792000000005,FKL
21669609472000.0,1.7623625993728638,1.4264564514160156,7.466692924499512,2.1052920818328857,-0.6073254346847534,0.56046885,0.5314528000000001,7.3794,-66.87419,17.806542999999994,FKL
21669613666304.0,1.7673615217208862,1.4348273277282715,7.423814296722412,2.1187407970428467,-0.6209617257118225,0.56779927,0.50671273,7.319603,-66.73146,17.853424,FKL
21669617860608.0,1.7723604440689087,1.4419646263122559,7.382769584655762,2.1346895694732666,-0.6329490542411804,0.5305365,0.47616947,7.269947,-66.61251999999999,17.889751,FKL
21669624152064.0,1.7773592472076416,1.4479657411575317,7.344038009643555,2.1535675525665283,-0.6433030366897583,0.4886922,0.46792278,7.235869,-66.51869,17.885857,FKL
21669628346368.0,1.7823580503463745,1.4527961015701294,7.308369159698486,2.1754913330078125,-0.6521376371383667,0.45937067,0.4361577999999999,7.2148485,-66.44386,17.868246,FKL
21669632540672.0,1.7873570919036865,1.4568012952804565,7.276256561279297,2.200871706008911,-0.6595134139060974,0.42638394,0.40683624,7.1754622,-66.32359,17.854264999999995,FKL
21669638832128.0,1.7923563718795776,1.4605604410171509,7.248022556304932,2.2303009033203125,-0.6655893921852112,0.33536503,0.40133846,7.1640215,-66.20316,17.84406,FKL
21669643026432.0,1.7973556518554688,1.4646092653274536,7.22354793548584,2.263749599456787,-0.6705811619758606,0.28955013,0.40958515,7.1702330000000005,-66.100716,17.798195,FKL
21669649317888.0,1.8023549318313599,1.4694660902023315,7.202432155609131,2.3007991313934326,-0.6746590733528137,0.2434298,0.41080686,7.2054114,-66.00329599999999,17.75571,FKL
21669653512192.0,1.807354211807251,1.4755549430847168,7.184257984161377,2.340763807296753,-0.6779844164848328,0.14477506,0.42363504,7.236947,-65.84813,17.739403,FKL
21669657706496.0,1.8123533725738525,1.483220100402832,7.168596267700195,2.3827381134033203,-0.6807610988616943,0.111177474,0.45234573,7.2629385,-65.68404,17.725502,FKL
21669663997952.0,1.817352533340454,1.4928029775619507,7.154982566833496,2.425931930541992,-0.6831223368644714,0.13500121,0.44501534,7.2764854,-65.483696,17.749641,FKL
21669668192256.0,1.8223516941070557,1.5046888589859009,7.142850399017334,2.4696738719940186,-0.6850680708885193,0.17073683,0.43890667,7.294388,-65.28121,17.781607,FKL
21669674483712.0,1.8273508548736572,1.5191329717636108,7.131932735443115,2.513592481613159,-0.6865925192832947,0.19883664,0.44073927,7.285242599999999,-65.05828000000001,17.855926999999994,FKL
21669680775168.0,1.83235502243042,1.536426067352295,7.122312068939209,2.5576415061950684,-0.6876396536827087,0.110872045,0.44806966,7.2999334,-64.847435,17.934573999999994,FKL
21669684969472.0,1.8373585939407349,1.5564688444137573,7.113761901855469,2.6017415523529053,-0.6881597638130188,0.18570304,0.46120325,7.2369002999999985,-64.61717,18.047241,FKL
21669689163776.0,1.8423616886138916,1.57915198802948,7.105153560638428,2.6459128856658936,-0.6881131529808044,0.25442538,0.42271876,7.20504,-64.408585,18.15259,FKL
21669693358080.0,1.847364068031311,1.6043362617492676,7.0954718589782715,2.6902518272399902,-0.6874303817749023,0.2144137,0.42485678,7.160348399999998,-64.17713,18.304337,FKL
21669697552384.0,1.8523662090301514,1.631749153137207,7.083667278289795,2.735245704650879,-0.6861369013786316,0.29382620000000004,0.4092797,7.0679297000000005,-63.96366999999999,18.420454,FKL
21669703843840.0,1.857367992401123,1.6612952947616577,7.068962097167969,2.781477451324463,-0.6842710971832275,0.31490102,0.3848451,6.964353999999998,-63.711906000000006,18.576256,FKL
21669708038144.0,1.862369418144226,1.6932506561279297,7.050969123840332,2.829850196838379,-0.6817944645881653,0.30115658,0.36682457,6.850036,-63.47601700000001,18.722315,FKL
21669714329600.0,1.8673704862594604,1.727818250656128,7.029426097869873,2.8810596466064453,-0.6787123084068298,0.2843578,0.35979962,6.696469,-63.194202,18.880186,FKL
21669718523904.0,1.8723713159561157,1.764839768409729,7.004790306091309,2.934750556945801,-0.6750337481498718,0.24709499,0.3585779000000001,6.555128599999999,-62.9273,19.035189000000006,FKL
21669722718208.0,1.8773717880249023,1.8041400909423828,6.977506160736084,2.990555763244629,-0.6707339882850647,0.21899518,0.36865717,6.3558455,-62.57399399999999,19.23755,FKL
21669729009664.0,1.8823720216751099,1.8454196453094482,6.9481201171875,3.0479159355163574,-0.6657872796058655,0.19394971,0.35216382,6.1701,-62.237225,19.432228,FKL
21669733203968.0,1.8873721361160278,1.8884046077728271,6.917128086090088,3.1063239574432373,-0.6601897478103638,0.16982053,0.36682457,5.978712000000002,-61.888046,19.650583,FKL
21669739495424.0,1.8923734426498413,1.932486653327942,6.88530158996582,3.1651294231414795,-0.6539016962051392,0.16279559,0.36896262,5.7932086,-61.56080600000001,19.858322,FKL
21669743689728.0,1.8973743915557861,1.9771474599838257,6.8532633781433105,3.2238032817840576,-0.6468755602836609,0.0711658,0.42210788,5.6318730000000015,-61.233036,20.091166,FKL
21669747884032.0,1.9023752212524414,2.0218873023986816,6.821625709533691,3.2818331718444824,-0.6391132473945618,0.118507855,0.38515055,5.4478083,-60.945034,20.284592,FKL
21669754175488.0,1.9073755741119385,2.0662648677825928,6.790925025939941,3.3387694358825684,-0.6305779218673706,0.15851954,0.36041048,5.2802277,-60.652,20.503181,FKL
21669758369792.0,1.912375807762146,2.109933853149414,6.762505054473877,3.39426589012146,-0.6211450099945068,0.1572978,0.35277468,5.1131115,-60.38158000000001,20.71238,FKL
21669762564096.0,1.9173758029937744,2.1526031494140625,6.7377800941467285,3.448035717010498,-0.6108328700065613,0.13958271,0.34941490000000003,4.9418335,-60.12078,20.910513,FKL
21669768855552.0,1.9223756790161133,2.193777561187744,6.718669891357422,3.4995784759521484,-0.5995278358459473,0.09987647,0.3555236,4.84162,-59.97348,21.049614,FKL
21669773049856.0,1.9273754358291626,2.23288893699646,6.707237243652344,3.5483171939849854,-0.5870909094810486,0.036957346,0.36346483,4.7534269999999985,-59.83934,21.19051,FKL
21669779341312.0,1.9323750734329224,2.2697603702545166,6.704349040985107,3.5944507122039795,-0.5734345316886902,-0.050396383,0.3717115,4.744056,-59.79317,21.284185,FKL
21669783535616.0,1.9373747110366821,2.304396152496338,6.7103142738342285,3.6385140419006348,-0.5584090948104858,-0.04550946,0.31734450000000003,4.731767700000002,-59.78327,21.3583,FKL
21669787729920.0,1.9423741102218628,2.336965322494507,6.725167751312256,3.6809117794036865,-0.5418983697891235,-0.07391469,0.28283059999999993,4.871650700000001,-59.93225,21.355137,FKL
21669794021376.0,1.9473735094070435,2.367816209793091,6.748680114746094,3.7219221591949463,-0.5238621234893799,-0.13103059,0.24495697,5.020033,-60.103622,21.339134,FKL
21669798215680.0,1.952372670173645,2.396984338760376,6.780137538909912,3.7608859539031982,-0.5043458938598633,-0.20769419,0.21288654,5.218322799999998,-60.326733,21.2751,FKL
21669804507136.0,1.9573718309402466,2.424253225326538,6.818444728851318,3.796391010284424,-0.48342856764793396,-0.30940324,0.22052236,5.4335656,-60.55347,21.22158,FKL
21669808701440.0,1.9623726606369019,2.4498720169067383,6.86307954788208,3.827158212661743,-0.4613339602947235,-0.27183503,0.19211712,5.636927,-60.79181,21.140228,FKL
21669812895744.0,1.9673734903335571,2.474264621734619,6.913730144500732,3.852447032928467,-0.43815067410469055,-0.21533,0.15454891,5.856175,-61.036736,21.068064,FKL
21669819187200.0,1.9723740816116333,2.4977059364318848,6.970210075378418,3.8709771633148193,-0.4139586389064789,-0.24923302,0.12858713,6.1214495000000015,-61.33017,20.997902,FKL
21669823381504.0,1.9773744344711304,2.5202553272247314,7.0324225425720215,3.8809142112731934,-0.3888374865055084,-0.19730948,0.13836098,6.3355494000000006,-61.6152,20.915255,FKL
21669827575808.0,1.982374668121338,2.542037010192871,7.100552558898926,3.8818790912628174,-0.3628309369087219,-0.118202426,0.07788532,6.543989,-61.93782,20.836046,FKL
21669833867264.0,1.9873751401901245,2.5632576942443848,7.175154685974121,3.8752033710479736,-0.3359919488430023,-0.13988814,0.0070249503,6.755754,-62.249695,20.76332,FKL
21669838061568.0,1.9923756122589111,2.584047794342041,7.256631374359131,3.8625357151031494,-0.3084214925765991,-0.20799962,-0.030543262,6.950101400000001,-62.5995,20.694572,FKL
21669844353024.0,1.9973758459091187,2.6043670177459717,7.345212936401367,3.846752882003784,-0.28022950887680054,-0.2751948,-0.12217305,7.1548996,-62.969917,20.595785,FKL
21669848547328.0,2.002376079559326,2.6240484714508057,7.441018581390381,3.829958200454712,-0.2515675127506256,-0.36193767,-0.19914207,7.400175599999999,-63.350636,20.476563,FKL
21669852741632.0,2.007375955581665,2.6423676013946533,7.543681621551514,3.8116097450256348,-0.22263158857822418,-0.3943135,-0.31031954,7.650630499999999,-63.74411800000001,20.327585,FKL
21669859033088.0,2.012375831604004,2.6587789058685303,7.652822494506836,3.791196584701538,-0.19370409846305847,-0.43799037,-0.36774087,7.937839,-64.10745,20.136381,FKL
21669863227392.0,2.0173754692077637,2.6733686923980713,7.767899990081787,3.768109083175659,-0.1649530678987503,-0.56046885,-0.46883908,8.259288,-64.49109,19.91873,FKL
21669869518848.0,2.0223751068115234,2.6862616539001465,7.888372421264648,3.741682529449463,-0.13658757507801056,-0.6872234,-0.5271766999999999,8.629104,-64.91676,19.65208,FKL
21669873713152.0,2.027374744415283,2.698119878768921,8.013116836547852,3.7099971771240234,-0.1087583601474762,-0.77366084,-0.58184916,9.017174,-65.34554,19.373604,FKL
21669880004608.0,2.032379627227783,2.709752321243286,8.141024589538574,3.670393705368042,-0.08153913170099258,-0.883922,-0.6282749,9.454412,-65.8006,19.09309,FKL
21669884198912.0,2.037383794784546,2.7213022708892822,8.271029472351074,3.622964382171631,-0.054888397455215454,-0.9315695,-0.63591075,9.88519,-66.244095,18.817513,FKL
21669888393216.0,2.0423872470855713,2.7328357696533203,8.401700019836426,3.5678415298461914,-0.028813326731324196,-0.9718866,-0.6356053,10.334717,-66.676315,18.545885,FKL
21669892587520.0,2.0473902225494385,2.7441599369049072,8.531700134277344,3.505439043045044,-0.003176446771249175,-1.0225884,-0.6398814,10.781012,-67.14116,18.346764,FKL
21669898878976.0,2.0523927211761475,2.754913568496704,8.659778594970703,3.4363386631011963,0.0220660213381052,-1.061073,-0.659429,11.224927,-67.5928,18.147327,FKL
21669903073280.0,2.0573947429656982,2.76476788520813,8.784758567810059,3.361245632171631,0.046894583851099014,-1.0946705,-0.68386364,11.663972,-68.03805,17.972033,FKL
21669909364736.0,2.06239652633667,2.7734029293060303,8.905450820922852,3.2810614109039307,0.07138229161500931,-1.0903945,-0.6988298000000001,12.093778,-68.48285,17.79402,FKL
21669913559040.0,2.0673975944519043,2.7806499004364014,9.020804405212402,3.1972718238830566,0.09557563066482544,-1.0861185,-0.7302894,12.528588,-68.930824,17.606112,FKL
21669917753344.0,2.0723984241485596,2.786590099334717,9.129868507385254,3.112605094909668,0.11952924728393555,-1.0708468,-0.7672467,12.950812,-69.3785,17.411335,FKL
21669924044800.0,2.0773990154266357,2.7907562255859375,9.231597900390625,3.0290749073028564,0.14330147206783295,-1.0122037,-0.70921457,13.344237,-69.79944,17.229866,FKL
21669928239104.0,2.082399368286133,2.7918221950531006,9.32469367980957,2.9478085041046143,0.16686095297336578,-1.067487,-0.8268061,13.769977,-70.26196,16.994085000000002,FKL
21669932433408.0,2.0873992443084717,2.7886500358581543,9.408309936523438,2.86962890625,0.190196692943573,-1.0543534,-0.8720101,14.111092,-70.62719,16.794697,FKL
21669938724864.0,2.0923988819122314,2.78025484085083,9.482169151306152,2.7949841022491455,0.21327777206897736,-1.1184943,-0.93554014,14.490117,-71.016014,16.565294,FKL
21669942919168.0,2.097398281097412,2.766777992248535,9.546504974365234,2.72440767288208,0.23609888553619385,-1.2788464,-0.9993755,14.8991995,-71.42905999999998,16.266607,FKL
21669949210624.0,2.1023974418640137,2.750150442123413,9.602334976196289,2.658672332763672,0.2587982714176178,-1.4498886999999998,-1.0580186000000005,15.325692000000002,-71.85511,15.9575405,FKL
21669953404928.0,2.107396125793457,2.732301950454712,9.652478218078613,2.5982890129089355,0.2812807261943817,-1.5497651,-1.1814133999999998,15.803949,-72.3423,15.547191,FKL
21669957599232.0,2.1123948097229004,2.7156245708465576,9.704627990722656,2.5433459281921387,0.30328282713890076,-1.5833627,-1.1716396,16.301542,-72.80145,15.165364000000002,FKL
21669963890688.0,2.1173932552337646,2.7024290561676025,9.76494026184082,2.4943623542785645,0.3240485191345215,-1.5775595,-0.9810496,16.748873,-73.08579,14.897341,FKL
21669968084992.0,2.122391700744629,2.695793867111206,9.83616828918457,2.453974485397339,0.3429635167121887,-1.5690073999999998,-0.6053675000000001,17.190315,-73.30609,14.68894,FKL
21669974376448.0,2.127390146255493,2.6975836753845215,9.9203462600708,2.425492763519287,0.35946518182754517,-1.2067643,-0.32711834,17.531055,-73.47865999999998,14.511064,FKL
21669978570752.0,2.1323883533477783,2.7054622173309326,10.017640113830566,2.4169111251831055,0.3726605772972107,-0.3436117,-0.2764165,17.708225,-73.55946999999998,14.356504,FKL
21669982765056.0,2.137387275695801,2.717487096786499,10.128183364868164,2.4337823390960693,0.38097628951072693,-0.19486602,-0.27152961,17.903845,-73.36410500000002,14.394596,FKL
21669989056512.0,2.1423861980438232,2.7352230548858643,10.251209259033203,2.4532721042633057,0.3826221823692322,-1.2928963,0.043066,18.202171,-73.01191999999998,14.549279,FKL
21669993250816.0,2.1473851203918457,2.759380340576172,10.385766983032227,2.454813241958618,0.37806347012519836,-1.6398678,0.35399640000000004,18.31201,-72.6727,14.48338,FKL
21669999542272.0,2.152384042739868,2.781393527984619,10.527735710144043,2.431488513946533,0.36986783146858215,-0.39920044,0.3903429,18.278801,-72.31229,14.405939000000002,FKL
21670003736576.0,2.1573827266693115,2.793741464614868,10.673450469970703,2.3773372173309326,0.3599174916744232,0.7663304,0.22540927,18.404911,-72.17379,14.57291,FKL
21670007930880.0,2.162381172180176,2.7923295497894287,10.811515808105469,2.2980382442474365,0.34935352206230164,0.6047566,0.05009095,18.560328,-72.112335,14.741271,FKL
21670014222336.0,2.16737961769104,2.7742292881011963,10.930055618286133,2.201249122619629,0.3399342894554138,0.28252518,-0.21838433,18.441559,-72.23656,14.780162,FKL
21670018416640.0,2.1723780632019043,2.7411258220672607,11.024173736572266,2.0925345420837402,0.33330875635147095,0.11881329,-0.4147775,18.51137,-72.857574,14.48542,FKL
21670022610944.0,2.1773765087127686,2.6968700885772705,11.092522621154785,1.9762412309646606,0.330721378326416,0.14538592,-0.5317582,18.615097,-73.5764,14.151317,FKL
21670028902400.0,2.182375192642212,2.644937515258789,11.136935234069824,1.8571325540542603,0.3329160213470459,0.26297748,-0.66431594,18.718067,-74.353226,13.672066,FKL
21670033096704.0,2.1873738765716553,2.588364362716675,11.162384033203125,1.740256905555725,0.34017711877822876,0.25717425,-0.77488256,18.84529,-75.20043000000003,13.166483,FKL
21670039388160.0,2.1923725605010986,2.529405117034912,11.173492431640625,1.63097083568573,0.3524676561355591,0.03634648,-0.8720101,18.939142,-75.92115,12.768488,FKL
21670043582464.0,2.197371244430542,2.469811201095581,11.17456340789795,1.5346766710281372,0.36942005157470703,-0.30451632,-1.0045679,19.068922,-76.67820999999998,12.328116,FKL
21670047776768.0,2.2023699283599854,2.4109795093536377,11.168095588684082,1.455683708190918,0.3901919424533844,-0.6606508000000001,-1.1414018,19.223557,-77.311386,11.924644,FKL
21670054068224.0,2.207368850708008,2.3540194034576416,11.155303001403809,1.397386074066162,0.4133842885494232,-0.84513205,-1.303281,19.425262,-77.94811,11.4801035,FKL
21670058262528.0,2.212367534637451,2.300124406814575,11.136504173278809,1.3613282442092896,0.43813619017601013,-1.1349876,-1.3573426000000002,19.708218,-78.39692,11.106042,FKL
21670062456832.0,2.2173662185668945,2.2505810260772705,11.111123085021973,1.3472158908843994,0.4629065692424774,-1.3411547,-1.45783,20.025494,-78.8424,10.680214,FKL
21670068748288.0,2.222364902496338,2.206775665283203,11.078664779663086,1.352967381477356,0.486517995595932,-1.4596626,-1.5338826,20.396238,-79.26569,10.235911,FKL
21670072942592.0,2.2273635864257812,2.170503854751587,11.038744926452637,1.3722692728042603,0.5082420706748962,-1.4196508,-1.5531249,20.784912,-79.66013000000002,9.785667,FKL
21670079234048.0,2.23236346244812,2.1434288024902344,10.990989685058594,1.3992573022842407,0.5277886986732483,-1.2122620000000002,-1.5632042,21.136644,-79.93709,9.401751,FKL
21670083428352.0,2.237363338470459,2.1256144046783447,10.935691833496094,1.430912971496582,0.5451608300209045,-0.81061816,-1.5460999,21.426401,-80.1723,9.020597,FKL
21670087622656.0,2.2423629760742188,2.117131233215332,10.873108863830566,1.4644277095794678,0.5605243444442749,-0.3304781,-1.5063937,21.587,-80.28416,8.838392,FKL
21670093914112.0,2.2473626136779785,2.1182096004486084,10.80372428894043,1.4984500408172607,0.5741697549819946,0.1554652,-1.4214833999999998,21.630459,-80.37040999999998,8.669005,FKL
21670100205568.0,2.25236439704895,2.129230260848999,10.727982521057129,1.5318859815597534,0.5864092111587524,0.5513059,-1.3090841999999998,21.563133,-80.432686,8.513943,FKL
21670104399872.0,2.2573659420013428,2.1500043869018555,10.6463041305542,1.564048171043396,0.597637414932251,0.8378017,-1.1395692,21.360115,-80.41812,8.493932000000001,FKL
21670108594176.0,2.2623672485351562,2.1804261207580566,10.558941841125488,1.594225287437439,0.6083654761314392,1.0317514,-0.9611965,21.070185,-80.385254,8.504806,FKL
21670112788480.0,2.2673680782318115,2.2194859981536865,10.4666748046875,1.6231567859649658,0.6191587448120117,1.2064588,-0.77396625,20.676548,-80.27367,8.652413000000001,FKL
21670119079936.0,2.272368907928467,2.2658238410949707,10.370477676391602,1.6521801948547363,0.6305540800094604,1.3310753,-0.6041456999999999,20.239494,-80.13864000000002,8.844742,FKL
21670123274240.0,2.277369499206543,2.3178582191467285,10.271526336669922,1.68311607837677,0.6428894400596619,1.3775011,-0.47067168,19.751005,-79.92349,9.152346,FKL
21670127468544.0,2.282369613647461,2.373986005783081,10.171025276184082,1.7178982496261597,0.6562466025352478,1.282817,-0.35827246,19.264107,-79.67448,9.503709,FKL
21670133760000.0,2.287369966506958,2.432424306869507,10.069993019104004,1.7578885555267334,0.6706438064575195,1.1163563,-0.2761111,18.788395,-79.438965,9.83292,FKL
21670137954304.0,2.292370319366455,2.4914190769195557,9.969284057617188,1.8040108680725098,0.6860381364822388,0.91324353,-0.24495697,18.348677,-79.181046,10.183737,FKL
21670144245760.0,2.297370672225952,2.549541711807251,9.869972229003906,1.856486439704895,0.7022580504417419,0.70188415,-0.2415972,17.97802,-78.96127,10.457388,FKL
21670148440064.0,2.30237078666687,2.6055541038513184,9.773238182067871,1.9151757955551147,0.7189767360687256,0.57910025,-0.28405234,17.639129999999994,-78.73764,10.729728,FKL
21670152634368.0,2.307370662689209,2.6585023403167725,9.680365562438965,1.9791468381881714,0.7358372807502747,0.34300083,-0.30909783,17.42649,-78.58606999999998,10.901608,FKL
21670158925824.0,2.312370538711548,2.7076385021209717,9.592694282531738,2.046945571899414,0.7525845170021057,0.14721853,-0.37690386,17.238125,-78.45196999999997,11.051102,FKL
21670163120128.0,2.3173701763153076,2.7524538040161133,9.51115608215332,2.116901159286499,0.7688703536987305,0.019547688,-0.46792278,17.12968,-78.40448,11.089721,FKL
21670169411584.0,2.3223695755004883,2.7926042079925537,9.4364013671875,2.1872143745422363,0.7844700217247009,-0.052839845,-0.5687156,17.063034,-78.374016,11.109256,FKL
21670173605888.0,2.32736873626709,2.827780246734619,9.36887264251709,2.256197214126587,0.7992672324180603,-0.07696902,-0.66859204,17.04645,-78.442444,11.030008,FKL
21670177800192.0,2.3323678970336914,2.857642889022827,9.308432579040527,2.3219754695892334,0.8131704926490784,-0.09743301,-0.77182823,17.0524,-78.530624,10.924147,FKL
21670184091648.0,2.337367057800293,2.8820464611053467,9.2549467086792,2.3828861713409424,0.8261359333992004,-0.09865474,-0.8720101,17.08611,-78.71387,10.74066,FKL
21670188285952.0,2.3423664569854736,2.9011847972869873,9.208300590515137,2.4374301433563232,0.8381727933883667,-0.07238753,-0.960891,17.120426000000002,-78.91541,10.534674,FKL
21670192480256.0,2.347365617752075,2.915296792984009,9.168488502502441,2.4843404293060303,0.8493380546569824,-0.008552114,-1.039998,17.160372,-79.20121,10.266339,FKL
21670198771712.0,2.3523647785186768,2.9248931407928467,9.136419296264648,2.5225064754486084,0.8597962260246277,0.081855945,-1.0894781,17.186844,-79.49831,9.98639,FKL
21670202966016.0,2.3573639392852783,2.9304747581481934,9.112910270690918,2.5513272285461426,0.8698382377624512,0.18448131,-1.1181888999999998,17.19914,-79.84911,9.68606,FKL
21670209257472.0,2.362362861633301,2.9325897693634033,9.098858833312988,2.571206569671631,0.8798491358757019,0.27000242,-1.1346822,17.191301,-80.20533,9.382687,FKL
21670213451776.0,2.3673617839813232,2.931711435317993,9.094935417175293,2.5828137397766113,0.8901637196540833,0.29962940000000005,-1.0769554,17.176819000000002,-80.56537,9.105471,FKL
21670217646080.0,2.3723607063293457,2.9281792640686035,9.101364135742188,2.5876922607421875,0.9011609554290771,0.34788775,-1.0916162,17.133217000000002,-80.93929,8.812974,FKL
21670223937536.0,2.3773598670959473,2.922305107116699,9.118162155151367,2.587240219116211,0.9130042791366577,0.301462,-1.063211,17.098354,-81.29243000000002,8.543047,FKL
21670228131840.0,2.382359027862549,2.914374828338623,9.144646644592285,2.582699775695801,0.925815999507904,0.21960606,-1.0381655,17.059298000000002,-81.62807,8.279249,FKL
21670234423296.0,2.3873581886291504,2.904642343521118,9.180089950561523,2.5751354694366455,0.9397472739219666,0.124311075,-1.01312,17.033752,-81.959305,8.001022,FKL
21670238617600.0,2.392357349395752,2.893265724182129,9.22293758392334,2.564939022064209,0.9548948407173157,0.02107485,-1.0042624,17.033073,-82.25622,7.7360516000000015,FKL
21670242811904.0,2.3973565101623535,2.8803932666778564,9.271730422973633,2.552401065826416,0.9713809490203857,-0.05925392700000001,-1.0015136,17.045547,-97.46222,7.461372,FKL
21670249103360.0,2.402355670928955,2.866175651550293,9.324991226196289,2.537487268447876,0.9893616437911987,-0.105374254,-1.0140363,17.075998000000002,-97.217476,7.193478999999999,FKL
21670253297664.0,2.4073548316955566,2.8507213592529297,9.381343841552734,2.5202980041503906,1.0089457035064697,-0.15851954,-1.0180069,17.118303,-97.00971,6.9252014000000015,FKL
21670257491968.0,2.4123542308807373,2.833970546722412,9.439241409301758,2.501513957977295,1.0300734043121338,-0.19730948,-1.0433578,17.167177,-96.84106,6.6546699999999985,FKL
21670263783424.0,2.417353391647339,2.81585431098938,9.497241973876953,2.481816053390503,1.0527909994125366,-0.26847526,-1.0644327,17.229554999999998,-96.73913,6.389665,FKL
21670267977728.0,2.4223525524139404,2.7961950302124023,9.553672790527344,2.462202787399292,1.0770814418792725,-0.32467487,-1.1007791999999998,17.295448,-96.685455,6.1196485,FKL
21670274269184.0,2.427351474761963,2.7748374938964844,9.607002258300781,2.443553924560547,1.1028470993041992,-0.36957347,-1.1435398,17.37344,-96.669304,5.827105,FKL
21670280560640.0,2.4323551654815674,2.751516103744507,9.6549072265625,2.4267730712890625,1.1299110651016235,-0.41141775,-1.1948525,17.462675,-96.70413,5.527568,FKL
21670284754944.0,2.4373583793640137,2.7262606620788574,9.696534156799316,2.412184476852417,1.158107876777649,-0.4465425,-1.2409728,17.567558,-96.7582,5.1919065,FKL
21670288949248.0,2.4423611164093018,2.6991450786590576,9.730575561523438,2.400131940841675,1.187220811843872,-0.4728097,-1.3008375,17.677523,-96.849174,4.8435225,FKL
21670293143552.0,2.44736385345459,2.670258045196533,9.755850791931152,2.3909032344818115,1.217024326324463,-0.4792238,-1.3545936,17.796657999999994,-96.95781,4.4622397000000005,FKL
21670299435008.0,2.4523661136627197,2.6399717330932617,9.771591186523438,2.384404420852661,1.24723219871521,-0.46792278,-1.4095715,17.914242,-97.09339,4.0695739999999985,FKL
21670303629312.0,2.4573686122894287,2.6086575984954834,9.77706527709961,2.3805949687957764,1.2776176929473877,-0.43035457,-1.4550809999999998,18.024414,-97.25292,3.6551902,FKL
21670307823616.0,2.4623708724975586,2.5769951343536377,9.771871566772461,2.3799452781677246,1.3079320192337036,-0.3933972,-1.4984524,18.12847,-97.42823,3.2320995,FKL
21670314115072.0,2.467373847961426,2.545637607574463,9.75559139251709,2.3829081058502197,1.337925672531128,-0.36132678,-1.5460999,18.209877,-97.63682,2.8095338,FKL
21670318309376.0,2.4723763465881348,2.5149526596069336,9.72939682006836,2.3890135288238525,1.3673497438430786,-0.3475823,-1.5855007,18.283976000000006,-97.85512,2.3834674,FKL
21670322503680.0,2.4773783683776855,2.485286235809326,9.694363594055176,2.3978259563446045,1.39598548412323,-0.3277292,-1.6084082,18.330523,-98.08132,1.9847394,FKL
21670328795136.0,2.482379913330078,2.4569780826568604,9.651803970336914,2.4084253311157227,1.4237128496170044,-0.31734450000000003,-1.632232,18.37452,-98.311356,1.5804048000000002,FKL
21670332989440.0,2.4873812198638916,2.4303276538848877,9.60293960571289,2.419942617416382,1.450459599494934,-0.3036,-1.6282613,18.412722,-98.54156,1.1841772,FKL
21670339280896.0,2.492382049560547,2.4053633213043213,9.549141883850098,2.4316461086273193,1.4762603044509888,-0.28069258,-1.6358972,18.428825,-98.80493,0.80625695,FKL
21670343475200.0,2.497382640838623,2.3820741176605225,9.491674423217773,2.4428980350494385,1.5011900663375854,-0.26358834,-1.627345,18.444101,-99.073616,0.4405294,FKL
21670347669504.0,2.502382755279541,2.3601653575897217,9.431797981262207,2.4533510208129883,1.5253187417984009,-0.23915374,-1.6175711000000002,18.424807,-99.39821,0.11056716,FKL
21670353960960.0,2.50738263130188,2.3393282890319824,9.370655059814453,2.4627368450164795,1.5487900972366333,-0.2049453,-1.59558,18.398626,-99.7384,-0.20564805,FKL
21670358155264.0,2.5123822689056396,2.3191394805908203,9.309226989746094,2.4709219932556152,1.5717047452926636,-0.1908954,-1.5735888,18.356909,-100.121574,-0.50333244,FKL
21670364446720.0,2.5173816680908203,2.2992072105407715,9.248358726501465,2.4778168201446533,1.5942217111587524,-0.19822577,-1.5500705,18.311928,-100.52191,-0.7869162,FKL
21670368641024.0,2.522381067276001,2.278992176055908,9.188483238220215,2.4833014011383057,1.6164485216140747,-0.21380283,-1.5109752,18.267467,-100.94582,-1.075209,FKL
21670372835328.0,2.5273804664611816,2.257988691329956,9.129945755004883,2.487267017364502,1.6384996175765991,-0.23518312,-1.4837917,18.226433,-101.38284,-1.3540975,FKL
21670379126784.0,2.532379627227783,2.235450029373169,9.072978019714355,2.4889769554138184,1.6604338884353638,-0.2406809,-1.4547756,18.19473,-101.83789,-1.6525141,FKL
21670383321088.0,2.5373787879943848,2.2105765342712402,9.01776123046875,2.48751163482666,1.682273030281067,-0.24617869,-1.4291192,18.169489,-102.29702,-1.9387287,FKL
21670389612544.0,2.54237961769104,2.1826884746551514,8.96386432647705,2.4824442863464355,1.704067349433899,-0.23487769,-1.4068227,18.156965,-102.78659,-2.270464,FKL
21670393806848.0,2.547379970550537,2.151446580886841,8.910872459411621,2.4736833572387695,1.7258844375610352,-0.19700404,-1.4196508,18.137241,-103.27898,-2.5964918,FKL
21670398001152.0,2.5523805618286133,2.1167356967926025,8.858460426330566,2.4609971046447754,1.7477328777313232,-0.15363261,-1.4193454,18.127035,-103.84025,-2.9811156000000003,FKL
21670404292608.0,2.5573806762695312,2.078565835952759,8.806386947631836,2.444209098815918,1.769596815109253,-0.12705997,-1.4361442,18.108301,-104.40477,-3.364319,FKL
21670408486912.0,2.562380790710449,2.0363054275512695,8.75399398803711,2.4232842922210693,1.7914671897888184,-0.042760565999999986,-1.4315627,18.076271,-105.02346,-3.801756,FKL
21670412681216.0,2.567380666732788,1.9892339706420898,8.700579643249512,2.398235321044922,1.813339352607727,0.04734206,-1.4459181,18.03253,-105.6405,-4.2368407,FKL
21670418972672.0,2.572380304336548,1.93751060962677,8.645877838134766,2.368993043899536,1.8352221250534058,0.09896017,-1.4865406,17.972033,-106.31918,-4.705089599999999,FKL
21670423166976.0,2.5773801803588867,1.881489634513855,8.589736938476562,2.335470199584961,1.8571077585220337,0.1695151,-1.4758505,17.88424,-106.98659,-5.1436725,FKL
21670429458432.0,2.5823800563812256,1.8208798170089722,8.531820297241211,2.2975802421569824,1.8790639638900757,0.23701571,-1.4752395,17.809387,-107.73835,-5.704603,FKL
21670433652736.0,2.5873796939849854,1.7552474737167358,8.471759796142578,2.255234718322754,1.9011319875717163,0.344528,-1.5259413999999998,17.7021,-108.48402,-6.2530947,FKL
21670437847040.0,2.592379093170166,1.6848009824752808,8.409411430358887,2.2085771560668945,1.9232628345489502,0.4147775,-1.5509868999999998,17.576344,-109.28928,-6.8053994000000015,FKL
21670444138496.0,2.5973784923553467,1.6099119186401367,8.344697952270508,2.1578049659729004,1.9454972743988037,0.4364632000000001,-1.568702,17.43294,-110.09824,-7.347714999999999,FKL
21670448332800.0,2.6023781299591064,1.531195878982544,8.277643203735352,2.103088617324829,1.96786367893219,0.45112398,-1.5839735,17.287336,-110.9901,-7.9836893,FKL
21670452527104.0,2.607377767562866,1.4493006467819214,8.20829963684082,2.044585704803467,1.990338683128357,0.48716503,-1.5848899,17.136229,-111.859215,-8.592016000000001,FKL
21670458818560.0,2.6123790740966797,1.3648868799209595,8.136687278747559,1.9821363687515259,2.0129244327545166,0.50640726,-1.5851953,16.97632,-112.79097,-9.227714,FKL
21670463012864.0,2.617380142211914,1.2785488367080688,8.062919616699219,1.9156986474990845,2.0356624126434326,0.528093,-1.5793921,16.813717,-113.69816000000002,-9.833115,FKL
21670469304320.0,2.6223807334899902,1.1908937692642212,7.987129211425781,1.8447465896606445,2.0585007667541504,0.56321776,-1.5570955,16.619167,-114.64387,-10.418939,FKL
21670473498624.0,2.6273810863494873,1.1024951934814453,7.909472942352295,1.7686337232589722,2.081376314163208,0.591623,-1.5280794,16.428879000000002,-115.56287,-10.976508,FKL
21670477692928.0,2.6323814392089844,1.013789415359497,7.830023288726807,1.6867094039916992,2.104274272918701,0.6432411,-1.4844025,16.189295,-116.5328,-11.48919,FKL
21670483984384.0,2.6373815536499023,0.925126314163208,7.74882173538208,1.5983940362930298,2.1271443367004395,0.7131852,-1.432479,15.947479,-117.46236,-11.966305,FKL
21670488178688.0,2.642381429672241,0.8367443680763245,7.665750503540039,1.5032014846801758,2.1499056816101074,0.782213,-1.3768903,15.63625,-118.45215,-12.378111,FKL
21670494470144.0,2.647381067276001,0.7488102912902832,7.580605506896973,1.4007097482681274,2.1725220680236816,0.8597928,-1.314582,15.314398,-119.413376,-12.749922,FKL
21670498664448.0,2.6523807048797607,0.6613873839378357,7.493167400360107,1.2908062934875488,2.1949191093444824,0.9315695,-1.2483031999999998,14.926662,-120.430435,-13.056871,FKL
21670502858752.0,2.6573801040649414,0.5744896531105042,7.4032464027404785,1.1735813617706299,2.2170629501342773,0.9999864,-1.1661416999999998,14.532094,-121.42234,-13.322209,FKL
21670509150208.0,2.662379264831543,0.4881369173526764,7.310465335845947,1.049023151397705,2.238889217376709,1.0033462,-1.026559,14.107188,-122.46628,-13.526365,FKL
21670513344512.0,2.6673784255981445,0.4023568332195282,7.214183807373047,0.9169723987579346,2.26041316986084,0.99021256,-0.85918194,13.688007999999998,-123.48891,-13.687007,FKL
21670517538816.0,2.672377824783325,0.3166120648384094,7.113405704498291,0.7774242758750916,2.2816414833068848,1.0201449,-0.7733554,13.237534,-124.569016,-13.821374,FKL
21670523830272.0,2.677377223968506,0.23000121116638184,7.006958484649658,0.6305215954780579,2.3025617599487305,1.0476339,-0.70249504,12.818701,-125.62117,-13.914077,FKL
21670528024576.0,2.682378053665161,0.14166180789470673,6.893435955047607,0.4764302372932434,2.3230929374694824,1.073901,-0.63285637,12.375133,-126.74182,-13.974936499999998,FKL
21670534316032.0,2.6873791217803955,0.051053475588560104,6.7718915939331055,0.31554728746414185,2.343083381652832,1.0946705,-0.552833,11.945525,-127.838196,-14.008104,FKL
21670538510336.0,2.6923797130584717,-0.04243059828877449,6.6411237716674805,0.14817187190055847,2.3623459339141846,1.1065824,-0.47128254,11.528143,-129.03662,-14.129133,FKL
21670542704640.0,2.697380304336548,-0.13941235840320587,6.499812126159668,-0.025456195697188377,2.380612373352051,1.1114693000000002,-0.3933972,11.124555,-130.19718999999998,-14.224781,FKL
21670548996096.0,2.702380657196045,-0.24041885137557983,6.347064018249512,-0.2048323005437851,2.397749662399292,1.0662653,-0.38056904,10.731434,-131.47269,-14.432022,FKL
21670553190400.0,2.707380771636963,-0.34591740369796753,6.18233585357666,-0.3892090618610382,2.4134278297424316,1.0122037,-0.31490102,10.36368,-132.68076000000002,-14.604368,FKL
21670559481856.0,2.7123806476593018,-0.45628368854522705,6.005922317504883,-0.5783836245536804,2.4272446632385254,0.9419542,-0.26358834,10.000558,-134.00793000000002,-14.91366,FKL
21670563676160.0,2.7173802852630615,-0.5718145370483398,5.818862438201904,-0.7726437449455261,2.4386661052703857,0.9089675,-0.18875736,9.65428,-135.26523,-15.197197,FKL
21670567870464.0,2.7223799228668213,-0.6927614808082581,5.622218132019043,-0.9719848036766052,2.447242021560669,0.96974856,-0.1001819,9.311175,-136.5761,-15.5888,FKL
21670574161920.0,2.727379322052002,-0.8193143606185913,5.417126655578613,-1.1760066747665405,2.4525372982025146,0.91324353,-0.13255776,8.981428,-137.81656999999998,-16.005804,FKL
21670578356224.0,2.7323787212371826,-0.9511862993240356,5.2050042152404785,-1.3845932483673096,2.4541285037994385,0.74372846,-0.20280726,8.654373,-139.06702,-16.497637,FKL
21670582550528.0,2.737377882003784,-1.0875614881515503,4.987599849700928,-1.5979427099227905,2.4518582820892334,0.49205196,-0.2706133,8.336496,-140.26294,-17.005213,FKL
21670588841984.0,2.7423768043518066,-1.227583885192871,4.766525745391846,-1.8163020610809326,2.4459290504455566,0.22693644,-0.36896262,8.014037,-141.48363999999995,-17.650564000000006,FKL
21670593036288.0,2.747375726699829,-1.370065689086914,4.543393611907959,-2.040325403213501,2.4368605613708496,0.009468411,-0.49449542,7.6927023,-142.68083,-18.32994,FKL
21670599327744.0,2.7523748874664307,-1.5135053396224976,4.320029258728027,-2.2703006267547607,2.425391912460327,-0.14477506,-0.5983425,7.363301,-143.89789,-18.995726,FKL
21670603522048.0,2.7573740482330322,-1.6558997631072998,4.098624229431152,-2.505896806716919,2.4122471809387207,-0.2742785,-0.6545420999999999,7.035565400000001,-145.12152,-19.688128,FKL
21670607716352.0,2.7623729705810547,-1.7953768968582153,3.881331205368042,-2.746711492538452,2.3980867862701416,-0.34819320000000004,-0.6438520000000001,6.688357000000001,-146.37917,-20.271614000000003,FKL
21670614007808.0,2.767371892929077,-1.9300771951675415,3.6707000732421875,-2.991941213607788,2.383462429046631,-0.38423425,-0.59315014,6.342773,-147.65085,-20.851877,FKL
21670618202112.0,2.7723708152770996,-2.0584700107574463,3.468959331512451,-3.2407708168029785,2.3688158988952637,-0.42302418,-0.5564981999999999,6.0181093,-148.86197,-21.207104,FKL
21670624493568.0,2.777369499206543,-2.1799566745758057,3.277845621109009,-3.491952657699585,2.354602336883545,-0.46181414,-0.5519168000000001,5.702274299999999,-150.08871000000005,-21.554964,FKL
21670628687872.0,2.7823688983917236,-2.293980360031128,3.098963499069214,-3.744313955307007,2.3412282466888428,-0.5222898,-0.5647449000000001,5.443902,-151.20728,-21.690752,FKL
21670632882176.0,2.7873682975769043,-2.4001688957214355,2.933293104171753,-3.9963438510894775,2.329057455062866,-0.59131753,-0.57451874,5.1988115,-152.33833,-21.838152,FKL
21670639173632.0,2.792367696762085,-2.498197555541992,2.7817063331604004,-4.246685028076172,2.3182497024536133,-0.62980205,-0.58123827,5.009909,-153.34253,-21.897736,FKL
21670643367936.0,2.7973668575286865,-2.587949752807617,2.6446375846862793,-4.494295120239258,2.3088979721069336,-0.6747006999999999,-0.5821546,4.8347626,-154.3578,-21.982615,FKL
21670647562240.0,2.802366018295288,-2.669414758682251,2.522329568862915,-4.73828125,2.3009438514709473,-0.7076874,-0.5830709,4.709125,-155.253,-22.01824,FKL
21670653853696.0,2.8073651790618896,-2.7430200576782227,2.414320707321167,-4.9780592918396,2.2943592071533203,-0.7144069000000001,-0.6114761,4.5801125,-156.1506,-22.070448000000006,FKL
21670658048000.0,2.812364339828491,-2.8091392517089844,2.3202171325683594,-5.2131781578063965,2.2890470027923584,-0.6936375,-0.6395759,4.492396,-156.92494,-22.08481,FKL
21670664339456.0,2.8173632621765137,-2.867875337600708,2.2401063442230225,-5.443708419799805,2.284785032272339,-0.6469063,-0.659429,4.396942,-157.67766,-22.105482,FKL
21670668533760.0,2.822361946105957,-2.9193458557128906,2.174016237258911,-5.669723987579346,2.2812561988830566,-0.6068946,-0.6597345,4.318466,-158.3493,-22.119005,FKL
21670672728064.0,2.8273608684539795,-2.964695453643799,2.120654344558716,-5.891483306884766,2.278076171875,-0.5714644,-0.6637050999999999,4.227969,-158.98602,-22.13191,FKL
21670679019520.0,2.8323657512664795,-3.005387783050537,2.078543186187744,-6.10943078994751,2.274763345718384,-0.5549710999999999,-0.7086037,4.1231904,-159.577,-22.150265,FKL
21670683213824.0,2.8373701572418213,-3.0421955585479736,2.0465497970581055,-6.324063777923584,2.2706313133239746,-0.58032197,-0.7293731,4.064063,-159.99355,-22.123482,FKL
21670689505280.0,2.842373847961426,-3.076101779937744,2.0235815048217773,-6.536431789398193,2.2655277252197266,-0.66798115,-0.7996226,3.980476,-160.4096,-22.127327,FKL
21670693699584.0,2.847377061843872,-3.108422040939331,2.00862717628479,-6.748122215270996,2.259129762649536,-0.64476824,-0.80939645,3.8780339,-160.77112,-22.1522,FKL
21670697893888.0,2.85237979888916,-3.140747308731079,2.0007548332214355,-6.9611687660217285,2.2511162757873535,-0.5103779,-0.7761043000000001,3.7661123,-161.09904,-22.17575,FKL
21670704185344.0,2.857382297515869,-3.174744129180908,1.99934720993042,-7.177685260772705,2.2411763668060303,-0.24953845,-0.7333437,3.616183,-161.42496,-22.175785,FKL
21670708379648.0,2.86238431930542,-3.2120556831359863,2.0039873123168945,-7.399747371673584,2.229029655456543,0.070554934,-0.68936145,3.4575326,-161.6937,-22.122272,FKL
21670714671104.0,2.8673877716064453,-3.253798007965088,2.014349937438965,-7.628365516662598,2.214341878890991,0.4615087000000001,-0.6392705,3.2507741,-161.96707,-22.00885,FKL
21670718865408.0,2.8723907470703125,-3.3003783226013184,2.0300638675689697,-7.863470554351807,2.196843385696411,0.8017605999999999,-0.59681535,3.0295231,-162.18352,-21.824425,FKL
21670723059712.0,2.8773930072784424,-3.3518028259277344,2.050016403198242,-8.104753494262695,2.176358222961426,1.1096367,-0.49693888,2.785403,-162.3786,-21.582577,FKL
21670729351168.0,2.882394790649414,-3.407719373703003,2.0726330280303955,-8.351629257202148,2.1526682376861572,1.2409728,-0.43371433,2.529407,-162.50749,-21.304884,FKL
21670733545472.0,2.8873963356018066,-3.468553066253662,2.0965468883514404,-8.603351593017578,2.1255059242248535,1.2501358,-0.27977628,2.3031833,-162.56845,-21.00552,FKL
21670737739776.0,2.892397403717041,-3.5352299213409424,2.1205766201019287,-8.859078407287598,2.094433546066284,1.2852604,0.04184427,2.1295397,-162.52852,-20.65202,FKL
21670744031232.0,2.8973982334136963,-3.6087300777435303,2.142174482345581,-9.117938041687012,2.0595035552978516,1.4001031000000002,0.21655174,1.9259745,-162.53978,-20.286804,FKL
21670748225536.0,2.9023988246917725,-3.6900787353515625,2.157766819000244,-9.37905502319336,2.0204648971557617,1.4590516000000002,0.47067168,1.8392532,-162.39864,-19.900866,FKL
21670754516992.0,2.9073991775512695,-3.7800676822662354,2.16517972946167,-9.641532897949219,1.9775996208190918,1.3020593,0.54641896,1.7389091,-162.33029,-19.627802,FKL
21670758711296.0,2.9123992919921875,-3.8793094158172607,2.163553476333618,-9.90444564819336,1.931581735610962,0.8350528,0.5726861999999999,1.7199625,-162.21123,-19.41126,FKL
21670762905600.0,2.9173989295959473,-3.988147735595703,2.152385950088501,-10.16532039642334,1.8831666707992554,0.22785273,0.6591236,1.7238195,-162.24854,-19.362438,FKL
21670769197056.0,2.922398567199707,-4.106553554534912,2.1316843032836914,-10.418903350830078,1.8328523635864258,-0.4083634,0.6872234,1.7683164,-162.28128,-19.448624,FKL
21670773391360.0,2.9273979663848877,-4.233616352081299,2.1020448207855225,-10.660367965698242,1.7810136079788208,-0.9767735,0.52839845,1.8157214,-162.41725,-19.769855,FKL
21670777585664.0,2.9323971271514893,-4.367537975311279,2.0646541118621826,-10.885221481323242,1.7280528545379639,-1.4266758,0.27763826,1.8941742,-162.5687,-20.22393,FKL
21670783877120.0,2.9373984336853027,-4.505129814147949,2.021390199661255,-11.088875770568848,1.6743626594543457,-1.7476854,0.038179077,1.9721675,-162.73643,-20.905489000000006,FKL
21670788071424.0,2.942399740219116,-4.64309024810791,1.9742097854614258,-11.268898963928223,1.6202415227890015,-1.8808541,-0.11026118,2.0271904,-162.92151,-21.653925,FKL
21670794362880.0,2.9474005699157715,-4.778004169464111,1.925073266029358,-11.422835350036621,1.565821886062622,-2.0115793,-0.2302962,2.063834,-163.08078,-22.540436,FKL
21670798557184.0,2.9524009227752686,-4.906549453735352,1.875838279724121,-11.54867172241211,1.5111644268035889,-2.200642,-0.2929099,2.0925295,-163.25291,-23.4707,FKL
21670802751488.0,2.9574010372161865,-5.026027202606201,1.8279515504837036,-11.64525032043457,1.4563449621200562,-2.3835962000000004,-0.31673363,2.1522017000000004,-163.32834,-24.380438,FKL
21670809042944.0,2.9624009132385254,-5.134368419647217,1.7823591232299805,-11.712496757507324,1.4015003442764282,-2.5314255,-0.33750305,2.2144625,-163.41078000000005,-25.324947,FKL
21670813237248.0,2.967400312423706,-5.229877471923828,1.739823818206787,-11.750584602355957,1.3468011617660522,-2.6661212000000005,-0.3640757,2.351989,-163.37271,-26.242783000000006,FKL
21670819528704.0,2.9723997116088867,-5.31125545501709,1.7008109092712402,-11.76005744934082,1.2924388647079468,-2.833193,-0.37904188,2.5181417,-163.34204,-27.19892,FKL
21670823723008.0,2.9773988723754883,-5.377650737762451,1.665544033050537,-11.741878509521484,1.2387288808822632,-2.9880474,-0.4120286,2.768969,-163.22958,-28.109533000000006,FKL
21670827917312.0,2.9823977947235107,-5.428741931915283,1.633790135383606,-11.697735786437988,1.186009407043457,-3.0775392000000004,-0.4550946,3.0450313,-163.1367,-29.035381,FKL
21670834208768.0,2.9873969554901123,-5.464322090148926,1.6052511930465698,-11.629581451416016,1.134509563446045,-3.0836477,-0.50335294,3.3848584,-162.998,-29.917158,FKL
21670838403072.0,2.9923958778381348,-5.48441743850708,1.579466700553894,-11.54012680053711,1.084414005279541,-3.035084,-0.5271766999999999,3.7461936,-162.88891999999996,-30.795366,FKL
21670842597376.0,2.9973948001861572,-5.488943099975586,1.5560365915298462,-11.431954383850098,1.0357877016067505,-2.8561006,-0.5534439,4.069893,-162.79652,-31.612482,FKL
21670848888832.0,3.0023937225341797,-5.477331638336182,1.534674048423767,-11.307778358459473,0.9886658787727356,-2.533869,-0.5299255999999999,4.3982405999999985,-162.7159,-32.36388,FKL
21670853083136.0,3.0073938369750977,-5.4488959312438965,1.5153120756149292,-11.170308113098145,0.9429776668548584,-2.1358902000000004,-0.4465425,4.6778646,-162.64311,-32.99075,FKL
21670859374592.0,3.0123937129974365,-5.403484344482422,1.4982808828353882,-11.022254943847656,0.8985809087753296,-1.6526959,-0.3933972,4.916721,-162.57023999999996,-33.501259999999995,FKL
21670863568896.0,3.0173933506011963,-5.340885162353516,1.4839664697647095,-10.866157531738281,0.8554356098175049,-0.9257663,-0.17684549,5.2030224999999986,-162.42938,-33.674004,FKL
21670867763200.0,3.022392749786377,-5.261490345001221,1.4729945659637451,-10.70417308807373,0.8134407997131348,-0.055283304000000005,0.09743301,5.4423776,-162.25847,-33.6649,FKL
21670874054656.0,3.0273921489715576,-5.165961265563965,1.465798258781433,-10.538147926330566,0.7725703716278076,0.66767573,0.31887165,5.540842,-162.07469,-33.415707,FKL
21670880346112.0,3.032395839691162,-5.056333541870117,1.462186574935913,-10.369279861450195,0.7329339385032654,1.1459832,0.4633413,5.615267,-161.86373999999995,-32.977257,FKL
21670884540416.0,3.0373990535736084,-4.93460750579834,1.4619243144989014,-10.198644638061523,0.6948214173316956,1.5155567,0.5375614000000001,5.6400510000000015,-161.61203,-32.266746999999995,FKL
21670888734720.0,3.0424017906188965,-4.803427696228027,1.4649684429168701,-10.027900695800781,0.6584665775299072,1.8304577,0.5815437,5.634639,-161.35358,-31.432148,FKL
21670892929024.0,3.0474038124084473,-4.665360450744629,1.471362829208374,-9.858769416809082,0.6241016983985901,2.1270328,0.61208695,5.587704,-161.11371,-30.499796000000003,FKL
21670899220480.0,3.052405595779419,-4.523723602294922,1.481698989868164,-9.694207191467285,0.5919146537780762,2.5189028,0.6774496,5.5008300000000006,-160.89023999999995,-29.453367,FKL
21670903414784.0,3.0574066638946533,-4.381549835205078,1.4964449405670166,-9.536911964416504,0.5619626641273499,2.973081,0.71959925,5.3520184,-160.69238,-28.346918,FKL
21670907609088.0,3.0624074935913086,-4.242191314697266,1.5156769752502441,-9.390071868896484,0.5341830253601074,3.4245105,0.71959925,5.146083999999999,-160.51474,-27.14582,FKL
21670913900544.0,3.0674080848693848,-4.108700275421143,1.5396620035171509,-9.256637573242188,0.5084787011146545,3.7803395,0.70157874,4.8773637,-160.35912,-25.91364,FKL
21670918094848.0,3.0724081993103027,-3.9845030307769775,1.5712225437164307,-9.140752792358398,0.48472994565963745,3.8615847,0.6579019,4.5588026,-160.22012,-24.661346,FKL
21670924386304.0,3.0774083137512207,-3.8727211952209473,1.6129376888275146,-9.04619026184082,0.4628472924232483,3.6383133,0.6169739000000001,4.2020339999999985,-160.1231,-23.500633,FKL
21670928580608.0,3.0824081897735596,-3.7743916511535645,1.6647311449050903,-8.973864555358887,0.4429413378238678,3.2363641,0.6591236,3.8561943,-160.04613,-22.38871,FKL
21670932774912.0,3.0874078273773193,-3.690279960632324,1.726282000541687,-8.924358367919922,0.42551326751708984,3.0127873,0.7690793,3.5134907,-160.01283,-21.310041,FKL
21670939066368.0,3.0924072265625,-3.621159553527832,1.7950408458709717,-8.895383834838867,0.4108499586582184,2.5573874,0.7993172,3.260863,-159.94223,-20.504383,FKL
21670943260672.0,3.097407579421997,-3.5678367614746094,1.8683700561523438,-8.884538650512695,0.3997150957584381,2.1630738,0.82711154,3.0493286,-159.97484,-19.75352,FKL
21670947454976.0,3.102407455444336,-3.5307185649871826,1.9441046714782715,-8.88966178894043,0.3927822411060333,1.8573358,0.7886270000000001,2.87328,-160.07353,-19.16614,FKL
21670953746432.0,3.1074070930480957,-3.51023268699646,2.020211935043335,-8.908754348754883,0.3897036612033844,1.6380351999999998,0.7150178,2.7320638,-160.17227,-18.671856,FKL
21670957940736.0,3.1124064922332764,-3.505929946899414,2.0938808917999268,-8.938501358032227,0.3899945616722107,1.5635096000000002,0.6646214,2.6038759,-160.34802,-18.232782,FKL
21670964232192.0,3.117405414581299,-3.5172338485717773,2.162536382675171,-8.97575855255127,0.3929011821746826,1.6059648000000002,0.6078109,2.4643815,-160.50368,-17.837114,FKL
21670968426496.0,3.1224043369293213,-3.5427029132843018,2.2239089012145996,-9.01705551147461,0.3973996043205261,1.5711454,0.5012149,2.3631096,-160.7533,-17.724186,FKL
21670972620800.0,3.1274027824401855,-3.5808615684509277,2.276063919067383,-9.059247016906738,0.4023793637752533,1.4306464,0.3381139,2.2401867,-160.94589,-17.636896,FKL
21670978912256.0,3.13240122795105,-3.62874436378479,2.3184056282043457,-9.100780487060547,0.4065905809402466,1.2205088,0.2049453,2.1623025,-161.14462,-17.654020000000006,FKL
21670983106560.0,3.137399673461914,-3.6833977699279785,2.3506524562835693,-9.140519142150879,0.40871569514274597,0.91446525,0.13775012,2.0828314,-161.23606999999996,-17.740343,FKL
21670989398016.0,3.142397880554199,-3.7427244186401367,2.3733041286468506,-9.178547859191895,0.4077896475791931,0.58001655,0.13041973,2.055766,-161.32755,-17.918194,FKL
21670993592320.0,3.1473960876464844,-3.8050005435943604,2.38703989982605,-9.215250015258789,0.40319305658340454,0.23273966,0.12156218,2.039019,-161.31439,-18.184483,FKL
21670997786624.0,3.1523940563201904,-3.8691163063049316,2.392773151397705,-9.251304626464844,0.39470037817955017,-0.08674286,0.070249505,2.0308793,-161.25581,-18.453856,FKL
21671004078080.0,3.1573920249938965,-3.9343373775482178,2.391505718231201,-9.28749942779541,0.3823903501033783,-0.3436117,-0.02443461,2.0332112,-161.14252,-18.80094,FKL
21671008272384.0,3.1623899936676025,-3.9994428157806396,2.3845152854919434,-9.323629379272461,0.36665061116218567,-0.5458081,-0.14355333,2.0267255,-161.02121,-19.157997,FKL
21671012466688.0,3.1673879623413086,-4.063167572021484,2.3730733394622803,-9.359224319458008,0.34803780913352966,-0.72601336,-0.27855456,2.0097754,-160.9027,-19.582937,FKL
21671018758144.0,3.1723859310150146,-4.1243743896484375,2.3583364486694336,-9.39385986328125,0.32721948623657227,-0.9034697,-0.36957347,1.9820255,-160.81158,-20.031689,FKL
21671022952448.0,3.1773838996887207,-4.182060241699219,2.3413450717926025,-9.427164077758789,0.3048080503940582,-1.0903945,-0.44135013,1.939157,-160.7533,-20.533875,FKL
21671029243904.0,3.1823818683624268,-4.23508358001709,2.3229620456695557,-9.458345413208008,0.2814773917198181,-1.1713341,-0.46517387,1.8961219,-160.74573,-21.045002,FKL
21671033438208.0,3.187379837036133,-4.282260894775391,2.3039305210113525,-9.48641586303711,0.25778475403785706,-1.3341297,-0.46303585,1.867157,-160.77255,-21.621769,FKL
21671039729664.0,3.19238018989563,-4.322668552398682,2.2849180698394775,-9.51038646697998,0.23401623964309692,-1.4743233,-0.4456262,1.8304929,-160.74161,-22.109709,FKL
21671043923968.0,3.197380304336548,-4.3559889793396,2.2663490772247314,-9.529731750488281,0.21063239872455597,-1.5671748,-0.408058,1.8150464,-160.76675,-22.615732,FKL
21671048118272.0,3.2023801803588867,-4.3817949295043945,2.248664617538452,-9.543835639953613,0.18798589706420898,-1.6313156,-0.37873647,1.8150952,-160.75597,-23.088903,FKL
21671054409728.0,3.2073798179626465,-4.399713516235352,2.2322545051574707,-9.55215072631836,0.16640199720859528,-1.6649131999999998,-0.3408628,1.8391285,-160.77861,-23.563608,FKL
21671058604032.0,3.2123794555664062,-4.4096360206604,2.217365264892578,-9.554460525512695,0.14613278210163116,-1.6511686999999995,-0.3005457,1.9183835,-160.78001,-23.970673,FKL
21671062798336.0,3.217378854751587,-4.411636829376221,2.2041404247283936,-9.55077838897705,0.12735098600387573,-1.6013832,-0.26297748,2.0110831,-160.80435,-24.364368,FKL
21671069089792.0,3.2223780155181885,-4.405787944793701,2.1927947998046875,-9.541229248046875,0.1101430132985115,-1.4963144,-0.23457226,2.1353512,-160.80594,-24.683268,FKL
21671073284096.0,3.22737717628479,-4.392159938812256,2.1836681365966797,-9.526118278503418,0.09458009153604507,-1.3548992,-0.18753563,2.2679007,-160.82343,-24.966496,FKL
21671079575552.0,3.2323808670043945,-4.370561599731445,2.1773643493652344,-9.50562572479248,0.0807170644402504,-1.205848,-0.13591751,2.405238,-160.82861,-25.18096,FKL
