timestamp,rel_time,acc_x,acc_y,acc_z,gyro_x,gyro_y,gyro_z,azimuth,pitch,roll,label
0.0,0.0,0.0,0.0,0.0,0.0,-0.055283304000000005,0.024740042,151.22478,-35.304596000000004,-38.021057,STD
40235500000.0,1.5068794709804934e-05,-0.006552109960466623,0.027879998087882996,-0.007270923350006342,-0.00021011815988458693,-0.062002823,0.024740042,150.8106,-35.466984000000004,-38.12624,STD
120107660000.0,7.435387669829652e-05,-0.019585514441132545,0.08323627710342407,-0.021662384271621704,-0.0006090374663472176,-0.058337633,0.021685716,150.3677,-35.752823,-38.175865,STD
238440400000.0,0.00021362189727369696,-0.038941606879234314,0.1652677357196808,-0.042909860610961914,-0.0011512492783367634,-0.04795292,0.027794369,149.92351000000002,-36.035427,-38.222588,STD
393522100000.0,0.0004463020886760205,-0.06435444951057434,0.272793710231781,-0.07068384438753128,-0.0018009080085903406,-0.06078109,0.032986722999999996,149.48662,-36.312785999999996,-38.2656,STD
583164760000.0,0.000802955066319555,-0.0954962745308876,0.4043101370334625,-0.10454389452934265,-0.002719544805586338,-0.052534412999999995,0.033292156,149.04178000000002,-36.583874,-38.313507,STD
804777030000.0,0.00130571483168751,-0.13196609914302826,0.5580301880836487,-0.14398854970932007,-0.003772004274651408,-0.04734206,0.03023783,148.60196000000002,-36.85295,-38.35736,STD
1055446300000.0,0.001974128419533372,-0.1733083873987198,0.7319436073303223,-0.18846184015274048,-0.004950350616127253,-0.03573562,0.028405233999999998,148.15868,-37.11558,-38.40297,STD
1332025800000.0,0.00282412301748991,-0.21902625262737274,0.9238764643669128,-0.2373705804347992,-0.006386784370988607,-0.045814894,0.027794369,147.7214,-37.371655,-38.445415000000004,STD
1631222000000.0,0.003865597303956747,-0.2685934901237488,1.1315507888793945,-0.29010358452796936,-0.007797420956194401,-0.04550946,0.022602014,147.28027,-37.623329999999996,-38.49277,STD
1949678300000.0,0.005108464043587446,-0.3214736580848694,1.3526450395584106,-0.34603825211524963,-0.009274178184568882,-0.03726278,0.02687807,146.83856,-37.869854,-38.537323,STD
2284051800000.0,0.006560660433024168,-0.3771306872367859,1.5848462581634521,-0.4045572876930237,-0.010744836181402206,-0.048258353,0.025350908,146.40558000000001,-38.11005,-38.5806,STD
2631080300000.0,0.008221381343901157,-0.43503376841545105,1.8258943557739258,-0.46507060527801514,-0.012024393305182457,-0.04550946,0.022602014,145.96632,-38.346775,-38.626765999999996,STD
2987639700000.0,0.010092530399560928,-0.49467694759368896,2.0736255645751953,-0.5270091891288757,-0.01344979740679264,-0.04428773,0.02687807,145.5302,-38.578070000000004,-38.669228000000004,STD
3350788300000.0,0.012172745540738106,-0.5555809736251831,2.3260016441345215,-0.589841902256012,-0.01527252234518528,-0.043982297000000004,0.027183502999999998,145.09573,-38.802753,-38.7133,STD
3717801400000.0,0.014455635100603104,-0.6172972321510315,2.581132411956787,-0.6530840396881104,-0.016648555174469948,-0.04917465,0.030848695,144.66151000000002,-39.02742,-38.75477,STD
4086193200000.0,0.016989529132843018,-0.6794657111167908,2.8373141288757324,-0.7162156105041504,-0.01875797100365162,-0.046731193,0.03268129,144.22586,-39.23937,-38.797867,STD
4453729600000.0,0.019683923572301865,-0.741641104221344,3.0929646492004395,-0.778961718082428,-0.020442986860871315,-0.050396382999999996,0.033292156,143.79366000000002,-39.453945000000004,-38.83851,STD
4818432700000.0,0.022535717114806175,-0.8034992218017578,3.346712589263916,-0.8409683704376221,-0.022300701588392258,-0.054367005999999996,0.035430185,143.3606,-39.658493,-38.878807,STD
5178579000000.0,0.02555902674794197,-0.8647727370262146,3.5973691940307617,-0.9019027948379517,-0.024122461676597595,-0.04734206,0.03390302,142.92643999999999,-39.859885999999996,-38.92115,STD
5532689600000.0,0.028744980692863464,-0.9252132177352905,3.8439064025878906,-0.9615097045898438,-0.0262143574655056,-0.036957346,0.029932396,142.49289,-40.054283,-38.963642,STD
5879518000000.0,0.03208732232451439,-0.9846125245094299,4.085458278656006,-1.0195722579956055,-0.027821818366646767,-0.029321532999999997,0.029626964,142.05788,-40.247116,-39.006508000000004,STD
6218034700000.0,0.03556900843977928,-1.042787790298462,4.321305751800537,-1.0759282112121582,-0.02980036474764347,-0.028099801,0.027794369,141.62292,-40.429596000000004,-39.05153,STD
6547409700000.0,0.039185501635074615,-1.099600076675415,4.5508713722229,-1.1304336786270142,-0.03193407505750656,-0.028710667000000002,0.027183502999999998,141.18604,-40.6099,-39.09745,STD
6866993000000.0,0.04292798787355423,-1.1549357175827026,4.7737016677856445,-1.1829835176467896,-0.03346715494990349,-0.025045475,0.01863139,140.7493,-40.784332,-39.146809999999995,STD
7176297000000.0,0.04678324609994888,-1.2087033987045288,4.989453315734863,-1.2335083484649658,-0.034993961453437805,-0.022602014,0.017104227,140.31165,-40.952995,-39.19461,STD
7474975300000.0,0.050743743777275085,-1.2608401775360107,5.197884559631348,-1.2819563150405884,-0.036773573607206345,-0.01160644,0.020463986,139.87059,-41.117290000000004,-39.24535,STD
7762809500000.0,0.054802995175123215,-1.3113044500350952,5.39884090423584,-1.3282970190048218,-0.03878273069858551,-0.024129177,0.01160644,139.43842,-41.273785,-39.296482,STD
8039687500000.0,0.05895339697599411,-1.3600711822509766,5.5922417640686035,-1.3725210428237915,-0.040432993322610855,-0.026267206,0.0027488936,138.9983,-41.4276,-39.350285,STD
8305590700000.0,0.06318157911300659,-1.4071252346038818,5.778069496154785,-1.4146442413330078,-0.041852787137031555,-0.027794369,-0.0009162978999999999,138.56201000000001,-41.57504,-39.403484000000006,STD
8560579000000.0,0.06748278439044952,-1.4524719715118408,5.956363201141357,-1.4546842575073242,-0.04336562380194664,-0.029321532999999997,0.003970624,138.12572,-41.718270000000004,-39.456672999999995,STD
8804778000000.0,0.07187175750732422,-1.4961451292037964,6.12721586227417,-1.4926427602767944,-0.044585730880498886,-0.03573562,-0.013439035,137.6955,-41.852848,-39.515583,STD
9038368000000.0,0.0763019397854805,-1.5381314754486084,6.290733814239502,-1.5286190509796143,-0.04645899683237076,-0.03634648,-0.008246681,137.25786000000002,-41.98701,-39.568596,STD
9261570000000.0,0.0807870551943779,-1.5784798860549927,6.447076797485352,-1.5626338720321655,-0.04778560623526573,-0.03359759,-0.005497787,136.82384,-42.116688,-39.626290000000004,STD
9474642000000.0,0.08532514423131943,-1.6172305345535278,6.596423149108887,-1.5947368144989014,-0.049114130437374115,-0.040011674,-0.014049901000000002,136.39296000000002,-42.23762,-39.684414000000004,STD
9677872000000.0,0.08990710973739624,-1.6544214487075806,6.738966941833496,-1.6249926090240479,-0.050693392753601074,-0.04550946,-0.014660766,135.95778,-42.358227,-39.740673,STD
9871564000000.0,0.09452948719263077,-1.6900992393493652,6.8749189376831055,-1.6534616947174072,-0.05265308544039726,-0.046120327,-0.010690141499999998,135.52254,-42.473835,-39.797955,STD
10056038000000.0,0.09919314086437225,-1.7243165969848633,7.004500865936279,-1.6802008152008057,-0.054613929241895676,-0.038179077,-0.01740966,135.08696,-42.583412,-39.858765000000005,STD
10231624000000.0,0.10389095544815063,-1.7571207284927368,7.127938270568848,-1.705280065536499,-0.05605394020676613,-0.033292156,-0.010079277,134.64796,-42.694378,-39.914837,STD
10398658000000.0,0.1086152121424675,-1.788559079170227,7.2454609870910645,-1.7287712097167969,-0.05713867023587227,-0.025045475,-0.01038471,134.2062,-42.79797,-39.976290000000006,STD
10557476000000.0,0.11336804181337357,-1.8181791305541992,7.35725736618042,-1.7512480020523071,-0.05864661559462547,-0.023518313,-0.0070249503,133.76157,-42.90031,-40.03497,STD
10708416000000.0,0.11814845353364944,-1.845585823059082,7.463520050048828,-1.773227572441101,-0.059649758040905,-0.01985312,-0.004276057,133.31198,-43.002487,-40.095455,STD
10851810000000.0,0.12294705212116241,-1.8708958625793457,7.564482688903809,-1.794711709022522,-0.06047505512833595,-0.021380282999999996,0.0009162978999999999,132.87028999999998,-43.213146,-40.078762,STD
10987987000000.0,0.12776747345924377,-1.8941880464553833,7.66037654876709,-1.8157322406768799,-0.06172264739871025,-0.022907447,0.008246681,132.42818,-43.420727,-40.060856,STD
11117268000000.0,0.13260573148727417,-1.9155608415603638,7.751426696777344,-1.8363028764724731,-0.06281092017889023,-0.016493361,0.008857545999999999,131.98582,-43.625679999999996,-40.0438,STD
11239967000000.0,0.13746027648448944,-1.9351035356521606,7.83785343170166,-1.8564423322677612,-0.06324994564056396,-0.019547688,0.01985312,131.54596,-43.831173,-40.020590000000006,STD
11356390000000.0,0.14232784509658813,-1.9529080390930176,7.9198713302612305,-1.8761645555496216,-0.06382723897695541,-0.005192355,0.020463986,131.10121,-44.028492,-40.00265,STD
11466830000000.0,0.147210031747818,-1.9690498113632202,7.997687339782715,-1.8954944610595703,-0.06416565179824829,-0.005192355,0.030848695,130.880265855283,-44.1284866279694,-39.990183129509994,STD
11571574000000.0,0.1521061211824417,-1.983608365058899,8.071502685546875,-1.914450764656067,-0.06479275226593018,0.00061086525,0.031154128,130.65875,-44.22874,-39.977684,STD
11670897000000.0,0.1570097953081131,-1.9966762065887451,8.141510009765625,-1.9330382347106934,-0.06535513699054718,-0.014049901000000002,0.032986722999999996,130.22125,-44.422684000000004,-39.954094,STD
11765064000000.0,0.16192592680454254,-2.0083112716674805,8.207895278930664,-1.9512872695922852,-0.06498418748378754,-0.009468411,0.03756821,129.77477,-44.61775,-39.92995,STD
11854328000000.0,0.1668543666601181,-2.018582820892334,8.270837783813477,-1.9692155122756958,-0.06476182490587234,-0.0061086523,0.03848451,129.33557,-44.805817,-39.90455,STD
11938934000000.0,0.17178529500961304,-2.0275847911834717,8.330507278442383,-1.9868173599243164,-0.06427615135908127,0.0009162978999999999,0.04153884,128.89412,-44.994440000000004,-39.878464,STD
12019116000000.0,0.17672380805015564,-2.0353660583496094,8.387068748474121,-2.0041215419769287,-0.06316859275102615,0.007941248,0.040927973,128.45343,-45.178653999999995,-39.85367,STD
12095096000000.0,0.1816704422235489,-2.041985511779785,8.440678596496582,-2.0211451053619385,-0.0621514618396759,0.02107485,0.04062254,128.00916999999998,-45.358593,-39.829640000000005,STD
12167087000000.0,0.18662483990192413,-2.047502040863037,8.491487503051758,-2.037902355194092,-0.060523491352796555,0.03176499,0.03604105,127.56534599999999,-45.536003,-39.80761,STD
12235293000000.0,0.19165433943271637,-2.0517804622650146,8.539640426635742,-2.054565906524658,-0.05920804291963577,0.036651913,0.028710667000000002,127.12066999999999,-45.70635,-39.787409999999994,STD
12299909000000.0,0.19661195576190948,-2.055288553237915,8.585267066955566,-2.0708045959472656,-0.056956470012664795,0.048563786,0.029626964,126.6705,-45.877544,-39.768257,STD
12361118000000.0,0.20157578587532043,-2.0578558444976807,8.628501892089844,-2.0868148803710938,-0.054888490587472916,0.05955936,0.024129177,126.22178999999998,-46.038227,-39.753334,STD
12419097000000.0,0.20654015243053436,-2.0595459938049316,8.669466972351074,-2.1025960445404053,-0.05234545096755028,0.05161811400000001,0.026572637000000003,125.775345,-46.200584,-39.735493,STD
12474013000000.0,0.21150702238082886,-2.060398817062378,8.708280563354492,-2.1181647777557373,-0.05026142671704292,0.053450707,0.015271631,125.3249,-46.351772,-39.72503,STD
12526026000000.0,0.2164779007434845,-2.060453414916992,8.745054244995117,-2.133535861968994,-0.04791413992643356,0.053450707,0.01160644,124.87738,-46.50419,-39.711059999999996,STD
12575286000000.0,0.22144898772239685,-2.0597612857818604,8.779894828796387,-2.1487109661102295,-0.04535000026226044,0.0693332,0.026572637000000003,124.42338600000001,-46.653923,-39.696903000000006,STD
12621937000000.0,0.22642220556735992,-2.0583560466766357,8.812902450561523,-2.1637051105499268,-0.042759206146001816,0.06536258,0.02076942,123.97993000000001,-46.79367,-39.68762,STD
12666115000000.0,0.23139993846416473,-2.0562682151794434,8.844173431396484,-2.1785335540771484,-0.04098816215991974,0.06505715,0.017715093,123.52801000000001,-46.93327,-39.67555,STD
12707953000000.0,0.23638002574443817,-2.0535387992858887,8.873799324035645,-2.1932003498077393,-0.03942479193210602,0.05100725,0.02687807,123.082054,-47.07221,-39.660328,STD
12747570000000.0,0.2413598597049713,-2.050208568572998,8.90186595916748,-2.2077083587646484,-0.03830196335911751,0.053450707,0.02565634,122.63231,-47.20212,-39.650417,STD
12785085000000.0,0.24634352326393127,-2.046297550201416,8.928455352783203,-2.2220754623413086,-0.03771017864346504,0.048563786,0.023823743999999997,122.18948,-47.33027,-39.636646,STD
12820607000000.0,0.25138136744499207,-2.041693687438965,8.953648567199707,-2.2364275455474854,-0.03643442690372467,0.04184427,0.03359759,121.74558,-47.459167,-39.620445000000004,STD
12854244000000.0,0.25636762380599976,-2.036724090576172,8.977514266967773,-2.2505240440368652,-0.03603948652744293,0.039095376,0.04153884,121.30257399999999,-47.580059999999996,-39.605553,STD
12886093000000.0,0.26135072112083435,-2.0312790870666504,9.000123977661133,-2.2644855976104736,-0.03534027934074402,0.052534412999999995,0.038789943,120.85646000000001,-47.700523,-39.592102000000004,STD
12916249000000.0,0.26633918285369873,-2.025360107421875,9.021544456481934,-2.278339147567749,-0.03567034751176834,0.06352998,0.036651913,120.4114,-47.816223,-39.57638,STD
12944803000000.0,0.2713259756565094,-2.0190112590789795,9.041838645935059,-2.29207444190979,-0.03603166341781616,0.08460484,0.044898596,119.9572,-47.932877000000005,-39.560829999999996,STD
12971838000000.0,0.2763129770755768,-2.0122501850128174,9.061066627502441,-2.305701971054077,-0.03687803074717522,0.10781772,0.046731193,119.49904,-48.041595,-39.549046000000004,STD
12997435000000.0,0.28130263090133667,-2.005092144012451,9.07928466796875,-2.319232940673828,-0.03771191090345383,0.13316862,0.05100725,119.03133999999999,-48.150764,-39.536465,STD
13021671000000.0,0.2862917482852936,-1.9975664615631104,9.096546173095703,-2.3326656818389893,-0.038241125643253326,0.14691310000000002,0.058337633,118.55873999999999,-48.257835,-39.523746,STD
13044617000000.0,0.29128119349479675,-1.9896903038024902,9.11290168762207,-2.3460071086883545,-0.040060024708509445,0.16523905,0.06597344599999999,118.07462,-48.36061,-39.512234,STD
13066342000000.0,0.2962729334831238,-1.9814767837524414,9.128399848937988,-2.359266996383667,-0.04259564355015755,0.1695151,0.06719518,117.59017,-48.461872,-39.50073,STD
13086911000000.0,0.30127087235450745,-1.9729323387145996,9.143085479736328,-2.3724589347839355,-0.045647140592336655,0.1908954,0.070554934,117.09158000000001,-48.561142,-39.489296,STD
13106385000000.0,0.30626484751701355,-1.9641023874282837,9.157002449035645,-2.385563611984253,-0.048633821308612823,0.1957823,0.07086037,116.59698,-48.656696000000004,-39.477863,STD
13124823000000.0,0.31125664710998535,-1.9558660984039307,9.17089557647705,-2.3984780311584473,-0.05160794034600258,0.20189096,0.08277224,116.092285,-48.752625,-39.464092,STD
13142280000000.0,0.3162546455860138,-1.9490314722061157,9.185467720031738,-2.411121368408203,-0.054000601172447205,0.19883664,0.08827003,115.58892,-48.84487,-39.45203,STD
13158807000000.0,0.32126808166503906,-1.9435579776763916,9.200733184814453,-2.423522472381592,-0.05616820976138115,0.20158553,0.09560041,115.06441000000001,-49.027893,-39.370796,STD
13174454000000.0,0.3262600302696228,-1.939245343208313,9.216465950012207,-2.4356391429901123,-0.05709748715162277,0.21685717,0.11301007,114.537575,-49.21233,-39.286488,STD
13189268000000.0,0.33125418424606323,-1.936111569404602,9.232758522033691,-2.4475209712982178,-0.057684335857629776,0.22693644,0.11575896,114.01444,-49.388874,-39.204857000000004,STD
13203294000000.0,0.3362475335597992,-1.9340838193893433,9.249567031860352,-2.4591760635375977,-0.05807718262076378,0.23671028,0.12034045,113.48673000000001,-49.567112,-39.119526,STD
13216572000000.0,0.3412408232688904,-1.933105707168579,9.266867637634277,-2.4706175327301025,-0.058302633464336395,0.23518312,0.12858713,112.961205,-49.742588,-39.03315,STD
13229143000000.0,0.3462366461753845,-1.9331305027008057,9.284646987915039,-2.481860637664795,-0.057865072041749954,0.23793201,0.14355333,112.43193000000001,-49.917190000000005,-38.945133,STD
13241045000000.0,0.3512381911277771,-1.9341167211532593,9.302896499633789,-2.4929211139678955,-0.05592094361782074,0.25289822,0.16004670000000001,111.90023000000001,-50.090885,-38.855705,STD
13252313000000.0,0.3562357723712921,-1.9359798431396484,9.32154369354248,-2.5037941932678223,-0.05307130515575409,0.27824909999999997,0.17012598,111.36528999999999,-50.262215000000005,-38.765358,STD
13262982000000.0,0.36122965812683105,-1.9386733770370483,9.340566635131836,-2.5144901275634766,-0.04830646887421608,0.31123585,0.17806722,110.82341000000001,-50.435368,-38.672844,STD
13273082000000.0,0.3662286698818207,-1.9421837329864502,9.359990119934082,-2.525031328201294,-0.04265617951750755,0.36865717,0.18845193,110.26483,-50.607048,-38.579758,STD
13282644000000.0,0.3712243139743805,-1.946438193321228,9.37975025177002,-2.5354137420654297,-0.03569560497999191,0.42516220000000005,0.20250183,109.69611,-50.779404,-38.4853,STD
13291697000000.0,0.3762192130088806,-1.9514058828353882,9.399842262268066,-2.545649290084839,-0.028080493211746216,0.4822781,0.21166481,109.10818,-50.948605,-38.39205,STD
13300268000000.0,0.38121646642684937,-1.957059621810913,9.42026424407959,-2.555750608444214,-0.019194671884179115,0.5235115,0.24037547,108.50601999999999,-51.124016,-38.291053999999995,STD
13308383000000.0,0.386212557554245,-1.9633508920669556,9.440980911254883,-2.5657196044921875,-0.00939881894737482,0.5479460999999999,0.27366763,107.8908,-51.29853,-38.187725,STD
13316065000000.0,0.39121320843696594,-1.9702657461166382,9.462005615234375,-2.5755722522735596,0.0011120870476588607,0.5525276,0.28924468,107.26966999999999,-51.4718,-38.08211,STD
13323338000000.0,0.3962111175060272,-1.9777460098266602,9.483285903930664,-2.585303544998169,0.012918452732264996,0.54611355,0.29718593,106.64504,-51.64804,-37.969837,STD
13330224000000.0,0.40121451020240784,-1.9857900142669678,9.504849433898926,-2.5949325561523438,0.025755928829312325,0.5204572000000001,0.29718593,106.027855,-51.82128,-37.855247,STD
13336743000000.0,0.406213641166687,-1.9943344593048096,9.526632308959961,-2.604450225830078,0.038885947316884995,0.4886922,0.28191432,105.41783999999998,-51.987316,-37.742767,STD
13342915000000.0,0.4112089276313782,-2.0033533573150635,9.548624038696289,-2.6138627529144287,0.05240685120224953,0.45234573,0.25809056,104.82129,-52.146156,-37.63237,STD
13348758000000.0,0.4162117838859558,-2.0128610134124756,9.57087230682373,-2.62319278717041,0.0672418624162674,0.41080686,0.23518312,104.240555,-52.296238,-37.525665000000004,STD
13354291000000.0,0.42120876908302307,-2.022785186767578,9.593294143676758,-2.632424831390381,0.08255594968795776,0.37720928,0.23548855,103.672005,-52.440856999999994,-37.41892,STD
13359528000000.0,0.4262048006057739,-2.0331199169158936,9.61590576171875,-2.641571283340454,0.09716790169477463,0.33505958,0.23548855,103.12377,-52.574112,-37.318207,STD
13364487000000.0,0.4312021732330322,-2.043851613998413,9.638708114624023,-2.6506400108337402,0.11067565530538559,0.30482176,0.24556783,102.58483000000001,-52.705659999999995,-37.214565,STD
13369183000000.0,0.43620017170906067,-2.0549566745758057,9.661686897277832,-2.6596343517303467,0.12315432727336884,0.24312437,0.2565634,102.07388,-52.832676,-37.110237,STD
13373627000000.0,0.44119948148727417,-2.0664174556732178,9.684837341308594,-2.6685590744018555,0.1336495727300644,0.17287487,0.2742785,101.5781,-52.959419999999994,-37.001526,STD
13377836000000.0,0.4461994767189026,-2.0782134532928467,9.708147048950195,-2.677417278289795,0.14176249504089355,0.0842994,0.29352075,101.11225999999999,-53.085069999999995,-36.889595,STD
13381821000000.0,0.4512009620666504,-2.090329647064209,9.731612205505371,-2.686213731765747,0.14648063480854034,0.011301007,0.28710666,100.66731,-53.203644,-36.78102,STD
13385594000000.0,0.45619821548461914,-2.102728843688965,9.755195617675781,-2.6949431896209717,0.14718732237815857,-0.043066,0.28038713,100.24824,-53.323119999999996,-36.6684,STD
13389165000000.0,0.46119579672813416,-2.1154115200042725,9.778912544250488,-2.703615665435791,0.14412887394428253,-0.07819075,0.26450464,99.84923,-53.433969999999995,-36.56198,STD
13392547000000.0,0.46619465947151184,-2.128365993499756,9.80276107788086,-2.712235689163208,0.13775010406970978,-0.09101892,0.24801129,99.46209,-53.538902,-36.459637,STD
13395748000000.0,0.47119206190109253,-2.141568183898926,9.82672119140625,-2.720802068710327,0.12949755787849426,-0.07696902,0.2284636,99.07802,-53.635,-36.364788,STD
13398780000000.0,0.4761889576911926,-2.15500807762146,9.850790977478027,-2.729318857192993,0.12043146044015884,-0.049480084,0.19883664,98.693504,-126.27962,-36.279564,STD
13401650000000.0,0.4811878502368927,-2.1686816215515137,9.874977111816406,-2.737792730331421,0.11041611433029175,-0.004886922,0.16615535,98.29744000000001,-126.20348999999999,-36.202686,STD
13404366000000.0,0.4861864149570465,-2.1825687885284424,9.899262428283691,-2.746222496032715,0.09987647831439972,0.086132,0.09987647,97.87432,-126.147934,-36.145367,STD
13406940000000.0,0.49118390679359436,-2.1966552734375,9.923636436462402,-2.7546091079711914,0.08729416131973267,0.14355333,0.035124752999999995,97.44624,-126.10328999999999,-36.0982,STD
13409375000000.0,0.4961830675601959,-2.21094012260437,9.94810962677002,-2.7629592418670654,0.07455223798751831,0.15851954,-0.004581489,96.999535,-126.07213999999999,-36.063404,STD
13411682000000.0,0.5011839270591736,-2.2254130840301514,9.972677230834961,-2.7712748050689697,0.060226812958717346,0.16340645,-0.05589417,96.53404,-126.06358,-36.05052,STD
13413867000000.0,0.5061815977096558,-2.2400472164154053,9.997308731079102,-2.779550552368164,0.0447441004216671,0.17837265,-0.09590584,96.05765,-126.06383000000001,-36.0455,STD
13415934000000.0,0.5111792087554932,-2.2533905506134033,10.020711898803711,-2.787644624710083,0.0284099318087101,0.20708331,-0.13988814,95.57216,-126.07995600000001,-36.055717,STD
13417892000000.0,0.5161808729171753,-2.2639358043670654,10.041545867919922,-2.7954111099243164,0.011578954756259918,0.2855795,-0.18509217,95.06103,-126.10768,-36.076473,STD
13419746000000.0,0.5211789608001709,-2.2718894481658936,10.059983253479004,-2.8028645515441895,-0.005299143493175507,0.3295618,-0.20830505,94.58725,-126.07668999999999,-36.03457,STD
13421501000000.0,0.5261780023574829,-2.2773561477661133,10.076130867004395,-2.810023307800293,-0.020577844232320786,0.39095375,-0.23426682,94.0801,-126.06114,-36.005527,STD
13423163000000.0,0.5311794877052307,-2.280457019805908,10.090104103088379,-2.816903591156006,-0.034716762602329254,0.40958515,-0.2284636,93.57354000000001,-126.04423500000001,-35.973827,STD
13424737000000.0,0.5361804962158203,-2.281339168548584,10.102031707763672,-2.823519229888916,-0.04758131131529808,0.4288274,-0.22327125,93.04545,-126.03638500000001,-35.948475,STD
13426227000000.0,0.5411803126335144,-2.2801265716552734,10.11202621459961,-2.8298840522766113,-0.05936961993575096,0.40653083,-0.21074851,92.52646,-126.02603,-35.91916,STD
13427637000000.0,0.54618239402771,-2.276904821395874,10.120174407958984,-2.836012840270996,-0.07005766034126282,0.36346483,-0.19883664,92.00885,-126.01576000000001,-35.888073,STD
13428973000000.0,0.5511853694915771,-2.2717907428741455,10.126580238342285,-2.8419175148010254,-0.07952500879764557,0.36774087,-0.19394971,91.483284,-126.00533999999999,-35.854538,STD
13430238000000.0,0.5561883449554443,-2.2648913860321045,10.131340980529785,-2.847609758377075,-0.08925285935401917,0.32620203,-0.18081611,90.99025,-125.989944,-35.816497999999996,STD
13431435000000.0,0.561187744140625,-2.2563297748565674,10.134562492370605,-2.8530995845794678,-0.0975995883345604,0.26083946,-0.15424347,90.50533,-125.97159599999999,-35.77339,STD
13432570000000.0,0.5661908388137817,-2.2461400032043457,10.13629150390625,-2.858400344848633,-0.10597354173660278,0.17318029999999998,-0.12156218,90.044075,-125.94791399999998,-35.726093,STD
13433644000000.0,0.5711904168128967,-2.2344627380371094,10.136642456054688,-2.8635194301605225,-0.11375472694635391,0.1160644,-0.09743301,89.59626,-125.92123000000001,-35.674633,STD
13434661000000.0,0.5762230157852173,-2.2210965156555176,10.135509490966797,-2.868480682373047,-0.12112123519182205,0.079107046,-0.07941248,89.17359,-125.88811000000001,-35.61764,STD
13435624000000.0,0.58122318983078,-2.206623077392578,10.133284568786621,-2.873267889022827,-0.1273626834154129,0.058948494000000004,-0.062002823,88.7664,-125.85045,-35.555645,STD
13436537000000.0,0.5862212181091309,-2.1908810138702393,10.12988567352295,-2.877901315689087,-0.13234369456768036,0.03726278,-0.038789943,88.37406,-125.80783000000001,-35.488716,STD
13437401000000.0,0.5912951827049255,-2.1733362674713135,10.124994277954102,-2.8824191093444824,-0.13679881393909454,0.06078109,-0.03573562,87.97341,-125.767746,-35.422894,STD
13438219000000.0,0.59629225730896,-2.155233144760132,10.119417190551758,-2.886770248413086,-0.14008870720863342,0.09285152,-0.032375857,87.57879,-125.72389,-35.35175,STD
13438994000000.0,0.6012905836105347,-2.1360301971435547,10.11283016204834,-2.8909921646118164,-0.14120115339756012,0.057726767000000005,0.008246681,87.20141600000001,-125.6714,-35.271404,STD
13439728000000.0,0.6062856912612915,-2.1158196926116943,10.105307579040527,-2.895090103149414,-0.14139162003993988,0.054061572999999995,0.005192355,86.80109399999999,-125.63198,-35.20176,STD
13440423000000.0,0.6112800240516663,-2.094637632369995,10.096887588500977,-2.899071455001831,-0.14181609451770782,0.04917465,0.01160644,86.41595,-125.58096,-35.120087,STD
13441080000000.0,0.6162781119346619,-2.0725016593933105,10.087596893310547,-2.9029440879821777,-0.14107853174209595,0.042455133,0.01985312,86.03339,-125.53398,-35.04005,STD
13441703000000.0,0.6212708353996277,-2.0495309829711914,10.07752513885498,-2.906710386276245,-0.13998961448669434,0.034513887,0.024740042,85.65369,-125.4872,-34.960484,STD
13442293000000.0,0.6262664794921875,-2.0257086753845215,10.066675186157227,-2.91037917137146,-0.13889361917972565,0.032375857,0.020158553,85.27488000000001,-125.4433,-34.882435,STD
13442852000000.0,0.6312645673751831,-2.001082181930542,10.055088996887207,-2.9139554500579834,-0.1377258151769638,0.013133603,0.016187929,84.905525,-125.40006000000001,-34.804787,STD
13443382000000.0,0.6362606287002563,-1.975728154182434,10.042828559875488,-2.917442560195923,-0.13663652539253235,0.0067195175,0.018936822,84.533035,-125.35788000000001,-34.727245,STD
13443883000000.0,0.641258716583252,-1.9496549367904663,10.029909133911133,-2.920846700668335,-0.13575178384780884,-0.017715093,0.0076358155,84.17305,-125.322395,-34.657166,STD
13444358000000.0,0.6462786197662354,-1.922747015953064,10.01626968383789,-2.924179792404175,-0.13462120294570923,-0.013744468000000001,0.00030543262000000003,83.80606999999999,-125.28702,-34.58538,STD
13444808000000.0,0.6512762904167175,-1.8953803777694702,10.002158164978027,-2.927429437637329,-0.13410429656505585,0.005192355,-0.009468411,83.441956,-125.256,-34.51874,STD
13445235000000.0,0.6562735438346863,-1.867419958114624,9.98749828338623,-2.930607795715332,-0.1341520994901657,0.040927973,-0.02687807,83.07016999999999,-125.230804,-34.456317999999996,STD
13445638000000.0,0.6612705588340759,-1.8388960361480713,9.972318649291992,-2.9337189197540283,-0.13489727675914764,0.113926366,-0.049480084,82.67841,-125.21027,-34.39656,STD
13446021000000.0,0.6662678122520447,-1.809835433959961,9.956645011901855,-2.9367663860321045,-0.13552135229110718,0.10659598599999999,-0.05497787,82.30203,-125.19118,-34.33918,STD
13446384000000.0,0.6712628602981567,-1.7802852392196655,9.940515518188477,-2.9397528171539307,-0.13573779165744781,0.09315695,-0.05681047,81.90174,-125.17788999999999,-34.28478,STD
13446728000000.0,0.6762585639953613,-1.750250220298767,9.923940658569336,-2.9426822662353516,-0.13636590540409088,0.089186326,-0.06780604,81.499954,-125.16871,-34.23466,FKL
13447053000000.0,0.6812534332275391,-1.7197675704956055,9.906950950622559,-2.9455573558807373,-0.13769303262233734,0.09437868,-0.08002335,81.0994,-125.16118,-34.185753000000005,FKL
13447361000000.0,0.6862481236457825,-1.6888567209243774,9.889566421508789,-2.948381185531616,-0.13899825513362885,0.110872045,-0.09254608,80.69558,-125.157776,-34.139790000000005,FKL
13447654000000.0,0.6912435293197632,-1.6575335264205933,9.871803283691406,-2.9511568546295166,-0.14046180248260498,0.13255776,-0.096516706,80.287834,-125.154854,-34.094376000000004,FKL
13447931000000.0,0.6962395906448364,-1.6258199214935303,9.853682518005371,-2.9538869857788086,-0.14148925244808197,0.14294247,-0.09407325,79.87778,-125.15475500000001,-34.050327,FKL
13448193000000.0,0.7012308835983276,-1.5937787294387817,9.835248947143555,-2.9565720558166504,-0.14249451458454132,0.14508049,-0.10048734,79.47051686737291,-125.156641543516,-34.0084036280005,FKL
13448441000000.0,0.7064895033836365,-1.5599693059921265,9.814449310302734,-2.9594759941101074,-0.14442284405231476,0.10170906,-0.096516706,78.63972,-125.16049,-33.922882,FKL
13448677000000.0,0.7117366194725037,-1.527139663696289,9.791996955871582,-2.9626362323760986,-0.14735525846481323,0.086132,-0.10995574,78.23061,-125.16615,-33.885567,FKL
13448900000000.0,0.7169673442840576,-1.4952545166015625,9.768035888671875,-2.9660305976867676,-0.15136848390102386,0.0693332,-0.12583824,77.886055,-125.10383600000002,-33.76532,FKL
13449112000000.0,0.7221854329109192,-1.4642544984817505,9.7426176071167,-2.969650983810425,-0.15677928924560547,0.05955936,-0.12858713,77.54417,-125.04156499999999,-33.646698,FKL
13449314000000.0,0.7273938655853271,-1.434085488319397,9.715795516967773,-2.9734890460968018,-0.16206450760364532,0.04550946,-0.13530666,77.20786,-124.98697,-33.535812,FKL
13449504000000.0,0.7325894832611084,-1.4047144651412964,9.687682151794434,-2.977527379989624,-0.1673610508441925,0.036651913,-0.14538592,76.87238,-124.93347,-33.427982,FKL
13449685000000.0,0.7377749085426331,-1.3760930299758911,9.658327102661133,-2.9817583560943604,-0.17301014065742493,0.018325957,-0.16126843,76.543564,-124.884445,-33.32598,FKL
13449856000000.0,0.742951512336731,-1.3481786251068115,9.627787590026855,-2.986172914505005,-0.17829306423664093,0.0033597588,-0.17012598,76.2159,-124.83851000000001,-33.2261,FKL
13450018000000.0,0.7481193542480469,-1.3209348917007446,9.596131324768066,-2.9907608032226562,-0.18308284878730774,-0.008857545999999999,-0.18142697,75.8917,-124.79841599999999,-33.13308,FKL
13450172000000.0,0.7532773613929749,-1.2943305969238281,9.563432693481445,-2.9955103397369385,-0.1870964914560318,-0.017104227,-0.18845193,75.57024399999999,-124.76163000000001,-33.042786,FKL
13450318000000.0,0.7584267258644104,-1.2683299779891968,9.529741287231445,-3.0004138946533203,-0.19089624285697937,-0.013439035,-0.20005837,75.24714,-124.73006000000001,-32.957676,FKL
13450457000000.0,0.763571560382843,-1.2428892850875854,9.495071411132812,-3.0054690837860107,-0.1942167729139328,-0.016187929,-0.19547687,74.92884000000001,-124.69852,-32.871502,FKL
13450588000000.0,0.7687055468559265,-1.21799898147583,9.45954418182373,-3.010657548904419,-0.19771844148635864,-0.024129177,-0.1881465,74.60968000000001,-124.669556,-32.788483,FKL
13450712000000.0,0.773833692073822,-1.1936160326004028,9.423158645629883,-3.015979051589966,-0.200968399643898,-0.022296581,-0.18600847,74.28739,-124.64308,-32.705807,FKL
13450831000000.0,0.7789572477340698,-1.1697108745574951,9.385951042175293,-3.021427631378174,-0.20441953837871552,-0.01038471,-0.17592919,73.96472,-124.61232,-32.61935,FKL
13450943000000.0,0.784072995185852,-1.1462682485580444,9.348000526428223,-3.026991605758667,-0.20822390913963318,-0.004581489,-0.17287487,73.6424,-124.5839,-32.535145,FKL
13451050000000.0,0.7892484664916992,-1.1230584383010864,9.3086576461792,-3.0327672958374023,-0.21247662603855133,-0.0027488936,-0.16676621,73.317665,-124.5523,-32.44748,FKL
13451152000000.0,0.7943494915962219,-1.1004694700241089,9.269342422485352,-3.038543224334717,-0.2167794108390808,-0.0030543262,-0.16340645,72.991,-124.52156000000001,-32.360195000000004,FKL
13451248000000.0,0.7994457483291626,-1.0782675743103027,9.229378700256348,-3.044419765472412,-0.2208203375339508,-0.004276057,-0.16126843,72.66365,-124.49016999999999,-32.272240000000004,FKL
13451340000000.0,0.8045344948768616,-1.0564411878585815,9.188831329345703,-3.050386905670166,-0.22487379610538483,0.010690141499999998,-0.15974127,72.33053000000001,-124.45833600000002,-32.183223999999996,FKL
13451427000000.0,0.8096186518669128,-1.0349624156951904,9.147705078125,-3.056443929672241,-0.22926466166973114,0.01160644,-0.16310102,72.001465,-124.42793999999999,-32.096703000000005,FKL
13451508000000.0,0.8146999478340149,-1.013808250427246,9.1060152053833,-3.0625882148742676,-0.23342153429985046,0.01282817,-0.16371189,71.66696,-124.39821,-32.008720000000004,FKL
13451586000000.0,0.8197739124298096,-0.9929757118225098,9.063840866088867,-3.06880784034729,-0.2369173765182495,0.014966198,-0.15821409,71.3313,-124.36874399999999,-31.920538,FKL
13451660000000.0,0.8248481154441833,-0.9724255204200745,9.021132469177246,-3.0751099586486816,-0.23955954611301422,0.016187929,-0.14996742,70.99491,-124.34031999999999,-31.832409000000002,FKL
13451731000000.0,0.8299212455749512,-0.9521466493606567,8.977932929992676,-3.0814881324768066,-0.24176791310310364,0.08521569999999999,-0.15851954,70.63395,-124.31618999999999,-31.743307,FKL
13451798000000.0,0.8349902629852295,-0.9321340918540955,8.93429946899414,-3.0879335403442383,-0.2437446564435959,0.08002335,-0.13836098,70.299126,-124.2843,-31.649548,FKL
13451862000000.0,0.8400536179542542,-0.912379264831543,8.890274047851562,-3.09443998336792,-0.24481846392154694,0.05955936,-0.118507855,69.94527,-124.25778999999999,-31.555157,FKL
13451923000000.0,0.8451146483421326,-0.8928589224815369,8.845846176147461,-3.101008892059326,-0.2454443871974945,0.036957346,-0.08552113,69.595825,-124.22305,-31.452717,FKL
13451980000000.0,0.8501741886138916,-0.8735584616661072,8.801030158996582,-3.107637882232666,-0.2458416223526001,0.028099801,-0.05955936,69.249,-124.18737,-31.347973,FKL
13452035000000.0,0.8552308678627014,-0.8544705510139465,8.755861282348633,-3.11432147026062,-0.2460874617099762,0.013133603,-0.032986722999999996,68.9137,-124.14486000000001,-31.236925,FKL
13452087000000.0,0.8602815270423889,-0.8355939984321594,8.710391998291016,-3.121051788330078,-0.24702012538909912,0.016493361,-0.0070249503,68.57688,-124.09586999999999,-31.119290000000003,FKL
13452136000000.0,0.8653339147567749,-0.8168948888778687,8.664562225341797,-3.127837896347046,-0.24728454649448395,0.02107485,0.012217305,68.24566999999999,-124.04632600000001,-30.998426000000002,FKL
13452184000000.0,0.8703789710998535,-0.7983911037445068,8.618483543395996,-3.1346628665924072,-0.2472907155752182,0.04550946,0.04276056599999999,67.90961999999999,-123.98653999999999,-30.866957,FKL
13452229000000.0,0.875421404838562,-0.7800590991973877,8.572124481201172,-3.141531229019165,-0.24667802453041077,0.07941248,0.070249505,67.56999,-123.92653,-30.731440999999997,FKL
13452272000000.0,0.8804639577865601,-0.7618818283081055,8.525474548339844,-3.148444652557373,-0.2451050728559494,0.111177474,0.11789699,67.22723,-123.85663000000001,-30.581878999999997,FKL
13452313000000.0,0.8855025768280029,-0.7438632845878601,8.478589057922363,-3.1553947925567627,-0.243648499250412,0.12797627,0.15515977,66.87955500000001,-123.78355400000001,-30.427925,FKL
13452351000000.0,0.8905386328697205,-0.725991427898407,8.431469917297363,-3.162381172180176,-0.24111385643482208,0.1160644,0.19058995,66.53472,-123.70576499999999,-30.263115000000003,FKL
13452388000000.0,0.895574688911438,-0.7082511186599731,8.384103775024414,-3.169405698776245,-0.23851896822452545,0.10598512,0.22907446,66.18731,-123.61790500000001,-30.087984000000002,FKL
13452424000000.0,0.9006519913673401,-0.6905092000961304,8.336080551147461,-3.1765294075012207,-0.23572054505348206,0.109650314,0.27091873,65.84265,-123.525696,-29.90441,FKL
13452457000000.0,0.9056826233863831,-0.6730279922485352,8.288315773010254,-3.1836159229278564,-0.23300613462924957,0.10140363,0.31703907,65.50874,-123.42518999999999,-29.713372999999997,FKL
13452490000000.0,0.9107091426849365,-0.6547884345054626,8.241439819335938,-3.190950632095337,-0.23019222915172577,0.1020145,0.36163223,65.174446,-123.318665,-29.513067,FKL
13452520000000.0,0.9157363176345825,-0.6347591876983643,8.196624755859375,-3.198793649673462,-0.22650280594825745,0.08399397,0.40194935,64.85239399999999,-123.2068,-29.306490000000004,FKL
13452550000000.0,0.9207579493522644,-0.613098680973053,8.15377140045166,-3.207097291946411,-0.22133344411849976,0.07513642,0.43157628,64.49943,-123.16998000000001,-29.115068,FKL
13452578000000.0,0.9257805347442627,-0.589829683303833,8.112765312194824,-3.215857982635498,-0.21490949392318726,0.06963864,0.44868052,64.154686,-123.13176000000001,-28.919264000000002,FKL
13452605000000.0,0.93080073595047,-0.5650719404220581,8.07351303100586,-3.2250401973724365,-0.20807914435863495,0.06291912,0.47372600000000004,63.817730000000005,-123.08983,-28.716213,FKL
13452631000000.0,0.9358211159706116,-0.5388795733451843,8.035917282104492,-3.2346298694610596,-0.20016410946846008,0.019547688,0.4877759,63.495569999999994,-123.05565,-28.5174,FKL
13452657000000.0,0.9408401250839233,-0.5113454461097717,7.999891757965088,-3.2445998191833496,-0.19078272581100464,-0.05100725,0.49510628,63.186687,-123.023674,-28.319056,FKL
13452680000000.0,0.9458609223365784,-0.48250874876976013,7.965348243713379,-3.2549402713775635,-0.18094094097614288,-0.14049901,0.49541172,62.89866,-122.99493400000001,-28.126894,FKL
13452703000000.0,0.9508813619613647,-0.45246028900146484,7.932210922241211,-3.265624523162842,-0.17092372477054596,-0.23426682,0.45906523,62.631434999999996,-122.981155,-27.952016999999998,FKL
13452725000000.0,0.9558975696563721,-0.4213046431541443,7.900411128997803,-3.276621103286743,-0.16078925132751465,-0.28924468,0.40164390000000005,62.37815500000001,-122.97806000000001,-27.789959999999997,FKL
13452746000000.0,0.9609124660491943,-0.38907286524772644,7.869873523712158,-3.2879226207733154,-0.1508367657661438,-0.31306845,0.33964106,62.14001999999999,-122.98873999999999,-27.647021999999996,FKL
13452766000000.0,0.9659293293952942,-0.3557899594306946,7.8405256271362305,-3.29952335357666,-0.1402752697467804,-0.29901853,0.2556471,61.898711999999996,-123.02484,-27.529040999999996,FKL
13452784000000.0,0.9709827899932861,-0.3211539685726166,7.812247276306152,-3.311523914337158,-0.12796524167060852,-0.26297748,0.16126843,61.649876,-123.08441,-27.432178000000004,FKL
13452802000000.0,0.9759930968284607,-0.2860373556613922,7.7851080894470215,-3.3236424922943115,-0.1128116175532341,-0.1826487,0.062002823,61.373090000000005,-123.17308999999999,-27.354494,FKL
13452820000000.0,0.9810054302215576,-0.2500250041484833,7.75897741317749,-3.3360161781311035,-0.09397302567958832,-0.07391469,-0.01160644,61.06838199999999,-123.2882,-27.289019,FKL
13452837000000.0,0.9860149621963501,-0.21321289241313934,7.733809471130371,-3.3486156463623047,-0.07052270323038101,0.02107485,-0.070554934,60.733109999999996,-123.436806,-27.238867,FKL
13452854000000.0,0.9910982847213745,-0.17485754191875458,7.709428310394287,-3.361684799194336,-0.042380884289741516,0.090713486,-0.10262536,60.366209999999995,-123.610054,-27.191390000000002,FKL
13452869000000.0,0.9961056709289551,-0.13654100894927979,7.686029434204102,-3.3747103214263916,-0.010058025829494,0.12858713,-0.09407325,59.976986,-123.80251000000001,-27.140203000000003,FKL
13452884000000.0,1.0011141300201416,-0.09751023352146149,7.6634416580200195,-3.387938976287842,0.026044001802802086,0.15913039999999998,-0.05161811400000001,59.568233,-124.01066599999999,-27.079465999999996,FKL
13452899000000.0,1.0061204433441162,-0.05783671885728836,7.641627311706543,-3.4013493061065674,0.06422627717256546,0.183565,0.004276057,59.151802,-124.22506000000001,-27.006709999999998,FKL
13452912000000.0,1.0111229419708252,-0.017572250217199326,7.620547294616699,-3.4149255752563477,0.10283159464597702,0.21166481,0.07422013,58.731559999999995,-124.4373,-26.912603000000004,FKL
13452926000000.0,1.0161309242248535,0.02334541082382202,7.6001482009887695,-3.42868971824646,0.1411374807357788,0.27000242,0.1518,58.302882999999994,-124.64432,-26.793304,FKL
13452940000000.0,1.0211321115493774,0.0647575706243515,7.580413341522217,-3.4425911903381348,0.17842741310596466,0.31337386,0.26511553,57.8841,-124.83215,-26.6427,FKL
13452952000000.0,1.0261344909667969,0.10671626031398773,7.5612945556640625,-3.456648349761963,0.21254181861877441,0.42577308,0.3286455,57.43245699999999,-125.01185,-26.46895,FKL
13452965000000.0,1.0311386585235596,0.1491994857788086,7.542757987976074,-3.470855236053467,0.2448381781578064,0.5702427,0.42516220000000005,56.97928,-125.166756,-26.247248,FKL
13452976000000.0,1.036141037940979,0.19214420020580292,7.524778366088867,-3.48519229888916,0.27396467328071594,0.75747293,0.5122104999999999,56.490356000000006,-125.30183400000001,-25.992842,FKL
13452988000000.0,1.0411524772644043,0.235634908080101,7.5073089599609375,-3.499688148498535,0.2988206446170807,0.90224797,0.589485,55.98631700000001,-125.41519,-25.703924,FKL
13452999000000.0,1.0461560487747192,0.27947476506233215,7.490348815917969,-3.514279842376709,0.3175826966762543,1.0531317,0.66737026,55.441883,-125.49963000000001,-25.369715,FKL
13453010000000.0,1.0511623620986938,0.32374876737594604,7.473854064941406,-3.528995990753174,0.328736275434494,1.2363913,0.70432764,54.855717000000006,-125.56265,-25.005568,FKL
13453020000000.0,1.0561649799346924,0.3683701753616333,7.457810401916504,-3.543809175491333,0.3309614360332489,1.4043792,0.6795876000000001,54.23741,-125.60136399999999,-24.62217,FKL
13453031000000.0,1.0611650943756104,0.4133303761482239,7.442192077636719,-3.5587174892425537,0.3229597806930542,1.5305228000000002,0.60139686,53.580890000000004,-125.61516999999999,-24.22749,FKL
13453041000000.0,1.066171646118164,0.4587011933326721,7.426962375640869,-3.573745012283325,0.3066924512386322,1.5891659,0.51068336,52.89475600000001,-125.613235,-23.832076999999998,FKL
13453051000000.0,1.0711725950241089,0.5043412446975708,7.412119388580322,-3.5888466835021973,0.28471601009368896,1.5509868999999998,0.43035457,52.19406,-125.59703,-23.452934,FKL
13453060000000.0,1.0761728286743164,0.5502833127975464,7.397634983062744,-3.6040337085723877,0.2606552839279175,1.4569136,0.36987892,51.48515,-125.57661,-23.094072,FKL
13453070000000.0,1.0811747312545776,0.5965349078178406,7.383486270904541,-3.619309186935425,0.23704665899276733,1.3475688,0.33169982,50.784794,-125.553665,-22.759417000000003,FKL
13453079000000.0,1.0861750841140747,0.6430471539497375,7.369660377502441,-3.634658098220825,0.21544496715068817,1.1997393,0.31642818,50.117077,-125.53355,-22.454166,FKL
13453087000000.0,1.0911754369735718,0.6898220777511597,7.356138229370117,-3.6500816345214844,0.19782674312591553,0.9737191999999999,0.34636059999999996,49.50298,-125.51931,-22.174457999999998,FKL
13453096000000.0,1.096177577972412,0.7368643283843994,7.342899799346924,-3.665581703186035,0.18565627932548523,0.7162395,0.38728857,48.93801,-125.51773,-21.922037,FKL
13453104000000.0,1.1011782884597778,0.7841267585754395,7.3299360275268555,-3.6811437606811523,0.17901761829853058,0.3735441,0.40591997,48.459070000000004,-125.52956,-21.712193,FKL
13453113000000.0,1.1061822175979614,0.8316447734832764,7.317224025726318,-3.696779727935791,0.1772090196609497,-0.044898596,0.38759398,48.070854,-125.55878,-21.549181,FKL
13453121000000.0,1.1111822128295898,0.8772822618484497,7.317878723144531,-3.7016193866729736,0.17818255722522736,-0.46486846,0.3640757,47.777120000000004,-125.59898000000001,-21.432117,FKL
13453129000000.0,1.1161823272705078,0.9183917045593262,7.349006175994873,-3.681515693664551,0.18362931907176971,-0.79076505,0.33536503,47.566494,-125.66968999999999,-21.367058,FKL
13453137000000.0,1.1211793422698975,0.951511561870575,7.4018354415893555,-3.6406822204589844,0.1935550719499588,-0.895223,0.3005457,47.263325,-125.827225,-21.187082,FKL
13453144000000.0,1.126177191734314,0.9638243913650513,7.451584815979004,-3.5890657901763916,0.20409126579761505,-0.9810496,0.27763826,47.037045,-125.99098000000001,-21.056343,FKL
13453151000000.0,1.1311761140823364,0.9541442394256592,7.4938859939575195,-3.531700611114502,0.21414734423160553,-1.0054842,0.21899518,47.086665999999994,-126.03759,-20.915213,FKL
13453159000000.0,1.1361749172210693,0.9182097911834717,7.518157482147217,-3.479782819747925,0.2237977236509323,-0.9798279000000001,0.1432479,47.137794,-126.09741000000001,-20.79353,FKL
13453166000000.0,1.1411741971969604,0.8584244251251221,7.52566385269165,-3.4369492530822754,0.23405694961547852,-0.89766645,0.06597344599999999,47.388958,-126.18555,-20.759079,FKL
13453173000000.0,1.1461739540100098,0.7816934585571289,7.51909065246582,-3.4234986305236816,0.2468295693397522,-0.76174897,0.003970624,47.608585,-126.29126000000001,-20.7307,FKL
13453181000000.0,1.1511770486831665,0.6922639012336731,7.500036239624023,-3.439685821533203,0.2641465365886688,-0.5467244000000001,-0.055588737,47.955890000000004,-126.52914399999999,-20.8183,FKL
13453188000000.0,1.1561813354492188,0.6060031056404114,7.4734787940979,-3.490149736404419,0.2869538962841034,-0.2742785,-0.10751228,48.24136,-126.78804,-20.890585,FKL
13453194000000.0,1.1611818075180054,0.5263005495071411,7.440860748291016,-3.569483995437622,0.3144707679748535,0.02321288,-0.15821409,48.50888,-127.22142,-21.001188,FKL
13453201000000.0,1.1661828756332397,0.46300816535949707,7.404932022094727,-3.668226957321167,0.3447370231151581,0.31795537,-0.22266038,48.688396000000004,-127.67503,-21.084599,FKL
13453207000000.0,1.1711958646774292,0.4161473512649536,7.366016387939453,-3.7848169803619385,0.37549006938934326,0.5864305999999999,-0.27580565,48.797607,-128.30456999999998,-21.130459,FKL
13453213000000.0,1.1761927604675293,0.3881012201309204,7.3289570808410645,-3.8982393741607666,0.40479952096939087,0.81214535,-0.32223140000000006,48.818665,-128.93753,-21.14547,FKL
13453220000000.0,1.1811928749084473,0.37905463576316833,7.293639659881592,-4.008884906768799,0.429682195186615,0.9462303,-0.35277468,48.828590000000005,-129.7106,-21.097921,FKL
13453226000000.0,1.1861910820007324,0.3911663591861725,7.260352611541748,-4.090240955352783,0.4485020935535431,1.0277808000000002,-0.35827246,48.768433,-130.45845,-21.019772,FKL
13453232000000.0,1.1912659406661987,0.430454283952713,7.229141712188721,-4.129157543182373,0.4586849510669708,1.0332786,-0.35521814,48.67111,-131.16364,-20.930117000000003,FKL
13453238000000.0,1.1962605714797974,0.4685245752334595,7.205157279968262,-4.163283348083496,0.46070733666419983,0.9120218000000001,-0.3286455,48.55369,-131.78687,-20.728857,FKL
13453245000000.0,1.201258897781372,0.5033847093582153,7.191245079040527,-4.194803237915039,0.457185298204422,0.76083267,-0.33292156,48.426975,-132.37714,-20.53755,FKL
13453251000000.0,1.2062534093856812,0.5352379679679871,7.186628818511963,-4.223877429962158,0.4493095874786377,0.6084218000000001,-0.3371976,48.425095,-132.81967,-20.299965,FKL
13453257000000.0,1.2112469673156738,0.5642333626747131,7.190896034240723,-4.250628471374512,0.4386143982410431,0.46944994,-0.34147367,48.44749,-133.23686,-20.090435,FKL
13453264000000.0,1.2162494659423828,0.592982292175293,7.210115432739258,-4.27553129196167,0.42625918984413147,0.398895,-0.3359759,48.497265000000006,-133.63066,-19.894072,FKL
13453270000000.0,1.2212446928024292,0.6224209070205688,7.245097637176514,-4.2988600730896,0.4112092852592468,0.3930918,-0.32986724,48.556644,-133.99718000000001,-19.714191,FKL
13453276000000.0,1.2262842655181885,0.6503728032112122,7.2981743812561035,-4.317279815673828,0.3949430584907532,0.38637227,-0.32406402,48.69442,-134.32173,-19.549839000000002,FKL
13453281000000.0,1.2312818765640259,0.6762038469314575,7.362941265106201,-4.331140995025635,0.3760928809642792,0.41538838,-0.32375857,48.8195,-134.61578,-19.383276000000002,FKL
13453287000000.0,1.2362779378890991,0.694915235042572,7.440519332885742,-4.335615158081055,0.3542104959487915,0.43493605,-0.30757064,48.991240000000005,-134.84885,-19.199896,FKL
13453292000000.0,1.2412728071212769,0.7040460109710693,7.529829502105713,-4.3286662101745605,0.32992956042289734,0.44929138,-0.30726522,49.150535999999995,-135.06297,-19.020746,FKL
13453297000000.0,1.2462692260742188,0.7020614743232727,7.625082015991211,-4.308654308319092,0.3033290505409241,0.42241332,-0.30848694,49.39819,-135.21692,-18.851093,FKL
13453302000000.0,1.251267910003662,0.6886070966720581,7.723457336425781,-4.275238990783691,0.2756882607936859,0.3747658,-0.32192600000000005,49.6416,-135.35463000000001,-18.691792,FKL
13453308000000.0,1.256263256072998,0.6604873538017273,7.822363376617432,-4.224340438842773,0.2474207580089569,0.29565877,-0.31734450000000003,50.031143,-135.45175,-18.59656,FKL
13453313000000.0,1.2612587213516235,0.6149848103523254,7.919987201690674,-4.152486324310303,0.21820183098316193,0.16676621,-0.3051272,50.436962,-135.52855,-18.52649,FKL
13453318000000.0,1.26625657081604,0.5552998185157776,8.015593528747559,-4.072079181671143,0.18832634389400482,-0.02565634,-0.28344148,51.02732,-135.59492,-18.564028,FKL
13453323000000.0,1.2712531089782715,0.48382019996643066,8.10876178741455,-3.9904017448425293,0.15828505158424377,-0.25076020000000004,-0.25137106,51.65211,-135.63834,-18.629622,FKL
13453329000000.0,1.2762491703033447,0.4026487469673157,8.204339981079102,-3.91363525390625,0.1293889731168747,-0.43585235,-0.204029,52.55287,-135.72413999999998,-18.84918,FKL
13453334000000.0,1.2812469005584717,0.31356802582740784,8.306527137756348,-3.8470773696899414,0.10143058747053146,-0.59437186,-0.12980886,53.497692,-135.7738,-19.088526,FKL
13453339000000.0,1.2862436771392822,0.20742850005626678,8.417511940002441,-3.790093183517456,0.07434364408254623,-0.6969972,-0.009468411,54.691658,-135.8733,-19.404957,FKL
13453344000000.0,1.2912403345108032,0.07859177887439728,8.538640022277832,-3.7421677112579346,0.04824446886777878,-0.81061816,0.122478485,55.918797,-135.9301,-19.724009,FKL
13453350000000.0,1.296282172203064,-0.08524956554174423,8.6714506149292,-3.711113929748535,0.025033708661794662,-0.9288206,0.26542094,57.20624,-135.95006,-20.051067,FKL
13453355000000.0,1.3012794256210327,-0.27420520782470703,8.809955596923828,-3.6951255798339844,0.00496436282992363,-1.028697,0.40439278,58.523487,-135.92688,-20.357016,FKL
13453360000000.0,1.306274175643921,-0.4947582185268402,8.956781387329102,-3.6920957565307617,-0.010959011502563953,-1.0873401000000003,0.50946164,59.935635,-135.87698,-20.706152,FKL
13453365000000.0,1.3112690448760986,-0.7470916509628296,9.112171173095703,-3.69844651222229,-0.023608461022377014,-1.0873401000000003,0.6310238,61.370174,-135.78826999999998,-21.014461999999998,FKL
13453371000000.0,1.3162659406661987,-1.0301077365875244,9.268397331237793,-3.706024646759033,-0.033011965453624725,-1.0824533,0.74464476,62.851616,-135.70361,-21.373974,FKL
13453376000000.0,1.3212602138519287,-1.3416366577148438,9.41951847076416,-3.708740234375,-0.038919296115636826,-1.0742066000000001,0.7861836,64.31971,-135.606,-21.70327,FKL
13453381000000.0,1.3262556791305542,-1.6631304025650024,9.553298950195312,-3.702828884124756,-0.04322589933872223,-1.0684034,0.8445212,65.81936,-135.45972,-22.053171,FKL
13453386000000.0,1.3312536478042603,-1.9774609804153442,9.658731460571289,-3.6849617958068848,-0.04744948819279671,-1.0827586999999999,0.82650065,67.285736,-135.31572,-22.391472,FKL
13453392000000.0,1.3362510204315186,-2.2556681632995605,9.734647750854492,-3.663635492324829,-0.04995047301054001,-1.0616838,0.7669413,68.656654,-135.08626999999998,-22.738360999999998,FKL
13453397000000.0,1.3412472009658813,-2.4717745780944824,9.779894828796387,-3.6464316844940186,-0.05326225981116295,-0.9789116,0.7324274000000001,69.9829,-134.84996,-23.053829999999998,FKL
13453402000000.0,1.3462457656860352,-2.6205039024353027,9.801596641540527,-3.6303036212921143,-0.055876679718494415,-0.8127562,0.7287621999999999,71.18760999999999,-134.62243999999998,-23.355978,FKL
13453407000000.0,1.351249098777771,-2.695780038833618,9.807522773742676,-3.6119022369384766,-0.0579611137509346,-0.6197228,0.7296785,72.3289,-134.40216,-23.627716,FKL
13453413000000.0,1.3562504053115845,-2.707106828689575,9.803173065185547,-3.589665174484253,-0.058323003351688385,-0.44318274,0.7174611999999999,73.40126,-134.2952,-23.822824,FKL
13453418000000.0,1.3612465858459473,-2.6626224517822266,9.793534278869629,-3.5620884895324707,-0.05713553726673126,-0.27091873,0.6918049,74.40519,-134.18808,-23.976603,FKL
13453423000000.0,1.3662773370742798,-2.56331205368042,9.779496192932129,-3.5203404426574707,-0.056467119604349136,-0.12370021,0.63316184,75.38877,-134.12242,-24.026554,FKL
13453428000000.0,1.3712724447250366,-2.4292991161346436,9.763364791870117,-3.4633331298828125,-0.05629009008407593,-0.026267206,0.5549710999999999,76.31597,-134.06134,-24.061120000000003,FKL
13453434000000.0,1.3762670755386353,-2.2635457515716553,9.743855476379395,-3.3846476078033447,-0.05958956852555275,0.038789943,0.46211955,77.10642,-133.90466,-23.971307999999997,FKL
13453439000000.0,1.3812644481658936,-2.0760691165924072,9.719829559326172,-3.2790937423706055,-0.06606634706258774,0.05467244,0.36468655,77.86083,-133.75703000000001,-23.893513000000002,FKL
13453444000000.0,1.386256456375122,-1.8724826574325562,9.68914794921875,-3.154585599899292,-0.07693466544151306,0.025961772999999997,0.25442538,78.63421,-133.54731999999998,-23.772879999999997,FKL
13453449000000.0,1.3913270235061646,-1.6523709297180176,9.644503593444824,-3.015385866165161,-0.09153728187084198,-0.016187929,0.15027285,79.382065,-133.33755,-23.674726,FKL
13453454000000.0,1.3963173627853394,-1.4264458417892456,9.589749336242676,-2.8815219402313232,-0.10995189845561981,-0.020463986,0.0580322,80.212234,-133.0783,-23.584792999999998,FKL
13453460000000.0,1.4013144969940186,-1.183060646057129,9.513154029846191,-2.768751859664917,-0.13357053697109222,0.028405233999999998,0.029321532999999997,81.02253,-132.79616000000001,-23.50165,FKL
13453465000000.0,1.406306505203247,-0.9166157841682434,9.467409133911133,-2.6472954750061035,-0.15811163187026978,0.27855456,0.03940081,81.76899999999999,-132.47588000000002,-23.362303,FKL
13453470000000.0,1.411299228668213,-0.612687349319458,9.547942161560059,-2.463650703430176,-0.18422596156597137,0.75686204,0.036651913,82.431274,-132.13098,-23.184746,FKL
13453475000000.0,1.4162919521331787,-0.2845933437347412,9.73820686340332,-2.300147294998169,-0.21306675672531128,0.9773844,0.37873647,83.07378,-131.77115,-22.894457,FKL
13453481000000.0,1.4212843179702759,0.03963865712285042,10.00965690612793,-2.3441529273986816,-0.24017521739006042,1.4315627,0.62949663,83.513695,-131.4353,-22.51107,FKL
13453486000000.0,1.4262770414352417,0.2647988200187683,10.345595359802246,-2.4599812030792236,-0.2620626389980316,1.2421944999999999,0.93951076,84.39028,-130.48212,-21.868814,FKL
13453491000000.0,1.4312723875045776,0.13969381153583527,10.709596633911133,-2.3093345165252686,-0.274547278881073,-1.5961908999999999,0.46883908,85.69136999999999,-129.66212,-21.711363000000002,FKL
13453496000000.0,1.4362856149673462,-0.2826453149318695,11.095454216003418,-1.9798154830932617,-0.2666384279727936,-5.3633966,-0.07849618,86.999275,-129.18616,-21.586117,FKL
13453502000000.0,1.4412800073623657,-0.8393374085426331,11.481945991516113,-1.683402180671692,-0.21696019172668457,-5.0775120000000005,0.28099802,88.05945,-128.78361999999998,-21.174229999999998,FKL
13453507000000.0,1.4462766647338867,-1.5157556533813477,11.751544952392578,-1.38211190700531,-0.1407604217529297,-1.9394971,0.43310347,89.849594,-128.10663,-21.618128,FKL
13453512000000.0,1.4512723684310913,-2.2403502464294434,11.537344932556152,-0.9587804675102234,-0.11641184985637665,-0.3268129,-0.098043874,91.83661,-127.38933999999999,-22.297852,FKL
13453517000000.0,1.4562653303146362,-2.9833834171295166,10.984321594238281,-0.48874998092651367,-0.13091272115707397,-0.8020661,-1.318858,93.34814,-127.16561999999999,-23.189487,FKL
13453523000000.0,1.4612586498260498,-3.6486666202545166,10.524693489074707,-0.21835725009441376,-0.1427851915359497,-0.43890667,-2.284636,94.06838,-127.02478,-23.78182,FKL
13453528000000.0,1.4662539958953857,-4.216344356536865,10.156249046325684,-0.13625220954418182,-0.17479483783245087,0.73639804,-2.5729644,94.091385,-127.34511,-24.968298,FKL
13453533000000.0,1.4712482690811157,-4.599154949188232,9.882745742797852,-0.22364459931850433,-0.2546631395816803,1.8881843999999997,-2.617252,93.90956,-127.75862,-26.289403999999998,FKL
13453538000000.0,1.476242184638977,-4.792789459228516,9.688652038574219,-0.4607638120651245,-0.38412049412727356,2.7537806000000002,-2.6013696,93.23250999999999,-128.2966,-27.390963,FKL
13453544000000.0,1.4812382459640503,-4.735759735107422,9.516239166259766,-0.7845083475112915,-0.5439050197601318,3.1474830000000003,-2.5274549,92.35721600000001,-128.74783,-28.396618,FKL
13453549000000.0,1.4862335920333862,-4.445838451385498,9.363612174987793,-1.1704431772232056,-0.7154557704925537,3.062573,-2.3906212000000004,91.20124,-129.08025,-28.943665000000003,FKL
13453554000000.0,1.491228461265564,-3.9485957622528076,9.225522994995117,-1.4889230728149414,-0.8884443640708923,2.6832256,-2.1633792,90.03650999999999,-129.29651,-29.429934000000003,FKL
13453559000000.0,1.4962254762649536,-3.2529356479644775,9.101258277893066,-1.7430915832519531,-1.0614268779754639,1.8863518,-1.9404134999999998,88.879295,-129.25023000000002,-29.460072999999998,FKL
13453565000000.0,1.501224160194397,-2.461745023727417,8.983068466186523,-1.911064863204956,-1.2196238040924072,0.78038037,-1.9724839,87.92281,-129.23358000000002,-29.58775,FKL
13453570000000.0,1.5062229633331299,-1.5900486707687378,8.869930267333984,-1.995287299156189,-1.3557332754135132,-0.28893927,-2.1536055,87.20396,-129.2093,-29.797136,FKL
13453575000000.0,1.5112181901931763,-0.7443277835845947,8.717824935913086,-2.0469555854797363,-1.4741065502166748,-1.3866642,-2.2473732999999996,87.11835,-128.92523,-29.719279999999998,FKL
13453580000000.0,1.5162211656570435,0.05577000975608826,8.517072677612305,-2.0802361965179443,-1.575998067855835,-2.4077252999999996,-2.1881194,87.32298,-128.70567,-29.7856,FKL
13453586000000.0,1.5212172269821167,0.7470781207084656,8.241241455078125,-2.170624256134033,-1.660121202468872,-2.8005116,-2.1697933999999997,87.76164,-128.05161999999999,-29.698303000000003,FKL
13453591000000.0,1.5262266397476196,1.327372431755066,7.888525485992432,-2.321563482284546,-1.7320619821548462,-3.2724051,-2.2119431,88.51572,-127.43111,-29.777379999999997,FKL
13453596000000.0,1.531224012374878,1.7521511316299438,7.486563205718994,-2.562066078186035,-1.783696174621582,-3.4150422,-2.3545802000000005,89.30031,-126.906784,-29.870516,FKL
13453601000000.0,1.5362187623977661,2.025430202484131,7.035645961761475,-2.8907055854797363,-1.8162199258804321,-3.2091806,-2.5949554,89.839066,-126.80696,-30.224724,FKL
13453607000000.0,1.5412144660949707,2.125448703765869,6.541482925415039,-3.126178026199341,-1.8327351808547974,-2.6145031000000003,-2.8487701000000003,90.29802,-126.79082,-30.58223,FKL
13453612000000.0,1.5462104082107544,2.0591602325439453,6.00693941116333,-3.2566094398498535,-1.8443171977996826,-1.9474383999999998,-3.0720412999999995,90.65606,-126.84626999999999,-30.95655,FKL
13453617000000.0,1.5512639284133911,1.9555160999298096,5.494729042053223,-3.2801899909973145,-1.8638601303100586,-1.5665639999999998,-3.3478470000000002,90.487236,-127.54443,-31.728462,FKL
13453622000000.0,1.5562587976455688,1.840293526649475,5.010412693023682,-3.2382822036743164,-1.9022362232208252,-1.4813483,-3.6807684999999997,90.14554,-128.29256999999998,-32.527879999999996,FKL
13453627000000.0,1.5612519979476929,1.7578848600387573,4.60764741897583,-3.1728227138519287,-1.966417670249939,-1.4749341,-3.9510765,89.71311,-129.25172,-33.753723,FKL
13453633000000.0,1.5662474632263184,1.7141715288162231,4.291170120239258,-3.0929431915283203,-2.0555338859558105,-1.4428637,-4.1218133,89.190605,-130.24295,-35.028423,FKL
13453638000000.0,1.5712419748306274,1.731493353843689,4.092453956604004,-3.034766435623169,-2.1652445793151855,-1.3814718000000001,-4.160298,88.83648000000001,-131.13857,-36.394505,FKL
13453643000000.0,1.576235294342041,1.8114732503890991,4.012441635131836,-3.0041444301605225,-2.2873880863189697,-1.4214833999999998,-4.0833287,88.49605600000001,-132.04748999999998,-37.788746,FKL
13453648000000.0,1.5812318325042725,1.9574369192123413,4.048857688903809,-3.057900905609131,-2.4107701778411865,-1.6432275,-3.8841867,88.38666500000001,-132.72766000000001,-38.998005,FKL
13453654000000.0,1.586226224899292,2.1655080318450928,4.193798542022705,-3.1997199058532715,-2.5218636989593506,-2.0121900000000004,-3.5491269999999995,88.387726,-133.38521,-40.163414,FKL
13453659000000.0,1.5913050174713135,2.4258904457092285,4.397192478179932,-3.4393022060394287,-2.6076178550720215,-2.2201897999999995,-3.1590896,88.49387,-133.85442,-40.85946,FKL
13453664000000.0,1.5962978601455688,2.7035677433013916,4.618497371673584,-3.7204394340515137,-2.6604955196380615,-2.1239784,-2.8173106,88.65929399999999,-134.26453999999998,-41.462902,FKL
13453669000000.0,1.6012954711914062,2.9800972938537598,4.830165863037109,-4.0121870040893555,-2.6789934635162354,-1.7898352,-2.5952610000000003,88.76288000000001,-134.36206,-41.678191999999996,FKL
13453675000000.0,1.6062930822372437,3.225393056869507,4.995361328125,-4.263091564178467,-2.6722359657287598,-1.3671165,-2.5182919999999998,88.82226999999999,-134.44806,-41.83102,FKL
13453680000000.0,1.611284613609314,3.4047317504882812,5.112310409545898,-4.432034492492676,-2.650944948196411,-1.1994339,-2.5152376,88.625916,-134.50616000000002,-41.811584,FKL
13453685000000.0,1.6162790060043335,3.5001590251922607,5.179573059082031,-4.497582912445068,-2.6234962940216064,-0.9960158000000001,-2.488054,88.27299000000001,-134.58100000000002,-41.752907,FKL
13453690000000.0,1.6213047504425049,3.5138049125671387,5.204314231872559,-4.468231201171875,-2.5953943729400635,-0.9587530000000001,-2.4718661,87.916985,-134.79459,-41.840714,FKL
13453695000000.0,1.6262961626052856,3.469835042953491,5.202610969543457,-4.376443862915039,-2.5684807300567627,-0.97158116,-2.485,87.49995,-135.02338,-41.927814,FKL
13453700000000.0,1.6312899589538574,3.3876094818115234,5.19467306137085,-4.2524847984313965,-2.5468266010284424,-0.93401295,-2.5137104999999997,87.29500999999999,-135.33882,-42.25898,FKL
13453705000000.0,1.6362825632095337,3.284240961074829,5.194141387939453,-4.119961261749268,-2.5350186824798584,-0.8509353000000001,-2.535396,87.072784,-135.64087,-42.58085,FKL
13453709000000.0,1.6412750482559204,3.165473699569702,5.205315589904785,-3.9907915592193604,-2.5341110229492188,-0.72234815,-2.5497514999999997,87.03520999999999,-135.94853,-43.050888,FKL
13453715000000.0,1.6462697982788086,3.0363855361938477,5.2320404052734375,-3.8755695819854736,-2.5426926612854004,-0.58032197,-2.5772405,86.958855,-136.25052,-43.509724,FKL
13453720000000.0,1.6512632369995117,2.900033950805664,5.278618335723877,-3.7719318866729736,-2.5569207668304443,-0.45448375,-2.6193902000000002,86.922195,-136.54465,-44.004738,FKL
13453725000000.0,1.6562565565109253,2.7592055797576904,5.3497748374938965,-3.6776466369628906,-2.573906660079956,-0.37995818,-2.6484063,86.85287,-136.83463,-44.484745000000004,FKL
13453730000000.0,1.6612505912780762,2.612844944000244,5.445990085601807,-3.58258056640625,-2.5913219451904297,-0.364992,-2.6563475,86.76021,-137.13201999999998,-44.973923,FKL
13453734000000.0,1.666245698928833,2.459883451461792,5.5677995681762695,-3.4765000343322754,-2.6079068183898926,-0.41783184,-2.6471846,86.665596,-137.43295,-45.455086,FKL
13453740000000.0,1.6712409257888794,2.289961338043213,5.710451126098633,-3.3482666015625,-2.6225662231445312,-0.5681046999999999,-2.62275,86.63859599999999,-137.71289,-45.92187,FKL
13453745000000.0,1.676236629486084,2.08443021774292,5.866896629333496,-3.1776556968688965,-2.636753559112549,-0.7654141999999999,-2.5696046000000003,86.65765,-137.98476000000002,-46.374626,FKL
13453750000000.0,1.6812337636947632,1.8400245904922485,6.016677379608154,-2.959340810775757,-2.6520893573760986,-1.0015136,-2.5537221000000003,86.892685,-138.21057,-46.81292,FKL
13453754000000.0,1.6862348318099976,1.552163004875183,6.135626792907715,-2.686167001724243,-2.6709537506103516,-1.2626585,-2.5778513,87.22516,-138.43903,-47.250187,FKL
13453760000000.0,1.6912708282470703,1.2259297370910645,6.219393253326416,-2.360991954803467,-2.695258855819702,-1.4770721000000002,-2.6352727000000002,87.85523,-138.7,-47.7549,FKL
13453765000000.0,1.6962660551071167,0.883196234703064,6.274519443511963,-2.008361339569092,-2.726635217666626,-1.6581936999999998,-2.6887232999999995,88.58961500000001,-138.97762,-48.259014,FKL
13453770000000.0,1.7012572288513184,0.5173933506011963,6.2963666915893555,-1.621192216873169,-2.76413631439209,-1.7837266,-2.694832,89.526726,-139.49045,-48.98581,FKL
13453774000000.0,1.7062468528747559,0.12118646502494812,6.277581691741943,-1.1946089267730713,-2.8050754070281982,-1.9031506999999999,-2.703995,90.55960999999999,-140.0201,-49.695736,FKL
13453780000000.0,1.7112361192703247,-0.30022773146629333,6.2202467918396,-0.7346639633178711,-2.846144199371338,-1.9587394,-2.7070494,92.012535,-140.56055,-50.417065,FKL
13453785000000.0,1.7162282466888428,-0.7406361699104309,6.1260223388671875,-0.24848279356956482,-2.884112596511841,-2.0793852999999998,-2.7137689999999997,93.57824000000001,-141.13573,-51.101172999999996,FKL
13453790000000.0,1.7212187051773071,-1.196143627166748,5.9929423332214355,0.25713303685188293,-2.918348550796509,-2.2055290000000003,-2.7397306,95.4597,-38.1565,-51.842216,FKL
13453794000000.0,1.726210117340088,-1.6624693870544434,5.814558029174805,0.7735774517059326,-2.9469997882843018,-2.298686,-2.7617217999999997,97.41994,-37.408287,-52.526790000000005,FKL
13453799000000.0,1.7312029600143433,-2.1295254230499268,5.5965962409973145,1.2966810464859009,-2.970526933670044,-2.3561072,-2.8457158,99.67875,-36.46741,-53.28819300000001,FKL
13453805000000.0,1.7361958026885986,-2.5711557865142822,5.350658893585205,1.8159829378128052,-2.9870216846466064,-2.361605,-2.896723,102.001785,-35.494587,-53.974709999999995,FKL
13453810000000.0,1.7411887645721436,-2.9913079738616943,5.092317581176758,2.322897434234619,-2.9952964782714844,-2.3570235,-2.889698,104.54621999999999,-34.313717,-54.740745999999994,FKL
13453815000000.0,1.746183156967163,-3.395733594894409,4.847077369689941,2.802574872970581,-2.9954309463500977,-2.4010057000000002,-2.8130345,107.16872,-33.11809,-55.41336,FKL
13453819000000.0,1.7511844635009766,-3.784332275390625,4.61795711517334,3.251904249191284,-2.984994411468506,-2.4013114,-2.6154196,109.92136399999998,-31.866255,-56.023613,FKL
13453825000000.0,1.756182074546814,-4.146096706390381,4.444198131561279,3.6235580444335938,-2.962303638458252,-2.2901337,-2.332589,112.6487,-30.657162,-56.50865600000001,FKL
13453830000000.0,1.7611801624298096,-4.486588478088379,4.32379674911499,3.9229955673217773,-2.9274747371673584,-2.13925,-1.9908098,115.3133,-29.503101,-56.875440000000005,FKL
13453835000000.0,1.7661807537078857,-4.818843841552734,4.255037784576416,4.159724712371826,-2.878875732421875,-1.9367483,-1.6355917,117.82706499999999,-28.448942,-57.11404399999999,FKL
13453839000000.0,1.7711783647537231,-5.140690326690674,4.228744983673096,4.347806930541992,-2.816556692123413,-1.6120733999999999,-1.2904528,119.85088,-27.591358000000003,-57.267559999999996,FKL
13453845000000.0,1.7761762142181396,-5.444921493530273,4.225160598754883,4.521233558654785,-2.7437069416046143,-1.2977833,-0.98349303,121.67551399999999,-26.846313000000002,-57.335,FKL
13453850000000.0,1.7811851501464844,-5.730752468109131,4.243859767913818,4.682962417602539,-2.6645498275756836,-1.1395692,-0.68325275,123.013145,-26.301153000000003,-57.384426,FKL
13453855000000.0,1.78618323802948,-5.978025436401367,4.280911922454834,4.863373756408691,-2.586176872253418,-1.1676688999999998,-0.35094208,124.16949,-25.869626999999998,-57.3576,FKL
13453860000000.0,1.7912627458572388,-6.191290855407715,4.3617634773254395,5.054561138153076,-2.517059087753296,-1.3472633,-0.014355333500000001,125.13383,-25.570553,-57.251987,FKL
13453866000000.0,1.7962727546691895,-6.391671657562256,4.483717918395996,5.231154918670654,-2.461667776107788,-1.5488488999999999,0.32803464,125.98823,-25.363594,-57.053738,FKL
13453870000000.0,1.8012738227844238,-6.579425811767578,4.657416343688965,5.392688751220703,-2.4251315593719482,-1.6893479,0.6762278,126.82236999999999,-25.271835,-56.659874,FKL
13453875000000.0,1.8062686920166016,-6.7807393074035645,4.8427886962890625,5.540964126586914,-2.4083824157714844,-1.7592918999999998,1.001819,127.57025,-25.233541,-56.178535,FKL
13453880000000.0,1.8112618923187256,-7.008327960968018,5.0202555656433105,5.677143573760986,-2.4070615768432617,-1.7996091,1.2388347,128.24036,-25.227428,-55.630573,FKL
13453884000000.0,1.8162572383880615,-7.270165920257568,5.161630153656006,5.8103742599487305,-2.411019802093506,-1.8270978999999998,1.3161091999999999,128.6773,-25.3688,-55.095802,FKL
13453890000000.0,1.821252465248108,-7.570149898529053,5.2494025230407715,5.946650505065918,-2.4208385944366455,-1.8255708,1.3756685,129.04001,-25.518253,-54.526516,FKL
13453895000000.0,1.8262463808059692,-7.878381252288818,5.2722368240356445,6.0926032066345215,-2.428701639175415,-1.8127426,1.3249667,129.4106,-25.581142,-54.097935,FKL
13453900000000.0,1.8312424421310425,-8.18456745147705,5.2274980545043945,6.250457286834717,-2.428788185119629,-1.6850718,1.1795808,129.74692,-25.628823999999998,-53.704246999999995,FKL
13453904000000.0,1.8362373113632202,-8.45712947845459,5.127416610717773,6.421237468719482,-2.418224811553955,-1.4737124,0.9663888,130.1612,-25.507315,-53.413230000000006,FKL
13453910000000.0,1.8412319421768188,-8.684070587158203,4.978131294250488,6.605162143707275,-2.394714117050171,-1.2620476,0.7150178,130.57678,-25.367788,-53.18601999999999,FKL
13453915000000.0,1.8462282419204712,-8.862985610961914,4.790283203125,6.805948257446289,-2.358051061630249,-0.9822713,0.48655418,131.07959,-25.068398000000002,-53.043822999999996,FKL
13453920000000.0,1.8512301445007324,-8.992276191711426,4.5718183517456055,7.026437282562256,-2.3115570545196533,-0.72601336,0.27183503,131.58095,-24.744947,-52.98517,FKL
13453925000000.0,1.856228232383728,-9.08128833770752,4.352050304412842,7.2338666915893555,-2.2607693672180176,-0.57971114,0.06750060599999999,132.23608000000002,-24.311357,-52.932033999999994,FKL
13453930000000.0,1.8612228631973267,-9.135061264038086,4.145401954650879,7.412178993225098,-2.2075610160827637,-0.410196,-0.083383106,132.84212,-23.871416,-52.964066,FKL
13453935000000.0,1.8662192821502686,-9.155450820922852,3.9532816410064697,7.551904201507568,-2.1558046340942383,-0.13439035,-0.17165314,133.53699,-23.364552,-52.982426000000004,FKL
13453940000000.0,1.8712154626846313,-9.145076751708984,3.7771174907684326,7.643887996673584,-2.108743667602539,0.14752395,-0.22143865,134.20726000000002,-22.840815,-53.05506,FKL
13453945000000.0,1.876211166381836,-9.109241485595703,3.6114959716796875,7.693901062011719,-2.0680158138275146,0.3866777,-0.24648413,134.79608000000002,-22.333612,-53.165085,FKL
13453949000000.0,1.881208896636963,-9.05141830444336,3.4529213905334473,7.705911159515381,-2.033381223678589,0.552833,-0.23579398,135.32453999999998,-21.824207,-53.318054000000004,FKL
13453955000000.0,1.8862054347991943,-8.96595287322998,3.293281078338623,7.687860488891602,-2.0032944679260254,0.63316184,-0.19028452,135.7359,-21.349691,-53.523052,FKL
13453960000000.0,1.8912018537521362,-8.849302291870117,3.1272354125976562,7.645060062408447,-1.97359037399292,0.66431594,-0.118507855,136.09991000000002,-20.891813,-53.741730000000004,FKL
13453965000000.0,1.8961998224258423,-8.698904037475586,2.9509236812591553,7.6006975173950195,-1.9432066679000854,0.6768387,0.011301007,136.35535,-20.475922,-53.984337,FKL
13453970000000.0,1.9012037515640259,-8.51325511932373,2.7618722915649414,7.569263935089111,-1.9105193614959717,0.61453044,0.19272798,136.57602,-20.105352,-54.190569999999994,FKL
13453975000000.0,1.9062023162841797,-8.298235893249512,2.5615956783294678,7.571569442749023,-1.8759604692459106,0.408058,0.376293,136.76854,-19.77609,-54.33189,FKL
13453980000000.0,1.9111982583999634,-8.056927680969238,2.3504581451416016,7.624167442321777,-1.8388159275054932,0.26969699999999996,0.46883908,136.9246,-19.485682,-54.456706999999994,FKL
13453985000000.0,1.9161968231201172,-7.797474384307861,2.1305651664733887,7.736289978027344,-1.80129075050354,-0.05497787,0.67256266,137.14445,-19.254883,-54.345062,FKL
13453989000000.0,1.9211938381195068,-7.5275654792785645,1.9043025970458984,7.913055896759033,-1.7617610692977905,-0.3903429,0.8927795000000001,137.36038,-19.066055,-54.180367000000004,FKL
13453994000000.0,1.9261906147003174,-7.252834796905518,1.665282964706421,8.148669242858887,-1.7227754592895508,-0.6649268,1.069625,137.73013,-18.88208,-53.773419999999994,FKL
13454000000000.0,1.9311892986297607,-6.9788126945495605,1.407008409500122,8.437775611877441,-1.6865674257278442,-0.9068295,1.2137892,138.09195,-18.741228,-53.266335,FKL
13454005000000.0,1.936187505722046,-6.728994369506836,1.1304283142089844,8.758566856384277,-1.6550724506378174,-1.0488556999999998,1.2996159,138.61276,-18.575443,-52.535731999999996,FKL
13454010000000.0,1.9411847591400146,-6.525077819824219,0.8362445831298828,9.091175079345703,-1.6290647983551025,-1.0421360999999998,1.3588698000000001,139.07587,-18.42086,-51.770523,FKL
13454014000000.0,1.9461841583251953,-6.3722357749938965,0.533621072769165,9.425853729248047,-1.607324242591858,-0.93492925,1.4309518,139.65257,-18.189825,-50.872105,FKL
13454020000000.0,1.9511888027191162,-6.278000354766846,0.23432162404060364,9.74997615814209,-1.5865306854248047,-0.79717916,1.4804319,140.15436,-17.952427,-49.98863,FKL
13454025000000.0,1.9561858177185059,-6.23604679107666,-0.052255552262067795,10.055880546569824,-1.563541054725647,-0.63591075,1.5222761999999999,140.67444,-17.607178,-49.18464,FKL
13454030000000.0,1.9611847400665283,-6.243654727935791,-0.310442715883255,10.330049514770508,-1.5355911254882812,-0.5213734999999999,1.5271631,141.11986000000002,-17.268263,-48.414993,FKL
13454034000000.0,1.9661823511123657,-6.295631408691406,-0.5409775972366333,10.561429023742676,-1.4992341995239258,-0.37384954,1.5213598999999998,141.51674,-16.885525,-47.806059999999995,FKL
13454040000000.0,1.9711828231811523,-6.3865814208984375,-0.743445634841919,10.72829818725586,-1.455259919166565,-0.21380283,1.461495,141.87025,-16.512722,-47.2483,FKL
13454045000000.0,1.9761792421340942,-6.508431434631348,-0.9192937016487122,10.833145141601562,-1.4022024869918823,0.040011674,1.3387111,142.14592,-16.168571,-46.888878000000005,FKL
13454050000000.0,1.9812164306640625,-6.6538166999816895,-1.066223382949829,10.864981651306152,-1.342189908027649,0.32284227,1.1979066999999999,142.39761000000001,-15.840565,-46.59665,FKL
13454054000000.0,1.9862124919891357,-6.804450988769531,-1.1900019645690918,10.845529556274414,-1.274420976638794,0.6392705,1.0219775,142.58755,-15.547814,-46.57804,FKL
13454060000000.0,1.991286039352417,-6.933956146240234,-1.2809804677963257,10.753207206726074,-1.2001391649246216,0.93859446,0.85062987,142.77985,-15.265085000000001,-46.644287,FKL
13454065000000.0,1.9962798357009888,-7.041892051696777,-1.351996660232544,10.62944221496582,-1.121726155281067,1.1633928999999998,0.6908886,142.91948,-15.023464,-46.9459,FKL
13454070000000.0,2.0012779235839844,-7.108795642852783,-1.3966680765151978,10.469792366027832,-1.0414693355560303,1.3683381000000001,0.55771995,143.07013,-14.785986999999999,-47.3285,FKL
13454075000000.0,2.0062756538391113,-7.1352667808532715,-1.4157989025115967,10.279158592224121,-0.9627713561058044,1.4694363000000001,0.4166101,143.18039,-14.598972,-47.825672,FKL
13454079000000.0,2.0112698078155518,-7.11266565322876,-1.4060423374176025,10.072118759155273,-0.8883650302886963,1.6190983,0.3484986,143.27411999999998,-14.413565,-48.384586,FKL
13454085000000.0,2.0162694454193115,-7.0423712730407715,-1.3684321641921997,9.85461139678955,-0.8191611170768738,1.7266107,0.22021692,143.33482,-14.283843,-48.969753000000004,FKL
13454090000000.0,2.0212631225585938,-6.930294990539551,-1.3071249723434448,9.647716522216797,-0.7571612000465393,1.7843374,0.10659598599999999,143.40013000000002,-14.1346655,-49.57544,FKL
13454095000000.0,2.026256561279297,-6.778280735015869,-1.2234721183776855,9.451382637023926,-0.7030068039894104,1.6780468000000002,-0.003970624,143.42983999999998,-14.054022,-50.131943,FKL
13454099000000.0,2.0312514305114746,-6.590805530548096,-1.121517300605774,9.267714500427246,-0.6546846628189087,1.4422529,-0.12767084,143.52107,-13.938426999999999,-50.670887,FKL
13454105000000.0,2.036247968673706,-6.370574474334717,-1.0031287670135498,9.096941947937012,-0.6106956601142883,1.1582005,-0.22968534,143.60294,-13.895017000000001,-51.092293,FKL
13454110000000.0,2.0412423610687256,-6.129542350769043,-0.8796612024307251,8.948285102844238,-0.57159024477005,0.7809911999999999,-0.31031954,143.78162,-13.816917000000002,-51.42603,FKL
13454115000000.0,2.046238660812378,-5.871793746948242,-0.7553495168685913,8.820097923278809,-0.5354478359222412,0.3381139,-0.3454443,143.9827,-13.817146,-51.58278,FKL
13454120000000.0,2.0512754917144775,-5.608687877655029,-0.6466479897499084,8.710254669189453,-0.5023709535598755,-0.12064589,-0.34025195,144.26976000000002,-13.799478,-51.631479999999996,FKL
13454125000000.0,2.0562691688537598,-5.348146915435791,-0.5523788332939148,8.614628791809082,-0.46983602643013,-0.5513059,-0.29565877,144.59703000000002,-13.826301,-51.45401,FKL
13454130000000.0,2.0612618923187256,-5.106484413146973,-0.48810067772865295,8.533337593078613,-0.4378955662250519,-0.91813046,-0.23090707,144.9859,-13.854594,-51.167792999999996,FKL
13454135000000.0,2.0662577152252197,-4.8843278884887695,-0.4529145061969757,8.465885162353516,-0.40783634781837463,-1.2382239,-0.16004670000000001,145.43388000000002,-13.874947,-50.684402,FKL
13454140000000.0,2.07125186920166,-4.696446418762207,-0.44827133417129517,8.41274642944336,-0.37996506690979004,-1.4932601,-0.09315695,145.90758,-13.910437,-50.116737,FKL
13454144000000.0,2.0762534141540527,-4.542207717895508,-0.4726472496986389,8.37294864654541,-0.35462087392807007,-1.6685784,-0.00580322,146.45378,-13.884110999999999,-49.459843,FKL
13454150000000.0,2.0812482833862305,-4.4239349365234375,-0.512729823589325,8.338404655456543,-0.33214113116264343,-1.7571539,0.06658431,146.9976,-13.864818,-48.755592,FKL
13454155000000.0,2.08624267578125,-4.340348720550537,-0.568072497844696,8.308906555175781,-0.31307312846183777,-1.7342464,0.12889257,147.5982,-13.758707999999999,-48.058914,FKL
13454160000000.0,2.091238260269165,-4.293179512023926,-0.6318156719207764,8.276666641235352,-0.2984069883823395,-1.6187928999999999,0.17654006,148.16101,-13.654831,-47.361176,FKL
13454164000000.0,2.0962345600128174,-4.281145095825195,-0.7021791338920593,8.24023723602295,-0.28658968210220337,-1.3967433999999999,0.1881465,148.68188,-13.552258499999999,-46.699936,FKL
13454170000000.0,2.1012320518493652,-4.2997050285339355,-0.7687166333198547,8.198042869567871,-0.2771763801574707,-1.0781771999999998,0.17867808,149.20639,-13.370273999999998,-46.169715999999994,FKL
13454175000000.0,2.1062264442443848,-4.346207141876221,-0.8297299742698669,8.15018367767334,-0.27031567692756653,-0.9111055,0.16157386,149.70796,-13.180829999999998,-45.661915,FKL
13454180000000.0,2.1112217903137207,-4.4143500328063965,-0.8777598738670349,8.10737419128418,-0.2644391357898712,-0.56291234,0.15332718,150.1497,-12.950817,-45.38195,FKL
13454184000000.0,2.1162173748016357,-4.501565933227539,-0.9115036725997925,8.072086334228516,-0.2599989175796509,-0.24037547,0.11789699,150.58302,-12.704277000000001,-45.14649,FKL
13454190000000.0,2.121224880218506,-4.586213111877441,-0.931648850440979,8.06052303314209,-0.25507912039756775,0.08307768,0.04184427,150.9739,-12.452008,-45.103970000000004,FKL
13454195000000.0,2.126220464706421,-4.661975383758545,-0.9400284290313721,8.074361801147461,-0.2510888874530792,0.3744604,-0.031154128,151.33772,-12.187781,-45.141926,FKL
13454200000000.0,2.1312170028686523,-4.727482795715332,-0.9374182820320129,8.113943099975586,-0.24696947634220123,0.5708536,-0.07971791,151.66765,-11.953267,-45.292526,FKL
13454205000000.0,2.1362154483795166,-4.782689571380615,-0.9246069192886353,8.178149223327637,-0.24287427961826324,0.66553766,-0.11301007,151.99431,-11.709384,-45.493893,FKL
13454209000000.0,2.1412136554718018,-4.832113265991211,-0.903963029384613,8.262717247009277,-0.23885083198547363,0.68477994,-0.13988814,152.3187,-11.49666,-45.66,FKL
13454215000000.0,2.1462104320526123,-4.877648830413818,-0.8766429424285889,8.365354537963867,-0.2336093932390213,0.6560693,-0.15027285,152.64119,-11.291321,-45.83375,FKL
13454220000000.0,2.151212453842163,-4.922123432159424,-0.8424708843231201,8.480496406555176,-0.22767063975334167,0.57451874,-0.17165314,152.97923,-11.112062,-45.919990000000006,FKL
13454225000000.0,2.1562108993530273,-4.96671199798584,-0.8019222617149353,8.604655265808105,-0.22183677554130554,0.47403142,-0.16065755,153.31075,-10.944403,-45.986958,FKL
13454229000000.0,2.1612091064453125,-5.011694431304932,-0.7561472058296204,8.731386184692383,-0.21528834104537964,0.36682457,-0.15088372,153.65874,-10.80358,-45.975037,FKL
13454235000000.0,2.1662099361419678,-5.0572123527526855,-0.7058173418045044,8.857454299926758,-0.2083401381969452,0.2556471,-0.12980886,154.00578000000002,-10.670862,-45.931297,FKL
13454240000000.0,2.171207904815674,-5.102292060852051,-0.6498745679855347,8.977989196777344,-0.20091579854488373,0.15821409,-0.0983493,154.34721000000002,-10.57131,-45.83645,FKL
13454245000000.0,2.176206588745117,-5.145509243011475,-0.5861175060272217,9.08535385131836,-0.1938220113515854,0.09468412,-0.06047566,154.68262,-10.479836,-45.719574,FKL
13454249000000.0,2.181205987930298,-5.1862101554870605,-0.5147649049758911,9.176497459411621,-0.18783874809741974,0.069027774,-0.031154128,154.99911,-10.419834,-45.58312,FKL
13454255000000.0,2.186206340789795,-5.2237229347229,-0.4360012114048004,9.24825668334961,-0.18215808272361755,0.105068825,-0.009773844,155.30171,-10.370039,-45.446870000000004,FKL
13454260000000.0,2.191283941268921,-5.2573723793029785,-0.3509342074394226,9.298898696899414,-0.17798466980457306,0.17562376,0.013439035,155.56372,-10.355714,-45.336533,FKL
13454265000000.0,2.1962785720825195,-5.2880048751831055,-0.26611900329589844,9.337911605834961,-0.1747824251651764,0.2678644,0.028405233999999998,155.81403,-10.345294,-45.24297,FKL
13454270000000.0,2.201277017593384,-5.315247058868408,-0.1796705722808838,9.362010955810547,-0.17258098721504211,0.36346483,0.040317107000000005,156.01143000000002,-10.382116,-45.207428,FKL
13454274000000.0,2.2062718868255615,-5.33840274810791,-0.09190554916858673,9.370896339416504,-0.17153862118721008,0.40622538,0.05100725,156.19995,-10.415907,-45.180534,FKL
13454280000000.0,2.2112669944763184,-5.3568549156188965,-0.002869886113330722,9.363943099975586,-0.17082852125167847,0.49235737,0.06078109,156.37004,-10.449631,-45.189526,FKL
13454285000000.0,2.216264247894287,-5.368991374969482,0.08754122257232666,9.343029975891113,-0.17158867418766022,0.54550266,0.06688975,156.50346000000002,-10.521935000000001,-45.245616999999996,FKL
13454290000000.0,2.2212576866149902,-5.373281955718994,0.1792665719985962,9.310433387756348,-0.17323611676692963,0.5555819000000001,0.07544186,156.62773,-10.593898,-45.307835,FKL
13454294000000.0,2.2262535095214844,-5.370345592498779,0.27162930369377136,9.26931095123291,-0.17650489509105682,0.5458081,0.08857546,156.72113000000002,-10.691889,-45.411846000000004,FKL
13454300000000.0,2.2312512397766113,-5.360836505889893,0.3640545904636383,9.222155570983887,-0.18199223279953003,0.49174652,0.094989546,156.8171,-10.779627,-45.499454,FKL
13454305000000.0,2.2362496852874756,-5.346210956573486,0.4541501998901367,9.168286323547363,-0.1885056048631668,0.41386122,0.09987647,156.8935,-10.8976965,-45.594696,FKL
13454310000000.0,2.241246461868286,-5.327729225158691,0.5399594306945801,9.107243537902832,-0.19572988152503967,0.312763,0.11789699,156.97066999999998,-11.006476,-45.659985,FKL
13454314000000.0,2.2462430000305176,-5.306367874145508,0.6183683276176453,9.039714813232422,-0.20395272970199585,0.20708331,0.12644911,157.046,-11.133074,-45.711859999999994,FKL
13454320000000.0,2.25124192237854,-5.282877445220947,0.6870689392089844,8.96623420715332,-0.2131209373474121,0.11178834,0.1386664,157.12444,-11.253857,-45.730953,FKL
13454325000000.0,2.2562386989593506,-5.2586870193481445,0.7446499466896057,8.887028694152832,-0.22279347479343414,0.030848695,0.13775012,157.21492,-11.370448,-45.741153999999995,FKL
13454330000000.0,2.2612357139587402,-5.235019683837891,0.7897118330001831,8.802083015441895,-0.23190170526504517,-0.029321532999999997,0.14049901,157.3095,-11.483276,-45.724716,FKL
13454335000000.0,2.2662346363067627,-5.213724136352539,0.8231137990951538,8.713208198547363,-0.24047569930553436,-0.05681047,0.14049901,157.41263999999998,-11.572521,-45.700195,FKL
13454339000000.0,2.2712340354919434,-5.196440696716309,0.8457446694374084,8.622117042541504,-0.2481369972229004,-0.09254608,0.13805555,157.52518999999998,-11.659591,-45.653859999999995,FKL
13454345000000.0,2.276230573654175,-5.182920932769775,0.8582862615585327,8.529010772705078,-0.254608690738678,-0.092240654,0.13897185,157.63818,-11.7151,-45.613890000000005,FKL
13454350000000.0,2.2812302112579346,-5.173024654388428,0.8610876798629761,8.433850288391113,-0.2599216103553772,-0.09773844,0.13988814,157.75775,-11.770141,-45.561134,FKL
13454355000000.0,2.286224603652954,-5.167922019958496,0.8571111559867859,8.338774681091309,-0.2632910907268524,-0.112399206,0.13591751,157.88063,-11.828555,-45.504787,FKL
13454359000000.0,2.291222333908081,-5.172235012054443,0.8536154627799988,8.24957275390625,-0.26485326886177063,-0.11026118,0.11453723,158.0094,-11.884586,-45.451546,FKL
13454365000000.0,2.296220541000366,-5.185513973236084,0.8513408303260803,8.166205406188965,-0.2657136619091034,-0.118507855,0.08827003,158.15572,-11.875736,-45.419575,FKL
13454370000000.0,2.3012237548828125,-5.2077202796936035,0.8518369793891907,8.088967323303223,-0.2645912170410156,-0.09865474,0.0580322,158.30748,-11.872902999999999,-45.39725,FKL
13454375000000.0,2.306253671646118,-5.239846229553223,0.8563686609268188,8.017995834350586,-0.26258447766304016,-0.09010262,0.013439035,158.47116,-11.859238000000001,-45.389959999999995,FKL
13454379000000.0,2.3112497329711914,-5.280645370483398,0.8665640950202942,7.953249931335449,-0.2601475417613983,-0.06169739,-0.008246681,158.63171,-11.850169000000001,-45.392803,FKL
13454385000000.0,2.316265821456909,-5.3318352699279785,0.8834023475646973,7.894893169403076,-0.2568638324737549,-0.032375857,-0.07696902,158.81592,-11.834024000000001,-45.425746999999994,FKL
13454390000000.0,2.3212599754333496,-5.388380527496338,0.9048739671707153,7.841135501861572,-0.2512809634208679,-0.016798794,-0.09773844,158.98639,-11.8312845,-45.458115,FKL
13454395000000.0,2.3262522220611572,-5.450615406036377,0.9311559200286865,7.791845798492432,-0.24531197547912598,0.008857545999999999,-0.14905111,159.1718,-11.830592,-45.53973,FKL
13454400000000.0,2.3312501907348633,-5.514642238616943,0.9651972651481628,7.748645305633545,-0.2386193424463272,0.01985312,-0.21135938,159.36723,-11.83319,-45.619859999999996,FKL
13454404000000.0,2.33624529838562,-5.57896089553833,1.0073013305664062,7.711698055267334,-0.23200666904449463,0.03726278,-0.25289822,159.5682,-11.828841,-45.706703000000005,FKL
13454410000000.0,2.3412487506866455,-5.635932445526123,1.0569510459899902,7.681229591369629,-0.2246069759130478,0.050701816,-0.27519479999999996,159.76537,-11.8431635,-45.818394,FKL
13454415000000.0,2.3462467193603516,-5.683218002319336,1.113067388534546,7.65681791305542,-0.21535536646842957,0.0720821,-0.31887165,159.98088,-11.848542,-45.936046999999995,FKL
13454420000000.0,2.3512444496154785,-5.722227573394775,1.1782721281051636,7.642397880554199,-0.20552249252796173,0.10751228,-0.3436117,160.17308,-11.88868,-46.063133,FKL
13454424000000.0,2.3562419414520264,-5.753864765167236,1.2533501386642456,7.6393327713012695,-0.19554626941680908,0.093462385,-0.33536503,160.36986000000002,-11.930399000000001,-46.175540000000005,FKL
13454430000000.0,2.361238479614258,-5.779489517211914,1.3360639810562134,7.646838188171387,-0.18411587178707123,0.04734206,-0.30695978,160.56544,-12.003589999999999,-46.265144,FKL
13454435000000.0,2.3662378787994385,-5.800455093383789,1.424250602722168,7.664331436157227,-0.17108091711997986,-0.0125227375,-0.27000242,160.75592,-12.07938,-46.338165000000004,FKL
13454440000000.0,2.371232509613037,-5.816060543060303,1.5182641744613647,7.688615798950195,-0.15597347915172577,-0.05222898,-0.25595254,160.94048,-12.190433500000001,-46.353462,FKL
13454445000000.0,2.376262664794922,-5.824366092681885,1.6207919120788574,7.716898441314697,-0.14121538400650024,-0.08552113,-0.23457226,161.11578,-12.304567,-46.345894,FKL
13454450000000.0,2.3812575340270996,-5.828034400939941,1.726457118988037,7.7419891357421875,-0.1275530606508255,-0.13683382,-0.20830505,161.29602,-12.442138,-46.28633,FKL
13454455000000.0,2.38625168800354,-5.827517509460449,1.8344706296920776,7.758012294769287,-0.11443979293107986,-0.183565,-0.18295415,161.47525,-12.580741999999999,-46.214725,FKL
13454460000000.0,2.391324520111084,-5.819544315338135,1.9427440166473389,7.763867378234863,-0.10223697125911713,-0.16982053,-0.15241088,161.63441,-12.741073,-46.11456,FKL
13454465000000.0,2.3963193893432617,-5.806775093078613,2.0466394424438477,7.764537811279297,-0.0916285589337349,-0.14263703,-0.14752395,161.80295,-12.892114999999999,-46.004985999999995,FKL
13454470000000.0,2.401310682296753,-5.788621425628662,2.1450095176696777,7.761307239532471,-0.08192732185125351,-0.13713925,-0.13958271,161.93798999999999,-13.064314999999999,-45.893642,FKL
13454475000000.0,2.406301736831665,-5.767688751220703,2.233855962753296,7.76065731048584,-0.07301981002092361,-0.12950343,-0.1432479,162.07712,-13.224689999999999,-45.790386,FKL
13454480000000.0,2.4112918376922607,-5.745041847229004,2.313199520111084,7.7629194259643555,-0.06489627063274384,-0.12003502,-0.13408493,162.2034,-13.390009,-45.684578,FKL
13454485000000.0,2.416285276412964,-5.722136974334717,2.3826982975006104,7.768723964691162,-0.05782419815659523,-0.11789699,-0.14110987,162.34226999999998,-13.542470999999999,-45.580265000000004,FKL
13454489000000.0,2.421276569366455,-5.699491500854492,2.442772150039673,7.776985168457031,-0.052659086883068085,-0.12797627,-0.14691310000000002,162.49976,-13.670860000000001,-45.460175,FKL
13454495000000.0,2.426269292831421,-5.67828893661499,2.493278741836548,7.785513401031494,-0.048859819769859314,-0.16646078,-0.15088372,162.66658,-13.792404999999999,-45.333584,FKL
13454500000000.0,2.431262731552124,-5.658586502075195,2.534055471420288,7.792804718017578,-0.0466466024518013,-0.18417588,-0.17898351,162.86656000000002,-13.884764,-45.20518,FKL
13454505000000.0,2.4362573623657227,-5.641369342803955,2.5601515769958496,7.787199974060059,-0.04544658586382866,-0.19639318,-0.19242255,163.06926,-13.973497,-45.067482,FKL
13454509000000.0,2.4412546157836914,-5.6265106201171875,2.5722973346710205,7.769334316253662,-0.044831398874521255,-0.20158553,-0.22021692,163.31075,-14.024391,-44.934673,FKL
13454515000000.0,2.4462761878967285,-5.6143975257873535,2.5760498046875,7.74500846862793,-0.04350023716688156,-0.17134771,-0.24220806,163.55217,-14.073295000000002,-44.809418,FKL
13454520000000.0,2.4512786865234375,-5.604775905609131,2.575584650039673,7.718395709991455,-0.04184935986995697,-0.1337795,-0.27702740000000003,163.80852,-14.109106,-44.689147999999996,FKL
13454525000000.0,2.456273317337036,-5.5975871086120605,2.570964813232422,7.689473628997803,-0.03896799683570862,-0.087659165,-0.31184670000000003,164.07246,-14.111262,-44.628567,FKL
13454530000000.0,2.4612748622894287,-5.592809200286865,2.5621774196624756,7.658156394958496,-0.03420552238821983,-0.06383542,-0.35094208,164.34691,-14.109666,-44.574368,FKL
13454535000000.0,2.46627140045166,-5.5908002853393555,2.549560785293579,7.627583980560303,-0.02758079767227173,-0.06658431,-0.37812558,164.62493999999998,-14.108818,-44.525707000000004,FKL
13454540000000.0,2.4712672233581543,-5.5932183265686035,2.5330424308776855,7.606518745422363,-0.017776938155293465,-0.07299839999999999,-0.40347649999999996,164.91173,-14.113363,-44.483852,FKL
13454545000000.0,2.4762628078460693,-5.599055767059326,2.512995481491089,7.594664573669434,-0.006037672981619835,-0.109650314,-0.4120286,165.19794,-14.101760999999998,-44.460876,FKL
13454550000000.0,2.481261968612671,-5.605621814727783,2.490116596221924,7.592282295227051,0.0074361893348395824,-0.16584991,-0.41874814,165.49341,-14.098612,-44.430237,FKL
13454554000000.0,2.486264228820801,-5.613265037536621,2.4648759365081787,7.595676898956299,0.02123374305665493,-0.22174409,-0.4089743,165.81348,-14.08063,-44.384246999999995,FKL
13454560000000.0,2.491258382797241,-5.622875690460205,2.438368320465088,7.596041202545166,0.03374255821108818,-0.29229903,-0.40744713,166.14508,-14.063310999999999,-44.318222,FKL
13454565000000.0,2.496255874633789,-5.634120464324951,2.410963535308838,7.592672824859619,0.04465693235397339,-0.29626966,-0.4120286,166.4923,-14.040083,-44.23949,FKL
13454570000000.0,2.501255512237549,-5.645272254943848,2.384766101837158,7.582145690917969,0.05398045480251312,-0.29535335,-0.4175264,166.84381000000002,-14.015901000000001,-44.14195,FKL
13454575000000.0,2.506256580352783,-5.656466960906982,2.3596808910369873,7.565644264221191,0.061553746461868286,-0.28863382,-0.41416663,167.19182,-13.98275,-44.06302,FKL
13454580000000.0,2.511251449584961,-5.66841983795166,2.3354809284210205,7.547990322113037,0.06904897838830948,-0.27702740000000003,-0.40775254,167.53519,-13.952957999999999,-43.98445,FKL
13454585000000.0,2.5162458419799805,-5.681118488311768,2.3121097087860107,7.529202938079834,0.07601455599069595,-0.25870144,-0.408058,167.86741999999998,-13.916364000000002,-43.931346999999995,FKL
13454590000000.0,2.521242618560791,-5.691495895385742,2.2906999588012695,7.51577091217041,0.08358556032180786,-0.23548855,-0.40530908,168.18938,-13.888757,-43.879875,FKL
13454595000000.0,2.5262458324432373,-5.6989288330078125,2.2715766429901123,7.508046627044678,0.09106235206127167,-0.21288654,-0.3820962,168.497,-13.863885999999999,-43.829327,FKL
13454600000000.0,2.5312438011169434,-5.69821834564209,2.2584023475646973,7.505194664001465,0.09835229068994522,-0.18142697,-0.35124752,168.78668000000002,-13.844864000000001,-43.79274,FKL
13454605000000.0,2.5362401008605957,-5.689694404602051,2.2509264945983887,7.507015228271484,0.10567694157361984,-0.15882497,-0.32070425,169.0806,-13.827551999999999,-43.745625,FKL
13454610000000.0,2.5412356853485107,-5.673325538635254,2.2500498294830322,7.511390686035156,0.11262751370668411,-0.13286320000000001,-0.28099802,169.35123000000002,-13.818731,-43.70225,FKL
13454615000000.0,2.5462357997894287,-5.649330139160156,2.2556512355804443,7.518059730529785,0.11860541254281998,-0.13316862,-0.23335053,169.60461,-13.817758,-43.652485,FKL
13454619000000.0,2.5512328147888184,-5.618314266204834,2.2664363384246826,7.5235795974731445,0.12447633594274521,-0.13622294,-0.20219639,169.85866000000001,-13.83811,-43.578007,FKL
13454625000000.0,2.5562307834625244,-5.580504894256592,2.2818233966827393,7.526353359222412,0.13096219301223755,-0.14263703,-0.17654006,170.09521,-13.867308,-43.497795,FKL
13454630000000.0,2.561230182647705,-5.547850608825684,2.2975094318389893,7.530475616455078,0.1378999948501587,-0.15607607,-0.15363261,170.3325,-13.923019,-43.389587,FKL
13454635000000.0,2.566227674484253,-5.523184299468994,2.312359571456909,7.536928653717041,0.14638878405094147,-0.19333886,-0.12675454,170.56166000000002,-13.991313,-43.270340000000004,FKL
13454639000000.0,2.571223497390747,-5.50609016418457,2.326418399810791,7.545591831207275,0.15655751526355743,-0.24281894,-0.12339478,170.79256999999998,-14.074751999999998,-43.128834000000005,FKL
13454645000000.0,2.5762200355529785,-5.496216297149658,2.3397278785705566,7.556368350982666,0.1678120642900467,-0.28130344,-0.124005646,171.01851000000002,-14.1661625,-42.97878,FKL
13454650000000.0,2.581217050552368,-5.493183135986328,2.3570075035095215,7.569106578826904,0.17913419008255005,-0.29901853,-0.13072516,171.24938999999998,-14.259279999999999,-42.82225,FKL
13454655000000.0,2.5862176418304443,-5.496705532073975,2.379248857498169,7.583723545074463,0.19014592468738556,-0.3136793,-0.13072516,171.48285,-14.356139,-42.656803000000004,FKL
13454660000000.0,2.5912914276123047,-5.5071492195129395,2.4068257808685303,7.600988388061523,0.20088008046150208,-0.32436943,-0.12339478,171.71173000000002,-14.448344,-42.509370000000004,FKL
13454665000000.0,2.596290349960327,-5.5210280418396,2.4365921020507812,7.619328498840332,0.21140028536319733,-0.31978795,-0.12767084,171.94451999999998,-14.537381,-42.364290000000004,FKL
13454670000000.0,2.6012847423553467,-5.538747787475586,2.469611644744873,7.636520862579346,0.22131101787090302,-0.312763,-0.14202617,172.16985,-14.630783,-42.227515999999994,FKL
13454675000000.0,2.6062774658203125,-5.559507369995117,2.505709171295166,7.650235652923584,0.23110051453113556,-0.29779682,-0.15271631,172.39372,-14.724797,-42.095085,FKL
13454680000000.0,2.611269950866699,-5.576375484466553,2.5461065769195557,7.660675048828125,0.23955442011356354,-0.2501493,-0.17531833,172.61158999999998,-14.814710999999999,-41.98294,FKL
13454684000000.0,2.616265058517456,-5.58721923828125,2.591107130050659,7.667995452880859,0.2467764914035797,-0.21502456,-0.19425514,172.83157,-14.902451000000001,-41.872673,FKL
13454690000000.0,2.6212587356567383,-5.590854167938232,2.6387062072753906,7.669867992401123,0.2530765235424042,-0.15913039999999998,-0.18936823,173.02647,-14.992973000000001,-41.790733,FKL
13454695000000.0,2.6262526512145996,-5.586278438568115,2.6873888969421387,7.66439962387085,0.2571200728416443,-0.11301007,-0.20189096,173.23078999999998,-15.065653,-41.718790000000006,FKL
13454700000000.0,2.6312806606292725,-5.573572158813477,2.735225200653076,7.65258264541626,0.25945061445236206,-0.07544186,-0.20341812,173.4157,-15.159776,-41.64836,FKL
13454704000000.0,2.6362733840942383,-5.555373668670654,2.7807326316833496,7.636988639831543,0.2603059411048889,-0.04917465,-0.20158553,173.59923,-15.242678,-41.587303000000006,FKL
13454710000000.0,2.641266345977783,-5.531922340393066,2.821345806121826,7.6193742752075195,0.2600739300251007,-0.04062254,-0.20066923,173.77907,-15.331856,-41.529633000000004,FKL
13454715000000.0,2.6462655067443848,-5.504082202911377,2.8549249172210693,7.601673603057861,0.25900787115097046,-0.03145956,-0.19853121,173.95422,-15.414769,-41.477540000000005,FKL
13454720000000.0,2.6512606143951416,-5.473445892333984,2.8768362998962402,7.58677339553833,0.25703826546669006,-0.05681047,-0.19975294,174.13416999999998,-15.495716,-41.410786,FKL
13454724000000.0,2.656255006790161,-5.441173553466797,2.882744073867798,7.577193260192871,0.25468531250953674,-0.07147124,-0.20066923,174.31056,-15.5736,-41.347923,FKL
13454730000000.0,2.6612489223480225,-5.409060955047607,2.8782291412353516,7.572798252105713,0.2527344524860382,-0.08368854,-0.19517145,174.4921,-15.651145000000001,-41.267082,FKL
13454735000000.0,2.6662490367889404,-5.378920555114746,2.8687398433685303,7.573591709136963,0.2506922483444214,-0.0888809,-0.20647246,174.6807,-15.719806,-41.18545,FKL
13454740000000.0,2.6712448596954346,-5.35038948059082,2.8563694953918457,7.578095436096191,0.24971923232078552,-0.098043874,-0.20677789,174.89767,-15.768373,-41.090515,FKL
13454745000000.0,2.676240921020508,-5.323126792907715,2.8428943157196045,7.585131645202637,0.2489282786846161,-0.10323623,-0.204029,175.11606,-15.810795,-40.995846,FKL
13454749000000.0,2.681236743927002,-5.295783042907715,2.831754207611084,7.592757225036621,0.24894452095031738,-0.11636983,-0.19242255,175.34697,-15.849789999999999,-40.890217,FKL
13454755000000.0,2.6864993572235107,-5.263814926147461,2.8323569297790527,7.597695827484131,0.24972492456436157,-0.002443461,-0.15454891,175.78294,-15.93029,-40.702453999999996,FKL
13454760000000.0,2.691751718521118,-5.23046875,2.8385777473449707,7.601215362548828,0.24947082996368408,0.049785517,-0.11484267,175.98273,-15.973993,-40.61241,FKL
13454765000000.0,2.697028398513794,-5.19454288482666,2.853343963623047,7.601393699645996,0.2477327585220337,0.10934488,-0.07391469,176.14555,-16.04476,-40.528304999999996,FKL
13454770000000.0,2.7022502422332764,-5.1566643714904785,2.8757026195526123,7.597909927368164,0.24481767416000366,0.14294247,-0.05161811400000001,176.29681000000002,-16.114847,-40.44912,FKL
13454776000000.0,2.70745587348938,-5.115663528442383,2.9054012298583984,7.593504428863525,0.24160218238830566,0.22510384,-0.0030543262,176.40285,-16.208527,-40.38261,FKL
13454781000000.0,2.7126567363739014,-5.070501804351807,2.940624237060547,7.5928874015808105,0.23704425990581512,0.30909783,0.044898596,176.49681,-16.294874,-40.323273,FKL
13454786000000.0,2.717841148376465,-5.024254322052002,2.977675437927246,7.595444679260254,0.23017369210720062,0.3454443,0.11911872,176.55156000000002,-16.405918,-40.256462,FKL
13454791000000.0,2.7230191230773926,-4.98172664642334,3.010744094848633,7.6006269454956055,0.22126023471355438,0.31764993,0.19822577,176.58708000000001,-16.51837,-40.188904,FKL
13454797000000.0,2.728184938430786,-4.944122314453125,3.0407373905181885,7.607068061828613,0.21088479459285736,0.27030787,0.26969699999999996,176.60365,-16.652428,-40.092083,FKL
13454802000000.0,2.7333455085754395,-4.9147820472717285,3.0693931579589844,7.611861705780029,0.19914156198501587,0.21594086,0.32345316,176.60728,-16.784609,-39.980377000000004,FKL
13454807000000.0,2.738494396209717,-4.894089698791504,3.0968527793884277,7.615447044372559,0.18561510741710663,0.17287487,0.34605515,176.61147,-16.905407,-39.855618,FKL
13454812000000.0,2.743642568588257,-4.884131908416748,3.1233696937561035,7.6185808181762695,0.1699284315109253,0.1160644,0.35430184,176.61555,-17.020174,-39.710903,FKL
13454818000000.0,2.7487831115722656,-4.886012077331543,3.1477646827697754,7.623157501220703,0.1529453992843628,0.03573562,0.33383787,176.63312,-17.116562,-39.574459999999995,FKL
13454823000000.0,2.753913402557373,-4.9029436111450195,3.167630672454834,7.6329545974731445,0.13502810895442963,-0.0580322,0.28893927,176.6693,-17.196505,-39.42386,FKL
13454828000000.0,2.759033203125,-4.932746887207031,3.1812868118286133,7.64718770980835,0.11638911068439484,-0.14630222,0.22449298,176.71669,-17.25427,-39.28358,FKL
13454833000000.0,2.7641499042510986,-4.971363067626953,3.183566093444824,7.664377212524414,0.09679014980792999,-0.2144137,0.14813483,176.7956,-17.291082,-39.133070000000004,FKL
13454839000000.0,2.7692770957946777,-5.017085075378418,3.173344850540161,7.6821370124816895,0.0753057524561882,-0.2574797,0.077579886,176.89137,-17.293863,-39.00655,FKL
13454844000000.0,2.774378538131714,-5.063518047332764,3.1495025157928467,7.693553924560547,0.052117783576250076,-0.24862215,-0.0018325957999999999,177.01768,-17.27326,-38.8878,FKL
13454849000000.0,2.7794787883758545,-5.110533237457275,3.111781358718872,7.6979265213012695,0.028196005150675774,-0.22143865,-0.086132,177.17242,-17.203972,-38.800087,FKL
13454854000000.0,2.78456974029541,-5.154189586639404,3.0647666454315186,7.690549373626709,0.005711858160793781,-0.13927728,-0.1554652,177.3366,-17.122643,-38.737934,FKL
13454860000000.0,2.789750099182129,-5.194046497344971,3.004941701889038,7.66776180267334,-0.015590322203934193,-0.04550946,-0.20708331,177.51334,-16.993645,-38.725359999999995,FKL
13454865000000.0,2.794830799102783,-5.22844123840332,2.9426825046539307,7.6386332511901855,-0.03307148814201355,0.06719518,-0.24068089999999998,177.68842,-16.871534,-38.744576,FKL
13454870000000.0,2.799912214279175,-5.255862236022949,2.8750836849212646,7.599423408508301,-0.045747026801109314,0.12492194,-0.26145032,177.85345,-16.72981,-38.804996,FKL
13454875000000.0,2.804982900619507,-5.273395538330078,2.8098461627960205,7.562459945678711,-0.052880123257637024,0.22052236,-0.26267207,177.99828,-16.605093,-38.90447,FKL
13454880000000.0,2.8100430965423584,-5.280841827392578,2.748326301574707,7.529994964599609,-0.05743563547730446,0.29382620000000004,-0.25809056,178.13926999999998,-16.486614000000003,-39.01197,FKL
13454885000000.0,2.815105438232422,-5.278319835662842,2.6903367042541504,7.5019049644470215,-0.05813479796051979,0.3454443,-0.24098633,178.25773999999998,-16.387794,-39.145977,FKL
13454890000000.0,2.8201615810394287,-5.2666425704956055,2.6356821060180664,7.477879047393799,-0.05628998950123787,0.3659083,-0.21868975,178.36418,-16.298123999999998,-39.28633,FKL
13454895000000.0,2.8252155780792236,-5.244166851043701,2.586592435836792,7.465091705322266,-0.05172751471400261,0.37843102,-0.19639318,178.46736,-16.2231,-39.4376,FKL
13454899000000.0,2.830268621444702,-5.210399150848389,2.5440218448638916,7.466776371002197,-0.04669198393821716,0.3576616,-0.15027285,178.554,-16.160372,-39.576427,FKL
13454905000000.0,2.8353168964385986,-5.167267322540283,2.5077133178710938,7.487653732299805,-0.04119233042001724,0.29993483,-0.10079276599999999,178.6751,-16.121648999999998,-39.643364,FKL
13454910000000.0,2.840364456176758,-5.115635871887207,2.4774534702301025,7.529529571533203,-0.035237010568380356,0.22999077,-0.054061572999999995,178.78378,-16.09512,-39.694344,FKL
13454915000000.0,2.8454113006591797,-5.060884952545166,2.453307867050171,7.58351469039917,-0.029875779524445534,0.12858713,0.0012217305,178.91994,-16.089570000000002,-39.65309,FKL
13454920000000.0,2.8504600524902344,-5.005283355712891,2.435159683227539,7.645692825317383,-0.026118729263544083,0.03940081,0.05375614,179.04697,-16.091438,-39.59162,FKL
13454925000000.0,2.8555026054382324,-4.951857089996338,2.4232277870178223,7.708815574645996,-0.023945476859807968,-0.043982297000000004,0.076358154,179.23196000000002,-16.100386,-39.43266,FKL
13454930000000.0,2.860538959503174,-4.903239727020264,2.417816162109375,7.766612529754639,-0.02354833297431469,-0.08857546,0.11209377,179.3984,-16.115189,-39.256397,FKL
13454935000000.0,2.865575075149536,-4.861775875091553,2.4192545413970947,7.814509868621826,-0.025011694058775902,-0.113926366,0.12522738,179.59102,-16.132778,-39.029666999999996,FKL
13454940000000.0,2.870607614517212,-4.830212116241455,2.4277758598327637,7.847126007080078,-0.027292322367429733,-0.1151481,0.1337795,179.77249,-16.15299,-38.799145,FKL
13454945000000.0,2.875638008117676,-4.80820369720459,2.4418859481811523,7.866940021514893,-0.02932119183242321,-0.09987647,0.14141529999999997,179.93729,-16.184587,-38.577473,FKL
13454950000000.0,2.8806686401367188,-4.795439720153809,2.4602885246276855,7.876113414764404,-0.031030330806970596,-0.08124508,0.14049901,180.09966,-16.212473000000003,-38.361286,FKL
13454955000000.0,2.885695457458496,-4.79031229019165,2.4817583560943604,7.879732131958008,-0.03250189125537872,-0.05467244,0.14049901,180.22926,-16.251472,-38.200695,FKL
13454960000000.0,2.890721321105957,-4.791449069976807,2.5052099227905273,7.882637023925781,-0.03387875109910965,-0.013744468000000001,0.13011430000000002,180.35776,-16.288107,-38.053402,FKL
13454964000000.0,2.8957481384277344,-4.798435211181641,2.5286290645599365,7.8867387771606445,-0.03591471165418625,0.0027488936,0.11759156,180.45688,-16.329767,-37.947857,FKL
13454970000000.0,2.9007771015167236,-4.810869216918945,2.5502941608428955,7.893658638000488,-0.03956757113337517,0.025350908,0.10659598599999999,180.55286,-16.364736999999998,-37.857277,FKL
13454975000000.0,2.9058027267456055,-4.829160690307617,2.568782329559326,7.902408123016357,-0.04403495416045189,0.070554934,0.08002335,180.64061,-16.396322,-37.794712,FKL
13454980000000.0,2.910822868347168,-4.853741645812988,2.5827701091766357,7.912097454071045,-0.05059191957116127,0.10354166,0.048563786,180.7321,-16.41175,-37.737334999999995,FKL
13454984000000.0,2.9158432483673096,-4.885176181793213,2.591449499130249,7.92075252532959,-0.05819929763674736,0.13897185,0.013744468000000001,180.8211,-16.41386,-37.702168,FKL
13454990000000.0,2.9208595752716064,-4.924410820007324,2.5933077335357666,7.924706935882568,-0.06714293360710144,0.16004670000000001,-0.03176499,180.92082,-16.397554,-37.676357,FKL
13454995000000.0,2.9258763790130615,-4.971177577972412,2.5886096954345703,7.924145698547363,-0.07611453533172607,0.15790866,-0.063224554,181.01976000000002,-16.363838,-37.675509999999996,FKL
13455000000000.0,2.930893898010254,-5.025086402893066,2.5776968002319336,7.919304370880127,-0.08499867469072342,0.14752395,-0.099571034,181.13171,-16.315882000000002,-37.682190000000006,FKL
13455004000000.0,2.9359066486358643,-5.082513809204102,2.561251163482666,7.9101948738098145,-0.09264431893825531,0.10659598599999999,-0.13622294,181.25606000000002,-16.266752,-37.682186,FKL
13455010000000.0,2.9409213066101074,-5.135457992553711,2.539991617202759,7.896139144897461,-0.0980106070637703,0.055283304000000005,-0.16096300000000002,181.38846,-16.21828,-37.67788,FKL
13455015000000.0,2.9459357261657715,-5.184169769287109,2.514220714569092,7.877444744110107,-0.10157711803913116,0.010079277,-0.17898351,181.50032,-16.131704,-37.736247999999996,FKL
13455020000000.0,2.950953960418701,-5.228852272033691,2.48409104347229,7.854275226593018,-0.10267473012208939,-0.023518313,-0.1966986,181.62196,-16.054771,-37.784,FKL
13455025000000.0,2.956002712249756,-5.268622875213623,2.4502787590026855,7.827338218688965,-0.10135363042354584,-0.052839845,-0.20280726,181.74743999999998,-15.986269,-37.819252,FKL
13455029000000.0,2.961012363433838,-5.303176403045654,2.4153919219970703,7.7991814613342285,-0.09798688441514969,-0.06017022599999999,-0.21258110000000002,181.87823,-15.924983,-37.851513,FKL
13455035000000.0,2.9660208225250244,-5.331381320953369,2.3798329830169678,7.769466876983643,-0.09338343143463135,-0.056505035999999995,-0.21135938,182.00381000000002,-15.855732999999999,-37.895863,FKL
13455040000000.0,2.971029758453369,-5.3514580726623535,2.345404624938965,7.738277912139893,-0.08707202970981598,-0.04550946,-0.21288654,182.1304,-15.797629999999998,-37.939384000000004,FKL
13455045000000.0,2.9760360717773438,-5.363915920257568,2.3126943111419678,7.707799911499023,-0.07987617701292038,-0.021380282999999996,-0.19914207,182.24942,-15.743113500000002,-37.981705,FKL
13455049000000.0,2.9810450077056885,-5.369043350219727,2.283155679702759,7.682993412017822,-0.07247782498598099,-0.010079277,-0.18478674,182.36618,-15.695791,-38.021675,FKL
13455055000000.0,2.986051321029663,-5.367486476898193,2.2569620609283447,7.663789749145508,-0.06462732702493668,-0.002443461,-0.16310102,182.47238000000002,-15.666087,-38.05128,FKL
13455060000000.0,2.991149425506592,-5.35847806930542,2.2379050254821777,7.6542205810546875,-0.056365061551332474,0.0027488936,-0.13194689,182.56717,-15.644297,-38.079277000000005,FKL
13455065000000.0,2.996152877807617,-5.3466105461120605,2.2227277755737305,7.649016857147217,-0.04811990633606911,0.004886922,-0.109650314,182.67096,-15.633472,-38.078644,FKL
13455070000000.0,3.001159906387329,-5.331411838531494,2.2128183841705322,7.648797512054443,-0.040493208914995193,-0.008552114,-0.09315695,182.76581000000002,-15.628736499999999,-38.07185,LYI
13455075000000.0,3.006160020828247,-5.313883304595947,2.2077794075012207,7.652836799621582,-0.03384266421198845,-0.013133603,-0.05222898,182.85542,-15.643185999999998,-38.035496,LYI
13455080000000.0,3.0111608505249023,-5.2987470626831055,2.207869052886963,7.659090995788574,-0.027481436729431152,-0.030543262,-0.019547688,182.94432,-15.661036,-37.991226,LYI
13455085000000.0,3.016164779663086,-5.285888195037842,2.2128570079803467,7.667463302612305,-0.02224052883684635,-0.038789943,0.006414085,183.02628,-15.690466,-37.920809999999996,LYI
13455090000000.0,3.0211639404296875,-5.275144100189209,2.2223432064056396,7.67777156829834,-0.01827184297144413,-0.03573562,0.03634648,183.0961,-15.725314000000001,-37.846207,LYI
13455095000000.0,3.0262064933776855,-5.2668304443359375,2.2368619441986084,7.6902055740356445,-0.014449549838900566,-0.044593163,0.06658431,183.15923999999998,-15.765378,-37.764828,LYI
13455100000000.0,3.0312061309814453,-5.262138366699219,2.253587007522583,7.70237398147583,-0.011530883610248566,-0.044898596,0.076052725,183.21777,-15.799045000000001,-37.68704,LYI
13455105000000.0,3.0362019538879395,-5.26139497756958,2.27288818359375,7.714356422424316,-0.009695569984614849,-0.05161811400000001,0.08582657,183.26137,-15.855914000000002,-37.596046,LYI
13455110000000.0,3.041200637817383,-5.265908718109131,2.2915525436401367,7.726013660430908,-0.008430108428001404,-0.069027774,0.08002335,183.30928,-15.908973999999999,-37.504490000000004,LYI
13455114000000.0,3.046199083328247,-5.275857925415039,2.3084652423858643,7.737302303314209,-0.0075576333329081535,-0.06872234,0.071776666,183.35416,-15.958588,-37.417015,LYI
13455120000000.0,3.051203489303589,-5.291085720062256,2.323702096939087,7.748247146606445,-0.0074966903775930405,-0.07544186,0.06750060599999999,183.39096,-16.012342,-37.33186,LYI
13455125000000.0,3.056203842163086,-5.311100959777832,2.3373804092407227,7.758857727050781,-0.007894760929048061,-0.087659165,0.05467244,183.435,-16.061365,-37.24863,LYI
13455130000000.0,3.0612027645111084,-5.334483623504639,2.348729133605957,7.76708459854126,-0.009297090582549572,-0.092240654,0.049785517,183.48647,-16.09593,-37.16796,LYI
13455134000000.0,3.066202163696289,-5.3605637550354,2.357501268386841,7.772161960601807,-0.011454830877482891,-0.0983493,0.035124752999999995,183.54753,-16.124413,-37.087444,LYI
13455140000000.0,3.071200370788574,-5.388350963592529,2.363769054412842,7.773679733276367,-0.014034731313586235,-0.08979719,0.02687807,183.592,-16.13929,-37.040079999999996,LYI
13455145000000.0,3.0761992931365967,-5.41727876663208,2.367605686187744,7.771446704864502,-0.01706312596797943,-0.074830994,0.021380282999999996,183.64016999999998,-16.148135999999997,-36.994907,LYI
13455150000000.0,3.0811994075775146,-5.444145679473877,2.3684933185577393,7.764358043670654,-0.020467281341552734,-0.058643065,0.0027488936,183.68536,-16.145222,-36.971874,LYI
13455155000000.0,3.086198329925537,-5.467563152313232,2.366307020187378,7.752098560333252,-0.02460155263543129,-0.03176499,0.009162978,183.72028,-16.141966,-36.95406,LYI
13455159000000.0,3.0911972522735596,-5.487126350402832,2.3624024391174316,7.7361979484558105,-0.028971262276172638,-0.015577064,0.013439035,183.75801,-16.133620999999998,-36.960613,LYI
13455165000000.0,3.0962259769439697,-5.502417087554932,2.3573601245880127,7.71710729598999,-0.03294532373547554,0.01038471,0.019547688,183.78763999999998,-16.12591,-36.975574,LYI
13455170000000.0,3.101226329803467,-5.512556552886963,2.35188627243042,7.696787357330322,-0.03592628613114357,0.022296581,0.028099801,183.81125,-16.117071,-36.996629999999996,LYI
13455175000000.0,3.1062240600585938,-5.516252517700195,2.346190929412842,7.675753593444824,-0.038325171917676926,0.028405233999999998,0.027183502999999998,183.83281000000002,-16.107195,-37.022533,LYI
13455179000000.0,3.1112215518951416,-5.514499187469482,2.340437650680542,7.6559624671936035,-0.04077526554465294,0.032375857,0.042455133,183.8442,-16.102959,-37.047558,LYI
13455185000000.0,3.1162219047546387,-5.508029460906982,2.334737777709961,7.638744831085205,-0.0425088033080101,0.022296581,0.05497787,183.8573,-16.1032,-37.069878,LYI
13455190000000.0,3.121217727661133,-5.497873306274414,2.329641342163086,7.623933792114258,-0.04260360822081566,0.012217305,0.05589417,183.87476,-16.110462,-37.080864,LYI
13455195000000.0,3.126215696334839,-5.484673976898193,2.325584650039673,7.611448764801025,-0.04225387051701546,0.00061086525,0.06291912,183.88719,-16.118757000000002,-37.086395,LYI
13455199000000.0,3.1312148571014404,-5.46917724609375,2.3222320079803467,7.60236930847168,-0.04187393933534622,-0.023823743999999997,0.07513642,183.91,-16.134870000000003,-37.070152,LYI
13455205000000.0,3.136213779449463,-5.452007293701172,2.319307804107666,7.597522258758545,-0.040635280311107635,-0.04276056599999999,0.08246681,183.93283,-16.156248,-37.05202,LYI
13455210000000.0,3.1412107944488525,-5.433506011962891,2.3171639442443848,7.596303462982178,-0.03934869170188904,-0.056505035999999995,0.08796459400000001,183.96652,-16.17471,-37.016582,LYI
13455215000000.0,3.146212100982666,-5.413938045501709,2.3161604404449463,7.5982279777526855,-0.03813066706061363,-0.07666359,0.09468412,184.00055,-16.19739,-36.974000000000004,LYI
13455220000000.0,3.1512138843536377,-5.394131660461426,2.316600799560547,7.602846622467041,-0.03720543906092644,-0.09162979,0.094989546,184.04527,-16.220203,-36.916656,LYI
13455224000000.0,3.156212568283081,-5.3748779296875,2.3187777996063232,7.609733581542969,-0.03619929775595665,-0.10812314599999999,0.101098195,184.08853,-16.24622,-36.85331,LYI
13455230000000.0,3.161210775375366,-5.356497764587402,2.322352886199951,7.617938995361328,-0.03563743457198143,-0.112399206,0.10659598599999999,184.13898999999998,-16.271160000000002,-36.779236,LYI
13455235000000.0,3.16621732711792,-5.339349746704102,2.3270018100738525,7.626465797424316,-0.03541478514671326,-0.11178834,0.10873401,184.18999,-16.29691,-36.703262,LYI
13455240000000.0,3.1712143421173096,-5.323765277862549,2.332418441772461,7.635979175567627,-0.03530166298151016,-0.10873401,0.10476339,184.23723999999999,-16.328098,-36.617484999999995,LYI
13455244000000.0,3.1762125492095947,-5.31033182144165,2.338338613510132,7.6476263999938965,-0.03656186908483505,-0.1133155,0.10903945,184.28214,-16.353764,-36.530613,LYI
13455250000000.0,3.1812098026275635,-5.298755645751953,2.3441691398620605,7.659892559051514,-0.037575863301754,-0.10934488,0.099571034,184.32838,-16.382927,-36.445316,LYI
13455255000000.0,3.1862099170684814,-5.2887420654296875,2.3492162227630615,7.671032428741455,-0.03894275426864624,-0.105068825,0.09712757,184.3716,-16.405314999999998,-36.359703,LYI
13455260000000.0,3.191283702850342,-5.280242919921875,2.3532018661499023,7.6818437576293945,-0.040432125329971313,-0.09682214,0.09712757,184.41747,-16.427708,-36.27706,LYI
13455265000000.0,3.1962811946868896,-5.272595405578613,2.356377124786377,7.69287633895874,-0.04167935252189636,-0.08643743400000001,0.09193522,184.46509,-16.448101,-36.198727000000005,LYI
13455270000000.0,3.201274871826172,-5.266476631164551,2.3588030338287354,7.704461574554443,-0.04339726269245148,-0.08155051,0.08827003,184.51622,-16.457565,-36.128116999999996,LYI
13455275000000.0,3.2062699794769287,-5.262693405151367,2.3608486652374268,7.7166852951049805,-0.04445391520857811,-0.06627888,0.089186326,184.56473,-16.472137,-36.064552,LYI
13455280000000.0,3.211261749267578,-5.260730266571045,2.3621933460235596,7.7284464836120605,-0.0458449125289917,-0.050701816,0.07696902,184.61908,-16.475317,-36.005592,LYI
13455285000000.0,3.216259479522705,-5.25988245010376,2.3622031211853027,7.737812519073486,-0.047178056091070175,-0.030543262,0.07727446,184.66621,-16.484756,-35.9518,LYI
