timestamp,rel_time,acc_x,acc_y,acc_z,gyro_x,gyro_y,gyro_z,azimuth,pitch,roll,label
0.0,0.0,0.0,0.0,0.0,0.0,-0.094989546,0.00030543262000000003,276.08032000000003,-97.788315,2.020539,STD
18398902000.0,1.4844466022623237e-05,-0.0034145561512559652,0.027928488329052925,-0.007825585082173347,-0.00018362500122748315,-0.08032878,0.0009162978999999999,276.30014,-97.92262,2.0408328,STD
54922890000.0,7.38569360692054e-05,-0.009981161914765835,0.0832982212305069,-0.02344897761940956,-0.0005699694156646729,-0.084910266,0.006414085,276.5326,-98.05803,2.066493,STD
109034180000.0,0.00021197549358475953,-0.019288362935185432,0.1652877777814865,-0.04672185704112053,-0.0012480767909437418,-0.08521569999999999,0.014660766,276.75992,-98.18966999999999,2.092805,STD
179950080000.0,0.00044285584590397775,-0.03117944486439228,0.2727541923522949,-0.0775517150759697,-0.0021546976640820503,-0.09040806,0.02076942,276.9954,-98.32795,2.1258652000000002,STD
266670080000.0,0.0007980485679581761,-0.0456199049949646,0.4043714106082916,-0.1163925975561142,-0.0033432061318308115,-0.0888809,0.025961772999999997,277.2295,-98.46075,2.1600873,STD
368009200000.0,0.001298843533731997,-0.06237630918622017,0.5584131479263306,-0.16312295198440552,-0.004679472651332617,-0.08093964,0.0290161,277.46814,-98.59995,2.205519,STD
482635640000.0,0.0019668976310640574,-0.08118943125009537,0.7329328060150146,-0.21757061779499054,-0.006396769545972347,-0.07880162,0.030543262,277.70813,-98.73255999999999,2.2503812,STD
609110460000.0,0.0028156032785773277,-0.10189711302518845,0.9257458448410034,-0.2783815860748291,-0.008066696114838123,-0.06872234,0.03481932,277.9438,-98.87049,2.296123,STD
745927540000.0,0.0038534861523658037,-0.12499500066041946,1.1342095136642456,-0.33766093850135803,-0.010008894838392735,-0.0720821,0.03940081,278.1827,-98.99983,2.3404808,STD
891552000000.0,0.005092153325676918,-0.1504487842321396,1.356145977973938,-0.3943238854408264,-0.011985605582594872,-0.07819075,0.04550946,278.43686,-99.16632,2.3928854,STD
1044455100000.0,0.006539416965097189,-0.17884482443332672,1.5907061100006104,-0.4535405933856964,-0.014220934361219406,-0.06994407,0.04734206,278.68787000000003,-99.32661999999999,2.4441648,STD
1203145100000.0,0.008195360191166401,-0.20991678535938263,1.8357065916061401,-0.5152677297592163,-0.01665475219488144,-0.076358154,0.04337143,278.91357,-99.43005,2.4788682,STD
1366193600000.0,0.01006222702562809,-0.24212408065795898,2.0887045860290527,-0.5843296647071838,-0.018923936411738396,-0.07849618,0.04642576,279.1361,-99.53449,2.5154188,STD
1532255400000.0,0.01213686540722847,-0.27522188425064087,2.3477067947387695,-0.6605742573738098,-0.02126685343682766,-0.08399397,0.04520403,279.35635,-99.62729,2.5353653,STD
1700084400000.0,0.01441560871899128,-0.3098357617855072,2.6098263263702393,-0.7313295602798462,-0.023712381720542908,-0.08124508,0.049785517,279.5752,-99.721375,2.5571593999999997,STD
1868544000000.0,0.01690276712179184,-0.345966637134552,2.8731889724731445,-0.7936611771583557,-0.026479186490178108,-0.08399397,0.040317107000000005,279.7963,-99.8114,2.573213,STD
2036612500000.0,0.01957286149263382,-0.3823445737361908,3.137263774871826,-0.8584957718849182,-0.02913169376552105,-0.08307768,0.04276056599999999,280.0359,-99.94111,2.5958474,STD
2203385600000.0,0.022421536967158318,-0.41879138350486755,3.400700092315674,-0.9256249666213989,-0.031615205109119415,-0.07849618,0.039095376,280.24933,-100.02035,2.6007613999999997,STD
2368075000000.0,0.02544514648616314,-0.4551555812358856,3.6612772941589355,-0.9961081743240356,-0.0335707925260067,-0.07513642,0.036651913,280.46295,-100.10213,2.6060572,STD
2530004400000.0,0.028631437569856644,-0.49128904938697815,3.9176764488220215,-1.069954514503479,-0.03546746075153351,-0.07299839999999999,0.029626964,280.6751,-100.18042,2.608573,STD
2688604000000.0,0.03197205066680908,-0.5271048545837402,4.168140411376953,-1.1447618007659912,-0.03737862780690193,-0.081855945,0.023518313,280.90015,-100.27386,2.608823,STD
2843402800000.0,0.03545486554503441,-0.5625110268592834,4.411479949951172,-1.2191224098205566,-0.03895726799964905,-0.08124508,0.026267206,281.12167,-100.36873,2.6095528999999997,STD
2994021300000.0,0.039135199040174484,-0.5972884297370911,4.6473212242126465,-1.2885750532150269,-0.04006217047572136,-0.08704830000000001,0.020158553,281.35846000000004,-100.48486,2.6056197,STD
3140162400000.0,0.04287320747971535,-0.6311845183372498,4.8756937980651855,-1.3536746501922607,-0.040851492434740067,-0.084910266,0.019242255,281.59277000000003,-100.601074,2.6037084999999998,STD
3281602700000.0,0.04672648385167122,-0.6658040881156921,5.096067428588867,-1.414141297340393,-0.041127659380435944,-0.07666359,0.014660766,281.82922,-100.72536,2.5973775000000003,STD
3418184700000.0,0.050683923065662384,-0.701873242855072,5.308211326599121,-1.4703319072723389,-0.04100186750292778,-0.081855945,0.01160644,282.06833,-100.84933000000001,2.590029,STD
3549807800000.0,0.054738350212574005,-0.737297773361206,5.511417388916016,-1.5228937864303589,-0.040910061448812485,-0.090713486,0.014966198,282.2977,-100.95809,2.5802827,STD
3676421000000.0,0.05888377130031586,-0.7706689834594727,5.7052435874938965,-1.5722800493240356,-0.0405987873673439,-0.0888809,0.013133603,282.5246,-101.0688,2.5680392000000003,STD
3798015700000.0,0.06311085820198059,-0.800895094871521,5.889475345611572,-1.6189649105072021,-0.03995473310351372,-0.093767814,0.0125227375,282.7552,-101.16748,2.543951,STD
3914619200000.0,0.06741239130496979,-0.8273151516914368,6.064045429229736,-1.6632670164108276,-0.039458177983760834,-0.09193522,0.014049901000000002,282.9829,-101.26395,2.5202026,STD
4026288800000.0,0.07179145514965057,-0.849726676940918,6.229431629180908,-1.7031123638153076,-0.03953155130147934,-0.10323623,0.018325957,283.21326,-101.356804,2.4996172999999997,STD
4133106700000.0,0.07622341066598892,-0.8683215379714966,6.3862104415893555,-1.737436056137085,-0.03943287208676338,-0.10629055,0.010079277,283.43967000000004,-101.45141,2.4762037,STD
4235175000000.0,0.08070915937423706,-0.883380651473999,6.534449577331543,-1.7672861814498901,-0.039446696639060974,-0.10415252,0.0061086523,283.66943,-101.543175,2.4656842,STD
4332611400000.0,0.08524658530950546,-0.8951455950737,6.674300193786621,-1.7934082746505737,-0.03992578387260437,-0.11056661,0.009773844,283.90167,-101.63303,2.4538957999999997,STD
4425547000000.0,0.08982908725738525,-0.9041950702667236,6.807510852813721,-1.8162585496902466,-0.04078848287463188,-0.096516706,0.010690141499999998,284.1196,-101.70973000000001,2.4525752,STD
4514120700000.0,0.09445321559906006,-0.9109901785850525,6.9355149269104,-1.8362066745758057,-0.04204956814646721,-0.10079276599999999,0.012217305,284.34387000000004,-101.78334,2.4504623,STD
4598479700000.0,0.09911327809095383,-0.9173847436904907,7.059995174407959,-1.854287028312683,-0.0431562215089798,-0.09407325,0.01160644,284.5593,-101.85056999999999,2.4589636,STD
4678774400000.0,0.1038094311952591,-0.9242916703224182,7.181877136230469,-1.8710274696350098,-0.04408322647213936,-0.08735373,0.016187929,284.77533,-101.91556,2.4683792999999996,STD
4755158000000.0,0.1085352674126625,-0.9316757321357727,7.301192760467529,-1.886487603187561,-0.04506012424826622,-0.08093964,0.028710667000000002,284.98654,-101.97319,2.4850676,STD
4827785000000.0,0.11328783631324768,-0.9395124912261963,7.418019771575928,-1.9007210731506348,-0.04573480412364006,-0.08277224,0.026572637000000003,285.1966,-102.032425,2.4980295,STD
4896809500000.0,0.11806564778089523,-0.9488497972488403,7.532050609588623,-1.913214921951294,-0.04671045392751694,-0.08643743400000001,0.03634648,285.40587999999997,-102.08963,2.5184648,STD
4962383300000.0,0.12286711484193802,-0.9612089395523071,7.642796039581299,-1.9232057332992554,-0.047573480755090714,-0.09773844,0.041233405,285.61633,-102.149506,2.5354853,STD
5024657000000.0,0.12768790125846863,-0.9751057624816895,7.748817443847656,-1.931551456451416,-0.04797721654176712,-0.09987647,0.040317107000000005,285.81854,-102.19797,2.544628,STD
5083777500000.0,0.13252754509449005,-0.9893211126327515,7.848958969116211,-1.9389634132385254,-0.048424601554870605,-0.10293079,0.03390302,286.0232,-102.243866,2.5521514,STD
5139888000000.0,0.1373823583126068,-1.004485011100769,7.943288326263428,-1.946020245552063,-0.04915415123105049,-0.09987647,0.022602014,286.2218,-102.27829,2.542937,STD
5193127700000.0,0.1422535479068756,-1.021084189414978,8.031907081604004,-1.9531582593917847,-0.05016783997416496,-0.10354166,0.017104227,286.42224,-102.31222,2.5326647999999996,STD
5243632400000.0,0.14713506400585175,-1.0383994579315186,8.11506175994873,-1.9605531692504883,-0.051145534962415695,-0.093767814,0.0012217305,286.61438,-102.342545,2.5129627999999995,STD
5291532400000.0,0.15202999114990234,-1.0546916723251343,8.192887306213379,-1.9687365293502808,-0.05254008248448372,-0.09162979,0.002443461,286.80957,-102.36952,2.4957442000000003,STD
5336953500000.0,0.15693260729312897,-1.0700126886367798,8.265661239624023,-1.9776479005813599,-0.054636694490909576,-0.096516706,-0.0061086523,287.00317,-102.39439,2.4620028,STD
5380016400000.0,0.16184823215007782,-1.084407091140747,8.33360767364502,-1.9872767925262451,-0.05667289346456528,-0.09010262,-0.009162978,287.1927,-102.42118,2.4311292,STD
5420838000000.0,0.1667720526456833,-1.097436785697937,8.397174835205078,-1.997506856918335,-0.05806984379887581,-0.084910266,-0.019242255,287.3822,-102.44633499999999,2.3957772,STD
5459529400000.0,0.171704962849617,-1.1082900762557983,8.456926345825195,-2.0082006454467773,-0.059458572417497635,-0.070554934,-0.019547688,287.56696,-102.4687,2.3635159,STD
5496197600000.0,0.17664089798927307,-1.1168665885925293,8.513059616088867,-2.0197834968566895,-0.061227768659591675,-0.07269296,-0.017104227,287.76086000000004,-102.50276,2.3316402000000003,STD
5530944300000.0,0.18158631026744843,-1.1226862668991089,8.565738677978516,-2.033323287963867,-0.06326047331094742,-0.06566802,-0.009773844,287.94772,-102.537254,2.3026732999999995,STD
5563867500000.0,0.18653997778892517,-1.1264878511428833,8.61523151397705,-2.048184394836426,-0.06546188145875931,-0.063224554,-0.021685716,288.14005,-102.57396999999999,2.2746181,STD
5595059500000.0,0.19150011241436005,-1.129636526107788,8.661895751953125,-2.0631701946258545,-0.06723957508802414,-0.053145275,-0.013744468000000001,288.32898,-102.61326600000001,2.2550757000000003,STD
5624609400000.0,0.19646474719047546,-1.132083535194397,8.70592975616455,-2.078366279602051,-0.06936150044202805,-0.04886922,-0.018325957,288.5231,-102.657715,2.2385592,STD
5652601600000.0,0.2014298141002655,-1.1328065395355225,8.748133659362793,-2.0949695110321045,-0.07187444716691971,-0.051923547,-0.01160644,288.71657999999996,-102.70411999999999,2.2273667,STD
5679117000000.0,0.20641516149044037,-1.1317737102508545,8.7886381149292,-2.113074779510498,-0.07466045767068863,-0.04276056599999999,-0.015882496,288.90707000000003,-102.75246,2.215656,STD
5704231400000.0,0.2113846391439438,-1.1292897462844849,8.827466011047363,-2.1323084831237793,-0.07682851701974869,-0.035430185,-0.00580322,289.09912,-102.80353000000001,2.2092614,STD
5728018400000.0,0.21638163924217224,-1.125298023223877,8.86457633972168,-2.1527597904205322,-0.07979124039411545,-0.024129177,-0.017715093,289.28168,-102.84331999999999,2.1955400000000003,STD
5750546500000.0,0.22135694324970245,-1.122199535369873,8.89665412902832,-2.1705942153930664,-0.08264589309692383,-0.011301007,-0.014355333500000001,289.46227999999996,-102.89109,2.189171,STD
5771882000000.0,0.22633096575737,-1.1200019121170044,8.923717498779297,-2.185826301574707,-0.08547932654619217,-0.019547688,-0.020463986,289.65668,-102.950676,2.1892462000000004,STD
5792087000000.0,0.23130972683429718,-1.1186845302581787,8.946465492248535,-2.1987953186035156,-0.0883738324046135,-0.01863139,-0.019547688,289.84436,-103.00941,2.193031,STD
5811221000000.0,0.2362917959690094,-1.1182301044464111,8.966817855834961,-2.2104156017303467,-0.09075731039047241,-0.01740966,-0.02687807,290.03204,-103.06914,2.191784,STD
5829339600000.0,0.24127398431301117,-1.1185842752456665,8.98491382598877,-2.2207655906677246,-0.09333942830562592,-0.005497787,-0.035430185,290.21405,-103.11808,2.1867325,STD
5846497000000.0,0.24625742435455322,-1.1197078227996826,9.000866889953613,-2.2299094200134277,-0.09648352861404419,0.02443461,-0.033292156,290.38956,-103.16668,2.1835115000000003,STD
5862743600000.0,0.2512799799442291,-1.1190911531448364,9.016823768615723,-2.237799882888794,-0.09942815452814102,0.04062254,-0.038179077,290.5633,-103.216324,2.1755455,STD
5878128000000.0,0.2562659978866577,-1.1147162914276123,9.0347261428833,-2.2446725368499756,-0.10288305580615997,0.057421334000000004,-0.03390302,290.728,-103.25876,2.1724124,STD
5892694600000.0,0.261251837015152,-1.1068004369735718,9.054636001586914,-2.2506589889526367,-0.10610558092594147,0.06383542,-0.032375857,290.88696,-103.30054,2.1608977000000005,STD
5906487600000.0,0.26624152064323425,-1.0988661050796509,9.07502555847168,-2.2567665576934814,-0.10886406153440475,0.06505715,-0.019242255,291.04266,-103.34066,2.154418,STD
5919547000000.0,0.27123045921325684,-1.0909212827682495,9.095843315124512,-2.262981653213501,-0.11183371394872665,0.06169739,-0.01282817,291.195,-103.374,2.165518,STD
5931912400000.0,0.27622121572494507,-1.083911418914795,9.11783504486084,-2.269943952560425,-0.11485689878463745,0.054061572999999995,-0.0033597588,291.34808,-103.41016,2.1802902000000004,STD
5943620300000.0,0.2812107801437378,-1.0780045986175537,9.141091346740723,-2.2777528762817383,-0.11685708165168762,0.054061572999999995,-0.002443461,291.49863,-103.44978,2.194101,STD
5954705300000.0,0.2862030267715454,-1.0746269226074219,9.164886474609375,-2.2855772972106934,-0.11847427487373352,0.056199603,0.008857545999999999,291.66467,-103.48684,2.2154333999999998,STD
5965201000000.0,0.2911945879459381,-1.074169635772705,9.188910484313965,-2.293109893798828,-0.11946851015090942,0.038179077,0.015271631,291.83466,-103.52934,2.2335267000000005,STD
5975138400000.0,0.2961867153644562,-1.0764907598495483,9.213157653808594,-2.3003666400909424,-0.12027966976165771,0.037873644,0.018020526000000002,291.99976000000004,-103.57329,2.2511892000000002,STD
5984547000000.0,0.3011850416660309,-1.0815010070800781,9.237648963928223,-2.3073651790618896,-0.1200876533985138,0.018325957,0.013133603,292.17374,-103.62392,2.2652042000000003,STD
5993455400000.0,0.3061831593513489,-1.088330864906311,9.261076927185059,-2.3131039142608643,-0.11927125602960587,0.0027488936,0.002443461,292.3451,-103.672844,2.2777781000000004,STD
6001889600000.0,0.3111780881881714,-1.0965380668640137,9.282883644104004,-2.317169189453125,-0.11753825843334198,-0.0018325957999999999,-0.012217305,292.51678,-103.727554,2.2865292999999998,STD
6009874500000.0,0.31617307662963867,-1.1060699224472046,9.303152084350586,-2.319633722305298,-0.11553952842950821,-0.0076358155,-0.021991148999999998,292.68887,-103.77614,2.2690697,STD
6017435000000.0,0.32118093967437744,-1.1169407367706299,9.321945190429688,-2.3205161094665527,-0.11332176625728607,-0.017104227,-0.034513887,292.86072,-103.828316,2.2461432999999995,STD
6024593000000.0,0.3261760473251343,-1.1280070543289185,9.338473320007324,-2.3173089027404785,-0.1112872064113617,-0.0125227375,-0.05009095,293.03472999999997,-103.879776,2.2213993,STD
6031370000000.0,0.33117222785949707,-1.1387518644332886,9.352246284484863,-2.308380365371704,-0.10905180126428604,-0.023823743999999997,-0.06169739,293.21367999999995,-103.934044,2.1925747,STD
6037786000000.0,0.336168497800827,-1.1502443552017212,9.361711502075195,-2.2940824031829834,-0.10664252191781998,-0.04428773,-0.07819075,293.38757000000004,-103.97385,2.142419,STD
6043861000000.0,0.3411652743816376,-1.16290283203125,9.366353988647461,-2.27470326423645,-0.10506138950586319,-0.06872234,-0.09010262,293.5638,-104.00963,2.0898213,STD
6049612400000.0,0.3461589813232422,-1.1761935949325562,9.368199348449707,-2.252880334854126,-0.10419920831918716,-0.08216137400000001,-0.12034045,293.7272,-104.02549,2.0254428,STD
6055057700000.0,0.3511607348918915,-1.189921498298645,9.368114471435547,-2.2297005653381348,-0.10429437458515167,-0.105068825,-0.13530666,293.89902,-104.03674000000001,1.9604996,STD
6060213000000.0,0.3561538755893707,-1.2027137279510498,9.368037223815918,-2.208224296569824,-0.104693703353405,-0.10720685,-0.14446963,294.0535,-104.02816999999999,1.8830532,STD
6065094000000.0,0.3611503839492798,-1.2125413417816162,9.37075424194336,-2.1929657459259033,-0.10564140975475311,-0.07696902,-0.15668693,294.2029,-104.0138,1.8025825,STD
6069715000000.0,0.36614641547203064,-1.2188900709152222,9.377754211425781,-2.1849300861358643,-0.10767792910337448,-0.032986722999999996,-0.16065755,294.3427,-103.98633000000001,1.7185727,STD
6074090400000.0,0.3711450695991516,-1.2206242084503174,9.391927719116211,-2.186378240585327,-0.1110219657421112,0.028099801,-0.15760323,294.46805,-103.95553000000001,1.6378716999999998,STD
6078233000000.0,0.3761403560638428,-1.2182565927505493,9.413055419921875,-2.1942520141601562,-0.11452962458133698,0.08063421400000001,-0.1518,294.5923,-103.943985,1.5706978,STD
6082155000000.0,0.38113823533058167,-1.212318778038025,9.441681861877441,-2.2029383182525635,-0.11814336478710175,0.12064589,-0.13072516,294.70346,-103.92674,1.513141,STD
6085868500000.0,0.38613444566726685,-1.204557180404663,9.476225852966309,-2.211153984069824,-0.1219877377152443,0.13775012,-0.109650314,294.82277999999997,-103.93871,1.479602,FKL
6089384400000.0,0.39114198088645935,-1.2005906105041504,9.51279354095459,-2.2143425941467285,-0.12557844817638397,0.11209377,-0.099265605,294.94254,-103.95214,1.4492251,FKL
6092713000000.0,0.39615553617477417,-1.2006006240844727,9.550952911376953,-2.212724447250366,-0.1292545199394226,0.073303826,-0.08063421400000001,295.06597999999997,-103.96137,1.4442205,FKL
6095864600000.0,0.4011518061161041,-1.20870840549469,9.587584495544434,-2.20562481880188,-0.13361364603042603,0.017104227,-0.0720821,295.20013,-103.9677,1.4361941,FKL
6098848300000.0,0.4061484634876251,-1.2247503995895386,9.622517585754395,-2.194071054458618,-0.13827763497829437,-0.004581489,-0.06750060599999999,295.3189,-103.9507,1.4158816,FKL
6101673000000.0,0.41114649176597595,-1.2464746236801147,9.653894424438477,-2.1857962608337402,-0.1436859667301178,-0.007941248,-0.07788532,295.44647000000003,-103.92714000000001,1.3914719,FKL
6104348000000.0,0.41615626215934753,-1.273568868637085,9.681838989257812,-2.180845022201538,-0.1496850550174713,0.017104227,-0.081855945,295.56032999999996,-103.87772,1.3380976,FKL
6106880400000.0,0.42115411162376404,-1.3012137413024902,9.70669937133789,-2.1805453300476074,-0.1564061939716339,0.03756821,-0.10018189999999999,295.6737,-103.82307,1.278456,FKL
6109278500000.0,0.4262281358242035,-1.3300637006759644,9.728092193603516,-2.1861538887023926,-0.163550466299057,0.03970624,-0.12461651,295.7927,-103.776596,1.1908149,FKL
6111548700000.0,0.4312207102775574,-1.3562226295471191,9.742697715759277,-2.1952033042907715,-0.1710139364004135,0.03573562,-0.14599679999999998,295.9058,-103.72649399999999,1.1017075,FKL
6113698000000.0,0.43621495366096497,-1.3783773183822632,9.746867179870605,-2.209252119064331,-0.1784214973449707,0.009162978,-0.16401732,296.0223,-103.67560999999999,1.0072622,FKL
6115733500000.0,0.44120946526527405,-1.397482991218567,9.744318962097168,-2.226893424987793,-0.18475067615509033,-0.005497787,-0.18142697,296.14648,-103.65088,0.9006555,FKL
6117661000000.0,0.4462043344974518,-1.414183259010315,9.737466812133789,-2.247201681137085,-0.1905146837234497,-0.013133603,-0.20097467,296.27365,-103.62334399999999,0.7893762,FKL
6119485300000.0,0.45119771361351013,-1.4289015531539917,9.728972434997559,-2.271286964416504,-0.19483213126659393,-0.022907447,-0.20952678,296.41125,-103.63504,0.6872411,FKL
6121213000000.0,0.4561931788921356,-1.4418203830718994,9.719661712646484,-2.2994184494018555,-0.1982521414756775,-0.022296581,-0.2171626,296.5455,-103.646286,0.5821691,FKL
6122848600000.0,0.4611886143684387,-1.4536981582641602,9.708744049072266,-2.32841157913208,-0.2003830522298813,-0.0067195175,-0.22693644,296.6868,-103.683235,0.48157674,FKL
6124398000000.0,0.4661853015422821,-1.4648222923278809,9.69599437713623,-2.357187509536743,-0.2007889598608017,0.01985312,-0.23762658,296.82275,-103.727005,0.38127425,FKL
6125865000000.0,0.47118186950683594,-1.4752334356307983,9.68152141571045,-2.3857510089874268,-0.20011521875858307,0.044898596,-0.24770586,296.962,-103.79528,0.28502664,FKL
6127253700000.0,0.47617802023887634,-1.4849697351455688,9.665420532226562,-2.4141123294830322,-0.19907045364379883,0.06566802,-0.25534168,297.093,-103.86847,0.18972078,FKL
6128568600000.0,0.4811730682849884,-1.4942618608474731,9.64773941040039,-2.4408187866210938,-0.1971210092306137,0.07727446,-0.25717425,297.21643,-103.949196,0.09450936,FKL
6129814000000.0,0.4861714243888855,-1.503339409828186,9.628475189208984,-2.464418411254883,-0.19415231049060822,0.08552113,-0.27091873,297.33234,-104.03256,-0.0032101890000000004,FKL
6130993000000.0,0.49116820096969604,-1.513323187828064,9.607932090759277,-2.4850611686706543,-0.19020241498947144,0.092240654,-0.27763826,297.4523,-104.13644000000001,-0.095294826,FKL
6132109700000.0,0.4961637854576111,-1.524745225906372,9.586267471313477,-2.5028798580169678,-0.185616597533226,0.08368854,-0.28680122,297.57187000000005,-104.243904,-0.19081537,FKL
6133167000000.0,0.5011595487594604,-1.537876009941101,9.561986923217773,-2.5200095176696777,-0.1800706535577774,0.08032878,-0.29199359999999996,297.69028,-104.3555,-0.28468862,FKL
6134168600000.0,0.506199836730957,-1.553286075592041,9.533340454101562,-2.5381627082824707,-0.17387618124485016,0.06383542,-0.29321529999999996,297.81305,-104.46933,-0.38000205,FKL
6135117000000.0,0.5111952424049377,-1.5700197219848633,9.502144813537598,-2.5567426681518555,-0.16602599620819092,0.050701816,-0.30634892,297.93,-104.589096,-0.48888868,FKL
6136015000000.0,0.5161909461021423,-1.5884166955947876,9.467757225036621,-2.575993061065674,-0.1564130038022995,0.045814894,-0.29993483,298.04932,-104.71396999999999,-0.59157485,FKL
6136865500000.0,0.5211870670318604,-1.6057426929473877,9.429055213928223,-2.5985209941864014,-0.14571714401245117,0.023823743999999997,-0.30573806,298.17395,-104.84559,-0.70177156,FKL
6137671000000.0,0.5261844992637634,-1.6202683448791504,9.385376930236816,-2.625948667526245,-0.13279159367084503,0.023518313,-0.30757064,298.29346,-104.99396499999999,-0.8062195,FKL
6138433600000.0,0.531180202960968,-1.6308271884918213,9.336474418640137,-2.6577646732330322,-0.11739706993103027,0.04550946,-0.3036,298.4207,-105.17421999999999,-0.9308813,FKL
6139156000000.0,0.5361760854721069,-1.635704755783081,9.281732559204102,-2.6935155391693115,-0.09929078072309494,0.056199603,-0.29871312,298.54974,-105.36988999999998,-1.0548046999999998,FKL
6139840300000.0,0.5411723852157593,-1.6322872638702393,9.220964431762695,-2.7339420318603516,-0.07856840640306473,0.038789943,-0.2947425,298.69614,-105.61405,-1.166139,FKL
6140488300000.0,0.5461675524711609,-1.6170216798782349,9.15385913848877,-2.7800705432891846,-0.0544741153717041,0.016187929,-0.27947086,298.84087999999997,-105.87857,-1.2714657,FKL
6141101700000.0,0.5511620044708252,-1.5876336097717285,9.08197021484375,-2.832080125808716,-0.02865256369113922,-0.04276056599999999,-0.2666427,299.0148,-106.18024,-1.3578048,FKL
6141682600000.0,0.556159496307373,-1.539034366607666,9.007830619812012,-2.890693187713623,0.001034194021485746,-0.11301007,-0.21410827,299.20056,-106.51208999999999,-1.4317598,FKL
6142233000000.0,0.5611577033996582,-1.4739259481430054,8.931340217590332,-2.9553110599517822,0.035291701555252075,-0.18692477,-0.15913039999999998,299.4307,-106.90229,-1.4457458,FKL
6142754300000.0,0.5661588907241821,-1.396302580833435,8.851984977722168,-3.0253190994262695,0.0734531506896019,-0.2648101,-0.09254608,299.68314,-107.31081999999999,-1.4510871,FKL
6143248000000.0,0.5711602568626404,-1.3069862127304077,8.76998519897461,-3.100344181060791,0.11545699834823608,-0.32650748,-0.026267206,300.0142,-107.79608,-1.3322408000000001,FKL
6143716000000.0,0.5761966109275818,-1.2055608034133911,8.686863899230957,-3.1805193424224854,0.16170074045658112,-0.39736784,0.08796459400000001,300.37106,-108.30540500000001,-1.1992996,FKL
6144159000000.0,0.5811923742294312,-1.0968892574310303,8.604230880737305,-3.263266086578369,0.21262577176094055,-0.49968776,0.13072516,300.74484,-108.84201000000002,-1.0861573999999998,FKL
6144579000000.0,0.5861883759498596,-0.9852464199066162,8.520263671875,-3.3448750972747803,0.26856860518455505,-0.64568454,0.1872302,301.22693,-109.48532,-0.8163428,FKL
6144977000000.0,0.5911807417869568,-0.8727962970733643,8.434764862060547,-3.423886775970459,0.33033615350723267,-0.80756384,0.24617869,301.72803,-110.16123,-0.56907165,FKL
6145353700000.0,0.5961759686470032,-0.7623056769371033,8.347768783569336,-3.4921224117279053,0.39747148752212524,-0.9578367,0.29138273,302.22495,-110.87733,-0.324282,FKL
6145711000000.0,0.601172924041748,-0.6547046899795532,8.259411811828613,-3.5472254753112793,0.4683375358581543,-1.0790935,0.32284227,302.74664,-111.61974,-0.10154788,FKL
6146049000000.0,0.6061698198318481,-0.5481014251708984,8.171622276306152,-3.584031820297241,0.541107714176178,-1.1612548999999999,0.3594942,303.25513,-112.37385,0.08690394,FKL
6146369000000.0,0.6111670136451721,-0.441670686006546,8.085158348083496,-3.6009135246276855,0.6124576330184937,-1.2202033,0.4098906,303.78168,-113.13566999999999,0.26088510000000004,FKL
6146673000000.0,0.6161673069000244,-0.35028865933418274,7.994466304779053,-3.599714994430542,0.6822514533996582,-1.2873985000000001,0.4456262,304.29956,-113.88816000000001,0.43301582,FKL
6146960700000.0,0.6211663484573364,-0.2841310501098633,7.89585542678833,-3.58239483833313,0.7504255175590515,-1.3658947,0.40866885,304.8209,-114.638725,0.5757365,FKL
6147233300000.0,0.6262425780296326,-0.2366732656955719,7.797633171081543,-3.542830228805542,0.8172777891159058,-1.2321151000000001,0.3747658,305.27805,-115.33530400000001,0.7793094,FKL
6147492000000.0,0.6312355995178223,-0.19614768028259277,7.706021308898926,-3.4919815063476562,0.8771816492080688,-0.9282097,0.38453966,305.70013,-115.99922,0.98242563,FKL
6147736600000.0,0.6362292170524597,-0.16405005753040314,7.621250629425049,-3.424776792526245,0.9234918355941772,-0.57787853,0.39614612,306.0993,-116.61785,1.1453897,FKL
6147969000000.0,0.6412233114242554,-0.13992998003959656,7.542956352233887,-3.3420915603637695,0.954670250415802,-0.28619036,0.42241332,306.4282,-117.192444,1.3318903,FKL
6148189000000.0,0.6462507247924805,-0.11648211628198624,7.474979877471924,-3.2655434608459473,0.9704652428627014,-0.12858713,0.4269948,306.6922,-117.698944,1.5399403999999999,FKL
6148397700000.0,0.651241660118103,-0.09030729532241821,7.417181968688965,-3.2050044536590576,0.971452534198761,-0.10140363,0.42760566,306.9125,-118.12506,1.7623198,FKL
6148595400000.0,0.6562327742576599,-0.06095476821064949,7.370002746582031,-3.161409616470337,0.9661204218864441,-0.13011430000000002,0.4266894,307.01162999999997,-118.3591,1.9340741999999997,FKL
6148782600000.0,0.6612279415130615,-0.028527047485113144,7.332986831665039,-3.134056568145752,0.9508340358734131,-0.1966986,0.4343252,307.11325,-118.49371000000001,2.103257,FKL
6148960300000.0,0.6662209630012512,0.006225849501788616,7.307568550109863,-3.1280410289764404,0.9286956787109375,-0.25076020000000004,0.43035457,307.2157,-118.60538999999999,2.2638437999999996,FKL
6149128600000.0,0.6712139248847961,0.04263119399547577,7.295770645141602,-3.149881601333618,0.9038794040679932,-0.20036379999999998,0.45051312,307.31088,-118.681564,2.4347749,FKL
6149288500000.0,0.6762059926986694,0.07455353438854218,7.2971062660217285,-3.1891818046569824,0.8779928684234619,-0.09101892,0.47250426,307.4309,-118.80485,2.6439532999999997,FKL
6149440000000.0,0.681199848651886,0.0935329869389534,7.311400890350342,-3.2325193881988525,0.8521348834037781,0.0061086523,0.4728097,307.53792999999996,-118.91125500000001,2.8527088,FKL
6149583700000.0,0.686191737651825,0.10262418538331985,7.337589740753174,-3.2814829349517822,0.8274270296096802,0.01038471,0.45478916,307.6803,-119.09273999999999,3.0681597999999997,FKL
6149720000000.0,0.6911860108375549,0.10554022341966629,7.374949932098389,-3.3387441635131836,0.8044428825378418,-0.0036651915999999997,0.43188173,307.79883,-119.26598,3.2846712999999994,FKL
6149849500000.0,0.696181058883667,0.10232258588075638,7.422501564025879,-3.4030768871307373,0.783969521522522,0.0033597588,0.41508293,307.90756,-119.4382,3.4445550000000003,FKL
6149972000000.0,0.701176106929779,0.09229962527751923,7.478682041168213,-3.471795082092285,0.766101062297821,0.019547688,0.42424592,308.019381433619,-119.625554103988,3.58346960610803,FKL
6150088600000.0,0.7061666250228882,0.07539258152246475,7.538796901702881,-3.5422558784484863,0.7514962553977966,0.038789943,0.43585235,308.1293,-119.80972,3.7200203000000003,FKL
6150199000000.0,0.7111595273017883,0.0509205125272274,7.596623420715332,-3.611021041870117,0.7412670254707336,0.044898596,0.4370741,308.24002,-120.01943999999999,3.8366415999999997,FKL
6150304000000.0,0.7161572575569153,0.019338704645633698,7.651324272155762,-3.678255796432495,0.7362708449363708,0.038179077,0.44135013,308.35406,-120.25338,3.9283066,FKL
6150403700000.0,0.7211506962776184,-0.018074283376336098,7.698446273803711,-3.744239568710327,0.7357567548751831,0.04428773,0.44776422,308.46252000000004,-120.49855,4.020106,FKL
6150498000000.0,0.7261446714401245,-0.060803160071372986,7.737089157104492,-3.808967351913452,0.7391278147697449,0.074830994,0.47067168,308.57842999999997,-120.77191,4.079404,FKL
6150587700000.0,0.7311388850212097,-0.10735804587602615,7.763323783874512,-3.872103214263916,0.7446468472480774,0.11575896,0.4886922,308.6893,-121.05304,4.139267,FKL
6150672600000.0,0.7361332774162292,-0.15687131881713867,7.775328159332275,-3.932616949081421,0.7521505951881409,0.17745635,0.5143485,308.79828,-121.37321499999999,4.185907,FKL
6150753400000.0,0.7411280870437622,-0.20760004222393036,7.767903804779053,-3.98797869682312,0.760475218296051,0.20005837,0.5195409000000001,308.90558,-121.69256999999999,4.230314,FKL
6150830400000.0,0.7461217641830444,-0.2577786445617676,7.741917133331299,-4.0380449295043945,0.7704071998596191,0.24801129,0.52320606,309.01724,-122.05245,4.2698355,FKL
6150903300000.0,0.7511196136474609,-0.29918286204338074,7.696627616882324,-4.080934047698975,0.7799726128578186,0.28924468,0.52106804,309.1243,-122.40073999999998,4.3097367,FKL
6150972500000.0,0.7561179399490356,-0.33098137378692627,7.6359686851501465,-4.116527080535889,0.7899235486984253,0.34697145,0.5177083,309.23126,-122.79651000000001,4.3462677,FKL
6151038600000.0,0.7611161470413208,-0.3491961658000946,7.5694355964660645,-4.143393516540527,0.7989046573638916,0.3659083,0.50732356,309.3361,-123.17748,4.3787627,FKL
6151101500000.0,0.7661145925521851,-0.3547019064426422,7.499534606933594,-4.163257122039795,0.8065606951713562,0.35308012,0.49602258,309.43712999999997,-123.584236,4.441164,FKL
6151161000000.0,0.7711136341094971,-0.3487517237663269,7.434373378753662,-4.181047439575195,0.8123600482940674,0.31795537,0.49663344,309.53972999999996,-123.97731,4.499934,FKL
6151218000000.0,0.7761120796203613,-0.3318343162536621,7.374627113342285,-4.197698593139648,0.8168900012969971,0.27519479999999996,0.50640726,309.63608,-124.35628,4.6058917,FKL
6151272000000.0,0.781110942363739,-0.3038157522678375,7.323713302612305,-4.216521739959717,0.8207878470420837,0.23304509,0.5155702999999999,309.74097,-124.72283,4.701817500000001,FKL
6151323000000.0,0.7861236929893494,-0.26517051458358765,7.281358242034912,-4.237619400024414,0.824331521987915,0.21899518,0.5354234,309.83255,-125.082504,4.8549604,FKL
6151372000000.0,0.791121780872345,-0.22281476855278015,7.2455878257751465,-4.261198997497559,0.8277025818824768,0.19883664,0.56596667,309.93887,-125.4342,4.9995227,FKL
6151418700000.0,0.7961347103118896,-0.17662766575813293,7.216770648956299,-4.287430286407471,0.8305196166038513,0.17928895,0.5726861999999999,310.03323,-125.775764,5.194252,FKL
6151463000000.0,0.8011330962181091,-0.13141556084156036,7.196673393249512,-4.314493179321289,0.8324702978134155,0.1432479,0.5888741,310.14232999999996,-126.10923999999999,5.384976999999999,FKL
6151505700000.0,0.8061326146125793,-0.08745953440666199,7.185125827789307,-4.341727256774902,0.833519458770752,0.11026118,0.5907066999999999,310.25513,-126.43751499999999,5.5933657,FKL
6151546000000.0,0.8111327290534973,-0.04997333139181137,7.180020332336426,-4.359740734100342,0.8345940709114075,0.06719518,0.6001751000000001,310.3815,-126.7597,5.791668,FKL
6151584400000.0,0.8161509037017822,-0.019055001437664032,7.1812825202941895,-4.368560791015625,0.8348952531814575,0.01863139,0.6041456999999999,310.50906000000003,-127.05493,5.979947,FKL
6151621000000.0,0.8211492896080017,0.002117890864610672,7.185053825378418,-4.370837688446045,0.833699107170105,-0.031154128,0.5907066999999999,310.6438,-127.338776,6.151715,FKL
6151656000000.0,0.8262282609939575,0.010816558264195919,7.192234516143799,-4.364483833312988,0.8316714763641357,-0.08155051,0.57940567,310.76715,-127.58328,6.3062863,FKL
6151689700000.0,0.8312211632728577,0.011877266690135002,7.198574066162109,-4.357547760009766,0.8290519714355469,-0.07696902,0.5626069,310.8846,-127.81485,6.452459999999999,FKL
6151721700000.0,0.836214542388916,0.0011970718624070287,7.201155662536621,-4.3538312911987305,0.8258721232414246,-0.063224554,0.5491679,311.00858,-128.0363,6.5851315999999995,FKL
6151752000000.0,0.8412092328071594,-0.01738050766289234,7.201169013977051,-4.3531060218811035,0.8227640986442566,-0.04550946,0.52870387,311.12045,-128.22087,6.6742954,FKL
6151781000000.0,0.8462026119232178,-0.0411541685461998,7.19944953918457,-4.3551411628723145,0.8192031383514404,-0.011911871999999999,0.51923543,311.224,-128.39511000000002,6.7652173,FKL
6151809000000.0,0.8511973023414612,-0.06732960790395737,7.198772430419922,-4.359943389892578,0.8159621953964233,0.034513887,0.5021312,311.32767,-128.59125,6.812752199999999,FKL
6151835500000.0,0.8561932444572449,-0.09360183030366898,7.201363563537598,-4.367473125457764,0.8119173049926758,0.081855945,0.4896085,311.42175,-128.77397,6.863365700000001,FKL
6151860600000.0,0.8611897826194763,-0.11705344915390015,7.206073760986328,-4.377944469451904,0.8074043393135071,0.11636983,0.47800204,311.51685,-128.97076,6.8878837,FKL
6151885000000.0,0.8661871552467346,-0.13477759063243866,7.2117767333984375,-4.391589164733887,0.8010483980178833,0.15332718,0.47586402,311.59946,-129.15073999999998,6.919123,FKL
6151908000000.0,0.8711833357810974,-0.14604109525680542,7.216795444488525,-4.408931255340576,0.7928174734115601,0.15943582,0.45662177,311.6795,-129.3255,6.9376807000000005,FKL
6151930400000.0,0.8761793971061707,-0.14975053071975708,7.219028949737549,-4.430744647979736,0.7834137082099915,0.17501289,0.4578435,311.75183,-129.48965,6.9673367,FKL
6151952000000.0,0.8811743259429932,-0.1463349312543869,7.218635082244873,-4.456769943237305,0.77206951379776,0.18295415,0.44776422,311.8191,-129.64441000000002,7.008463000000001,FKL
6151972300000.0,0.886171817779541,-0.1360793113708496,7.215719699859619,-4.486856460571289,0.7602718472480774,0.18417588,0.43768495,311.88412,-129.79453999999998,7.049921,FKL
6151992000000.0,0.8911667466163635,-0.12069495022296906,7.2105560302734375,-4.520240306854248,0.7486308813095093,0.17745635,0.43401974,311.94707999999997,-129.93513000000002,7.092525,FKL
6152011000000.0,0.8961625099182129,-0.10632919520139694,7.203680038452148,-4.554627418518066,0.7372033596038818,0.17867808,0.42271876,312.0043,-130.06653,7.131460700000001,FKL
6152029500000.0,0.901207447052002,-0.09296373277902603,7.194823741912842,-4.590467929840088,0.726026713848114,0.18509217,0.41813725,312.06955,-130.24738,7.2275186,FKL
6152047000000.0,0.9062023162841797,-0.08248995244503021,7.184480667114258,-4.628055572509766,0.7149574160575867,0.19028452,0.40408736,312.13046,-130.4202,7.316268400000001,FKL
6152063500000.0,0.9111982583999634,-0.07612749189138412,7.1721510887146,-4.668715953826904,0.7034362554550171,0.17470746,0.38942659999999996,312.19302000000005,-130.584,7.398599000000001,FKL
6152080000000.0,0.9161959886550903,-0.07315949350595474,7.158798694610596,-4.714407444000244,0.6928383708000183,0.17501289,0.38545597,312.25818,-130.76663,7.477833,FKL
6152095500000.0,0.9211966395378113,-0.07306718826293945,7.145071029663086,-4.766360282897949,0.6837981939315796,0.19792034,0.37262779999999995,312.31683,-130.94201999999999,7.5509257,FKL
6152110700000.0,0.9261926412582397,-0.07496001571416855,7.132953643798828,-4.8194260597229,0.6752886176109314,0.22174409,0.36377025,312.38443,-131.14072,7.6097364,FKL
6152125000000.0,0.9311879873275757,-0.07847601920366287,7.12320613861084,-4.871634006500244,0.6676232218742371,0.25137106,0.36926803,312.44552999999996,-131.34192,7.672333,FKL
6152139000000.0,0.9361827373504639,-0.08099670708179474,7.117071628570557,-4.922458648681641,0.6610174179077148,0.27885997,0.37048978,312.5157,-131.57376000000002,7.7230835,FKL
6152152700000.0,0.941179096698761,-0.08100375533103943,7.115229606628418,-4.971632480621338,0.6553333401679993,0.2883284,0.36743546,312.5831,-131.80191000000002,7.7745112999999995,FKL
6152166000000.0,0.9461740255355835,-0.07808098942041397,7.112869739532471,-5.016185283660889,0.6508311629295349,0.3191771,0.3753767,312.64838,-132.03624,7.831537700000001,FKL
6152178400000.0,0.9511762857437134,-0.07200860232114792,7.107802867889404,-5.054821968078613,0.646194577217102,0.30940324,0.37110063,312.7171,-132.26068,7.877743700000001,FKL
6152190400000.0,0.9561759233474731,-0.06304708123207092,7.096555233001709,-5.087634086608887,0.6425049901008606,0.29260445,0.38759398,312.78317000000004,-132.48748999999998,7.944928599999999,FKL
6152202000000.0,0.9611736536026001,-0.05131789669394493,7.075392723083496,-5.114543437957764,0.6392724514007568,0.31520647,0.40500367,312.84192,-132.7047,8.015166,FKL
6152213500000.0,0.9661712050437927,-0.03694893419742584,7.0447797775268555,-5.135839939117432,0.6364075541496277,0.2959642,0.41233405,312.91317999999995,-132.92012,8.095212,FKL
6152224500000.0,0.9711918234825134,-0.01979583501815796,7.004296779632568,-5.1514573097229,0.6348347067832947,0.2968805,0.41508293,312.97742,-133.1377,8.183612,FKL
6152235500000.0,0.976187527179718,-0.0018558584852144122,6.954647541046143,-5.165187835693359,0.6339316964149475,0.28496864,0.41935900000000004,313.04632999999995,-133.3528,8.268161,FKL
6152246000000.0,0.9811825156211853,0.01611272618174553,6.894104957580566,-5.178925037384033,0.6333698034286499,0.27977628,0.42119157,313.11334,-133.56746,8.351753,FKL
6152256000000.0,0.9861787557601929,0.032472625374794006,6.824728488922119,-5.192821502685547,0.6338633298873901,0.27855456,0.40439278,313.18585,-133.82062,8.46697,FKL
6152266000000.0,0.9911751747131348,0.045621879398822784,6.748654842376709,-5.207016944885254,0.6350467205047607,0.27122417,0.39675698,313.2625,-134.06885,8.578774000000001,FKL
6152275400000.0,0.9961721301078796,0.056471534073352814,6.666382312774658,-5.22169303894043,0.6360531449317932,0.24892759999999997,0.38423425,313.3556,-134.35832,8.68925,FKL
6152285000000.0,1.0011695623397827,0.06580185145139694,6.578376770019531,-5.236999034881592,0.6374453902244568,0.24495697,0.36865717,313.44382,-134.64719,8.795691999999999,FKL
6152293700000.0,1.0061630010604858,0.07351813465356827,6.4879536628723145,-5.2530999183654785,0.6385355591773987,0.24342979999999997,0.34666604,313.54834,-134.96255,8.886586,FKL
6152302600000.0,1.01115882396698,0.07931655645370483,6.400466442108154,-5.270414352416992,0.6394211649894714,0.24923302,0.32986724,313.6496,-135.27292,8.972197,FKL
6152311500000.0,1.0161545276641846,0.08331248164176941,6.315774440765381,-5.2888593673706055,0.6392503380775452,0.2510656,0.30421090000000006,313.76614,-135.6117,9.048914,FKL
6152320000000.0,1.0211515426635742,0.08680584281682968,6.235997676849365,-5.3082122802734375,0.6380631923675537,0.25625798,0.2837469,313.87787000000003,-135.9411,9.121053999999999,FKL
6152328300000.0,1.0262352228164673,0.09070176631212234,6.162827491760254,-5.328888893127441,0.6357673406600952,0.25809056,0.2660318,313.9846,-136.25552,9.184521,FKL
6152336700000.0,1.031227469444275,0.09555105119943619,6.097559928894043,-5.348623275756836,0.6320962905883789,0.25992316,0.24556783,314.09036000000003,-136.57712,9.235659,FKL
6152344600000.0,1.0362204313278198,0.10323226451873779,6.046165466308594,-5.365901470184326,0.6272373199462891,0.2593123,0.22602014,314.19232,-136.88487,9.280121000000001,FKL
6152352400000.0,1.041214942932129,0.11371921002864838,6.006009101867676,-5.3811445236206055,0.620976984500885,0.25534168,0.20830505,314.29004,-137.17514,9.318028,FKL
6152360300000.0,1.0462085008621216,0.12694454193115234,5.974587440490723,-5.394751071929932,0.614073634147644,0.25717425,0.19547687,314.38306,-137.45418,9.351493,FKL
6152367600000.0,1.051210641860962,0.14280420541763306,5.951465129852295,-5.406600475311279,0.6053245067596436,0.25442538,0.19211712,314.4472,-137.6873,9.397599000000001,FKL
6152375000000.0,1.0562055110931396,0.16004547476768494,5.93332576751709,-5.414653778076172,0.5949743986129761,0.24953845,0.18570304,314.5078,-137.90982,9.438630999999999,FKL
6152382300000.0,1.0612001419067383,0.17865192890167236,5.919999599456787,-5.419032096862793,0.5840039253234863,0.23457226,0.1572978,314.5482,-138.09052,9.488125,FKL
6152389700000.0,1.0661965608596802,0.198568195104599,5.911259651184082,-5.419907093048096,0.5713880658149719,0.22449298,0.15332718,314.59213,-138.25198,9.539349000000001,FKL
6152396500000.0,1.071191668510437,0.21969838440418243,5.90681791305542,-5.417501926422119,0.5577842593193054,0.23701571,0.16432275,314.62842,-138.41245,9.593574,FKL
6152403300000.0,1.076187252998352,0.24194654822349548,5.905158519744873,-5.413796901702881,0.5422847867012024,0.1966986,0.15454891,314.67154,-138.55118000000002,9.628273,FKL
6152410000000.0,1.081181287765503,0.2652251720428467,5.905803680419922,-5.409304141998291,0.5269765257835388,0.18295415,0.14508049,314.7092,-138.68913,9.671958,FKL
6152417000000.0,1.0861778259277344,0.2876497209072113,5.909149169921875,-5.4051713943481445,0.5108400583267212,0.17470746,0.1554652,314.72867,-138.7606,9.735607,FKL
6152423700000.0,1.0911747217178345,0.30862876772880554,5.915196418762207,-5.401759624481201,0.4930894076824188,0.16676621,0.15454891,314.7462,-138.82138,9.790975,FKL
6152430000000.0,1.0961698293685913,0.3282413184642792,5.923778533935547,-5.399026393890381,0.47504764795303345,0.17256944,0.14446963,314.75284,-138.87583999999998,9.863197,FKL
6152436300000.0,1.1011682748794556,0.3465556204319,5.934813022613525,-5.396944999694824,0.4561280310153961,0.18478674,0.12705997,314.7579,-138.9126,9.931902000000001,FKL
6152442600000.0,1.1061650514602661,0.3625119626522064,5.947816848754883,-5.393835544586182,0.43593788146972656,0.18539760000000002,0.10903945,314.76282000000003,-138.94104,9.997841000000001,FKL
6152449000000.0,1.1111679077148438,0.375634104013443,5.9626078605651855,-5.3889079093933105,0.41467511653900146,0.19303341,0.09315695,314.76065,-138.95883,10.063469,FKL
6152455000000.0,1.116168737411499,0.38493868708610535,5.980082988739014,-5.3832902908325195,0.39207133650779724,0.21380283,0.07727446,314.74597,-138.94586,10.123510000000001,FKL
6152461500000.0,1.1211661100387573,0.3898107409477234,6.000825881958008,-5.37770938873291,0.3683445155620575,0.23854288,0.053145275,314.72393999999997,-138.921,10.180188000000001,FKL
6152468000000.0,1.1261630058288574,0.3922285735607147,6.028320789337158,-5.37209415435791,0.34399399161338806,0.27214047,0.034208454,314.6841,-138.87634,10.236097000000001,FKL
6152474000000.0,1.131159782409668,0.3932894468307495,6.064175605773926,-5.366409778594971,0.3190529942512512,0.29046643,0.01740966,314.638,-138.81888,10.288739,FKL
6152480000000.0,1.136157512664795,0.39306002855300903,6.107989311218262,-5.360658168792725,0.29371577501296997,0.28191432,0.002443461,314.5824,-138.7402,10.322521,FKL
6152485600000.0,1.1411551237106323,0.39161399006843567,6.159298896789551,-5.354844093322754,0.26898008584976196,0.29168814,-0.0009162978999999999,314.51904,-138.65782,10.362323,FKL
6152491400000.0,1.146152377128601,0.38764819502830505,6.2199883460998535,-5.346185684204102,0.2449115365743637,0.29046643,-0.00030543262000000003,314.45772999999997,-138.56778,10.395197,FKL
6152497000000.0,1.1511528491973877,0.3798598051071167,6.29206657409668,-5.331937789916992,0.22077465057373047,0.25686884,-0.008857545999999999,314.39874,-138.471,10.420217999999998,FKL
6152503000000.0,1.156150221824646,0.36613228917121887,6.374692916870117,-5.309996604919434,0.1974032074213028,0.22052236,-0.01863139,314.31485,-138.31528,10.434786,FKL
6152508700000.0,1.1611487865447998,0.34374308586120605,6.4676408767700195,-5.2775468826293945,0.1750982403755188,0.19975294,-0.022602014,314.23477,-138.15717,10.444498,FKL
6152514400000.0,1.1661462783813477,0.3115442097187042,6.56995153427124,-5.234537124633789,0.15215890109539032,0.21197024,-0.010079277,314.13486,-137.92981,10.442785,FKL
6152520000000.0,1.1711448431015015,0.2677554786205292,6.680841445922852,-5.180513381958008,0.12855389714241028,0.14935656,-0.042455133,314.04462,-137.70206000000002,10.411265,FKL
6152526000000.0,1.1761393547058105,0.21261316537857056,6.8044915199279785,-5.111266136169434,0.1048232913017273,0.1432479,-0.073303826,313.92072,-137.39641,10.368492999999999,FKL
6152532000000.0,1.1811367273330688,0.1449306607246399,6.9520182609558105,-5.015488624572754,0.08085983991622925,0.12950343,-0.09254608,313.808,-137.08475,10.307198,FKL
6152537500000.0,1.1861331462860107,0.06634636223316193,7.11699104309082,-4.895110607147217,0.05732704699039459,0.09590584,-0.09987647,313.67575,-136.69528,10.195998,FKL
6152543300000.0,1.1911319494247437,-0.01986038312315941,7.280884742736816,-4.751501083374023,0.033257871866226196,0.03481932,-0.10781772,313.54992999999996,-136.29886000000002,10.073281,FKL
6152548500000.0,1.1961290836334229,-0.11315450072288513,7.443634033203125,-4.586669921875,0.007443822920322418,-0.025045475,-0.12705997,313.3656,-135.72536000000002,9.910112,FKL
6152554000000.0,1.20113205909729,-0.21390300989151,7.605318069458008,-4.4052629470825195,-0.020591819658875465,-0.079107046,-0.16157386,313.19167999999996,-135.14876,9.732061,FKL
6152559000000.0,1.2061430215835571,-0.3217778503894806,7.765913963317871,-4.20904016494751,-0.051072485744953156,-0.1160644,-0.21074851,312.9848,-134.45578,9.521869,FKL
6152564000000.0,1.2111403942108154,-0.43490734696388245,7.9231414794921875,-4.013724327087402,-0.0847468450665474,-0.124005646,-0.27519479999999996,312.7782,-133.74854,9.297498,FKL
6152569500000.0,1.2161388397216797,-0.5536105632781982,8.077463150024414,-3.8187472820281982,-0.121998131275177,-0.09285152,-0.35063666,312.53528,-132.9365,9.037919,FKL
6152574700000.0,1.221142053604126,-0.6699793338775635,8.226908683776855,-3.6291184425354004,-0.1627822071313858,-0.06017022599999999,-0.45478916,312.28213999999997,-132.10683,8.758498,FKL
6152580000000.0,1.226172685623169,-0.7807937860488892,8.370979309082031,-3.4465746879577637,-0.20652015507221222,-0.026572637000000003,-0.54702985,312.01662999999996,-131.26183,8.472744,FKL
6152585000000.0,1.2311712503433228,-0.8852404952049255,8.50866413116455,-3.271271228790283,-0.2534940540790558,0.0009162978999999999,-0.6273586,311.72955,-130.34756000000002,8.1318865,FKL
6152590500000.0,1.236168622970581,-0.9735016226768494,8.632373809814453,-3.1018588542938232,-0.30358025431632996,0.008552114,-0.70066243,311.43192,-129.41788,7.7769284,FKL
6152595700000.0,1.2411659955978394,-1.0468974113464355,8.742761611938477,-2.940214157104492,-0.35680824518203735,-0.006414085,-0.7339545999999999,311.1277,-128.45541,7.416423299999999,FKL
6152601000000.0,1.2461618185043335,-1.1087309122085571,8.840253829956055,-2.7967476844787598,-0.4107154607772827,-0.028405233999999998,-0.79259765,310.81476000000004,-127.48814399999999,7.0362005000000005,FKL
6152606000000.0,1.2511622905731201,-1.1594443321228027,8.925376892089844,-2.670707941055298,-0.4678701162338257,-0.03756821,-0.8176431,310.49762000000004,-126.49905,6.700228699999999,FKL
6152611400000.0,1.2561630010604858,-1.2124487161636353,8.998931884765625,-2.629847288131714,-0.5288153290748596,-0.028099801,-0.8338310999999999,310.1815,-125.50282,6.3537984000000005,FKL
6152616700000.0,1.2611706256866455,-1.2711551189422607,9.061371803283691,-2.690021276473999,-0.5903214812278748,0.09560041,-0.82253003,309.84933,-124.50876000000001,6.026683,FKL
6152622000000.0,1.2661770582199097,-1.344173789024353,9.225502967834473,-2.914886474609375,-0.6397762894630432,0.55863625,-0.7144069000000001,309.46582,-123.61943000000001,5.8009973,FKL
6152627000000.0,1.2711739540100098,-1.4317044019699097,9.50112247467041,-3.302231788635254,-0.6647676229476929,1.7440202,-0.28099802,308.93372,-122.813156,5.7860974999999994,FKL
6152632400000.0,1.2761701345443726,-1.5526363849639893,9.836060523986816,-3.796501636505127,-0.6556608080863953,3.157257,0.17592919,308.4209,-122.445625,5.812198,FKL
6152637600000.0,1.2811673879623413,-1.7099993228912354,10.215676307678223,-4.3802971839904785,-0.6187329888343811,2.2406537999999996,0.4718934,308.22986000000003,-122.19083,5.731154,FKL
6152643000000.0,1.2861648797988892,-1.6119256019592285,10.612397193908691,-4.965363502502441,-0.543633222579956,-0.5662721,0.9966267,308.46402,-122.53396599999999,5.6006784000000005,FKL
6152648000000.0,1.2911628484725952,-1.2003772258758545,11.019186019897461,-5.53117561340332,-0.3435865640640259,-2.2018638,1.9691241000000002,308.74463,-123.518295,5.693687000000001,FKL
6152653400000.0,1.2961636781692505,-0.936485230922699,11.21478271484375,-5.604474067687988,-0.04296154901385307,-2.053118,1.2470814,309.22542999999996,-124.72391999999999,5.205154,FKL
6152658600000.0,1.3011691570281982,-0.9316380023956299,11.150520324707031,-5.082447052001953,0.17801418900489807,-1.8478674,0.4288274,310.18204,-125.672905,4.711521,FKL
6152664000000.0,1.3061610460281372,-1.073995590209961,11.054794311523438,-4.516419410705566,0.23786883056163788,-2.0100522,-0.017715093,310.6694,-126.65451000000002,5.1533504,FKL
6152669000000.0,1.3111540079116821,-1.3274695873260498,11.01523208618164,-4.117960453033447,0.16794469952583313,-1.5402966999999999,-0.4914411,310.81952,-127.32999,5.469367500000001,FKL
6152674300000.0,1.316149353981018,-1.6867778301239014,11.029115676879883,-3.878880739212036,0.024755166843533516,-0.29901853,-1.0732902,310.59125,-126.56983999999999,5.215461,FKL
6152679600000.0,1.3211421966552734,-2.144148111343384,11.092679977416992,-3.7882184982299805,-0.1472158432006836,0.76083267,-1.5372424,310.2504,-125.34386,4.923883,FKL
6152685000000.0,1.3261349201202393,-2.5381968021392822,11.18780517578125,-3.8824284076690674,-0.3299780786037445,1.2996159,-1.8423696,309.68494,-123.78531000000001,4.646383,FKL
6152690000000.0,1.3311322927474976,-2.8343355655670166,11.309685707092285,-4.165218353271484,-0.49868690967559814,1.5097535,-1.9825631000000001,308.91112999999996,-122.15708000000001,4.4052024,FKL
6152695300000.0,1.3361258506774902,-2.9154810905456543,11.460467338562012,-4.505801200866699,-0.6360722184181213,1.4947872,-1.9892827000000002,308.38242,-120.94643,3.3996177000000003,FKL
6152700600000.0,1.341120719909668,-2.769918203353882,11.64000129699707,-4.884719371795654,-0.7530977725982666,1.1652255,-1.9556851000000002,307.8663,-119.75376999999999,2.3710544,FKL
6152706000000.0,1.346116065979004,-2.5145163536071777,11.765965461730957,-5.26621150970459,-0.8381358981132507,0.45845437,-1.9743165,307.54677999999996,-119.188034,1.4610075,FKL
6152711000000.0,1.3511122465133667,-2.1995792388916016,11.806544303894043,-5.6357927322387695,-0.8967490792274475,-0.3323107,-1.9074267,307.34122,-118.70746000000001,0.5526939000000001,FKL
6152716300000.0,1.356106162071228,-1.877364993095398,11.707590103149414,-5.989733695983887,-0.9358147978782654,-0.8191703,-1.6771306000000001,307.1643,-118.45538,0.30732578,FKL
6152721500000.0,1.3611029386520386,-1.5636260509490967,11.454392433166504,-6.327545166015625,-0.9621857404708862,-0.9370673,-1.382388,307.1098,-118.29216000000001,0.042743325,FKL
6152727000000.0,1.3661072254180908,-1.2894272804260254,11.091440200805664,-6.585142612457275,-0.9835377335548401,-0.87017757,-1.1426234,307.15005,-118.37031599999999,0.059660005999999995,FKL
6152732000000.0,1.3711018562316895,-1.0643730163574219,10.648359298706055,-6.743713855743408,-1.0032634735107422,-0.65057147,-1.0097603000000002,307.20264,-118.47849,0.12046583,FKL
6152737000000.0,1.376096248626709,-0.8918847441673279,10.19852352142334,-6.841017723083496,-1.0300766229629517,-0.48991394,-0.96669424,307.33237,-118.72386000000002,0.17721806,FKL
6152742500000.0,1.3810919523239136,-0.7708923816680908,9.76429557800293,-6.890832424163818,-1.0722590684890747,-0.49021935,-1.0228939000000001,307.44696,-118.91913999999998,0.24806641,FKL
6152748000000.0,1.3860868215560913,-0.6732971668243408,9.354561805725098,-6.930324077606201,-1.128503441810608,-0.5458081,-1.0992520000000001,307.52887000000004,-118.94951,0.17755955,FKL
6152752500000.0,1.3910824060440063,-0.5827742218971252,8.973880767822266,-6.980809211730957,-1.1935677528381348,-0.5348125,-1.1633928999999998,307.58542,-118.92045,0.11041689999999998,FKL
6152757700000.0,1.3960797786712646,-0.4809746742248535,8.629600524902344,-7.041555881500244,-1.26195228099823,-0.46639562,-1.1902708999999998,307.6114,-118.79061999999999,-0.02620402,FKL
6152762400000.0,1.4010756015777588,-0.3615168333053589,8.3231201171875,-7.111774444580078,-1.328596830368042,-0.42332962,-1.1948524999999999,307.63437000000005,-118.633606,-0.16940087,FKL
6152767700000.0,1.4060713052749634,-0.22783499956130981,8.04096508026123,-7.17837381362915,-1.3907618522644043,-0.40286562,-1.1808025,307.64078,-118.490845,-0.30281779999999997,FKL
6152772400000.0,1.4110695123672485,-0.08134164661169052,7.778119087219238,-7.237389087677002,-1.4469119310379028,-0.4541782999999999,-1.1856893999999998,307.65103,-118.35687,-0.44045252,FKL
6152777600000.0,1.416067123413086,0.06845133006572723,7.5340681076049805,-7.281311988830566,-1.497872233390808,-0.591623,-1.2018773999999999,307.67287999999996,-118.22874499999999,-0.5295331999999999,FKL
6152783000000.0,1.421064853668213,0.21544933319091797,7.308210849761963,-7.305418968200684,-1.5435611009597778,-0.77121735,-1.2189816,307.7174,-118.1246,-0.628156,FKL
6152788000000.0,1.4261243343353271,0.34698745608329773,7.109682083129883,-7.315732479095459,-1.5842758417129517,-0.9306532,-1.2247848999999997,307.78833,-117.99405,-0.7124958,FKL
6152793000000.0,1.4311190843582153,0.4641958177089691,6.932905673980713,-7.319332599639893,-1.6212581396102905,-0.9996809999999999,-1.2232577,307.87897000000004,-117.879456,-0.80662245,FKL
6152797600000.0,1.4361138343811035,0.5652924180030823,6.779459476470947,-7.3224992752075195,-1.653388500213623,-1.0659598,-1.221425,307.99725,-117.73772,-0.91363114,FKL
6152803000000.0,1.4411087036132812,0.6509616374969482,6.647834777832031,-7.32884407043457,-1.6821787357330322,-1.0622946000000002,-1.2140946000000001,308.1145,-117.60515,-1.0137553,FKL
6152807500000.0,1.4461032152175903,0.721416711807251,6.538009166717529,-7.338230133056641,-1.7070093154907227,-1.0317514,-1.1884383,308.2281,-117.48443,-1.1070069,FKL
6152813000000.0,1.4510986804962158,0.7771427035331726,6.449400901794434,-7.35053014755249,-1.728286623954773,-0.9825767,-1.1756102,308.33347000000003,-117.3782,-1.1946181999999999,FKL
6152817500000.0,1.4560943841934204,0.8179963827133179,6.3826189041137695,-7.362425327301025,-1.745060682296753,-0.89980453,-1.1429288,308.41967999999997,-117.31298999999999,-1.2572297,FKL
6152822700000.0,1.4610912799835205,0.8440942764282227,6.337739944458008,-7.371851921081543,-1.7567249536514282,-0.8069529999999999,-1.1178834,308.49017000000003,-117.26906000000001,-1.3082947,FKL
6152827400000.0,1.4660885334014893,0.858162522315979,6.315487861633301,-7.375845909118652,-1.7634377479553223,-0.72265357,-1.0873401000000003,308.52847,-117.270096,-1.3330587999999999,FKL
6152832700000.0,1.4710849523544312,0.8618964552879333,6.315608501434326,-7.3730692863464355,-1.7666025161743164,-0.63346726,-1.0528263,308.54605,-117.288925,-1.3375986999999998,FKL
6152837400000.0,1.4760814905166626,0.856014609336853,6.342137336730957,-7.362298965454102,-1.7676453590393066,-0.54244834,-1.0225884,308.5292,-117.34024,-1.3085219,FKL
6152842600000.0,1.4810786247253418,0.8411242961883545,6.396729469299316,-7.3430328369140625,-1.7666305303573608,-0.44593164,-0.98837996,308.49594,-117.406296,-1.260526,FKL
6152848000000.0,1.486075520515442,0.8153660893440247,6.478620529174805,-7.310314655303955,-1.7652790546417236,-0.37720928,-0.9569204,308.4283,-117.482666,-1.1591007,FKL
6152852600000.0,1.4910725355148315,0.7777360081672668,6.586966514587402,-7.261256217956543,-1.7646344900131226,-0.3368922,-0.9269879999999999,308.3532,-117.557045,-1.0489603,FKL
6152858000000.0,1.4960688352584839,0.7234675288200378,6.714645862579346,-7.188660144805908,-1.7664170265197754,-0.30665436,-0.9086620999999999,308.29053,-117.46038999999999,-1.0685579,FKL
6152862600000.0,1.5010707378387451,0.6492409110069275,6.857366561889648,-7.087541103363037,-1.7713762521743774,-0.312763,-0.89369583,308.23233,-117.35637,-1.0810456,FKL
6152868000000.0,1.5060718059539795,0.5552438497543335,7.008755683898926,-6.960702419281006,-1.780368447303772,-0.37140608,-0.88453287,308.19385,-117.08478999999998,-1.1999847,FKL
6152872500000.0,1.5110751390457153,0.441072016954422,7.164165019989014,-6.809647083282471,-1.7945622205734253,-0.43585235,-0.8897252,308.15945,-116.79477,-1.3165288999999998,FKL
6152878000000.0,1.5160802602767944,0.3081127107143402,7.3180036544799805,-6.640703201293945,-1.814836025238037,-0.52015173,-0.8915578000000002,308.1412,-116.329926,-1.5479976999999998,FKL
6152882500000.0,1.521081566810608,0.1581534445285797,7.465118408203125,-6.460117816925049,-1.8405240774154663,-0.61086524,-0.89888823,308.1415,-115.84851,-1.7848517,FKL
6152887700000.0,1.5260801315307617,-0.005646759644150734,7.603451251983643,-6.272995948791504,-1.870833158493042,-0.6951646,-0.9306532,308.15738,-115.23196999999999,-2.1283493,FKL
6152892400000.0,1.5310801267623901,-0.1799359768629074,7.730366230010986,-6.085225582122803,-1.9045078754425049,-0.72143185,-0.95081174,308.18532999999996,-114.60315,-2.4668186000000003,FKL
6152897700000.0,1.5360774993896484,-0.3591136336326599,7.844140529632568,-5.900557994842529,-1.9403433799743652,-0.79168135,-0.9621128000000001,308.24323,-113.905495,-2.9051592,FKL
6152903000000.0,1.541077971458435,-0.5362115502357483,7.941806793212891,-5.723928928375244,-1.9764503240585327,-0.84665924,-1.0012082,308.30267000000003,-113.21501,-3.3475983,FKL
6152907700000.0,1.5460776090621948,-0.707909107208252,8.022968292236328,-5.558395862579346,-2.013497829437256,-0.8903360999999999,-1.0375546,308.38342,-112.50371000000001,-3.8555691,FKL
6152913000000.0,1.5511137247085571,-0.8696138262748718,8.084637641906738,-5.409268379211426,-2.0513381958007812,-0.9263771000000001,-1.0680978,308.47772000000003,-111.811356,-4.3666077,FKL
6152917600000.0,1.556110143661499,-1.020584225654602,8.131444931030273,-5.274780750274658,-2.088529109954834,-0.97341377,-1.106277,308.5944,-111.15118000000001,-4.913737,FKL
6152923000000.0,1.5611129999160767,-1.1582725048065186,8.161714553833008,-5.157219409942627,-2.1256425380706787,-1.039998,-1.1591167,308.72604,-110.51021599999999,-5.466692,FKL
6152927600000.0,1.5661132335662842,-1.2820982933044434,8.178112030029297,-5.055968284606934,-2.1621453762054443,-1.0965031,-1.2049317,308.87613,-109.93413999999999,-6.0239677,FKL
6152933000000.0,1.5711140632629395,-1.3849769830703735,8.188348770141602,-4.973454475402832,-2.197223663330078,-1.1545353,-1.2324207,309.04517000000004,-109.39218000000001,-6.5843453,FKL
6152937500000.0,1.5761158466339111,-1.466930866241455,8.192675590515137,-4.908823490142822,-2.231262683868408,-1.2046263000000001,-1.251052,309.2385,-108.9208,-7.1328435,FKL
6152943000000.0,1.5811160802841187,-1.522193193435669,8.190994262695312,-4.861819267272949,-2.2643015384674072,-1.2522738000000002,-1.2559388999999999,309.44827000000004,-108.485634,-7.6768446,FKL
6152947500000.0,1.586114525794983,-1.5523141622543335,8.183032989501953,-4.831732273101807,-2.296100616455078,-1.2993103000000001,-1.2586879,309.6781,-108.11243400000001,-8.163229,FKL
6152953000000.0,1.5911141633987427,-1.5588501691818237,8.166460037231445,-4.818878650665283,-2.3265793323516846,-1.3475688,-1.2632693000000002,309.92157000000003,-107.77027,-8.642228,FKL
6152957500000.0,1.5961140394210815,-1.543174386024475,8.14193058013916,-4.821917533874512,-2.354717493057251,-1.3539828,-1.2586879,310.17212,-107.477516,-9.010425999999999,FKL
6152962700000.0,1.601117730140686,-1.5065873861312866,8.111371994018555,-4.83658504486084,-2.3803958892822266,-1.35551,-1.2675453,310.43115,-107.21185,-9.37528,FKL
6152968000000.0,1.6061172485351562,-1.4510118961334229,8.074938774108887,-4.860766410827637,-2.4033873081207275,-1.3338243,-1.2742649,310.67596000000003,-107.00209,-9.57135,FKL
6152972700000.0,1.6111196279525757,-1.3783646821975708,8.029916763305664,-4.8854570388793945,-2.424518585205078,-1.3038919,-1.282817,310.91162,-106.80856999999999,-9.765132000000001,FKL
6152978000000.0,1.6161209344863892,-1.2902414798736572,7.9766364097595215,-4.91003942489624,-2.4433844089508057,-1.2638801000000002,-1.3063353000000002,311.15607,-106.619225,-9.982851,FKL
6152983000000.0,1.6211596727371216,-1.1881251335144043,7.911594390869141,-4.929807186126709,-2.461668014526367,-1.2235631,-1.3261883999999997,311.38647000000003,-106.44057,-10.193683,FKL
6152988400000.0,1.6262409687042236,-1.077330231666565,7.836093902587891,-4.941468715667725,-2.4787654876708984,-1.1859948999999999,-1.3610078,311.6156,-106.2571,-10.405617999999999,FKL
6152993000000.0,1.6312330961227417,-0.9691931009292603,7.757504940032959,-4.944932460784912,-2.4956843852996826,-1.1685851999999999,-1.3888022,311.8346,-106.08429,-10.61315,FKL
6152998000000.0,1.636224389076233,-0.8620792627334595,7.672721862792969,-4.93715238571167,-2.5121898651123047,-1.1252137,-1.4150693,312.06665,-105.89528999999999,-10.842578,FKL
6153002500000.0,1.6412205696105957,-0.7643184661865234,7.576409816741943,-4.907044410705566,-2.5284504890441895,-1.0812315000000001,-1.4544701999999998,312.28893999999997,-105.72735,-11.074826,FKL
6153008000000.0,1.6462128162384033,-0.6766355037689209,7.4688334465026855,-4.8547139167785645,-2.545358419418335,-1.0424415,-1.4902058,312.49698,-105.575096,-11.303780999999999,FKL
6153013000000.0,1.6512116193771362,-0.6018408536911011,7.353137016296387,-4.775595188140869,-2.5633022785186768,-1.0210613000000002,-1.5231925,312.6961,-105.41407,-11.5279875,FKL
6153018000000.0,1.656203031539917,-0.5391753315925598,7.230774879455566,-4.672069072723389,-2.5826501846313477,-1.0259482,-1.5436565,312.88922,-105.26867,-11.75038,FKL
6153023000000.0,1.6612029075622559,-0.48796769976615906,7.10072660446167,-4.548275470733643,-2.603017807006836,-1.0540479999999999,-1.5564847,313.09836,-105.12116,-12.017096,FKL
6153027700000.0,1.666195034980774,-0.44707855582237244,6.964143753051758,-4.407331466674805,-2.6233906745910645,-1.0809261000000001,-1.5653422,313.30773999999997,-104.99696000000002,-12.279760000000001,FKL
6153033000000.0,1.671191692352295,-0.40751105546951294,6.823510646820068,-4.225551605224609,-2.642547607421875,-1.0965031,-1.5512923,313.52896,-104.86988999999998,-12.559536999999999,FKL
6153037700000.0,1.6761856079101562,-0.3678342401981354,6.679775238037109,-4.002692699432373,-2.6602115631103516,-1.1068878,-1.5213598999999998,313.7568,-104.76872,-12.828205,FKL
6153043000000.0,1.6811822652816772,-0.3192012310028076,6.54091739654541,-3.756697177886963,-2.6758272647857666,-1.1600331,-1.4785993,313.99356,-104.67215,-13.077128,FKL
6153047600000.0,1.6861779689788818,-0.26029661297798157,6.408488750457764,-3.492987871170044,-2.689210891723633,-1.2095132,-1.4220943000000001,314.23193,-104.59495,-13.303049,FKL
6153053000000.0,1.691203236579895,-0.19613665342330933,6.287081241607666,-3.206003189086914,-2.700432538986206,-1.2776246,-1.351234,314.46988,-104.41763,-13.412517999999999,FKL
6153057600000.0,1.6961979866027832,-0.1302197426557541,6.176644802093506,-2.903593063354492,-2.710193395614624,-1.3448198,-1.2889256000000002,314.71518,-104.25793,-13.499087,FKL
6153063000000.0,1.7014613151550293,-0.056153248995542526,6.082235336303711,-2.5480849742889404,-2.7167809009552,-1.459357,-1.133155,315.4113,-103.88675,-13.592018,FKL
6153068000000.0,1.706713080406189,-0.003800538368523121,5.99337100982666,-2.1775126457214355,-2.722008228302002,-1.4807373,-1.0436633,315.7952,-103.67921,-13.554839999999999,FKL
6153073300000.0,1.7119516134262085,0.01797812059521675,5.907780170440674,-1.7932995557785034,-2.7261593341827393,-1.4587462,-0.97524637,316.16553,-103.51297,-13.485578,FKL
6153078600000.0,1.7171753644943237,0.0010082650696858764,5.819604396820068,-1.4020764827728271,-2.7315053939819336,-1.3921618,-0.9315694999999999,316.56052,-76.55317,-13.443137,FKL
6153084000000.0,1.7224056720733643,-0.06264376640319824,5.724421977996826,-1.0060008764266968,-2.739431381225586,-1.2861768,-0.9257663,316.9254,-76.543625,-13.375820000000001,FKL
6153089000000.0,1.7276018857955933,-0.17083558440208435,5.618536472320557,-0.6132526397705078,-2.750727653503418,-1.2189816,-0.9300423000000001,317.32425,-76.28474,-13.424628,FKL
6153094300000.0,1.7327892780303955,-0.33411213755607605,5.49428129196167,-0.22697283327579498,-2.762300729751587,-1.0641272,-0.95233893,317.66425,-75.92034,-13.463823999999999,FKL
6153099500000.0,1.7379661798477173,-0.5417332649230957,5.355540752410889,0.14922210574150085,-2.7739570140838623,-0.9379835999999999,-1.0036516,318.0248,-75.23321,-13.685754999999999,FKL
6153105000000.0,1.7431330680847168,-0.7857033014297485,5.20517635345459,0.5129234790802002,-2.7829575538635254,-0.8530733,-1.0461067,318.35693,-74.46199,-13.899948,FKL
6153110000000.0,1.7482929229736328,-1.051081657409668,5.043426990509033,0.86408531665802,-2.786855459213257,-0.8170323,-1.0528263,318.6936,-73.40699000000001,-14.327352,FKL
6153115300000.0,1.7534432411193848,-1.3278907537460327,4.870996952056885,1.202805519104004,-2.784327745437622,-0.7733554,-1.0369438,319.01294,-72.31334,-14.749544,FKL
6153120500000.0,1.7585893869400024,-1.6049740314483643,4.694216251373291,1.5350818634033203,-2.775423765182495,-0.7623598,-1.0238101000000002,319.35602,-71.038475,-15.340981,FKL
6153126000000.0,1.7637243270874023,-1.8717097043991089,4.519344806671143,1.8657792806625366,-2.7607438564300537,-0.79259765,-0.99296147,319.70795,-69.77739,-15.906754000000001,FKL
6153131000000.0,1.7688487768173218,-2.1256890296936035,4.350831031799316,2.197606325149536,-2.740351676940918,-0.8695666999999999,-0.93431836,320.09204,-68.43294,-16.556015,FKL
6153136000000.0,1.7739683389663696,-2.356710910797119,4.20504903793335,2.5405256748199463,-2.7133796215057373,-0.9492845999999999,-0.84207773,320.49255,-67.13053000000001,-17.166616,FKL
6153141500000.0,1.7790812253952026,-2.56553316116333,4.081052303314209,2.895020008087158,-2.680389881134033,-1.0213667,-0.73945236,320.93422999999996,-65.80424000000001,-17.75282,FKL
6153146700000.0,1.784188151359558,-2.7512223720550537,3.9791359901428223,3.265568256378174,-2.641996145248413,-1.0433578000000001,-0.64873886,321.3868,-64.529175,-18.294903,FKL
6153152000000.0,1.7892884016036987,-2.9174046516418457,3.897386074066162,3.650120258331299,-2.601383924484253,-1.0555751,-0.5635232,321.87134,-63.275383,-18.721365,FKL
6153157000000.0,1.79439377784729,-3.0708041191101074,3.833604574203491,4.046637058258057,-2.560445547103882,-1.0955868,-0.4859433,322.3659,-62.068233,-19.100471,FKL
6153162500000.0,1.7994873523712158,-3.2166733741760254,3.787015676498413,4.447920799255371,-2.5185799598693848,-1.1814133999999998,-0.37965274,322.8826,-60.88496,-19.343418,FKL
6153167700000.0,1.8045777082443237,-3.3668277263641357,3.759746551513672,4.842380523681641,-2.4744529724121094,-1.3100005,-0.28038713,323.41174,-59.742073,-19.538269,FKL
6153173000000.0,1.8096650838851929,-3.521404504776001,3.7513179779052734,5.229491233825684,-2.427175998687744,-1.3429872999999999,-0.16065755,323.93197999999995,-58.61114,-19.629957,FKL
6153177700000.0,1.8147436380386353,-3.69122314453125,3.7773969173431396,5.5815229415893555,-2.3781211376190186,-1.205848,-0.0711658,324.42273,-57.520424,-19.691917,FKL
6153183000000.0,1.8198206424713135,-3.875781774520874,3.8365578651428223,5.898834705352783,-2.3300528526306152,-1.0189233,-0.043676864,324.9032,-56.436657,-19.744867000000003,FKL
6153188000000.0,1.8249837160110474,-4.077334880828857,3.9308478832244873,6.159972667694092,-2.2859787940979004,-0.79412484,-0.04184427,325.31696,-55.388940000000005,-19.790447,FKL
6153193000000.0,1.8300615549087524,-4.282140731811523,4.040113925933838,6.386264324188232,-2.247753143310547,-0.52626044,-0.081855945,325.6606,-54.405483,-19.926067,FKL
6153197600000.0,1.8351197242736816,-4.48830509185791,4.161846160888672,6.572099685668945,-2.2158780097961426,-0.40683624,-0.11209377,325.97513,-53.43806,-20.056456,FKL
6153203000000.0,1.8402223587036133,-4.698017120361328,4.297473907470703,6.714700698852539,-2.1877689361572266,-0.18509217,-0.21777347,326.20428,-52.552443999999994,-20.333902,FKL
6153207500000.0,1.8452690839767456,-4.903033256530762,4.429206371307373,6.836186408996582,-2.163566827774048,-0.07971791,-0.26816985,326.4252,-51.674865999999994,-20.591904,FKL
6153213000000.0,1.8503139019012451,-5.105133533477783,4.558038234710693,6.934491157531738,-2.143063545227051,-0.12034045,-0.34177909999999995,326.64456,-50.86763,-20.933858999999998,FKL
6153218000000.0,1.8553599119186401,-5.284235000610352,4.673455238342285,7.010626316070557,-2.1228554248809814,-0.17379116,-0.3930918,326.84283,-50.081984999999996,-21.280936999999998,FKL
6153223000000.0,1.8603992462158203,-5.435162544250488,4.772802352905273,7.066252708435059,-2.102731466293335,-0.22937989,-0.39614612,327.0539,-49.30441,-21.611809,FKL
6153228000000.0,1.8654385805130005,-5.54500150680542,4.8503899574279785,7.104805946350098,-2.0819382667541504,-0.27488935,-0.39522982,327.2886,-48.576637,-21.975996,FKL
6153232700000.0,1.87047278881073,-5.609714508056641,4.90459680557251,7.128820419311523,-2.061244010925293,-0.3359759,-0.37079520000000005,327.5343,-47.87292,-22.308434,FKL
6153238000000.0,1.8755120038986206,-5.635460376739502,4.939744472503662,7.144876956939697,-2.0396177768707275,-0.410196,-0.35094208,327.78854,-47.224995,-22.586597,FKL
6153242700000.0,1.88054358959198,-5.627791404724121,4.958940029144287,7.155951499938965,-2.0175490379333496,-0.5002986,-0.3286455,328.05322,-46.59961,-22.83438,FKL
6153248000000.0,1.885574221611023,-5.590856075286865,4.963195323944092,7.170013904571533,-1.9946216344833374,-0.57543504,-0.30207285,328.3119,-46.021736,-22.971903,FKL
6153252600000.0,1.8906035423278809,-5.527829647064209,4.953580379486084,7.190792083740234,-1.9711092710494995,-0.68111473,-0.26939157,328.5902,-45.46626,-23.075449,FKL
6153258000000.0,1.8956297636032104,-5.442514896392822,4.931603908538818,7.224653244018555,-1.9474338293075562,-0.7892378999999999,-0.2312125,328.86642,-44.940135999999995,-23.070875,FKL
6153262600000.0,1.9006562232971191,-5.336852073669434,4.898097515106201,7.274237632751465,-1.923620343208313,-0.9062186,-0.19792034,329.1591,-44.4354,-23.035751,FKL
6153268000000.0,1.9056804180145264,-5.216155052185059,4.843197345733643,7.345166206359863,-1.9006364345550537,-1.0036516,-0.16676621,329.45592999999997,-43.926525,-22.895854999999997,FKL
6153273000000.0,1.9107381105422974,-5.080758571624756,4.758839130401611,7.443326473236084,-1.8786983489990234,-1.0870347,-0.15149458,329.76614,-43.43241,-22.731054,FKL
6153278000000.0,1.9157570600509644,-4.944592475891113,4.660782337188721,7.545212268829346,-1.8574899435043335,-1.1233811000000002,-0.15454891,330.0755,-42.907555,-22.471685,FKL
6153282500000.0,1.9207782745361328,-4.811713695526123,4.5510149002075195,7.642462253570557,-1.837541937828064,-1.1206323,-0.17440203,330.38614,-42.386340000000004,-22.203348000000002,FKL
6153288000000.0,1.925797939300537,-4.684102535247803,4.430090427398682,7.729160308837891,-1.8192918300628662,-1.1044444,-0.22174409,330.7118,-41.753116999999996,-21.874185999999998,FKL
6153292500000.0,1.9308143854141235,-4.562796592712402,4.298524379730225,7.8020758628845215,-1.8030072450637817,-1.0445796,-0.24709499,331.01602,-41.123627,-21.552595,FKL
6153297700000.0,1.9358325004577637,-4.444354057312012,4.158804416656494,7.859161853790283,-1.7880789041519165,-0.9260716999999998,-0.31184670000000003,331.32526,-40.4431,-21.265495,FKL
6153303000000.0,1.9408495426177979,-4.326300144195557,4.013202667236328,7.899384021759033,-1.7746460437774658,-0.8081746999999999,-0.3866777,331.62032999999997,-39.759243,-20.995716,FKL
6153307700000.0,1.9458693265914917,-4.206478118896484,3.8647286891937256,7.922160625457764,-1.7631009817123413,-0.7021896,-0.4569272,331.91354,-39.036396,-20.781597,FKL
6153313000000.0,1.9508873224258423,-4.083182334899902,3.716439723968506,7.927468776702881,-1.7523014545440674,-0.58123827,-0.51893,332.18737999999996,-38.314877,-20.60515,FKL
6153317600000.0,1.9559003114700317,-3.955949068069458,3.5697669982910156,7.920525074005127,-1.74225652217865,-0.43157628,-0.5516113,332.44406000000004,-37.580967,-20.468647,FKL
6153323000000.0,1.9609181880950928,-3.824066638946533,3.4253289699554443,7.904382228851318,-1.7329096794128418,-0.28099802,-0.5861251999999999,332.6868,-36.847167999999996,-20.366726,FKL
6153327600000.0,1.965932011604309,-3.688690423965454,3.2836146354675293,7.884693622589111,-1.7236377000808716,-0.1386664,-0.605062,332.90192,-36.132965000000006,-20.287167,FKL
6153333000000.0,1.9709439277648926,-3.550227403640747,3.144678831100464,7.864295482635498,-1.7149738073349,-0.032986722999999996,-0.61361414,333.0985,-35.421009999999995,-20.233055,FKL
6153337600000.0,1.9759544134140015,-3.4149844646453857,3.005636692047119,7.846416473388672,-1.7057623863220215,0.056505035999999995,-0.61819565,333.2749,-34.729896999999994,-20.18352,FKL
6153343000000.0,1.980998158454895,-3.2866876125335693,2.863546371459961,7.833412170410156,-1.6961629390716553,0.13988814,-0.6160576,333.43225,-34.045937,-20.152557,FKL
6153347500000.0,1.9860061407089233,-3.166468381881714,2.721686601638794,7.825525283813477,-1.6846985816955566,0.20677789,-0.6215554,333.57727,-33.376194,-20.106983,FKL
6153353000000.0,1.9910125732421875,-3.055929660797119,2.580021381378174,7.824878692626953,-1.6719244718551636,0.23640485,-0.6432411,333.7171,-32.715557000000004,-20.069939,FKL
6153357500000.0,1.9960181713104248,-2.959582567214966,2.438581943511963,7.835826873779297,-1.6569663286209106,0.26022860000000003,-0.65209866,333.8597,-32.0373,-20.045645,FKL
6153362700000.0,2.001030445098877,-2.881267786026001,2.2971997261047363,7.862184524536133,-1.6404614448547363,0.2761111,-0.6737844,334.0073,-31.370958,-20.027404999999998,FKL
6153368000000.0,2.0060367584228516,-2.8220272064208984,2.1582889556884766,7.9057698249816895,-1.6228339672088623,0.2883284,-0.711658,334.1699,-30.684652000000003,-20.023144,FKL
6153372700000.0,2.0110435485839844,-2.7835991382598877,2.0235021114349365,7.9692277908325195,-1.6049251556396484,0.2742785,-0.74464476,334.3386,-30.013645,-20.014060999999998,FKL
6153378000000.0,2.0160484313964844,-2.7637767791748047,1.8967905044555664,8.052566528320312,-1.5880032777786255,0.23182335,-0.77671516,334.54166000000004,-29.287256,-20.036106,FKL
6153382700000.0,2.0210540294647217,-2.7607383728027344,1.7821588516235352,8.156323432922363,-1.5722111463546753,0.17073683,-0.79351395,334.7543,-28.575096000000002,-20.0473,FKL
6153388000000.0,2.026167631149292,-2.7762086391448975,1.6895025968551636,8.291436195373535,-1.55888831615448,0.124005646,-0.8029824000000001,335.00165,-27.803814000000003,-20.09026,FKL
6153392600000.0,2.03116512298584,-2.797567844390869,1.610540747642517,8.435256004333496,-1.5491403341293335,0.12186762,-0.79626286,335.25057999999996,-27.038942,-20.12347,FKL
6153398000000.0,2.036163330078125,-2.83054256439209,1.552097201347351,8.60487174987793,-1.541718602180481,0.15607607,-0.7696901999999999,335.50699999999995,-26.259078999999996,-20.17021,FKL
6153402600000.0,2.0411620140075684,-2.8763210773468018,1.5149697065353394,8.807831764221191,-1.5388431549072266,0.21655174,-0.7104363,335.7471,-25.47423,-20.212284,FKL
6153408000000.0,2.046158790588379,-2.9381048679351807,1.4994990825653076,9.046951293945312,-1.5420783758163452,0.24648413,-0.6478225999999999,335.98856,-24.691921,-20.247055,FKL
6153413000000.0,2.051178455352783,-3.022242307662964,1.5085893869400024,9.331440925598145,-1.550691843032837,0.20708331,-0.56199604,336.2052,-23.91893,-20.264193,FKL
6153418000000.0,2.0561752319335938,-3.13004732131958,1.5364996194839478,9.65322494506836,-1.5624109506607056,0.0888809,-0.45814893,336.40722999999997,-23.1524,-20.245222000000002,FKL
6153422500000.0,2.061173915863037,-3.2716612815856934,1.5830823183059692,10.01987075805664,-1.5744496583938599,-0.09590584,-0.33322698,336.58727999999996,-22.404896,-20.182968,FKL
6153428000000.0,2.066169500350952,-3.4503962993621826,1.6433931589126587,10.414670944213867,-1.5845770835876465,-0.3371976,-0.22296582,336.76288,-21.678593,-20.070938,FKL
6153433000000.0,2.0711679458618164,-3.6742520332336426,1.7115603685379028,10.81693172454834,-1.589281678199768,-0.57848936,-0.18692477,336.93737999999996,-20.99502,-19.905293,FKL
6153437700000.0,2.0761616230010986,-3.9376704692840576,1.7832177877426147,11.215888023376465,-1.587175726890564,-0.700357,-0.20952678,337.1171,-20.33922,-19.754404,FKL
6153443000000.0,2.0811607837677,-4.233662128448486,1.8435122966766357,11.573105812072754,-1.577580451965332,-0.67073005,-0.27947086,337.29965,-19.736397,-19.584303,FKL
6153447700000.0,2.086156129837036,-4.547734260559082,1.8882992267608643,11.883692741394043,-1.560357928276062,-0.41477749999999997,-0.3622431,337.5193,-19.171485999999998,-19.592688,FKL
6153453000000.0,2.091154098510742,-4.84971284866333,1.9046388864517212,12.12844467163086,-1.5358331203460693,-0.07147124,-0.34941490000000003,337.70996,-18.670476999999998,-19.625529999999998,FKL
6153457600000.0,2.0961506366729736,-5.137048244476318,1.8949280977249146,12.312200546264648,-1.5047045946121216,0.2321288,-0.30329459999999997,337.92816,-18.20576,-19.860176,FKL
6153463000000.0,2.10115385055542,-5.402300834655762,1.861073613166809,12.438291549682617,-1.468430995941162,0.46670106,-0.31856623,338.12628,-17.789282,-20.158016,FKL
6153467600000.0,2.1061501502990723,-5.644711017608643,1.8078992366790771,12.511566162109375,-1.4273191690444946,0.6478225999999999,-0.31337386,338.30414,-17.397041,-20.567179,FKL
6153473000000.0,2.1111507415771484,-5.847660541534424,1.7537305355072021,12.5288724899292,-1.3815292119979858,0.7641924,-0.28496864,338.46072000000004,-17.05266,-21.005772,FKL
6153477600000.0,2.1161506175994873,-6.013375282287598,1.699459195137024,12.494050025939941,-1.330447793006897,0.8378017,-0.22082779,338.61242999999996,-16.72618,-21.500538,FKL
6153483000000.0,2.12115478515625,-6.14028787612915,1.6522140502929688,12.408635139465332,-1.2721107006072998,0.8561276,-0.1423316,338.74602999999996,-16.458294,-21.994926,FKL
6153487500000.0,2.126150608062744,-6.2317423820495605,1.6115094423294067,12.27800178527832,-1.2056348323822021,0.8387180000000001,-0.10629055,338.86166000000003,-16.272667000000002,-22.471464,FKL
6153493000000.0,2.1311490535736084,-6.287485122680664,1.5780712366104126,12.106162071228027,-1.1366139650344849,0.79779,-0.041233405,338.94788,-16.1264,-22.928686,FKL
6153498000000.0,2.1361496448516846,-6.3093953132629395,1.5518300533294678,11.89586067199707,-1.057875156402588,0.7312057,0.02076942,339.01715,-16.122997,-23.343523,FKL
6153502700000.0,2.1411499977111816,-6.298962116241455,1.5363655090332031,11.655960083007812,-0.9676737189292908,0.6478225999999999,0.11056661,339.06628,-16.171152,-23.729673000000002,FKL
6153508000000.0,2.1461541652679443,-6.258209228515625,1.5309408903121948,11.388160705566406,-0.8683134317398071,0.6075055,0.19822577,339.08173,-16.335655,-24.072517,FKL
6153512700000.0,2.151156425476074,-6.198923587799072,1.5310965776443481,11.104036331176758,-0.7628378868103027,0.6206391,0.29871312,339.0715,-16.572962,-24.396091000000002,FKL
6153518000000.0,2.1561522483825684,-6.122471809387207,1.536438226699829,10.805017471313477,-0.6543076038360596,0.7113526,0.3839288,339.01364,-16.931932,-24.683928,FKL
6153522600000.0,2.1611526012420654,-6.033900737762451,1.5445215702056885,10.506535530090332,-0.546938419342041,0.8582656999999999,0.43768495,338.92987,-17.329329,-24.98316,FKL
6153528000000.0,2.1661503314971924,-5.935179233551025,1.5546905994415283,10.211835861206055,-0.445584237575531,1.0366384,0.47219884,338.81577000000004,-17.746426,-25.307705,FKL
6153532600000.0,2.171149969100952,-5.828733444213867,1.56781804561615,9.946682929992676,-0.35417288541793823,1.1548406999999998,0.48655418,338.6638,-18.21966,-25.624405,FKL
6153538000000.0,2.1761481761932373,-5.716302394866943,1.5842266082763672,9.723811149597168,-0.27473002672195435,1.1682798,0.48105640000000005,338.50125,-18.673864000000002,-25.957024,FKL
6153542600000.0,2.1811485290527344,-5.598939895629883,1.6017767190933228,9.555036544799805,-0.20896175503730774,1.03786,0.46670106,338.3266,-19.12109,-26.246685,FKL
6153548000000.0,2.186145782470703,-5.47726583480835,1.620035171508789,9.43893051147461,-0.1583693027496338,0.81183994,0.42516220000000005,338.17352,-19.51316,-26.515108,FKL
6153552500000.0,2.1911439895629883,-5.352253437042236,1.6362000703811646,9.367111206054688,-0.12417859584093094,0.5467244000000001,0.3454443,338.0384,-19.824606,-26.678259999999998,FKL
6153558000000.0,2.1961424350738525,-5.224481105804443,1.6492115259170532,9.334515571594238,-0.10758276283740997,0.22815818,0.23273966,337.96155,-20.056221,-26.773438,FKL
6153563000000.0,2.2011520862579346,-5.090418815612793,1.6621516942977905,9.317991256713867,-0.10879980772733688,-0.07788532,0.12492194,337.9129,-20.168322,-26.708723,FKL
6153567700000.0,2.206151247024536,-4.950157165527344,1.6761006116867065,9.30720043182373,-0.1248294934630394,-0.32070425,0.04642576,337.921,-20.202166000000002,-26.585651000000002,FKL
6153573000000.0,2.2111499309539795,-4.794923305511475,1.6970070600509644,9.266656875610352,-0.15027591586112976,-0.46334129999999996,0.01863139,337.95578,-20.134329,-26.338079999999998,FKL
6153577700000.0,2.2161529064178467,-4.62095308303833,1.7275056838989258,9.180338859558105,-0.1796238124370575,-0.51923543,0.028099801,338.01923,-20.015062,-26.056437,FKL
6153583000000.0,2.2211520671844482,-4.445480823516846,1.7616153955459595,9.072490692138672,-0.20910052955150604,-0.5216789000000001,0.06017022599999999,338.06595,-19.875666,-25.702257,FKL
6153588000000.0,2.2262353897094727,-4.2814459800720215,1.795397400856018,8.95727825164795,-0.23581810295581818,-0.42210788,0.093462385,338.10037,-19.727879,-25.363163,FKL
6153593000000.0,2.2312276363372803,-4.130282878875732,1.8309508562088013,8.842876434326172,-0.25749823451042175,-0.37110063,0.099265605,338.1043,-19.710196,-24.976635,FKL
6153598000000.0,2.236257314682007,-4.0012102127075195,1.8771185874938965,8.728775024414062,-0.2766231298446655,-0.25778514,0.10079276599999999,338.07797,-19.690628,-24.632778,FKL
6153603000000.0,2.241248369216919,-3.890475273132324,1.9333866834640503,8.615297317504883,-0.29080596566200256,-0.15088372,0.08124508,338.0505,-19.71627,-24.32374,FKL
6153607600000.0,2.246242046356201,-3.8003506660461426,2.006010055541992,8.49986743927002,-0.30068451166152954,-0.00030543262000000003,0.049785517,338.00616,-19.744585,-24.05966,FKL
6153613000000.0,2.251234531402588,-3.7293450832366943,2.093364715576172,8.386469841003418,-0.30609747767448425,0.19456059,0.021991148999999998,337.95267,-19.832811,-23.87511,FKL
6153617500000.0,2.2562294006347656,-3.6763124465942383,2.194122552871704,8.280921936035156,-0.30816182494163513,0.39858958,-0.012217305,337.89105,-19.92732,-23.738546,FKL
6153623000000.0,2.261221408843994,-3.640301465988159,2.303260564804077,8.189706802368164,-0.3077559471130371,0.57848936,-0.045814894,337.81345,-20.127481,-23.687254,FKL
6153627500000.0,2.266216278076172,-3.621142864227295,2.4144287109375,8.123095512390137,-0.30564630031585693,0.70554936,-0.083383106,337.72986000000003,-20.329296,-23.680735000000002,FKL
6153633000000.0,2.271209239959717,-3.6183907985687256,2.5232925415039062,8.08047103881836,-0.3031119108200073,0.7107416999999999,-0.109650314,337.647,-20.606776999999997,-23.715042,FKL
6153638000000.0,2.2762067317962646,-3.632842779159546,2.622591972351074,8.062944412231445,-0.29809194803237915,0.6105598000000001,-0.15393804,337.57956,-20.886457,-23.76109,FKL
6153642700000.0,2.2811989784240723,-3.6635358333587646,2.711642265319824,8.066081047058105,-0.2911258041858673,0.44623706,-0.20616703,337.52365,-21.128973000000002,-23.823477,FKL
6153648000000.0,2.28619647026062,-3.7116739749908447,2.787437677383423,8.083747863769531,-0.28306594491004944,0.2415972,-0.2724459,337.50375,-21.365385,-23.8551,FKL
6153652700000.0,2.291189432144165,-3.7752671241760254,2.851034641265869,8.11328411102295,-0.2726684510707855,0.06688975,-0.3203988,337.52383,-21.531882999999997,-23.897207,FKL
6153658000000.0,2.296186923980713,-3.853020429611206,2.9029552936553955,8.150751113891602,-0.2605462372303009,-0.07299839999999999,-0.35277468,337.58002,-21.692265,-23.900845,FKL
6153662600000.0,2.3011868000030518,-3.943864583969116,2.9444468021392822,8.196420669555664,-0.24778413772583008,-0.16493362,-0.3640757,337.6893,-21.784418,-23.9318,FKL
6153668000000.0,2.3062191009521484,-4.047966003417969,2.978353977203369,8.255209922790527,-0.2337488830089569,-0.2443461,-0.36560285,337.82004,-21.88564,-23.932474,FKL
6153672600000.0,2.311215877532959,-4.160682678222656,3.0065858364105225,8.322065353393555,-0.22130803763866425,-0.30940324,-0.35185838,337.97696,-21.924328,-23.969738,FKL
6153678000000.0,2.3162128925323486,-4.284101486206055,3.0307817459106445,8.392699241638184,-0.21073472499847412,-0.34177909999999995,-0.3277292,338.13552999999996,-21.97072,-23.993553,FKL
6153682600000.0,2.3212077617645264,-4.417797088623047,3.051788330078125,8.465279579162598,-0.20241773128509521,-0.33383787,-0.31031954,338.3141,-21.968329999999998,-24.049932000000002,FKL
6153688000000.0,2.3262040615081787,-4.563759803771973,3.074519634246826,8.527528762817383,-0.1947067528963089,-0.27702740000000003,-0.29443705,338.48175,-21.970417,-24.106987,FKL
6153692500000.0,2.331199884414673,-4.720178127288818,3.09881591796875,8.578534126281738,-0.18825313448905945,-0.16310102,-0.25320363,338.64783,-21.942375,-24.222452,FKL
6153698000000.0,2.3361971378326416,-4.879927158355713,3.1242995262145996,8.608949661254883,-0.1821434497833252,-0.0030543262,-0.17562376,338.78326,-21.924934,-24.35588,FKL
6153703000000.0,2.3411951065063477,-5.0411200523376465,3.1502320766448975,8.6196870803833,-0.17622914910316467,0.19517145,-0.07819075,338.89484,-21.921309,-24.588314,FKL
6153707700000.0,2.34619140625,-5.182626724243164,3.168215751647949,8.60901927947998,-0.16971850395202637,0.40256020000000003,-0.019547688,338.97147,-21.926281,-24.854429999999997,FKL
6153713000000.0,2.3511884212493896,-5.3054094314575195,3.1786224842071533,8.577923774719238,-0.1630827784538269,0.59803706,0.00030543262000000003,339.01752,-21.960432,-25.21818,FKL
6153717700000.0,2.3561861515045166,-5.403196811676025,3.1823196411132812,8.531710624694824,-0.15584033727645874,0.7489208,0.024129177,339.02307,-22.007755,-25.608175,FKL
6153723000000.0,2.361179828643799,-5.476193904876709,3.1798717975616455,8.472346305847168,-0.14787699282169342,0.8347474,0.050396382999999996,339.00415,-22.05914,-26.019896,FKL
6153727600000.0,2.3661844730377197,-5.524180889129639,3.16980242729187,8.40256118774414,-0.14037059247493744,0.88697636,0.08124508,338.95782,-22.120473999999998,-26.447437,FKL
6153733000000.0,2.371178388595581,-5.549977779388428,3.1527559757232666,8.32461929321289,-0.1332479566335678,0.89949906,0.105068825,338.8996,-22.187778,-26.87592,FKL
6153738000000.0,2.3762028217315674,-5.552647590637207,3.1302621364593506,8.243412017822266,-0.12744899094104767,0.84665924,0.11789699,338.825,-22.259674,-27.254663,FKL
6153743000000.0,2.3811984062194824,-5.537875175476074,3.104353904724121,8.161918640136719,-0.12168235331773758,0.75411314,0.12003502,338.75116,-22.337223,-27.617953999999997,FKL
6153747600000.0,2.3861961364746094,-5.504362106323242,3.076540231704712,8.082489967346191,-0.11687412858009338,0.6227771,0.12736541,338.67492999999996,-22.402517,-27.910643,FKL
6153753000000.0,2.39119291305542,-5.453288555145264,3.0474448204040527,8.005786895751953,-0.11282674968242645,0.48655418,0.10659598599999999,338.6211,-22.464653,-28.176825,FKL
6153757500000.0,2.396188259124756,-5.3888349533081055,3.0200443267822266,7.934186935424805,-0.10923922806978226,0.3368922,0.0888809,338.57122999999996,-22.524485000000002,-28.352571,FKL
6153763000000.0,2.401185989379883,-5.312451362609863,2.9951283931732178,7.868195533752441,-0.10675442218780518,0.18203785,0.06078109,338.55154,-22.57343,-28.493315000000003,FKL
6153768000000.0,2.406183958053589,-5.228788375854492,2.975271701812744,7.81312370300293,-0.10502058267593384,0.03390302,0.032986722999999996,338.53995,-22.62151,-28.540676,FKL
6153772700000.0,2.4111833572387695,-5.139381408691406,2.961064338684082,7.770168781280518,-0.10386746376752853,-0.09407325,0.009162978,338.555,-22.661835,-28.555813,FKL
6153778000000.0,2.4161834716796875,-5.04833459854126,2.952293634414673,7.738297462463379,-0.10424076020717621,-0.21563543,-0.008552114,338.57697,-22.70372,-28.483427000000002,FKL
6153782700000.0,2.4211812019348145,-4.956997871398926,2.9486424922943115,7.7166948318481445,-0.10539174824953079,-0.26358834,-0.019242255,338.61107999999996,-22.743301000000002,-28.400135,FKL
6153788000000.0,2.4262611865997314,-4.869649887084961,2.951374053955078,7.709877967834473,-0.10732781887054443,-0.33750305,-0.022602014,338.64943999999997,-22.78791,-28.228464000000002,FKL
6153792700000.0,2.431252956390381,-4.78747034072876,2.9572103023529053,7.71095085144043,-0.11124421656131744,-0.36193767,-0.020463986,338.68796000000003,-22.821463,-28.060057,FKL
6153798000000.0,2.4362473487854004,-4.710925102233887,2.963972330093384,7.7190775871276855,-0.11517977714538574,-0.37843102,-0.027488936000000002,338.72542999999996,-22.869198,-27.841466999999998,FKL
6153802600000.0,2.441242218017578,-4.639986515045166,2.9696104526519775,7.731607437133789,-0.11919859051704407,-0.34819320000000004,-0.036957346,338.7584,-22.90581,-27.631914000000002,FKL
6153808000000.0,2.4462459087371826,-4.576612949371338,2.9728004932403564,7.74675178527832,-0.12334505468606949,-0.29840767,-0.05681047,338.7887,-22.941017000000002,-27.409046000000004,FKL
6153813000000.0,2.4512455463409424,-4.52137565612793,2.9730653762817383,7.763343334197998,-0.12725426256656647,-0.24037547,-0.06811147,338.81253,-22.975138,-27.199944,FKL
6153818000000.0,2.45624041557312,-4.478018760681152,2.9695968627929688,7.780501842498779,-0.12978316843509674,-0.17623462,-0.07238753,338.83513999999997,-22.99805,-27.009325,FKL
6153822500000.0,2.461235523223877,-4.44847297668457,2.9619686603546143,7.7977681159973145,-0.13123321533203125,-0.12278391400000001,-0.08521569999999999,338.8557,-23.0165,-26.836512,FKL
6153828000000.0,2.466231107711792,-4.431909084320068,2.9499595165252686,7.814331531524658,-0.1305876076221466,-0.07422013,-0.09132435,338.87592,-23.027803,-26.697262,FKL
6153833000000.0,2.4712276458740234,-4.427604675292969,2.9335339069366455,7.829759120941162,-0.12786033749580383,-0.019547688,-0.10812314599999999,338.89374,-23.040476,-26.578521999999996,FKL
6153838000000.0,2.476222515106201,-4.434100151062012,2.9128689765930176,7.843666076660156,-0.12371579557657242,0.02565634,-0.11178834,338.9225,-23.035175,-26.513040000000004,FKL
6153843000000.0,2.4812183380126953,-4.450477600097656,2.888066530227661,7.855834007263184,-0.11875037103891373,0.062002823,-0.110872045,338.94766,-23.035809,-26.4619,FKL
6153847700000.0,2.4862146377563477,-4.477154731750488,2.8607065677642822,7.867615222930908,-0.11261716485023499,0.08246681,-0.09896017,338.98607999999996,-23.019331,-26.463340000000002,FKL
6153853000000.0,2.4912095069885254,-4.514273643493652,2.8320281505584717,7.880030632019043,-0.10653410106897354,0.08155051,-0.08643743400000001,339.02142000000003,-23.00303,-26.468307,FKL
6153857700000.0,2.496204376220703,-4.572378635406494,2.8059914112091064,7.898769378662109,-0.09973346441984177,0.062308256,-0.05955936,339.06735,-22.977697,-26.512184,FKL
6153863000000.0,2.501206398010254,-4.660702705383301,2.7859199047088623,7.928716659545898,-0.09282321482896805,0.049480084,-0.045814894,339.11215,-22.95159,-26.556694,FKL
6153867600000.0,2.5062034130096436,-4.7739739418029785,2.771120071411133,7.960965633392334,-0.08502787351608276,0.04337143,-0.030848695,339.16565,-22.91856,-26.63615,FKL
6153873000000.0,2.5112006664276123,-4.909071445465088,2.7611989974975586,7.987405776977539,-0.07668760418891907,0.07574729,-0.0018325957999999999,339.20697,-22.891016,-26.717409999999997,FKL
6153877600000.0,2.5161983966827393,-5.054554462432861,2.7536470890045166,8.00210952758789,-0.06890574842691422,0.1337795,0.032375857,339.26932,-22.851397,-26.891748,FKL
6153883000000.0,2.521196126937866,-5.199173450469971,2.7460057735443115,7.9992995262146,-0.06318262219429016,0.1685988,0.04642576,339.3271,-22.811214,-27.063663000000002,FKL
6153887500000.0,2.5261898040771484,-5.33588171005249,2.7383852005004883,7.982197284698486,-0.0583016537129879,0.29565877,0.0571159,339.37415,-22.783602,-27.365834999999997,FKL
6153893000000.0,2.5311858654022217,-5.454767227172852,2.73091983795166,7.954215049743652,-0.057782694697380066,0.44806966,0.049785517,339.41302,-22.731798,-27.677238,FKL
6153897500000.0,2.5361785888671875,-5.554750442504883,2.7226402759552,7.918396472930908,-0.06160489097237587,0.5531385,0.057421334000000004,339.4404,-22.695710000000002,-28.051657000000002,FKL
6153903000000.0,2.5411765575408936,-5.632160186767578,2.7117133140563965,7.879081726074219,-0.06899973750114441,0.605062,0.07819075,339.45142000000004,-22.644459,-28.442217,FKL
6153907500000.0,2.546170473098755,-5.686527729034424,2.6983840465545654,7.8391432762146,-0.07893041521310806,0.59498274,0.09437868,339.44403,-22.596916,-28.819412,FKL
6153912700000.0,2.551173448562622,-5.713524341583252,2.68264102935791,7.803676128387451,-0.09087112545967102,0.548557,0.110872045,339.42822,-22.53781,-29.190018,FKL
6153917400000.0,2.556166887283325,-5.715427875518799,2.6647286415100098,7.772995948791504,-0.10271263867616653,0.44898596,0.12797627,339.40265,-22.483868,-29.490040000000004,FKL
6153922700000.0,2.561166763305664,-5.690351963043213,2.644378662109375,7.748647689819336,-0.11494855582714081,0.31612277,0.13439035,339.3873,-22.418344,-29.763037,FKL
6153928000000.0,2.566164255142212,-5.641599655151367,2.622140645980835,7.730389595031738,-0.1259789615869522,0.17318029999999998,0.12675454,339.36602999999997,-22.361629999999998,-29.922083,FKL
6153932600000.0,2.5711636543273926,-5.572198867797852,2.5987396240234375,7.718505382537842,-0.13546115159988403,0.030543262,0.12003502,339.3622,-22.304655,-30.043303,FKL
6153938000000.0,2.5761611461639404,-5.484443187713623,2.5746827125549316,7.712429046630859,-0.14303816854953766,-0.094989546,0.113926366,339.3564,-22.252679999999998,-30.039228,FKL
6153942600000.0,2.5811591148376465,-5.38491678237915,2.5527968406677246,7.710899829864502,-0.1477697789669037,-0.20708331,0.109650314,339.3705,-22.210107999999998,-30.002434,FKL
6153948000000.0,2.5861566066741943,-5.2743024826049805,2.532963275909424,7.713660717010498,-0.14970995485782623,-0.26969699999999996,0.10323623,339.37198,-22.176104000000002,-29.855259000000004,FKL
6153952600000.0,2.5911548137664795,-5.157748699188232,2.5170605182647705,7.720141410827637,-0.1493818461894989,-0.3136793,0.09773844,339.38684,-22.151295,-29.686445000000003,FKL
6153958000000.0,2.5961506366729736,-5.03666877746582,2.50525164604187,7.730022430419922,-0.14636918902397156,-0.33353242,0.089491755,339.40878,-22.139201999999997,-29.511177000000004,FKL
6153962500000.0,2.60115122795105,-4.917940139770508,2.5002057552337646,7.742460250854492,-0.14122198522090912,-0.312763,0.08979719,339.40277000000003,-22.148453,-29.263303999999998,FKL
6153968000000.0,2.6061456203460693,-4.803264617919922,2.5019984245300293,7.757014751434326,-0.13520966470241547,-0.26847526,0.08796459400000001,339.39804,-22.162338000000002,-29.021114,FKL
6153973000000.0,2.611147165298462,-4.701986789703369,2.5093653202056885,7.7744011878967285,-0.1286550611257553,-0.20983220000000002,0.08643743400000001,339.36852999999996,-22.202269,-28.743237,FKL
6153977700000.0,2.616149425506592,-4.615294456481934,2.521622657775879,7.794536113739014,-0.12240093946456909,-0.14202617,0.0842994,339.33145,-22.241663,-28.483332,FKL
6153983000000.0,2.621149778366089,-4.545078277587891,2.534968852996826,7.815837860107422,-0.11740792542695999,-0.11178834,0.081855945,339.27588,-22.302248000000002,-28.214035,FKL
6153988000000.0,2.6262338161468506,-4.496609687805176,2.547003746032715,7.837804794311523,-0.11259961873292923,-0.03726278,0.06597344599999999,339.20932,-22.363201,-27.979397,FKL
6153993500000.0,2.63126802444458,-4.461899280548096,2.5576796531677246,7.858309745788574,-0.10879631340503693,0.007330383,0.045814894,339.14804,-22.421097,-27.773968,FKL
6153998000000.0,2.636261224746704,-4.440401077270508,2.5668396949768066,7.876538276672363,-0.1056189090013504,0.028099801,0.032986722999999996,339.08282,-22.477654,-27.58588,FKL
6154003000000.0,2.641254425048828,-4.4312238693237305,2.5742576122283936,7.892812252044678,-0.10313171148300171,0.06658431,0.014049901000000002,339.03713999999997,-22.50812,-27.472944000000002,FKL
6154007600000.0,2.6462488174438477,-4.431861400604248,2.5798940658569336,7.907588481903076,-0.10103750228881836,0.089186326,0.0030543262,338.99265,-22.536179999999998,-27.363861,FKL
6154013000000.0,2.6512463092803955,-4.441859722137451,2.5838334560394287,7.920942783355713,-0.09837125241756439,0.11209377,-0.0012217305,338.96912000000003,-22.553117999999998,-27.314284999999998,LYI
6154017600000.0,2.6562399864196777,-4.460487365722656,2.5862011909484863,7.932966232299805,-0.09544015675783157,0.11942416,-0.002443461,338.9471,-22.566132,-27.268321999999998,LYI
6154023000000.0,2.6612353324890137,-4.487081527709961,2.587585926055908,7.941824913024902,-0.09295826405286789,0.1255328,-0.0036651915999999997,338.9202,-22.578634,-27.229134000000002,LYI
6154028000000.0,2.666234254837036,-4.520848751068115,2.588636636734009,7.945526123046875,-0.09029936790466309,0.112399206,0.0018325957999999999,338.89365,-22.596264,-27.18682,LYI
6154033000000.0,2.6712279319763184,-4.560337543487549,2.5899720191955566,7.944255352020264,-0.0876031219959259,0.10293079,-0.0012217305,338.89545,-22.589163,-27.220394,LYI
6154037500000.0,2.676222085952759,-4.604552745819092,2.592211961746216,7.937929630279541,-0.08485523611307144,0.09101892,-0.005192355,338.8981,-22.584389,-27.248768,LYI
6154042700000.0,2.681215286254883,-4.652280807495117,2.595327615737915,7.927314758300781,-0.08196079730987549,0.06719518,-0.007330383,338.90942,-22.5822,-27.308497999999997,LYI
6154048000000.0,2.686211347579956,-4.701919078826904,2.599325180053711,7.913335800170898,-0.07915550470352173,0.04337143,-0.006414085,338.92267000000004,-22.579855,-27.364084000000002,LYI
6154052700000.0,2.69120454788208,-4.752535343170166,2.604898452758789,7.898268222808838,-0.07514869421720505,0.027488936000000002,-0.004581489,338.94498,-22.590457999999998,-27.448303000000003,LYI
6154058000000.0,2.696200370788574,-4.803102493286133,2.6130640506744385,7.884966850280762,-0.07073687762022018,0.015577064,-0.0009162978999999999,338.96918,-22.598285999999998,-27.525574,LYI
6154063000000.0,2.701225996017456,-4.854784965515137,2.6229283809661865,7.873978137969971,-0.06587652862071991,0.016798794,0.0018325957999999999,338.99667,-22.61825,-27.621725,LYI
6154068000000.0,2.706216812133789,-4.907962322235107,2.6324691772460938,7.865598201751709,-0.06155191734433174,0.024129177,-0.0021380284,339.0258,-22.63576,-27.71515,LYI
6154072600000.0,2.7112107276916504,-4.962701797485352,2.641667127609253,7.859872341156006,-0.058125149458646774,0.05955936,-0.01160644,339.0502,-22.661037,-27.820856,LYI
6154078000000.0,2.716203212738037,-5.012816905975342,2.6497347354888916,7.855091571807861,-0.05595530942082405,0.070554934,-0.01282817,339.0757,-22.683123000000002,-27.919878000000004,LYI
6154082600000.0,2.72119402885437,-5.05855655670166,2.6567330360412598,7.851204872131348,-0.05456847697496414,0.101098195,-0.0036651915999999997,339.09893999999997,-22.69821,-28.045135,LYI
6154088000000.0,2.7261855602264404,-5.09627628326416,2.6620359420776367,7.847166538238525,-0.055143725126981735,0.1160644,0.0027488936,339.12377999999995,-22.701853,-28.167364000000003,LYI
6154092500000.0,2.731175184249878,-5.124714374542236,2.665440320968628,7.842535495758057,-0.05681145191192627,0.10781772,0.019242255,339.14194,-22.708569,-28.28663,LYI
6154098000000.0,2.7361676692962646,-5.142305374145508,2.6667239665985107,7.836778163909912,-0.05900884047150612,0.09437868,0.022296581,339.1583,-22.704784,-28.399315,LYI
6154102500000.0,2.7411575317382812,-5.14933967590332,2.665966033935547,7.829847812652588,-0.062065765261650085,0.06811147,0.03390302,339.17035,-22.698004,-28.501216999999997,LYI
6154108000000.0,2.746150016784668,-5.146194934844971,2.6632375717163086,7.821778297424316,-0.06539926677942276,0.03604105,0.03970624,339.18242999999995,-22.689453,-28.575454999999998,LYI
6154112500000.0,2.751146078109741,-5.133371353149414,2.658634662628174,7.812623977661133,-0.06922248750925064,0.004886922,0.03848451,339.19678,-22.676311,-28.641169,LYI
6154117700000.0,2.7561428546905518,-5.110933303833008,2.652798891067505,7.802058696746826,-0.07220714539289474,-0.026267206,0.041233405,339.20984,-22.669264000000002,-28.696140000000003,LYI
6154122400000.0,2.761139392852783,-5.079213619232178,2.645996570587158,7.790011882781982,-0.07392588257789612,-0.043982297000000004,0.040927973,339.22656,-22.661034,-28.746027,LYI
6154127700000.0,2.7661421298980713,-5.0423760414123535,2.639592170715332,7.775778293609619,-0.07482054084539413,-0.051923547,0.04153884,339.22827,-22.657486,-28.728832,LYI
6154133000000.0,2.7711472511291504,-5.002157688140869,2.634038209915161,7.759249687194824,-0.0751466453075409,-0.058643065,0.042455133,339.23217999999997,-22.658146,-28.707724,LYI
6154137600000.0,2.7761456966400146,-4.964701175689697,2.6300973892211914,7.744450092315674,-0.07441361993551254,-0.05375614,0.03848451,339.22656,-22.669073,-28.656662,LYI
6154143000000.0,2.781144380569458,-4.932048320770264,2.628025531768799,7.732736110687256,-0.07235236465930939,-0.052534412999999995,0.03970624,339.22052,-22.684607999999997,-28.603031,LYI
6154147600000.0,2.786142587661743,-4.903937339782715,2.6277196407318115,7.723938941955566,-0.06944059580564499,-0.059864793,0.047647487,339.20807,-22.711385999999997,-28.535517,LYI
6154153000000.0,2.7911410331726074,-4.880131721496582,2.629088878631592,7.717907428741455,-0.06560969352722168,-0.06017022599999999,0.05375614,339.19464,-22.74427,-28.471231,LYI
6154157600000.0,2.7961390018463135,-4.863561630249023,2.6312174797058105,7.714636325836182,-0.061462078243494034,-0.0571159,0.04917465,339.1827,-22.777885,-28.407349,LYI
6154163000000.0,2.8011412620544434,-4.855246067047119,2.6337409019470215,7.714081287384033,-0.056933239102363586,-0.03848451,0.04550946,339.16666000000004,-22.81702,-28.347609000000002,LYI
6154167500000.0,2.8061399459838867,-4.854429721832275,2.635260581970215,7.7157063484191895,-0.052808526903390884,-0.018020526000000002,0.049480084,339.15057,-22.857096,-28.298887,LYI
6154173000000.0,2.8111412525177,-4.860830307006836,2.635162115097046,7.71929407119751,-0.04942450672388077,0.005192355,0.029932396,339.13962000000004,-22.89333,-28.259989,LYI
6154178000000.0,2.816143035888672,-4.871432304382324,2.633718729019165,7.725228786468506,-0.04768579080700874,0.009162978,0.032070424,339.12936,-22.920816000000002,-28.240371999999997,LYI
6154182700000.0,2.8211452960968018,-4.884758472442627,2.631087064743042,7.733630657196045,-0.04613739997148514,0.01740966,0.03573562,339.12064,-22.94894,-28.230368,LYI
6154188000000.0,2.8262200355529785,-4.898960590362549,2.626800298690796,7.744356155395508,-0.0459086075425148,-0.0033597588,0.04642576,339.12054,-22.953516,-28.236016999999997,LYI
6154192700000.0,2.8312137126922607,-4.912753105163574,2.6217002868652344,7.755898952484131,-0.04728718847036362,-0.013439035,0.048258353,339.11932,-22.955088,-28.246937,LYI
6154198000000.0,2.836209774017334,-4.925457954406738,2.615494966506958,7.767421245574951,-0.0488852933049202,-0.030848695,0.053450707,339.12415,-22.94898,-28.256472,LYI
6154202600000.0,2.8412063121795654,-4.9364542961120605,2.6083309650421143,7.77781343460083,-0.05075633153319359,-0.050396382999999996,0.058337633,339.1302,-22.935768,-28.262402,LYI
6154208000000.0,2.846198797225952,-4.946300506591797,2.600748300552368,7.786417007446289,-0.052950866520404816,-0.05681047,0.0571159,339.14005,-22.913025,-28.266508,LYI
6154212600000.0,2.8512003421783447,-4.955387592315674,2.5931012630462646,7.792687892913818,-0.055451661348342896,-0.063224554,0.055283304000000005,339.15117999999995,-22.889761,-28.265003000000004,LYI
6154218000000.0,2.8561973571777344,-4.963669776916504,2.5862927436828613,7.796745777130127,-0.057379692792892456,-0.062308256,0.04886922,339.16718,-22.865845,-28.262285,LYI
6154222600000.0,2.8611953258514404,-4.970984935760498,2.5820813179016113,7.798484802246094,-0.05822833254933357,-0.05467244,0.04276056599999999,339.18323,-22.842857000000002,-28.259885999999998,LYI
6154228000000.0,2.8661909103393555,-4.977391242980957,2.5803000926971436,7.798055171966553,-0.057745836675167084,-0.03145956,0.043066,339.19516,-22.822657,-28.265757,LYI
6154232500000.0,2.8711888790130615,-4.9829277992248535,2.5808582305908203,7.795536041259766,-0.056800734251737595,-0.0018325957999999999,0.034208454,339.2092,-22.80157,-28.277085999999997,LYI
6154238000000.0,2.87618350982666,-4.986806869506836,2.583928108215332,7.791749477386475,-0.05509212985634804,0.031154128,0.0290161,339.21713,-22.787605,-28.295094,LYI
6154242500000.0,2.881179094314575,-4.987941265106201,2.5898797512054443,7.787657260894775,-0.05339319631457329,0.04886922,0.028099801,339.22418,-22.772232000000002,-28.317019000000002,LYI
6154247700000.0,2.8861727714538574,-4.986800193786621,2.598233222961426,7.7844014167785645,-0.05248472839593887,0.06719518,0.020463986,339.22156,-22.776241,-28.348979999999997,LYI
6154253000000.0,2.891169786453247,-4.98391580581665,2.6084611415863037,7.783638954162598,-0.051152631640434265,0.06627888,0.019242255,339.21768,-22.78669,-28.379292,LYI
6154257700000.0,2.8961637020111084,-4.979833126068115,2.6196980476379395,7.78496789932251,-0.049338098615407944,0.04917465,0.0125227375,339.21143,-22.803587,-28.401243,LYI
6154263000000.0,2.9011614322662354,-4.975207328796387,2.630843162536621,7.78800106048584,-0.04722961038351059,0.040317107000000005,0.01863139,339.20099999999996,-22.823263,-28.423161999999998,LYI
6154267700000.0,2.906155586242676,-4.970983505249023,2.641439914703369,7.792333126068115,-0.04476144537329674,0.02687807,0.020158553,339.1913,-22.850475,-28.428276,LYI
6154273000000.0,2.91115403175354,-4.968767166137695,2.6507081985473633,7.797452926635742,-0.04239226132631302,0.023518313,0.021380282999999996,339.1801,-22.877679999999998,-28.432913,LYI
6154277600000.0,2.9161503314971924,-4.968277931213379,2.6582539081573486,7.802761077880859,-0.03977495804429054,0.021991148999999998,0.016493361,339.17044,-22.908062,-28.428614000000003,LYI
6154283000000.0,2.921149969100952,-4.969188690185547,2.663149118423462,7.807161808013916,-0.03754130005836487,0.0030543262,-0.0018325957999999999,339.16766,-22.933222,-28.420706,LYI
6154287600000.0,2.926145076751709,-4.971384525299072,2.6656012535095215,7.8107218742370605,-0.03598010912537575,-0.002443461,-0.013439035,339.16635,-22.953039999999998,-28.420908,LYI
6154293000000.0,2.9311420917510986,-4.97482967376709,2.665686845779419,7.81347131729126,-0.034567225724458694,-0.002443461,-0.025350908,339.171148357792,-22.9602174388539,-28.421290361285802,LYI
6154297500000.0,2.936138391494751,-4.978902816772461,2.664119243621826,7.8152947425842285,-0.0335877425968647,-0.002443461,-0.03726278,339.1759,-22.967325,-28.421669,LYI
6154303000000.0,2.941138744354248,-4.981259346008301,2.6633849143981934,7.815521240234375,-0.032660458236932755,0.0021380284,-0.043676864,339.1822,-22.978834,-28.422667999999998,LYI
6154307500000.0,2.9461376667022705,-4.981796741485596,2.663520336151123,7.814137935638428,-0.03189653158187866,0.0021380284,-0.047036625,339.20583999999997,-22.968298,-28.440898999999998,LYI
6154313000000.0,2.951139211654663,-4.979043006896973,2.665154457092285,7.810318470001221,-0.031384922564029694,0.0027488936,-0.046731193,339.2292,-22.957178,-28.460465999999997,LYI
6154318000000.0,2.9561636447906494,-4.972262382507324,2.6682190895080566,7.804540157318115,-0.03112846240401268,0.004581489,-0.04795292,339.2503,-22.950481,-28.477386,LYI
6154322700000.0,2.96116304397583,-4.959333419799805,2.671934127807617,7.799679756164551,-0.03010435774922371,0.0067195175,-0.036957346,339.26732999999996,-22.949497,-28.492665999999996,LYI
6154328000000.0,2.9661617279052734,-4.939973831176758,2.6763410568237305,7.795745849609375,-0.03016030229628086,0.00030543262000000003,-0.028405233999999998,339.28558,-22.952759,-28.496553000000002,LYI
6154332700000.0,2.9711616039276123,-4.919854640960693,2.681406021118164,7.79296875,-0.03094574622809887,-0.010995574,-0.028099801,339.30322,-22.961151,-28.499344,LYI
6154338000000.0,2.9761555194854736,-4.900435447692871,2.6870691776275635,7.791332244873047,-0.03196604549884796,-0.03145956,-0.014049901000000002,339.3164,-22.970108,-28.495296000000003,LYI
6154342600000.0,2.981154203414917,-4.881664276123047,2.6933341026306152,7.790815353393555,-0.032866861671209335,-0.029932396,-0.007941248,339.31872999999996,-22.983814000000002,-28.464056,LYI
6154348000000.0,2.9861488342285156,-4.863518714904785,2.700139284133911,7.791325092315674,-0.03313368558883667,-0.028405233999999998,0.006414085,339.31737999999996,-23.00167,-28.425419,LYI
6154352600000.0,2.9911487102508545,-4.848388671875,2.7060225009918213,7.7910847663879395,-0.03333745896816254,-0.016798794,0.009773844,339.3157,-23.016325,-28.391078999999998,LYI
6154358000000.0,2.9961438179016113,-4.83679723739624,2.710598945617676,7.789615631103516,-0.03255373239517212,-0.0021380284,0.0061086523,339.31125,-23.038632999999997,-28.357695,LYI
6154362600000.0,3.0011446475982666,-4.828606128692627,2.7129905223846436,7.788446426391602,-0.03207220882177353,0.014355333500000001,0.008552114,339.29834,-23.0609,-28.319374,LYI
6154368000000.0,3.0061419010162354,-4.823522090911865,2.7130696773529053,7.788067817687988,-0.03145357593894005,0.03145956,0.003970624,339.28652999999997,-23.087406,-28.287062,LYI
6154372500000.0,3.0111427307128906,-4.821451187133789,2.7109010219573975,7.788456916809082,-0.03104696050286293,0.038789943,0.0018325957999999999,339.27853,-23.106535,-28.269817,LYI
6154378000000.0,3.016143560409546,-4.822200298309326,2.7066311836242676,7.78956413269043,-0.030759679153561592,0.03726278,-0.012217305,339.2743,-23.123919,-28.257065,LYI
6154383000000.0,3.021143913269043,-4.8242411613464355,2.69929575920105,7.791710376739502,-0.03024354763329029,0.03756821,-0.014966198,339.26526,-23.141614999999998,-28.2463,LYI
6154388000000.0,3.026244640350342,-4.826785564422607,2.686840295791626,7.795578956604004,-0.03043857030570507,0.020463986,-0.03023783,339.26678,-23.150368,-28.234259,LYI
6154393000000.0,3.031236171722412,-4.829495906829834,2.6723334789276123,7.799983978271484,-0.03034648485481739,0.021380282999999996,-0.03756821,339.27832,-23.146072,-28.246278999999998,LYI
6154397700000.0,3.036231756210327,-4.832616329193115,2.653611660003662,7.805262565612793,-0.030454635620117188,0.003970624,-0.03726278,339.2969,-23.135603,-28.25003,LYI
6154403000000.0,3.0412275791168213,-4.836299419403076,2.632089376449585,7.811611652374268,-0.030898846685886383,-0.006414085,-0.04520403,339.32645,-23.105772,-28.260140999999997,LYI
6154407600000.0,3.0462217330932617,-4.840737819671631,2.6093342304229736,7.81928825378418,-0.03136821836233139,0.00030543262000000003,-0.04276056599999999,339.35242,-23.078638,-28.268646,LYI
6154413000000.0,3.051215410232544,-4.8458428382873535,2.5855743885040283,7.828036308288574,-0.03134053200483322,-0.0018325957999999999,-0.032986722999999996,339.38855,-23.035868,-28.275496,LYI
6154417600000.0,3.0562117099761963,-4.851468086242676,2.5612316131591797,7.837375164031982,-0.031900305300951004,0.004276057,-0.03726278,339.42523,-22.987323999999997,-28.28742,LYI
6154423000000.0,3.0612051486968994,-4.857205867767334,2.537548303604126,7.846530437469482,-0.03286973387002945,0.013439035,-0.03176499,339.46057,-22.934204,-28.299093,LYI
6154427600000.0,3.0662038326263428,-4.862381458282471,2.5166642665863037,7.854172706604004,-0.03421071171760559,0.025045475,-0.03359759,339.49737999999996,-22.877954000000003,-28.314148,LYI
6154433000000.0,3.071195602416992,-4.8665595054626465,2.4984447956085205,7.8610615730285645,-0.03583832457661629,0.043982297000000004,-0.020158553,339.5312,-22.817936,-28.332006,LYI
6154437500000.0,3.07619309425354,-4.868708610534668,2.4830024242401123,7.868615627288818,-0.03786752000451088,0.06169739,-0.018936822,339.56692999999996,-22.75464,-28.353909,LYI
6154443000000.0,3.081186056137085,-4.869098663330078,2.47046160697937,7.876603603363037,-0.040260616689920425,0.070554934,-0.015577064,339.59337999999997,-22.699862,-28.375837,LYI
6154447500000.0,3.0861833095550537,-4.867999076843262,2.461526393890381,7.884655475616455,-0.04220063239336014,0.07971791,-0.0067195175,339.61478,-22.648708,-28.40103,LYI
6154452700000.0,3.091181516647339,-4.865490913391113,2.4556944370269775,7.892151355743408,-0.044086091220378876,0.07574729,0.005497787,339.6294,-22.601925,-28.41419,LYI
6154458000000.0,3.0961966514587402,-4.8615031242370605,2.451786518096924,7.896559238433838,-0.04616406187415123,0.093767814,0.025350908,339.6344,-22.558971,-28.432901,LYI
6154462700000.0,3.101194143295288,-4.856723308563232,2.44968318939209,7.898648262023926,-0.04738253355026245,0.11636983,0.025045475,339.6353,-22.531961,-28.443508,LYI
6154468000000.0,3.1061899662017822,-4.8529372215271,2.450155735015869,7.8996405601501465,-0.04842212796211243,0.1255328,0.039095376,339.62546000000003,-22.506395,-28.450802000000003,LYI
6154472700000.0,3.1111860275268555,-4.850096702575684,2.4531705379486084,7.899646759033203,-0.05020390823483467,0.12156218,0.046120327,339.61194,-22.487103,-28.459823999999998,LYI
6154478000000.0,3.116182565689087,-4.848150253295898,2.459242105484009,7.899158000946045,-0.051483798772096634,0.13927728,0.03848451,339.59442,-22.474145999999998,-28.476564,LYI
6154482600000.0,3.1211841106414795,-4.847093105316162,2.468127489089966,7.8981428146362305,-0.05303730443120003,0.14660765,0.035124752999999995,339.57358,-22.465173999999998,-28.490728000000004,LYI
6154488000000.0,3.126180410385132,-4.847217559814453,2.4778897762298584,7.896056175231934,-0.05519166961312294,0.1423316,0.03023783,339.55487,-22.45533,-28.507203999999998,LYI
6154493000000.0,3.1312456130981445,-4.848762035369873,2.488762378692627,7.892375469207764,-0.05713355913758278,0.14202617,0.023518313,339.53186,-22.458866,-28.527820000000002,LYI
6154498000000.0,3.136237144470215,-4.8509440422058105,2.4992353916168213,7.885833263397217,-0.05944400280714035,0.13164146,0.022602014,339.51102000000003,-22.456792999999998,-28.544190999999998,LYI
6154502500000.0,3.1412291526794434,-4.853985786437988,2.509394407272339,7.875491142272949,-0.06161503866314888,0.14141529999999997,0.015271631,339.4906,-22.461655,-28.572522999999997,LYI
6154508000000.0,3.14622163772583,-4.8566670417785645,2.519352436065674,7.863034725189209,-0.06321460753679276,0.13316862,0.010690141499999998,339.474,-22.466573999999998,-28.592821,LYI
6154512500000.0,3.151216983795166,-4.858574390411377,2.529158353805542,7.849096775054932,-0.06494053453207016,0.11759156,0.0061086523,339.45953,-22.467384,-28.61413,LYI
6154518000000.0,3.1562113761901855,-4.859757423400879,2.5388152599334717,7.833784580230713,-0.0659722238779068,0.10048734,-0.004276057,339.45062,-22.4778,-28.645033,LYI
6154523000000.0,3.1612064838409424,-4.860250473022461,2.5483336448669434,7.81715726852417,-0.06709542870521545,0.07971791,-0.009162978,339.44442999999995,-22.483818,-28.670272999999998,LYI
6154527700000.0,3.1662018299102783,-4.86017370223999,2.5554862022399902,7.802679061889648,-0.0677030086517334,0.06627888,-0.005497787,339.43707,-22.49543,-28.692677000000003,LYI
6154533000000.0,3.1711997985839844,-4.85959529876709,2.5592236518859863,7.792006492614746,-0.06831075996160507,0.054367005999999996,-0.018020526000000002,339.43878,-22.500866000000002,-28.712355,LYI
6154537700000.0,3.176196813583374,-4.8595051765441895,2.5605342388153076,7.784771919250488,-0.0684303566813469,0.044593163,-0.018020526000000002,339.43457,-22.521729999999998,-28.729456,LYI
6154543000000.0,3.1811954975128174,-4.860445499420166,2.5599801540374756,7.780743598937988,-0.06833197921514511,0.022907447,-0.027183502999999998,339.44022,-22.537762,-28.742842,LYI
6154547600000.0,3.186192750930786,-4.862366676330566,2.5574870109558105,7.780257701873779,-0.068206287920475,0.018325957,-0.038179077,339.4525,-22.539473,-28.753378,LYI
6154553000000.0,3.1911895275115967,-4.865228652954102,2.5530402660369873,7.783449172973633,-0.06701298803091049,0.023518313,-0.038789943,339.4659,-22.547113,-28.760618,LYI
6154557600000.0,3.196185350418091,-4.868782997131348,2.5479800701141357,7.789175510406494,-0.06672970205545425,0.024129177,-0.037873644,339.48734,-22.53435,-28.766571000000003,LYI
6154563000000.0,3.201185941696167,-4.872912883758545,2.5429346561431885,7.796890735626221,-0.0663638487458229,0.026572637000000003,-0.04276056599999999,339.5093,-22.530048,-28.77504,LYI
6154567500000.0,3.206183671951294,-4.878030776977539,2.5369675159454346,7.805141448974609,-0.06593611091375351,0.038789943,-0.04428773,339.5327,-22.510656,-28.784225,LYI
6154573000000.0,3.211182117462158,-4.884355068206787,2.529592990875244,7.813198566436768,-0.06536839157342911,0.04428773,-0.0421497,339.55664,-22.492392000000002,-28.79233,LYI
6154577500000.0,3.2161808013916016,-4.891724586486816,2.520378828048706,7.820337295532227,-0.06470070779323578,0.063224554,-0.04062254,339.57242,-22.46779,-28.807112,LYI
6154583000000.0,3.221179485321045,-4.900008678436279,2.5090408325195312,7.8260498046875,-0.06468714773654938,0.08277224,-0.03176499,339.5842,-22.442501,-28.822046000000004,LYI
6154588000000.0,3.226257562637329,-4.907412528991699,2.4966025352478027,7.82824182510376,-0.06499985605478287,0.10903945,-0.03268129,339.5993,-22.411005,-28.850635999999998,LYI
6154592700000.0,3.2312495708465576,-4.913712024688721,2.4842946529388428,7.828186988830566,-0.06638648360967636,0.12003502,-0.034208454,339.6111,-22.375103,-28.878767,LYI
6154598000000.0,3.23624324798584,-4.917239189147949,2.472033739089966,7.82459831237793,-0.06755271553993225,0.12767084,-0.033292156,339.62186,-22.336277,-28.920296,LYI
6154602700000.0,3.2412381172180176,-4.9172844886779785,2.4599194526672363,7.817399978637695,-0.06917767226696014,0.1282817,-0.03634648,339.6334,-22.289606,-28.962629999999997,LYI
