timestamp,rel_time,acc_x,acc_y,acc_z,gyro_x,gyro_y,gyro_z,azimuth,pitch,roll,label
0.0,0.0,0.0,0.0,0.0,0.0,0.23945917,0.013439035,101.32101,-80.65231999999999,8.703266000000001,STD
30356722000.0,1.4985044799686875e-05,0.005888809449970722,0.029223335906863213,-0.0018078142311424017,1.6444029824924655e-05,0.24495697,0.015271631,101.24085,-80.702805,8.702039,STD
90618370000.0,7.40502800908871e-05,0.0174633227288723,0.08725591748952866,-0.005340893752872944,2.7259846319793724e-05,0.24984388,0.0061086523,101.16448000000001,-80.75488,8.695686,STD
179897610000.0,0.000205767631996423,0.034437160938978195,0.17326416075229645,-0.010491336695849895,-1.3646772458741907e-05,0.25442538,0.007330383,101.08637,-80.800674,8.692895,STD
296903080000.0,0.0004374367417767644,0.05644979327917099,0.2860247492790222,-0.017129218205809593,-0.000199891219381243,0.24740042,0.0067195175,101.01043,-80.846085,8.687292999999999,STD
439984000000.0,0.0008033966878429055,0.08304254710674286,0.42397356033325195,-0.025089509785175323,-0.00043207700946368277,0.24007004,0.0036651915999999997,100.93339,-80.88982,8.681503,STD
607185300000.0,0.0013047022512182593,0.11382819712162018,0.5852298736572266,-0.034251946955919266,-0.0006297673680819571,0.24281894,0.0009162978999999999,100.85561,-80.93073000000001,8.675805,STD
796309400000.0,0.0019716296810656786,0.14825695753097534,0.7677005529403687,-0.044426146894693375,-0.0008412707829847932,0.23640485,0.004581489,100.78268,-80.96815,8.671533,STD
1004982200000.0,0.0028186009731143713,0.18580685555934906,0.9691112041473389,-0.05544112250208855,-0.0011768527328968048,0.22602014,-0.00030543262000000003,100.710396,-81.006424,8.6643095,STD
1230718900000.0,0.0038580638356506824,0.22594201564788818,1.1870794296264648,-0.0671229436993599,-0.0013513783924281597,0.22357668,-0.0027488936,100.63771,-81.041885,8.659034,STD
1470986800000.0,0.005100567825138569,0.26812469959259033,1.419175624847412,-0.07929839938879013,-0.0015947375213727355,0.22449298,-0.00030543262000000003,100.567154,-81.074196,8.654114,STD
1723263900000.0,0.006549592595547438,0.3118470013141632,1.6629750728607178,-0.09180831909179688,-0.0019479275215417147,0.22479841,0.00030543262000000003,100.49762,-81.10611999999999,8.648287,STD
1985088800000.0,0.008208326995372772,0.3566141426563263,1.916111707687378,-0.10449777543544769,-0.002267030533403158,0.20922135,0.0012217305,100.4325,-81.1355,8.643642999999999,STD
2254104700000.0,0.010076907463371754,0.4019637703895569,2.1763174533843994,-0.11722393333911896,-0.002876694081351161,0.19211712,-0.0015271631,100.36790500000001,-81.16305,8.638361999999999,STD
2528092000000.0,0.012154540978372097,0.4474641978740692,2.4414560794830322,-0.12985405325889587,-0.0029782531782984734,0.19547687,0.0033597588,100.3019,-81.18788,8.635703999999999,STD
2804995300000.0,0.014435620978474617,0.4927346706390381,2.7095448970794678,-0.142274409532547,-0.0032917417120188475,0.19150625,-0.00061086525,100.243095,-81.212524,8.630180000000001,STD
3082938500000.0,0.01691361889243126,0.5374334454536438,2.9787745475769043,-0.15438395738601685,-0.0037219971418380737,0.18570304,0.0070249503,100.18372,-81.23183399999999,8.629549,STD
3360236500000.0,0.01958426833152771,0.5812470316886902,3.2475202083587646,-0.16608883440494537,-0.004450895823538303,0.17134771,0.004276057,100.12813,-81.25301999999999,8.625109,STD
3635397000000.0,0.02243535779416561,0.6239312291145325,3.5143373012542725,-0.17732195556163788,-0.005372241139411926,0.16401732,0.0076358155,100.07212,-81.268845,8.624725,STD
3907119500000.0,0.025461018085479736,0.6652542948722839,3.7779698371887207,-0.18801578879356384,-0.006422222126275301,0.15424347,0.010079277,100.02098000000001,-81.28401,8.623560000000001,STD
4174288000000.0,0.028648771345615387,0.7063806056976318,4.036996364593506,-0.19831961393356323,-0.006657179910689592,0.14752395,0.010690141499999998,99.97108,-81.29806500000001,8.622981,STD
4435962500000.0,0.03198884427547455,0.7477239370346069,4.290362358093262,-0.20827607810497284,-0.0074223545379936695,0.13927728,0.009162978,99.924385,-81.30946999999999,8.622641999999999,STD
4691366000000.0,0.0354730561375618,0.7891700267791748,4.537313461303711,-0.2178545594215393,-0.007814197801053524,0.124005646,0.016798794,99.893295,-81.34732,8.59298,STD
4939872500000.0,0.039090320467948914,0.8306048512458801,4.777247428894043,-0.22703313827514648,-0.008876878768205643,0.11789699,0.013439035,99.862114,-81.38596,8.56077,STD
5180991500000.0,0.04283212125301361,0.8719398975372314,5.009693622589111,-0.2357945740222931,-0.010063471272587776,0.10354166,0.009162978,99.837715,-81.42185,8.531531,STD
5414354700000.0,0.04668840765953064,0.9130909442901611,5.234302997589111,-0.24412818253040314,-0.011082781478762627,0.09743301,0.017715093,99.81266,-81.453316,8.505929,STD
5639701500000.0,0.05064960941672325,0.9539863467216492,5.450833797454834,-0.2520279288291931,-0.01158738974481821,0.08124508,0.017104227,99.79469,-81.48728,8.477525,STD
5856866300000.0,0.05470925197005272,0.9945785999298096,5.6591315269470215,-0.2594902217388153,-0.012426672503352165,0.064751714,0.018020526000000002,99.77843,-81.51664,8.452914,STD
6065765000000.0,0.058856673538684845,1.0348076820373535,5.859129905700684,-0.2665178179740906,-0.013189415447413921,0.06780604,0.024129177,99.76097,-81.54381,8.430467,STD
6266384000000.0,0.0630856305360794,1.0746418237686157,6.050824165344238,-0.2731139659881592,-0.014116991311311722,0.053145275,0.021685716,99.753174,-81.5716,8.406761,STD
6458768000000.0,0.06738876551389694,1.1140494346618652,6.2342705726623535,-0.2792853116989136,-0.0148702971637249,0.035124752999999995,0.022296581,99.74519000000001,-81.595764,8.386409,STD
6643011000000.0,0.07175937294960022,1.1530067920684814,6.409572601318359,-0.28504037857055664,-0.01569846086204052,0.026267206,0.02443461,99.738495,-81.618866,8.366541,STD
6819249400000.0,0.07619108259677887,1.1914958953857422,6.576873302459717,-0.2903893291950226,-0.016859078779816628,0.010995574,0.023518313,99.73849,-81.64155,8.346729,STD
6987650700000.0,0.08069009333848953,1.2295631170272827,6.736330032348633,-0.2953360676765442,-0.017875416204333305,0.0012217305,0.025961772999999997,99.73898,-81.66171,8.329165,STD
7148410500000.0,0.08522803336381912,1.267088532447815,6.888178825378418,-0.2999071776866913,-0.018146798014640808,-0.010079277,0.016493361,99.74389000000001,-81.684586,8.308603,STD
7301744000000.0,0.08981143683195114,1.3041248321533203,7.03262186050415,-0.30410853028297424,-0.01853048801422119,-0.02687807,0.014966198,99.75265,-81.703354,8.291644999999999,STD
7447880700000.0,0.09443513303995132,1.340668797492981,7.169894695281982,-0.3079538941383362,-0.019131280481815338,-0.046120327,0.027794369,99.76476,-81.71984,8.276771,STD
7587063400000.0,0.09909895807504654,1.3767427206039429,7.300236701965332,-0.31145450472831726,-0.019986722618341446,-0.05222898,0.025961772999999997,99.77726,-81.73992,8.257933,STD
7719540000000.0,0.10379543900489807,1.4123339653015137,7.423904895782471,-0.31462645530700684,-0.020895695313811302,-0.0720821,0.022296581,99.79851500000001,-81.75603000000001,8.242792999999999,STD
7845564000000.0,0.10852190107107162,1.4474536180496216,7.5411529541015625,-0.3174830377101898,-0.02172870934009552,-0.08827003,0.022602014,99.81971999999999,-81.770676,8.228795,STD
7965390000000.0,0.11327620595693588,1.4821157455444336,7.652235984802246,-0.32003727555274963,-0.02328326180577278,-0.10140363,0.01863139,99.84493,-81.78675,8.2130785,STD
8079272000000.0,0.11805541068315506,1.5163302421569824,7.75740909576416,-0.3223026990890503,-0.025445502251386642,-0.11575896,0.013744468000000001,99.874245,-81.80228000000001,8.197712,STD
8187460700000.0,0.12285693734884262,1.5501086711883545,7.856924533843994,-0.32429245114326477,-0.02861698344349861,-0.12308934,0.007941248,99.90439599999999,-98.18154,8.181513,STD
8290204400000.0,0.12767961621284485,1.583469033241272,7.951028823852539,-0.32601863145828247,-0.03290838375687599,-0.13652839,0.004886922,99.939514,-98.16546,8.165311,STD
8387745000000.0,0.1325196474790573,1.6164158582687378,8.03996753692627,-0.3274948000907898,-0.03837651386857033,-0.14721853,-0.00061086525,99.97504,-98.1477,8.147395,STD
8480319600000.0,0.13737572729587555,1.64896559715271,8.12397575378418,-0.32873260974884033,-0.04499465227127075,-0.15210545,-0.00580322,100.01186,-98.1298,8.129374499999999,STD
8568158300000.0,0.14224542677402496,1.6811283826828003,8.203285217285156,-0.3297441899776459,-0.051756393164396286,-0.15607607,-0.004581489,100.050674,-98.11288499999999,8.112349499999999,STD
8651484000000.0,0.14713317155838013,1.712947130203247,8.278109550476074,-0.33053699135780334,-0.0596996508538723,-0.15210545,-0.008246681,100.087814,-98.093704,8.093214,STD
8730512000000.0,0.15203262865543365,1.744411587715149,8.34867000579834,-0.331124871969223,-0.06839333474636078,-0.16096300000000002,-0.006414085,100.129036,-98.07719,8.076747,STD
8805449000000.0,0.15693849325180054,1.7755157947540283,8.415181159973145,-0.3315207064151764,-0.07828231900930405,-0.15027285,-0.0076358155,100.16283,-98.05944000000001,8.059154,STD
8876497000000.0,0.16185490787029266,1.8062989711761475,8.477832794189453,-0.33173108100891113,-0.08848131448030472,-0.14538592,-0.004886922,100.20025,-98.04411,8.043951,STD
8943846000000.0,0.16677916049957275,1.8367663621902466,8.536819458007812,-0.3317665159702301,-0.09850484877824783,-0.12797627,0.00030543262000000003,100.230515,-98.0299,8.029857000000002,STD
9007680000000.0,0.17171157896518707,1.8669371604919434,8.59232234954834,-0.3316352367401123,-0.10905640572309494,-0.11636983,0.0021380284,100.26068000000001,-81.9837,8.016294,STD
9068176000000.0,0.17664986848831177,1.8968169689178467,8.64451789855957,-0.3313468098640442,-0.11980047076940536,-0.109650314,0.0036651915999999997,100.287,-81.99515500000001,8.004749,STD
9125503000000.0,0.18159550428390503,1.926429033279419,8.693571090698242,-0.33090803027153015,-0.13066156208515167,-0.09040806,0.018936822,100.30624399999999,-82.001366,7.998249499999999,STD
9179820000000.0,0.18654640018939972,1.95577871799469,8.739644050598145,-0.3303276002407074,-0.14143851399421692,-0.08246681,0.021991148999999998,100.326775,-82.00986999999999,7.9892473,STD
9231281000000.0,0.19154280424118042,1.9850770235061646,8.78282642364502,-0.32958757877349854,-0.15113013982772827,-0.070249505,0.03390302,100.34064000000001,-82.01092,7.9875240000000005,JUM
9280034000000.0,0.196506068110466,2.0139544010162354,8.823383331298828,-0.3287435472011566,-0.15998715162277222,-0.04642576,0.04184427,100.34904,-82.01164,7.9858537,JUM
9326216000000.0,0.20146851241588593,2.042581558227539,8.86140251159668,-0.3277818560600281,-0.16862055659294128,-0.04153884,0.047647487,100.359604,-82.00917,7.987177,JUM
9369961000000.0,0.20645254850387573,2.0710809230804443,8.896981239318848,-0.32669466733932495,-0.1765386462211609,-0.030543262,0.050396382999999996,100.36183,-82.00516999999999,7.989965400000001,JUM
9411394000000.0,0.2114250808954239,2.095978021621704,8.928555488586426,-0.32297563552856445,-0.18523965775966644,-0.015271631,0.05955936,100.361786,-81.99715,7.996269,JUM
9450637000000.0,0.21645045280456543,2.1152052879333496,8.9548921585083,-0.3147674798965454,-0.1953478753566742,-0.015577064,0.06169739,100.36345,-81.99002,8.001353,JUM
9487804000000.0,0.22142155468463898,2.1304967403411865,8.97744369506836,-0.30385252833366394,-0.20539215207099915,-0.016187929,0.057726767000000005,100.37071999999999,-81.9169,8.071132,JUM
9523003000000.0,0.22639437019824982,2.1413252353668213,8.995807647705078,-0.289583683013916,-0.21646404266357422,-0.039095376,0.06780604,100.38526999999999,-81.83995999999999,8.143388999999999,JUM
9556336000000.0,0.23137123882770538,2.147891044616699,9.010175704956055,-0.27210038900375366,-0.2278103530406952,-0.053145275,0.071776666,100.39818000000001,-81.7675,8.210621000000002,JUM
9587902000000.0,0.23634955286979675,2.1504507064819336,9.020784378051758,-0.2516067624092102,-0.23847374320030212,-0.09101892,0.077579886,100.42525,-81.693,8.279277,JUM
9617794000000.0,0.24132893979549408,2.149219036102295,9.02783489227295,-0.22826550900936127,-0.24897775053977966,-0.12858713,0.09193522,100.456856,-81.61582,8.34955,JUM
9646099000000.0,0.24631521105766296,2.1443142890930176,9.031447410583496,-0.2021392583847046,-0.2593143880367279,-0.13225232,0.09712757,100.48997,-81.540924,8.417052,JUM
9672902000000.0,0.2512986958026886,2.1360580921173096,9.03190803527832,-0.1735125333070755,-0.2698175311088562,-0.13439035,0.12156218,100.5335,-81.45747,8.492421,JUM
9698280000000.0,0.25628334283828735,2.12457537651062,9.029340744018555,-0.14246132969856262,-0.27987655997276306,-0.12858713,0.14385876,100.57587,-81.37469,8.566785000000001,JUM
9722311000000.0,0.26130542159080505,2.1095352172851562,9.023494720458984,-0.10857419669628143,-0.2901166081428528,-0.10629055,0.1518,100.614136,-81.289795,8.641927,JUM
9745065000000.0,0.2662914991378784,2.0921108722686768,9.015351295471191,-0.0730615109205246,-0.30078819394111633,-0.093767814,0.16187929,100.65358,-81.19944,8.721888,JUM
9766609000000.0,0.27127838134765625,2.0719475746154785,9.004636764526367,-0.035491522401571274,-0.3118845820426941,-0.06963864,0.19303341,100.68333,-81.10206,8.807772,JUM
9787008000000.0,0.2762652039527893,2.049201011657715,8.991497039794922,0.004015132784843445,-0.32478204369544983,-0.035430185,0.20708331,100.70695500000001,-81.00656,8.889273,JUM
9806322000000.0,0.28125500679016113,2.0239667892456055,8.97602653503418,0.04540032148361206,-0.3393685519695282,-0.008246681,0.22937989,100.72594000000001,-80.90096,8.97947,JUM
9824608000000.0,0.2862450182437897,1.9964126348495483,8.958377838134766,0.08852600306272507,-0.3556681275367737,0.0036651915999999997,0.25686884,100.74016999999999,-80.78961,9.072541000000001,JUM
9841922000000.0,0.29123491048812866,1.9666656255722046,8.938669204711914,0.1332954317331314,-0.374712198972702,-0.0030543262,0.29443705,100.75281,-80.66768,9.172198,JUM
9858314000000.0,0.29622766375541687,1.934801459312439,8.916977882385254,0.1796652376651764,-0.39557379484176636,-0.014966198,0.32314770000000004,100.7646,-80.54064,9.274367999999999,JUM
9873834000000.0,0.301220178604126,1.9009732007980347,8.893441200256348,0.2275065928697586,-0.41768428683280945,-0.031154128,0.35643986,100.780624,-80.40046,9.385695,JUM
9888528000000.0,0.3062124252319336,1.8652855157852173,8.868158340454102,0.27674099802970886,-0.43956148624420166,-0.057421334000000004,0.398895,100.80405,-80.25022,9.504930499999999,JUM
9902440000000.0,0.31120410561561584,1.827841877937317,8.841225624084473,0.3272894024848938,-0.4608597159385681,-0.08399397,0.43585235,100.83333,-80.09221,9.628983,JUM
9915611000000.0,0.31619855761528015,1.7886894941329956,8.81269359588623,0.3791315257549286,-0.48087742924690247,-0.094989546,0.48075095,100.86635600000001,-79.92265,9.763956,JUM
9928082000000.0,0.32119259238243103,1.747961401939392,8.78268051147461,0.43215325474739075,-0.501033365726471,-0.08002335,0.5537493,100.89973,-79.73556500000001,9.913704,JUM
9939889000000.0,0.32618626952171326,1.7057408094406128,8.751265525817871,0.48629245162010193,-0.523565948009491,-0.05681047,0.625526,100.93418,-79.53687,10.071784,JUM
9951067000000.0,0.3311993181705475,1.6618355512619019,8.718300819396973,0.541782021522522,-0.5499434471130371,-0.005497787,0.7107416999999999,100.95585,-79.31415,10.249258,JUM
9961650000000.0,0.33619391918182373,1.616842269897461,8.684284210205078,0.5980044007301331,-0.5814908742904663,0.01038471,0.75961095,100.98174,-79.078445,10.431764,JUM
9971669000000.0,0.3411875069141388,1.570591926574707,8.64908504486084,0.6551647186279297,-0.6144012808799744,0.06017022599999999,0.83108217,100.982864,-78.81574,10.637899,JUM
9981156000000.0,0.34618350863456726,1.5231053829193115,8.6127290725708,0.7132627964019775,-0.6502946615219116,0.07147124,0.8921687,100.99180600000001,-78.53405,10.8492365,JUM
9990137000000.0,0.3511790931224823,1.474485158920288,8.575307846069336,0.7722090482711792,-0.6882796883583069,0.040927973,0.97494096,100.99903,-78.22845,11.080548,JUM
9998640000000.0,0.35617518424987793,1.4247792959213257,8.53686809539795,0.8319716453552246,-0.7273659706115723,-0.056199603,1.0241156,101.02426,-77.91439,11.313977000000001,JUM
10006690000000.0,0.36117151379585266,1.374049425125122,8.497467041015625,0.892503023147583,-0.7682760953903198,-0.14905111,1.1001683,101.05720500000001,-77.568344,11.572024,JUM
10014311000000.0,0.36616823077201843,1.3223470449447632,8.457154273986816,0.9537653923034668,-0.8126055598258972,-0.23884831,1.1566733,101.11861,-77.211555,11.833143,JUM
10021526000000.0,0.3711647391319275,1.2697322368621826,8.415984153747559,1.0157109498977661,-0.8602046966552734,-0.2968805,1.2064588,101.19753,-76.835335,12.10764,JUM
10028358000000.0,0.376160204410553,1.216265320777893,8.374011993408203,1.0782907009124756,-0.9115340113639832,-0.30940324,1.2125676,101.28996,-76.44971,12.378845,JUM
10034825000000.0,0.3811574876308441,1.1619528532028198,8.33124828338623,1.1415126323699951,-0.9673388600349426,-0.2648101,1.149343,101.38407,-76.06169,12.636258,JUM
10040949000000.0,0.38615474104881287,1.1068642139434814,8.287755966186523,1.205316424369812,-1.0252810716629028,-0.2574797,1.0332786,101.49525,-75.68273,12.87388,JUM
10046746000000.0,0.391151487827301,1.0510473251342773,8.243578910827637,1.26966392993927,-1.0810636281967163,-0.35460728,0.88208944,101.628716,-75.32741,13.0787735,JUM
10052235000000.0,0.39615046977996826,0.9945035576820374,8.198722839355469,1.3345664739608765,-1.1275259256362915,-0.5439755000000001,0.6765333,101.794685,-75.02507,13.233111,JUM
10057431000000.0,0.4011632204055786,0.9371108412742615,8.153092384338379,1.4001675844192505,-1.1576772928237915,-0.72204274,0.5207626000000001,101.99070999999999,-74.76805,13.358414000000002,JUM
10062351000000.0,0.40615954995155334,0.8793206810951233,8.107062339782715,1.46599280834198,-1.1722402572631836,-0.8570439000000001,0.410196,102.23498000000001,-74.56981,13.442004999999998,JUM
10067009000000.0,0.41115692257881165,0.8221556544303894,8.064080238342285,1.5303032398223877,-1.1757729053497314,-0.990518,0.30085114,102.53449,-74.43705,13.487976000000002,JUM
10071419000000.0,0.4161524474620819,0.7663009762763977,8.02601146697998,1.5920482873916626,-1.1700022220611572,-1.1572843000000002,0.1957823,102.88345,-74.36445,13.51046,JUM
10075595000000.0,0.4211500287055969,0.711661696434021,7.9926323890686035,1.6513772010803223,-1.15447998046875,-1.3603969,0.07788532,103.296616,-74.24671,13.464660999999998,JUM
10079548000000.0,0.4261474907398224,0.658186674118042,7.963672161102295,1.7084118127822876,-1.1298071146011353,-1.4526376,-0.01160644,103.725914,-74.16836500000001,13.400561999999999,JUM
10083290000000.0,0.43114593625068665,0.6058065295219421,7.938906669616699,1.7632781267166138,-1.1016310453414917,-1.4288138000000001,-0.033292156,104.17864,-74.111565,13.327395999999998,JUM
10086833000000.0,0.4361438453197479,0.5544727444648743,7.918097496032715,1.816086769104004,-1.0752005577087402,-1.1786644,-0.118507855,104.59475,-74.10059,13.206733999999999,JUM
10090189000000.0,0.44114071130752563,0.5041331052780151,7.901028156280518,1.8669456243515015,-1.0549640655517578,-0.8072583999999999,-0.23915374,104.96713000000001,-74.09821,13.065149,JUM
10093365000000.0,0.4461430311203003,0.4546922743320465,7.887563705444336,1.9159795045852661,-1.0418121814727783,-0.35277468,-0.34391713,105.24287,-74.10054000000001,12.891366,JUM
10096372000000.0,0.4511416554450989,0.406160444021225,7.877424240112305,1.9632569551467896,-1.0340652465820312,0.059864793,-0.43218717,105.42658,-74.107315,12.676473,JUM
10099220000000.0,0.45613977313041687,0.3584696054458618,7.870462417602539,2.0088813304901123,-1.031044602394104,0.31398472,-0.4822781,105.52859,-74.10045,12.433357,JUM
10101916000000.0,0.4611395001411438,0.3115612864494324,7.86652946472168,2.0529472827911377,-1.0308055877685547,0.3640757,-0.5870415,105.58015,-74.10294,12.14532,JUM
10104468000000.0,0.4661385118961334,0.2654085159301758,7.86544132232666,2.0955307483673096,-1.0307095050811768,0.26572640000000003,-0.7141015000000001,105.609055,-74.10112,11.837778,JUM
10106885000000.0,0.47113630175590515,0.21997450292110443,7.86704158782959,2.136708974838257,-1.0238960981369019,0.05375614,-0.8258898000000001,105.66526999999999,-74.11946999999999,11.515514999999999,JUM
10109173000000.0,0.47613421082496643,0.1752125769853592,7.871199131011963,2.176560878753662,-1.0061819553375244,-0.22937989,-0.88361657,105.77787,-74.15550999999999,11.190063,JUM
10111340000000.0,0.48113352060317993,0.13107851147651672,7.877790927886963,2.2151613235473633,-0.9779200553894043,-0.47036624,-0.91232723,105.94606999999999,-74.22098000000001,10.859591499999999,JUM
10113391000000.0,0.4861323833465576,0.08755040913820267,7.886669635772705,2.2525713443756104,-0.9416746497154236,-0.57757306,-0.9245445999999999,106.15985,-74.31732,10.53472,JUM
10115333000000.0,0.49113088846206665,0.0445956289768219,7.897713661193848,2.2888545989990234,-0.8973828554153442,-0.5222898,-0.9419542,106.39692,-74.455376,10.213154,JUM
10117172000000.0,0.4961314797401428,0.0021675261668860912,7.910832405090332,2.3240790367126465,-0.8449037671089172,-0.40958515,-0.9779953000000001,106.64792,-74.62836999999999,9.893854,JUM
10118914000000.0,0.5011309385299683,-0.03974132239818573,7.925883769989014,2.358290672302246,-0.7833226919174194,-0.31734450000000003,-1.0027353,106.88693,-74.837944,9.578744,JUM
10120563000000.0,0.5061296820640564,-0.08116103708744049,7.942768573760986,2.391545057296753,-0.7136944532394409,-0.2415972,-1.0173961,107.09763000000001,-75.082954,9.25872,JUM
10122124000000.0,0.5111311078071594,-0.12213972210884094,7.961421966552734,2.4239039421081543,-0.6357804536819458,-0.16462818,-1.0366384,107.28072,-75.37534000000001,8.932963,JUM
10123603000000.0,0.5161303877830505,-0.1626700907945633,7.981703758239746,2.455399751663208,-0.5506245493888855,-0.092240654,-1.0690142,107.44219,-75.707535,8.603186,JUM
10125003000000.0,0.5211299061775208,-0.20279107987880707,8.003549575805664,2.486085891723633,-0.4576197862625122,-0.009773844,-1.0916162,107.57611000000001,-76.086235,8.273595,JUM
10126328000000.0,0.5261278748512268,-0.24251259863376617,8.02685832977295,2.5159997940063477,-0.3584215044975281,0.018936822,-1.0711522,107.70052,-76.49598,7.953892,JUM
10127583000000.0,0.5311274528503418,-0.28187623620033264,8.051582336425781,2.5451924800872803,-0.25921961665153503,0.01038471,-1.0418307,107.809105,-76.924934,7.635687400000001,JUM
10128771000000.0,0.5361266136169434,-0.320888489484787,8.077628135681152,2.5736963748931885,-0.15801218152046204,-0.062308256,-0.94989544,107.91906000000002,-77.38552,7.350163,JUM
10129896000000.0,0.5411247611045837,-0.3595638573169708,8.104917526245117,2.601545810699463,-0.056891944259405136,-0.13683382,-0.8338310999999999,108.02516999999999,-77.8401,7.087175,JUM
10130962000000.0,0.5461254715919495,-0.39794373512268066,8.133420944213867,2.6287875175476074,0.042208753526210785,-0.16920967,-0.70157874,108.12998999999999,-78.28835,6.862267999999999,JUM
10131970000000.0,0.5511252284049988,-0.4360211193561554,8.16303825378418,2.655442476272583,0.13690710067749023,-0.15149458,-0.5662721,108.231384,-78.71718,6.677187400000001,JUM
10132926000000.0,0.556124210357666,-0.473813533782959,8.193713188171387,2.6815426349639893,0.22305911779403687,-0.105068825,-0.47769663,108.32524,-79.11572,6.5203489999999995,JUM
10133831000000.0,0.5611249208450317,-0.5113519430160522,8.225412368774414,2.707125425338745,0.2958626449108124,-0.043066,-0.44715336,108.40185,-79.47152,6.3867435,JUM
10134687000000.0,0.5661250352859497,-0.5486351251602173,8.25805950164795,2.7322113513946533,0.3534735441207886,-0.020158553,-0.44379359999999995,108.46994,-79.78125,6.272453,JUM
10135499000000.0,0.571124255657196,-0.5856750011444092,8.291601181030273,2.7568256855010986,0.3950737416744232,-0.050396382999999996,-0.48441613,108.53303999999999,-80.04141,6.156066,JUM
10136268000000.0,0.5761227607727051,-0.6224851608276367,8.325990676879883,2.780993938446045,0.42040959000587463,-0.15699236,-0.54153204,108.60943,-80.245186,6.0402336,JUM
10136995000000.0,0.5811229348182678,-0.6590929627418518,8.3612060546875,2.8047475814819336,0.4289317727088928,-0.30115658,-0.6291912,108.70591,-80.3958,5.909422,JUM
10137685000000.0,0.5861401557922363,-0.695611298084259,8.397356986999512,2.8281593322753906,0.4206247627735138,-0.44287730000000003,-0.72143185,108.83258000000001,-80.488884,5.768269999999999,JUM
10138338000000.0,0.5911376476287842,-0.7318091988563538,8.434038162231445,2.851130247116089,0.399120032787323,-0.5204572000000001,-0.79290307,108.98279,-80.53364,5.615258,JUM
10138957000000.0,0.5961374640464783,-0.7678415179252625,8.471428871154785,2.8737523555755615,0.36805087327957153,-0.52106804,-0.86590147,109.15333999999999,-80.52954,5.443122,JUM
10139543000000.0,0.6011360883712769,-0.8036947250366211,8.5094575881958,2.8960330486297607,0.33040112257003784,-0.48624873,-0.9410379000000001,109.33738000000001,-80.480446,5.25749,JUM
10140098000000.0,0.6061328649520874,-0.839373767375946,8.548083305358887,2.9179883003234863,0.2890119254589081,-0.45906523,-1.0213667,109.52597,-80.39763,5.0564423,JUM
10140623000000.0,0.6111336350440979,-0.8732000589370728,8.576422691345215,2.9348652362823486,0.24709388613700867,-0.43157628,-1.103528,109.7073,-80.29226,4.8392663,JUM
10141121000000.0,0.616131603717804,-0.9044155478477478,8.589818000793457,2.9446558952331543,0.20643313229084015,-0.39553526,-1.1691961000000002,109.88113999999999,-80.16660999999999,4.6101584,JUM
10141593000000.0,0.6211304068565369,-0.9331486225128174,8.588885307312012,2.947655439376831,0.16974608600139618,-0.33444872,-1.1957687,110.05208999999999,-80.07589,4.240292500000001,JUM
10142040000000.0,0.6261284947395325,-0.9595363140106201,8.574467658996582,2.9442617893218994,0.1383184939622879,-0.29168814,-1.2046263000000001,110.21918000000001,-79.97383,3.8655660000000003,JUM
10142463000000.0,0.6311283707618713,-0.983695924282074,8.54715633392334,2.9347572326660156,0.10983539372682571,-0.19456059,-1.1957687,110.35321,-79.852875,3.492512,JUM
10142863000000.0,0.6361275911331177,-1.005753517150879,8.507760047912598,2.9195234775543213,0.08682563155889511,-0.039095376,-1.1252137,110.45532,-79.74069,3.1387297999999997,JUM
10143243000000.0,0.6411262154579163,-1.0258209705352783,8.456920623779297,2.89886474609375,0.0685417577624321,0.13652839,-1.0134254999999999,110.52123999999999,-79.615234,2.8022148999999996,JUM
10143602000000.0,0.646128237247467,-1.0439921617507935,8.39504337310791,2.872976303100586,0.05538300424814224,0.27550024,-0.8747590000000001,110.548325,-79.49586500000001,2.495213,JUM
10143943000000.0,0.6511257290840149,-1.060391902923584,8.323113441467285,2.8423192501068115,0.046392593532800674,0.35705075,-0.71868294,110.53542,-79.37548000000001,2.225722,JUM
10144266000000.0,0.6561647057533264,-1.074974536895752,8.239337921142578,2.806075096130371,0.03867889940738678,0.34910949999999996,-0.5708536,110.50194499999999,-79.25098,1.9964925,JUM
10144572000000.0,0.6611619591712952,-1.0880848169326782,8.148468017578125,2.76643967628479,0.030611252412199974,0.26633725,-0.44593164,110.45981599999999,-79.12762,1.8093953999999999,JUM
10144863000000.0,0.6661585569381714,-1.0996822118759155,8.048906326293945,2.7226834297180176,0.023168880492448807,0.12980886,-0.32223140000000006,110.42738999999999,-79.00684,1.6707351000000001,JUM
10145137000000.0,0.6711548566818237,-1.1098467111587524,7.941102027893066,2.6750197410583496,0.016644008457660675,-0.010995574,-0.19303341,110.41228500000001,-78.879944,1.5763928,JUM
10145397000000.0,0.6761519312858582,-1.1186511516571045,7.825437545776367,2.6236305236816406,0.011638833209872246,-0.13530666,-0.03145956,110.42182,-78.75395,1.5344386,JUM
10145644000000.0,0.6811487674713135,-1.1261708736419678,7.702380657196045,2.5687367916107178,0.008153754286468029,-0.21197024,0.13713925,110.44901999999999,-78.62902,1.5368711000000002,JUM
10145878000000.0,0.6861456632614136,-1.1324735879898071,7.572311878204346,2.510519027709961,0.006530971731990576,-0.2443461,0.32559118,110.48718000000001,-78.50861,1.5944592,JUM
10146099000000.0,0.691142737865448,-1.137623906135559,7.435599327087402,2.4491519927978516,0.006150363478809595,-0.20005837,0.50854534,110.514595,-78.38825,1.6963016,JUM
10146309000000.0,0.6961407661437988,-1.1416807174682617,7.292556285858154,2.384784698486328,0.004487851168960333,-0.12797627,0.675617,110.53184499999999,-78.2584,1.8439708,JUM
10146508000000.0,0.7011381387710571,-1.1447069644927979,7.143598556518555,2.317613363265991,-0.0009275157353840768,-0.030543262,0.82344633,110.51874,-78.11499,2.0295131,JUM
10146697000000.0,0.7061308026313782,-1.1467702388763428,6.989250659942627,2.2478835582733154,-0.010693327523767948,0.015577064,0.9370673,110.49099,-77.954666,2.2460084,JUM
10146876000000.0,0.7111273407936096,-1.147896409034729,6.829376697540283,2.175536632537842,-0.02441496215760708,-0.014660766,1.0180069,110.44978,-77.76965,2.4876517999999996,JUM
10147046000000.0,0.7161222100257874,-1.1481516361236572,6.664542198181152,2.100837230682373,-0.041311897337436676,-0.124005646,1.0870347,110.411156,-77.5584,2.7532654,JUM
10147207000000.0,0.7211171388626099,-1.1475774049758911,6.494927406311035,2.023871898651123,-0.06106841564178467,-0.20158553,1.1239921,110.368454,-77.32291,3.0255356,JUM
10147360000000.0,0.7261117100715637,-1.14621901512146,6.32080602645874,1.944770097732544,-0.08123701810836792,-0.37384954,1.142318,110.37898999999999,-77.07731,3.317045,JUM
10147505000000.0,0.7311075925827026,-1.144113302230835,6.142337322235107,1.8636081218719482,-0.10168179869651794,-0.56321776,1.1420126,110.41376000000001,-76.81375,3.6123053999999994,JUM
10147642000000.0,0.736103355884552,-1.14130437374115,5.959823131561279,1.7805284261703491,-0.1187581941485405,-0.6979135000000001,1.1252137,110.47995,-76.56362,3.9081035,JUM
10147772000000.0,0.7410985231399536,-1.1378310918807983,5.773500442504883,1.6956430673599243,-0.13069242238998413,-0.73456544,1.0656544,110.57258600000002,-76.32271,4.19035,JUM
10147896000000.0,0.7460958361625671,-1.1337205171585083,5.583436965942383,1.6089859008789062,-0.13494256138801575,-0.67164636,1.0073168,110.67406000000001,-76.11152,4.463295,JUM
10148014000000.0,0.7510925531387329,-1.1290146112442017,5.389962196350098,1.5207111835479736,-0.13043686747550964,-0.548557,0.9388999,110.77157,-75.93771,4.7085360000000005,JUM
10148125000000.0,0.7560930252075195,-1.1237319707870483,5.19304084777832,1.4308052062988281,-0.11699086427688599,-0.41844269999999995,0.87964594,110.85116599999999,-75.808975,4.929298,JUM
10148231000000.0,0.7610951066017151,-1.1179094314575195,4.99295711517334,1.3394012451171875,-0.09447874873876572,-0.2846632,0.8127562,110.89929,-75.73451,5.1149654,JUM
10148331000000.0,0.7660962343215942,-1.1115829944610596,4.790001392364502,1.2466353178024292,-0.06597177684307098,-0.15149458,0.7452555999999999,110.91453600000001,-75.69924,5.270485400000001,JUM
10148427000000.0,0.77109694480896,-1.1047782897949219,4.584305286407471,1.1525698900222778,-0.03362877294421196,-0.018936822,0.6908886,110.89587399999999,-75.70841,5.3980120000000005,JUM
10148517000000.0,0.7760970592498779,-1.0975213050842285,4.376022815704346,1.0572781562805176,0.0007669272599741817,0.08216137400000001,0.6560693,110.852005,-75.749176,5.5020112999999995,JUM
10148603000000.0,0.7810982465744019,-1.0898312330245972,4.165210247039795,0.960787832736969,0.037008266896009445,0.16737708,0.62125,110.77946999999999,-75.82018000000001,5.5803695,JUM
10148685000000.0,0.7860990166664124,-1.0817354917526245,3.9520761966705322,0.863196611404419,0.07284827530384064,0.24648413,0.59528816,110.68266000000001,-75.90015,5.6429515,JUM
10148762000000.0,0.7910990118980408,-1.0732569694519043,3.7367630004882812,0.7645719051361084,0.1069573238492012,0.32834008,0.57971114,110.56358999999999,-75.992165,5.691127,JUM
10148836000000.0,0.7961108088493347,-1.0643774271011353,3.5187461376190186,0.6646736860275269,0.13623729348182678,0.47036624,0.5674938,110.4079,-76.0766,5.7225470000000005,JUM
10148906000000.0,0.8011153340339661,-1.0551749467849731,3.299111843109131,0.5640037059783936,0.16097809374332428,0.64934975,0.5503895999999999,110.22134399999999,-76.16266,5.7395086,JUM
10148972000000.0,0.8061113953590393,-1.0456714630126953,3.0780251026153564,0.46263936161994934,0.18013572692871094,0.85918194,0.55771995,109.98711000000002,-76.22518000000001,5.748035400000001,JUM
10149035000000.0,0.8111127614974976,-1.0286015272140503,2.882199287414551,0.36932626366615295,0.19508203864097595,1.0586295000000001,0.5647449000000001,109.70885,-76.2802,5.740507599999999,JUM
10149095000000.0,0.8161112666130066,-1.0009255409240723,2.7237637042999268,0.2881377041339874,0.20626933872699738,1.2168436000000002,0.58093286,109.38513,-76.31419,5.7265377,JUM
10149152000000.0,0.8211115002632141,-0.9630154967308044,2.601177930831909,0.218547523021698,0.21479322016239166,1.2623531000000001,0.5824600000000001,109.02048500000001,-76.48772,5.7588263,JUM
10149207000000.0,0.82611083984375,-0.9155262112617493,2.512275457382202,0.15986965596675873,0.22242334485054016,1.2846496,0.57818395,108.61806999999999,-76.65474,5.7857685,JUM
10149258000000.0,0.831111490726471,-0.8588774800300598,2.4554736614227295,0.11157891899347305,0.22875158488750458,1.1939361000000002,0.5186246,108.23877,-76.81766,5.8016167,JUM
10149308000000.0,0.8361114263534546,-0.7936388254165649,2.4288711547851562,0.07307117432355881,0.23518206179141998,0.98624194,0.42210788,107.88938,-76.99168399999999,5.811262999999999,JUM
10149355000000.0,0.8411121964454651,-0.7202052474021912,2.4310054779052734,0.043864086270332336,0.24367889761924744,0.6930265999999999,0.35827246,107.59204,-77.17591999999999,5.8232,JUM
10149400000000.0,0.8461137413978577,-0.6390110850334167,2.460350751876831,0.02346344105899334,0.25450634956359863,0.33505958,0.30268374,107.37735,-77.37724,5.825304,JUM
10149443000000.0,0.851113498210907,-0.550581693649292,2.51519513130188,0.011330541223287582,0.2666286528110504,-0.013439035,0.25992316,107.24618000000001,-77.59405500000001,5.8281612,JUM
10149484000000.0,0.856113076210022,-0.455237478017807,2.594332456588745,0.007065245881676674,0.27786076068878174,-0.27214047,0.20433442,107.19493999999999,-77.82472,5.8254747,JUM
10149523000000.0,0.8611136078834534,-0.3532957136631012,2.6965878009796143,0.010280066169798374,0.2878594696521759,-0.43890667,0.16096300000000002,107.21815,-78.06784,5.826728,JUM
10149559000000.0,0.8661140203475952,-0.24515458941459656,2.82062029838562,0.02054745890200138,0.2957301437854767,-0.5360342,0.12156218,107.297646,-78.31378000000001,5.8218403,JUM
10149595000000.0,0.8711138963699341,-0.1311630755662918,2.9652259349823,0.037480007857084274,0.30119553208351135,-0.6221663000000001,0.08857546,107.4231,-78.56153,5.812744,JUM
10149628000000.0,0.8761129379272461,-0.011646941304206848,3.129275321960449,0.06071384251117706,0.304139643907547,-0.6942484,0.05222898,107.57406999999999,-78.808464,5.793774,JUM
10149661000000.0,0.8811134696006775,0.11319947987794876,3.31196665763855,0.08997529745101929,0.30498987436294556,-0.7293731,0.01985312,107.74009,-79.0535,5.767035,JUM
10149691000000.0,0.8861133456230164,0.24300368130207062,3.512099504470825,0.12488821893930435,0.30410194396972656,-0.7144069000000001,-0.0036651915999999997,107.91318999999999,-79.29529000000001,5.7316437,JUM
10149721000000.0,0.8911132216453552,0.3775247037410736,3.7287986278533936,0.16516587138175964,0.2993222177028656,-0.57635134,-0.021380282999999996,108.06193999999999,-79.52403000000001,5.6830134,JUM
10149749000000.0,0.8961150646209717,0.5165996551513672,3.961388349533081,0.21057727932929993,0.2855679392814636,-0.30940324,-0.03634648,108.17,-79.72662,5.6207123,JUM
10149775000000.0,0.9011152386665344,0.6598321795463562,4.208662033081055,0.26075348258018494,0.2537789046764374,0.12003502,-0.06047566,108.19296999999999,-79.875275,5.536739,JUM
10149800000000.0,0.9061148166656494,0.80704265832901,4.469935417175293,0.3154665231704712,0.1924314647912979,0.6203337,-0.05009095,108.11831000000001,-79.92555,5.443045,JUM
10149825000000.0,0.9111543893814087,0.9597901701927185,4.748608112335205,0.37557458877563477,0.09808747470378876,0.86376345,0.004276057,107.99335,-79.866646,5.3465185,JUM
10149848000000.0,0.9161526560783386,1.114321231842041,5.03565788269043,0.43864232301712036,-0.002346092602238059,0.86834496,0.08460484,107.79238000000001,-79.77453,5.2479496,JUM
10149870000000.0,0.921150267124176,1.2722210884094238,5.33457088470459,0.5055555701255798,-0.07004877924919128,0.6930265999999999,0.10170906,107.57413500000001,-79.69419,5.142208599999999,JUM
10149892000000.0,0.9261472225189209,1.4333078861236572,5.644709587097168,0.576107919216156,-0.1144152507185936,0.41935900000000004,0.050396382999999996,107.38266999999999,-79.52435,5.041707499999999,JUM
10149913000000.0,0.9311457872390747,1.597511887550354,5.965710163116455,0.6501675844192505,-0.12780173122882843,0.11698069400000001,-0.06352998,107.25157,-79.53139,4.936211599999999,JUM
10149933000000.0,0.9361443519592285,1.7645971775054932,6.296830654144287,0.727504312992096,-0.14517895877361298,-0.20738874,-0.21044308,107.20833600000002,-79.48624000000001,4.819285,JUM
10149951000000.0,0.9411417841911316,1.934361219406128,6.637416839599609,0.8079131245613098,-0.2020956128835678,-0.6038403,-0.37018433,107.27673,-79.42331999999999,4.682894999999999,JUM
10149969000000.0,0.9461409449577332,2.1067848205566406,6.987253189086914,0.8913068771362305,-0.29095903038978577,-0.8912524,-0.58459806,107.41476399999999,-79.38802,4.498476999999999,JUM
10149987000000.0,0.9511395692825317,2.281630516052246,7.34562349319458,0.9774672389030457,-0.3691617250442505,-1.1707232,-0.85154617,107.67236000000001,-79.37687,4.271814,JUM
10150004000000.0,0.9561377167701721,2.4587717056274414,7.712078094482422,1.0662481784820557,-0.410967618227005,-1.7183639,-0.9245445999999999,108.08803,-79.31959,4.0671163,JUM
10150021000000.0,0.961137056350708,2.6381583213806152,8.086355209350586,1.1575548648834229,-0.4314359724521637,-2.1135938,-0.5699373000000001,108.53043999999998,-79.203026,3.9157794000000004,JUM
10150036000000.0,0.966136634349823,2.8196287155151367,8.467940330505371,1.2512266635894775,-0.4477859139442444,-2.0470095,-0.09101892,108.99213999999999,-79.15868,3.7826385,JUM
10150051000000.0,0.9711351990699768,3.0030205249786377,8.8563232421875,1.347105860710144,-0.4581534266471863,-1.6151277,0.24709499,109.44971000000001,-79.19954,3.7098677,JUM
10150066000000.0,0.9761332869529724,3.1882524490356445,9.251191139221191,1.4450876712799072,-0.46175047755241394,-0.9947940999999999,0.28802297,109.82481000000001,-79.244896,3.6747098,JUM
10150079000000.0,0.9811707139015198,3.376962661743164,9.656262397766113,1.5461384057998657,-0.45634979009628296,-0.61850107,0.10231992599999999,110.140526,-79.320305,3.6605883,JUM
10150093000000.0,0.9861677289009094,3.5655746459960938,10.063055992126465,1.6479884386062622,-0.436701238155365,-0.38881573,-0.007330383,110.31598000000001,-79.44659399999999,3.654701,JUM
10150107000000.0,0.9911644458770752,3.7557530403137207,10.475364685058594,1.751625895500183,-0.408333420753479,-0.009773844,-0.14355333,110.352585,-79.6164,3.5619282999999995,JUM
10150119000000.0,0.9961644411087036,3.94756817817688,10.893253326416016,1.8570507764816284,-0.3822261393070221,0.453262,-0.35521814,110.30828999999999,-79.826775,3.4008467000000002,JUM
10150132000000.0,1.0011627674102783,4.14072322845459,11.315935134887695,1.9640378952026367,-0.3555569052696228,0.74220127,-0.57848936,110.211395,-80.11610999999999,3.1876094,JUM
10150143000000.0,1.0061568021774292,4.335030555725098,11.742881774902344,2.0724315643310547,-0.32081925868988037,0.8564331000000001,-0.7987063,110.04061999999999,-80.45998,2.9012887000000003,JUM
10150155000000.0,1.0111557245254517,4.496649265289307,12.157901763916016,2.178051233291626,-0.2761155366897583,0.8671232,-0.9654725000000001,109.82263999999999,-80.839455,2.5579853,JUM
10150166000000.0,1.016152262687683,4.607141494750977,12.5510835647583,2.2783217430114746,-0.22583456337451935,0.8350528,-1.0564915000000001,109.58757,-81.25625600000001,2.1704714,JUM
10150177000000.0,1.0211502313613892,4.688119888305664,12.91296672821045,2.374169111251831,-0.175645112991333,0.7669413,-1.0705414,109.30675500000001,-81.054405,2.9822013,JUM
10150187000000.0,1.0261482000350952,4.745815277099609,13.242794036865234,2.465972661972046,-0.1238820031285286,0.6569856,-1.0855075,109.073425,-80.92191,3.580754,JUM
10150198000000.0,1.031144618988037,4.7815752029418945,13.542346000671387,2.5539419651031494,-0.07084070891141891,0.5140431,-1.0879510000000001,108.862724,-80.873405,3.9501958,JUM
10150207000000.0,1.0361429452896118,4.796337127685547,13.813079833984375,2.638294219970703,-0.016442859545350075,0.32834008,-1.0797043,108.70988,-80.87147,4.2366443,JUM
10150217000000.0,1.0411404371261597,4.791398525238037,14.05665111541748,2.719212293624878,0.03707437589764595,0.13408493,-1.0732902,108.6099,-80.899315,4.4615282999999994,JUM
10150226000000.0,1.0461398363113403,4.767626762390137,14.274385452270508,2.796889543533325,0.08943237364292145,-0.021685716,-1.0699303999999998,108.55698999999998,-80.960464,4.641984,JUM
10150236000000.0,1.0511692762374878,4.7240071296691895,14.466300010681152,2.8716118335723877,0.13794204592704773,-0.13530666,-1.0818423000000001,108.57485,-81.04113000000001,4.8018064,JUM
10150245000000.0,1.0561662912368774,4.665938377380371,14.636693000793457,2.9432928562164307,0.1814086139202118,-0.21685717,-1.1200215,108.62714,-81.13458,4.9247312999999995,JUM
10150253000000.0,1.0611635446548462,4.605094909667969,14.747653007507324,3.0147409439086914,0.21863588690757751,-0.23487769,-1.1682798,108.69615,-81.22912600000001,5.015559,JUM
10150262000000.0,1.0661635398864746,4.548268795013428,14.78269100189209,3.087289810180664,0.24963082373142242,-0.21624629,-1.2223413,108.77573999999998,-81.32519,5.0726333,JUM
10150270000000.0,1.0711605548858643,4.492307186126709,14.73930549621582,3.1443557739257812,0.2738465964794159,-0.23060162,-1.2727377,108.876015,-81.47275,4.9592410000000005,JUM
10150279000000.0,1.0761576890945435,4.435723304748535,14.617008209228516,3.178675413131714,0.29174214601516724,-0.24220806,-1.3081678999999997,108.96672,-81.60891,4.832688,JUM
10150287000000.0,1.08115553855896,4.382211208343506,14.418724060058594,3.177309036254883,0.3023846447467804,-0.18936823,-1.3048081,109.086,-81.67768000000001,4.7180257,JUM
10150294000000.0,1.086156964302063,4.334692001342773,14.14671516418457,3.1299428939819336,0.30808138847351074,-0.01282817,-1.255328,109.16866999999999,-81.729805,4.6041927000000005,JUM
10150302000000.0,1.0911533832550049,4.286726474761963,13.816434860229492,3.0436697006225586,0.30968189239501953,0.16432275,-1.1667526000000001,109.23466499999999,-81.77,4.503141,JUM
10150309000000.0,1.0961540937423706,4.233675479888916,13.435230255126953,2.9215686321258545,0.3097972571849823,0.32345316,-1.0653489999999999,109.253174,-81.78850600000001,4.4175806,JUM
10150316000000.0,1.1011525392532349,4.169635772705078,13.013416290283203,2.767592430114746,0.30987390875816345,0.49449542,-0.95417154,109.19288999999999,-81.86565,4.359462000000001,JUM
10150324000000.0,1.106150507926941,4.088037967681885,12.55939769744873,2.58439302444458,0.31069526076316833,0.6542366999999999,-0.8521569999999999,109.08976000000001,-81.92283,4.324927,JUM
10150331000000.0,1.1111477613449097,3.985238790512085,12.084983825683594,2.3862502574920654,0.3123355209827423,0.7153232,-0.7507534,108.93999,-82.06512,4.2683253,JUM
10150338000000.0,1.1161448955535889,3.8585143089294434,11.59941291809082,2.1843421459198,0.3146533966064453,0.7339545999999999,-0.70402217,108.756775,-82.20033000000001,4.2250657,JUM
10150346000000.0,1.1211501359939575,3.7109603881835938,11.108241081237793,1.98367178440094,0.31720584630966187,0.655153,-0.6072,108.5334,-82.41665,4.1744084,JUM
10150353000000.0,1.126146912574768,3.5475709438323975,10.618667602539062,1.7890875339508057,0.3187107443809509,0.52198434,-0.52320606,108.31951000000001,-82.623276,4.1380669999999995,JUM
10150359000000.0,1.131144642829895,3.3706297874450684,10.131806373596191,1.6006871461868286,0.3199075758457184,0.36621370000000003,-0.43401974,108.10671,-82.87895999999999,4.0915236,JUM
10150366000000.0,1.1361428499221802,3.1871964931488037,9.653263092041016,1.4197683334350586,0.32169172167778015,0.23976462,-0.32559118,107.919876,-83.11486,4.078914,JUM
10150372000000.0,1.1411404609680176,3.0043258666992188,9.188680648803711,1.2518460750579834,0.3215251564979553,0.15454891,-0.19456059,107.76952,-83.36927,4.0410379999999995,JUM
10150378000000.0,1.146139144897461,2.829549551010132,8.744138717651367,1.1030170917510986,0.3179817795753479,0.099265605,-0.044898596,107.63956,-83.59391,4.041357499999999,JUM
10150385000000.0,1.151137113571167,2.6621222496032715,8.316967010498047,0.9772466421127319,0.308946430683136,0.06291912,0.113926366,107.526634,-83.809074,4.0115680000000005,JUM
10150391000000.0,1.1561359167099,2.500863552093506,7.902295112609863,0.8854691386222839,0.2943211495876312,-0.029321532999999997,0.23151793,107.44206000000001,-83.98676,4.015179,JUM
10150397000000.0,1.1611354351043701,2.346975088119507,7.50119686126709,0.8305650949478149,0.27542930841445923,-0.13439035,0.3295618,107.38987,-84.09029,4.052548000000001,JUM
10150403000000.0,1.166133999824524,2.204498767852783,7.118015766143799,0.8240360021591187,0.2549724578857422,-0.25381452,0.41080686,107.36605,-84.15793599999999,4.119872,JUM
10150410000000.0,1.1711328029632568,2.0751442909240723,6.755685329437256,0.8666049838066101,0.23262706398963928,-0.39461896,0.46395215,107.42248500000001,-84.11528,4.2027373,JUM
10150416000000.0,1.1761304140090942,1.9676507711410522,6.429153919219971,0.9680429697036743,0.206573024392128,-0.5674938,0.50823987,107.52091999999999,-84.04122,4.308292,JUM
10150422000000.0,1.1811280250549316,1.8800069093704224,6.136548042297363,1.1172423362731934,0.17482683062553406,-0.7351763000000001,0.54000485,107.73483999999999,-83.79943,4.445478400000001,JUM
10150429000000.0,1.1861270666122437,1.8072450160980225,5.875962734222412,1.2760270833969116,0.13529905676841736,-0.8552113000000001,0.5626069,107.98262,-83.52141,4.595557,JUM
10150435000000.0,1.191176414489746,1.7498570680618286,5.647636413574219,1.4420111179351807,0.0897228866815567,-0.9224065,0.56382865,108.36318,-83.010216,4.799812,JUM
10150441000000.0,1.1961734294891357,1.6970933675765991,5.432596683502197,1.5550822019577026,0.04004837945103645,-0.92179567,0.54367006,108.754135,-82.45824,5.008824,JUM
10150446000000.0,1.20118248462677,1.6489235162734985,5.229400157928467,1.6038907766342163,-0.009094894863665104,-0.83199847,0.5222898,109.16746,-81.80463,5.2519800000000005,JUM
10150452000000.0,1.2061786651611328,1.602174997329712,5.024659156799316,1.5772300958633423,-0.054837875068187714,-0.657291,0.5235115,109.55028999999999,-81.127174,5.496732,JUM
10150457000000.0,1.211179256439209,1.5566976070404053,4.81765079498291,1.4743854999542236,-0.09435046464204788,-0.41263947,0.52870387,109.82801,-80.62856,5.7162824,JUM
10150462000000.0,1.2161767482757568,1.5111451148986816,4.604291915893555,1.312459111213684,-0.12698805332183838,-0.2761111,0.5345071,110.086,-80.13618000000001,5.9349775000000005,JUM
10150467000000.0,1.2211909294128418,1.4649994373321533,4.383052825927734,1.0924798250198364,-0.1552819162607193,0.086132,0.5589417,110.20873999999999,-79.64634000000001,6.1423717,JUM
10150473000000.0,1.2261857986450195,1.4141316413879395,4.153913497924805,0.8615214228630066,-0.17239917814731598,0.16982053,0.5693264,110.27946000000001,-79.49846,6.3187504,JUM
10150478000000.0,1.2311813831329346,1.3582452535629272,3.9157917499542236,0.6184364557266235,-0.1849580854177475,0.30695978,0.57910025,110.144135,-79.53886,6.4638047,JUM
10150483000000.0,1.2362170219421387,1.2874224185943604,3.6502697467803955,0.4052826762199402,-0.18962055444717407,0.37079520000000005,0.5681046999999999,110.00738999999999,-79.63412,6.602241,JUM
10150488000000.0,1.2412103414535522,1.2066693305969238,3.3684659004211426,0.2184022068977356,-0.18672601878643036,0.38912117,0.5543602,109.845375,-79.73975,6.7356067,JUM
10150494000000.0,1.2462115287780762,1.1221064329147339,3.0836338996887207,0.07773596793413162,-0.17583078145980835,0.36071593,0.5580254,109.61795,-79.93566,6.867274,JUM
10150499000000.0,1.2512050867080688,1.036666989326477,2.8019919395446777,-0.016284087672829628,-0.15714962780475616,0.267559,0.54244834,109.40758999999998,-80.15645,6.991007300000001,JUM
10150504000000.0,1.256199836730957,0.9557461142539978,2.5384087562561035,-0.05788732320070267,-0.13376697897911072,0.13072516,0.51923543,109.23266000000001,-80.33133000000001,7.0949697,JUM
10150509000000.0,1.261193871498108,0.8809694647789001,2.2971155643463135,-0.04781639575958252,-0.1084400936961174,-0.010690141499999998,0.47433686,109.0889,-80.525635,7.1919512999999995,JUM
10150515000000.0,1.266189694404602,0.8123359084129333,2.0881547927856445,0.004023517016321421,-0.08337236195802689,-0.12278391400000001,0.41416663,109.02923,-80.61006,7.283939999999999,JUM
10150520000000.0,1.271185278892517,0.7497798204421997,1.919636845588684,0.08832239359617233,-0.06364478915929794,-0.20189096,0.3652974,109.00246000000001,-80.69119,7.3693724000000005,JUM
10150525000000.0,1.2761802673339844,0.6897404789924622,1.7842696905136108,0.17938894033432007,-0.05266773700714111,-0.23823744,0.32467487,109.06734499999999,-80.6081,7.460617,JUM
10150530000000.0,1.2811769247055054,0.6301711797714233,1.677498459815979,0.26287269592285156,-0.05073990300297737,-0.27305678,0.27305678,109.15594499999999,-80.52248399999999,7.5367690000000005,JUM
10150535000000.0,1.2861733436584473,0.5701245665550232,1.5976980924606323,0.334118515253067,-0.0546281598508358,-0.25320363,0.22937989,109.27836599999999,-80.3382,7.605150999999999,JUM
10150541000000.0,1.2911736965179443,0.5079944729804993,1.5438408851623535,0.3851605951786041,-0.06208554655313492,-0.2134974,0.17592919,109.40596000000001,-80.14205,7.656558,JUM
10150546000000.0,1.2961714267730713,0.44398826360702515,1.5076005458831787,0.4207931160926819,-0.07148944586515427,-0.14660765,0.13988814,109.51313999999999,-79.972115,7.6720429999999995,JUM
10150551000000.0,1.301168441772461,0.37814420461654663,1.4822896718978882,0.4447787404060364,-0.08084794878959656,-0.08979719,0.099571034,109.61316000000001,-79.80351999999999,7.669864,JUM
10150556000000.0,1.3062077760696411,0.31214022636413574,1.4626952409744263,0.45709648728370667,-0.0898379310965538,-0.048258353,0.05467244,109.68015,-79.720505,7.614156200000001,JUM
10150562000000.0,1.3112043142318726,0.248410165309906,1.4437305927276611,0.4617106020450592,-0.09896735101938248,-0.04062254,0.024129177,109.74148999999998,-79.636284,7.549852400000001,JUM
10150567000000.0,1.316199541091919,0.18909811973571777,1.423866868019104,0.4581448435783386,-0.10782184451818466,-0.03390302,0.0061086523,109.77766399999999,-79.61898000000001,7.444254400000001,JUM
10150572000000.0,1.3211946487426758,0.13775594532489777,1.400974154472351,0.4473152160644531,-0.11630212515592575,-0.038179077,-0.019547688,109.81624599999999,-79.60495999999999,7.3277087,JUM
10150577000000.0,1.3261890411376953,0.09431146830320358,1.3745197057724,0.4291093945503235,-0.12511177361011505,-0.061086524,-0.025045475,109.84443999999999,-79.620285,7.2057137,JUM
10150583000000.0,1.3311851024627686,0.05936923250555992,1.342750072479248,0.40245887637138367,-0.1333705484867096,-0.10354166,-0.032375857,109.88038,-79.64209,7.076639999999999,JUM
10150588000000.0,1.3361774682998657,0.03197780251502991,1.306106448173523,0.36834093928337097,-0.14114035665988922,-0.16493362,-0.021991148999999998,109.92274499999999,-79.66960999999999,6.9743767000000005,JUM
10150593000000.0,1.341174840927124,0.011219057254493237,1.26469087600708,0.3275059163570404,-0.14712879061698914,-0.22143865,-0.021991148999999998,109.95587093874501,-79.6856956175299,6.92882051927291,JUM
10150598000000.0,1.3461699485778809,-0.0036068474873900414,1.2191548347473145,0.2807682156562805,-0.15139824151992798,-0.26969699999999996,0.027183502999999998,109.98815,-79.70137,6.884428999999999,JUM
10150604000000.0,1.3511669635772705,-0.013130877166986465,1.170029878616333,0.2287510335445404,-0.15389381349086761,-0.32131509999999996,0.04550946,110.0527,-79.747284,6.814729700000001,JUM
10150609000000.0,1.3561606407165527,-0.01722671464085579,1.117728352546692,0.17396926879882812,-0.15461237728595734,-0.36346483,0.076052725,110.1382,-79.80971,6.7864985,JUM
10150614000000.0,1.3611598014831543,-0.014850332401692867,1.06248140335083,0.12132523208856583,-0.153518408536911,-0.37568212,0.09682214,110.22816,-79.87729,6.761391000000001,JUM
10150619000000.0,1.3661549091339111,-0.0063290661200881,1.005537986755371,0.07149619609117508,-0.15077362954616547,-0.3744604,0.12339478,110.31928,-79.95976,6.7665253,JUM
10150625000000.0,1.3711525201797485,0.008687598630785942,0.9488990902900696,0.0260600708425045,-0.14654739201068878,-0.34819320000000004,0.15974127,110.4039,-80.0426,6.779222,JUM
10150630000000.0,1.3761825561523438,0.03063088096678257,0.8922430872917175,-0.015022912994027138,-0.1408046931028366,-0.3277292,0.17470746,110.493904,-80.1104,6.820904700000001,JUM
10150635000000.0,1.3811795711517334,0.057483162730932236,0.8362184762954712,-0.05239686742424965,-0.13282877206802368,-0.30573806,0.21838433,110.57196,-80.17339,6.8789425,JUM
10150640000000.0,1.3861762285232544,0.08895198255777359,0.7806833386421204,-0.08538209646940231,-0.12282003462314606,-0.2947425,0.26633725,110.641304,-80.23494000000001,6.9414515,JUM
10150646000000.0,1.3911722898483276,0.12072619795799255,0.7266209721565247,-0.11090990155935287,-0.1115216314792633,-0.25381452,0.3155119,110.69278999999999,-80.292564,7.01363,JUM
10150651000000.0,1.3961708545684814,0.15203718841075897,0.6743838787078857,-0.12914840877056122,-0.09921389073133469,-0.20341812,0.35521814,110.76023,-80.287186,7.15072,JUM
10150656000000.0,1.4011679887771606,0.1773114949464798,0.6271146535873413,-0.13937754929065704,-0.08798527717590332,-0.11789699,0.38942659999999996,110.80208600000002,-80.26894,7.2934575,JUM
10150661000000.0,1.4061790704727173,0.19710208475589752,0.5861425399780273,-0.14177730679512024,-0.07942228764295578,-0.053145275,0.40469822,110.84431000000001,-80.21191999999999,7.4480824000000005,JUM
10150667000000.0,1.4111775159835815,0.21769548952579498,0.5677865147590637,-0.13930220901966095,-0.07471761107444763,-0.032375857,0.42027529999999996,110.872574,-80.14024,7.6066523,JUM
10150672000000.0,1.4161717891693115,0.23910652101039886,0.5714749097824097,-0.13206486403942108,-0.07281920313835144,-0.032375857,0.44959682,110.89846999999999,-80.04875,7.750155400000001,JUM
10150677000000.0,1.421168327331543,0.2628479599952698,0.6223743557929993,-0.12810637056827545,-0.0781351700425148,-0.038789943,0.5369505,110.91796000000001,-79.91503,7.910152,JUM
10150682000000.0,1.4261659383773804,0.2895655035972595,0.7311875224113464,-0.13134458661079407,-0.09291796386241913,-0.01160644,0.7058548000000001,110.9246,-79.740524,8.096716,JUM
10150688000000.0,1.4311634302139282,0.3211459219455719,0.8992813229560852,-0.1278020441532135,-0.11609336733818054,0.09896017,0.91813046,110.906075,-79.502235,8.320103,JUM
10150693000000.0,1.436160683631897,0.358627587556839,1.1264134645462036,-0.10927984863519669,-0.1469699591398239,0.31031954,1.1297953,110.846954,-79.19796,8.58265,JUM
10150698000000.0,1.4411580562591553,0.41474848985671997,1.4292768239974976,0.028946878388524055,-0.19119247794151306,0.6200281999999999,1.3472633,110.72481499999999,-78.905846,8.831333,JUM
10150703000000.0,1.4461846351623535,0.4981573522090912,1.8246315717697144,0.3534321188926697,-0.2692428231239319,0.7840455,1.5332718,110.581245,-78.48374,9.118462,JUM
10150709000000.0,1.4511806964874268,0.5680145621299744,2.3129756450653076,0.6171004772186279,-0.37200966477394104,0.6435465,1.4318681,110.46448500000001,-78.05812,9.354453999999999,JUM
10150714000000.0,1.4561766386032104,0.5984905958175659,2.9236233234405518,0.6663869023323059,-0.4430118501186371,0.43585235,1.0201449,110.33698000000001,-77.74115,9.539999,JUM
10150719000000.0,1.4611728191375732,0.6059308052062988,3.600454092025757,0.6294636130332947,-0.47669878602027893,0.31031954,0.623388,110.500404,-76.62993,9.906088,JUM
10150724000000.0,1.4661701917648315,0.6076059341430664,4.284162998199463,0.6426972150802612,-0.4927526116371155,0.2959642,0.36071593,110.6846,-75.63916,10.1789465,JUM
10150730000000.0,1.471166729927063,0.6038649082183838,4.974050045013428,0.7030404210090637,-0.4945546090602875,0.1518,0.13713925,110.58301499999999,-75.97903000000001,9.956895,JUM
10150735000000.0,1.4761630296707153,0.5949857234954834,5.6698713302612305,0.8080785274505615,-0.47754162549972534,-0.099265605,0.050701816,110.522545,-76.3783,9.734002,JUM
10150740000000.0,1.4811606407165527,0.5958243608474731,6.358504295349121,0.9280992746353149,-0.4637792408466339,-0.5180137,-0.0070249503,110.559425,-76.74053,9.506724,JUM
10150745000000.0,1.486158013343811,0.6227225065231323,7.0250563621521,1.0302379131317139,-0.46644166111946106,-0.73914695,-0.24770586,110.61971000000001,-77.13710999999999,9.227934,JUM
10150750000000.0,1.4911550283432007,0.6895240545272827,7.666936874389648,1.0918445587158203,-0.4655439555644989,-0.8949176,-0.46944994,110.85533000000001,-77.39367,8.943082,JUM
10150756000000.0,1.496153712272644,0.8092417120933533,8.281896591186523,1.0918700695037842,-0.47042372822761536,-0.8185594,-0.49693888,111.08786,-77.53411,8.674759,JUM
10150761000000.0,1.5011515617370605,1.0027257204055786,8.869280815124512,1.1118251085281372,-0.4856562614440918,-0.4447099,-0.44593164,111.27453,-77.65001,8.440484,JUM
10150766000000.0,1.5061490535736084,1.286864995956421,9.42884349822998,1.2170108556747437,-0.49354979395866394,-0.30176744,-0.41477749999999997,111.50272,-77.79744000000001,8.219403999999999,JUM
10150771000000.0,1.5111466646194458,1.6770073175430298,9.961247444152832,1.4120960235595703,-0.4922817349433899,-0.1777618,-0.3924809,111.60448500000001,-77.92734,8.112634,JUM
10150777000000.0,1.5161454677581787,2.189095973968506,10.46707820892334,1.70223069190979,-0.47817331552505493,-0.20219639,-0.28527406,111.69971000000001,-78.06415600000001,8.044494,JUM
10150782000000.0,1.5211435556411743,2.789870023727417,10.947345733642578,1.9831355810165405,-0.46654215455055237,-0.35857790000000006,-0.11484267,111.95388999999999,-77.7787,8.248557,JUM
10150787000000.0,1.5261411666870117,3.448550224304199,11.40301513671875,2.1559088230133057,-0.4571748673915863,-0.36193767,0.10903945,112.15692,-77.526886,8.477507000000001,JUM
10150792000000.0,1.5311397314071655,4.111654758453369,11.835163116455078,2.274747610092163,-0.44384679198265076,0.0888809,0.24068089999999998,112.43845,-76.8624,8.998435,JUM
10150798000000.0,1.5361381769180298,4.717303276062012,12.244751930236816,2.401841163635254,-0.4221625328063965,0.6438520000000001,0.18478674,112.66847,-76.25009,9.481502,JUM
10150803000000.0,1.5411365032196045,5.239652156829834,12.632914543151855,2.5202322006225586,-0.39126521348953247,0.6188064999999999,0.14110987,112.86211000000002,-75.703156,10.132054,JUM
10150808000000.0,1.5461370944976807,5.609255313873291,13.000624656677246,2.5884206295013428,-0.356724351644516,0.47342056,0.08093964,112.9262,-75.21015,10.703833,JUM
10150813000000.0,1.551133632659912,5.844050884246826,13.347826957702637,2.613135814666748,-0.3160158097743988,0.63163465,-0.023518313,112.91096,-74.81245,11.165326,JUM
10150819000000.0,1.556132197380066,6.036397457122803,13.66100025177002,2.6344587802886963,-0.261850506067276,0.88789266,-0.09743301,112.90288000000001,-74.48541,11.594165,JUM
10150824000000.0,1.5611318349838257,6.188634872436523,13.941998481750488,2.652575731277466,-0.19632913172245026,1.0574077,-0.17073683,112.76156599999999,-74.47436,11.74607,JUM
10150829000000.0,1.566130518913269,6.303133010864258,14.192657470703125,2.667673349380493,-0.12660038471221924,1.1013899999999999,-0.29352075,112.59024,-74.5214,11.849557,JUM
10150834000000.0,1.571130633354187,6.381640911102295,14.414457321166992,2.6798946857452393,-0.05498826131224632,1.0369438,-0.45845437,112.40802,-74.63324,11.911809,JUM
10150840000000.0,1.5761281251907349,6.426516532897949,14.60916519165039,2.6894233226776123,0.01979043520987034,0.90102625,-0.6621779000000001,112.24201000000001,-74.80773,11.925646,JUM
10150845000000.0,1.5811277627944946,6.439035415649414,14.777956008911133,2.696367025375366,0.0965903103351593,0.7770206000000001,-0.8622363000000001,112.098,-75.0285,11.893791,JUM
10150850000000.0,1.5861250162124634,6.421415328979492,14.922466278076172,2.700897693634033,0.17230862379074097,0.6762278,-1.0418307,111.98271000000001,-75.29505999999999,11.815828,JUM
10150855000000.0,1.5911270380020142,6.374476909637451,15.043583869934082,2.703089475631714,0.244219571352005,0.5497787,-1.1933253000000001,111.91424599999999,-75.60339,11.696384,JUM
10150861000000.0,1.5961253643035889,6.3007049560546875,15.143033027648926,2.7031309604644775,0.3100030720233917,0.40256020000000003,-1.3200798,111.87494,-75.9387,11.541441,JUM
10150865000000.0,1.6011250019073486,6.200982570648193,15.221685409545898,2.701098680496216,0.3676092028617859,0.3136793,-1.4214833999999998,111.85426000000001,-76.28805,11.356119999999999,JUM
10150870000000.0,1.606120228767395,6.077328681945801,15.280978202819824,2.6971473693847656,0.4164157211780548,0.10476339,-1.4559973,111.90423600000001,-76.63164499999999,11.168395,JUM
10150875000000.0,1.6111199855804443,5.930055141448975,15.321444511413574,2.691312551498413,0.46008193492889404,-0.14141529999999997,-1.4899003999999998,111.98742,-76.98606,10.960321,JUM
10150880000000.0,1.6161186695098877,5.761003494262695,15.344388961791992,2.6837351322174072,0.495837926864624,-0.33750305,-1.4880677,112.10895500000001,-77.30645,10.762007,JUM
10150885000000.0,1.621118187904358,5.603847503662109,15.303175926208496,2.668825387954712,0.5238285064697266,-0.42271876,-1.4746287,112.26185600000001,-77.61615,10.565807000000001,JUM
10150890000000.0,1.6261169910430908,5.47125244140625,15.182279586791992,2.6447134017944336,0.5459325313568115,-0.3381139,-1.4425583,112.412834,-77.90171,10.380129,JUM
10150895000000.0,1.6311588287353516,5.359118461608887,14.964900970458984,2.6219308376312256,0.5636844635009766,-0.129198,-1.3884968,112.49035,-78.39038000000001,9.942921,JUM
10150900000000.0,1.6361563205718994,5.260350227355957,14.681300163269043,2.605361223220825,0.5766652226448059,0.055283304000000005,-1.3750577,112.54063000000001,-78.854385,9.513781,JUM
10150905000000.0,1.6411535739898682,5.174755573272705,14.330631256103516,2.5741162300109863,0.5872938632965088,0.079107046,-1.3906348,112.57361000000002,-79.2537,9.15196,JUM
10150910000000.0,1.6461515426635742,5.101083278656006,13.923012733459473,2.514331817626953,0.5918380618095398,-0.02687807,-1.4083499,112.58538,-79.618454,8.801589,JUM
10150915000000.0,1.651147484779358,5.033531188964844,13.47786808013916,2.4133388996124268,0.5903616547584534,-0.13011430000000002,-1.4150693,112.62469499999999,-79.92035,8.490402,JUM
10150920000000.0,1.6561437845230103,4.968061923980713,13.008145332336426,2.262346029281616,0.5842434763908386,-0.14813483,-1.3820826000000002,112.66571,-80.19309,8.195779,JUM
10150926000000.0,1.6611406803131104,4.897366046905518,12.52367877960205,2.070838212966919,0.5753912329673767,-0.076358154,-1.2791518,112.71096999999999,-80.44426,7.952663,JUM
10150930000000.0,1.6661399602890015,4.815890312194824,12.031853675842285,1.8461501598358154,0.5653504729270935,0.01282817,-1.1307116000000001,112.7512,-80.65856,7.739843400000001,JUM
10150935000000.0,1.6711363792419434,4.717325210571289,11.543187141418457,1.6013931035995483,0.5543472766876221,0.0983493,-0.9260716999999998,112.71323999999998,-80.90034,7.576996,JUM
10150940000000.0,1.6761375665664673,4.595837593078613,11.065042495727539,1.3458025455474854,0.5398774147033691,0.22266038,-0.7058548000000001,112.63141,-81.08515,7.463744999999999,JUM
10150945000000.0,1.6811368465423584,4.459245204925537,10.601085662841797,1.1150954961776733,0.5226302146911621,0.34238997,-0.46211955,112.448746,-81.287796,7.396023,JUM
10150950000000.0,1.6861388683319092,4.317929744720459,10.156840324401855,0.9660306572914124,0.5010933876037598,0.47342056,-0.24068089999999998,112.22102,-81.41978,7.385335400000001,JUM
10150955000000.0,1.691146969795227,4.171986103057861,9.73119068145752,0.8951632380485535,0.47600018978118896,0.5684100999999999,-0.04886922,111.88705,-81.5625,7.382036,JUM
10150960000000.0,1.6961456537246704,4.022340774536133,9.323429107666016,0.8943992853164673,0.4481261074542999,0.6462954000000001,0.11942416,111.57446013111,-81.49824617208169,7.43818890209028,JUM
10150966000000.0,1.7024739980697632,3.809504270553589,8.907666206359863,1.3048577308654785,0.3599649667739868,0.69974613,0.45173484,109.63661,-81.099915,7.786299700000001,JUM
10150973000000.0,1.7087326049804688,3.625284433364868,8.520133972167969,1.6990913152694702,0.2623734474182129,0.28221974,0.51251596,109.69124599999999,-80.56071999999999,7.8622546,JUM
10150979000000.0,1.714957594871521,3.4842286109924316,8.165355682373047,2.0483808517456055,0.15792132914066315,-0.12370021,0.5705481,109.83061000000001,-79.90021999999999,7.9570107000000005,JUM
10150985000000.0,1.7210843563079834,3.369574785232544,7.826262950897217,2.3132450580596924,0.05156445503234863,-0.48136179999999995,0.61300325,110.15484,-78.94306999999999,8.155676,JUM
10150992000000.0,1.7271534204483032,3.278393030166626,7.493666648864746,2.4588160514831543,-0.053486697375774384,-0.7538077,0.6404922,110.54538000000001,-77.89068,8.382472,JUM
10150997000000.0,1.733163595199585,3.2029147148132324,7.162036895751953,2.4748940467834473,-0.15381836891174316,-0.89949906,0.6747006999999999,110.964874,-76.78872,8.698831,JUM
10151002000000.0,1.7391153573989868,3.136664390563965,6.826738357543945,2.353471279144287,-0.24606849253177643,-0.8885035,0.72021013,111.39535,-75.65737,9.036033999999999,JUM
10151007000000.0,1.7450183629989624,3.074610471725464,6.488318920135498,2.1212363243103027,-0.3273797333240509,-0.72326446,0.754724,111.72835,-74.79014000000001,9.385561000000001,JUM
10151013000000.0,1.7508734464645386,3.0132060050964355,6.1477370262146,1.8011869192123413,-0.39631664752960205,-0.42149702,0.77182823,112.01358,-73.935074,9.736487,JUM
10151018000000.0,1.7566808462142944,2.9462101459503174,5.804736137390137,1.4407126903533936,-0.4525620937347412,-0.09682214,0.77366084,112.19118999999999,-73.505684,10.018785000000001,JUM
10151023000000.0,1.762445330619812,2.870659828186035,5.458981990814209,1.0628269910812378,-0.4946763515472412,0.18661933,0.75686204,112.29869,-73.12232,10.28106,JUM
10151028000000.0,1.7681691646575928,2.7881102561950684,5.10784387588501,0.6830726861953735,-0.520922064781189,0.3998113,0.7180721,112.210045,-73.024445,10.522374000000001,JUM
10151034000000.0,1.773854374885559,2.699678421020508,4.7497148513793945,0.31147581338882446,-0.5297521948814392,0.57787853,0.6588182,112.05896000000001,-72.99006999999999,10.734574,JUM
10151039000000.0,1.7795032262802124,2.6060385704040527,4.3880462646484375,-0.03834797441959381,-0.519815981388092,0.70738196,0.589485,111.80165,-73.113556,10.915613,JUM
10151044000000.0,1.7851206064224243,2.5075950622558594,4.024775505065918,-0.35844606161117554,-0.48957428336143494,0.78954333,0.5369505,111.51603,-73.31512,11.077795,JUM
10151049000000.0,1.7907029390335083,2.4061102867126465,3.6680917739868164,-0.6347904205322266,-0.4397185742855072,0.81397796,0.5155702999999999,111.19667,-73.60932,11.220125,JUM
10151055000000.0,1.7962522506713867,2.3025574684143066,3.322441816329956,-0.8597733378410339,-0.38272085785865784,0.78954333,0.48288897,110.87686000000001,-73.94083,11.345989999999999,JUM
10151060000000.0,1.8017750978469849,2.197587490081787,3.00343656539917,-1.0332367420196533,-0.30963483452796936,0.71837753,0.43615779999999993,110.5708,-74.34369000000001,11.463287,JUM
10151065000000.0,1.807267665863037,2.091902017593384,2.7213704586029053,-1.157074213027954,-0.22602203488349915,0.5934556,0.37201694,110.293625,-74.754395,11.574409,JUM
10151070000000.0,1.812734603881836,1.9827170372009277,2.4818947315216064,-1.2414369583129883,-0.13674066960811615,0.5161811,0.29993483,110.04693600000002,-75.11625,11.67356,JUM
10151076000000.0,1.8181785345077515,1.8680790662765503,2.2885067462921143,-1.2943494319915771,-0.04507160186767578,0.49174652,0.23273966,109.825294,-75.50478000000001,11.762879,JUM
10151081000000.0,1.8235952854156494,1.7469204664230347,2.1388561725616455,-1.3160361051559448,0.044983912259340286,0.52778757,0.18570304,109.6291,-75.836784,11.819987,JUM
10151086000000.0,1.8289915323257446,1.6175521612167358,2.032114028930664,-1.3053672313690186,0.13105399906635284,0.6032294,0.13469578,109.431404,-76.1758,11.858789,JUM
10151091000000.0,1.8343658447265625,1.4806363582611084,1.957282304763794,-1.2615561485290527,0.21040482819080353,0.66920286,0.081855945,109.23523999999999,-76.51044,11.827735,JUM
10151096000000.0,1.8397221565246582,1.336511254310608,1.9058616161346436,-1.183692216873169,0.2810017168521881,0.7162395,0.020463986,109.02398000000001,-76.83681999999999,11.778960000000001,JUM
10151102000000.0,1.8450573682785034,1.1859773397445679,1.8688639402389526,-1.0679688453674316,0.3423996865749359,0.7110472,-0.06383542,108.82171000000001,-77.1794,11.637567500000001,JUM
10151107000000.0,1.8503756523132324,1.0294581651687622,1.8366832733154297,-0.9085105061531067,0.39144283533096313,0.70646566,-0.15974127,108.60673999999999,-77.512726,11.473942,JUM
10151112000000.0,1.8556784391403198,0.8694350719451904,1.8085873126983643,-0.7113970518112183,0.4223111867904663,0.66645396,-0.24495697,108.420105,-77.82863,11.235773,JUM
10151117000000.0,1.8609638214111328,0.721906840801239,1.7808867692947388,-0.5067174434661865,0.43245741724967957,0.5519168000000001,-0.29626966,108.25808,-78.13452,10.9809,JUM
10151123000000.0,1.8662339448928833,0.5862267017364502,1.7535552978515625,-0.2947877049446106,0.42822718620300293,0.39278635,-0.34300083,108.15341000000001,-78.384186,10.664094,JUM
10151128000000.0,1.871490478515625,0.4657858908176422,1.7268321514129639,-0.0980110689997673,0.41491174697875977,0.21288654,-0.35491269999999997,108.090034,-78.60191,10.344023,JUM
10151133000000.0,1.8767307996749878,0.360581636428833,1.7007551193237305,0.07946086674928665,0.39538803696632385,0.037873644,-0.3594942,108.07403000000001,-78.79496,10.015025,JUM
10151138000000.0,1.8819600343704224,0.2678936719894409,1.6707526445388794,0.20349453389644623,0.3727378249168396,-0.11301007,-0.33658674,108.11970500000001,-78.88935,9.716589,JUM
10151144000000.0,1.8871750831604004,0.18662802875041962,1.6363649368286133,0.2717989981174469,0.3480229377746582,-0.16676621,-0.29565877,108.18907,-78.94346999999999,9.423778,JUM
10151149000000.0,1.8923856019973755,0.10868757963180542,1.597572922706604,0.31222105026245117,0.321304589509964,-0.28221974,-0.2510656,108.31718400000001,-78.95036999999999,9.176401,JUM
10151154000000.0,1.8975788354873657,0.03242073953151703,1.5548961162567139,0.33263254165649414,0.2944149672985077,-0.36621370000000003,-0.22937989,108.45221000000001,-78.928116,8.93545,JUM
10151159000000.0,1.9027615785598755,-0.039645399898290634,1.5089445114135742,0.3425532281398773,0.2680956721305847,-0.4111123,-0.18112154,108.57338,-78.99081,8.733044999999999,JUM
10151165000000.0,1.9079383611679077,-0.10712017863988876,1.459936261177063,0.3444376587867737,0.24306505918502808,-0.42332962,-0.15118915,108.70936999999999,-79.04333000000001,8.533033999999999,JUM
10151170000000.0,1.9131020307540894,-0.1652769297361374,1.4074382781982422,0.3451944887638092,0.22010087966918945,-0.41844269999999995,-0.105068825,108.83586000000001,-79.13741999999999,8.342162,JUM
10151175000000.0,1.9182566404342651,-0.2129220813512802,1.3513140678405762,0.3468993008136749,0.1981489211320877,-0.41294490000000006,-0.074830994,108.96496599999999,-79.22166,8.154721,JUM
10151180000000.0,1.9234039783477783,-0.2455405741930008,1.290925145149231,0.3550862967967987,0.17798538506031036,-0.41050145,-0.040317107000000005,109.08593,-79.31479,7.9881899999999995,JUM
10151186000000.0,1.9285439252853394,-0.26162293553352356,1.2261379957199097,0.3719768226146698,0.15844064950942993,-0.4089743,-0.0009162978999999999,109.204025,-79.39434,7.830205,JUM
10151191000000.0,1.93367600440979,-0.2609272003173828,1.1562060117721558,0.3961288630962372,0.13899342715740204,-0.43799037,0.029932396,109.33275,-79.431076,7.7168894,JUM
10151196000000.0,1.93880033493042,-0.24205659329891205,1.0794334411621094,0.4252892732620239,0.11978500336408615,-0.4822781,0.06536258,109.46354,-79.45631,7.615499499999999,JUM
10151201000000.0,1.9439191818237305,-0.20558640360832214,0.9963576793670654,0.4591910243034363,0.098442442715168,-0.50915617,0.08460484,109.61339,-79.355515,7.603423599999999,JUM
10151207000000.0,1.9490306377410889,-0.14931626617908478,0.91046142578125,0.49698078632354736,0.0755678042769432,-0.50671273,0.11362094,109.76558,-79.24219000000001,7.6047106,JUM
10151212000000.0,1.9541360139846802,-0.07442140579223633,0.8233219981193542,0.5376553535461426,0.049761492758989334,-0.5006041,0.13103059,109.94221,-78.99847,7.7100353,JUM
10151217000000.0,1.9592379331588745,0.016560547053813934,0.7472714185714722,0.5741792321205139,0.020610041916370392,-0.52534413,0.16157386,110.12518999999999,-78.73124,7.8296814,JUM
10151222000000.0,1.964342713356018,0.12304819375276566,0.6839331984519958,0.6058890223503113,-0.011236237362027168,-0.56505036,0.22327125,110.32786000000002,-78.33762,8.0651045,JUM
10151228000000.0,1.969431757926941,0.24037624895572662,0.6582338213920593,0.6225979328155518,-0.04605694115161896,-0.6093381,0.32436943,110.536285,-77.90810400000001,8.323153999999999,JUM
10151233000000.0,1.9745253324508667,0.36837899684906006,0.6720165610313416,0.6233614087104797,-0.08208209276199341,-0.6579019,0.46700647,110.779274,-77.41164,8.682195,JUM
10151238000000.0,1.9796050786972046,0.4954448640346527,0.7355753183364868,0.601280927658081,-0.11721283942461014,-0.65576386,0.6392705,111.0168,-76.88093,9.074978999999999,JUM
10151243000000.0,1.984692931175232,0.6212971806526184,0.8517243266105652,0.5558956861495972,-0.14938078820705414,-0.5888741,0.8155051,111.30154399999999,-76.42834,9.483450999999999,JUM
10151249000000.0,1.989776849746704,0.7358757853507996,1.0316264629364014,0.49177801609039307,-0.17705099284648895,-0.45112398,0.9932669,111.55816999999999,-75.950745,9.919153,JUM
10151254000000.0,1.9948428869247437,0.8400245904922485,1.2681602239608765,0.41105231642723083,-0.20176532864570618,-0.35216382,1.0839803,111.72086000000002,-75.54356,10.402538999999999,JUM
10151259000000.0,1.9999052286148071,0.9300782680511475,1.6167089939117432,0.38215306401252747,-0.2248370200395584,-0.059253927000000005,1.2525792,111.77739,-75.0924,10.927578,JUM
10151264000000.0,2.0049631595611572,1.0063724517822266,2.0769917964935303,0.4098360538482666,-0.24653266370296478,0.32070425,1.3677273,111.78056000000001,-74.64126,11.439578,JUM
10151270000000.0,2.0100207328796387,1.057671308517456,2.635260820388794,0.4590796232223511,-0.26878121495246887,0.6985244,1.3301591,111.67293500000001,-74.41464,11.796588999999999,JUM
10151275000000.0,2.01507306098938,1.0845462083816528,3.283073663711548,0.5251191258430481,-0.28854188323020935,0.8872818000000001,1.1194104999999999,111.51553,-74.21539,12.111023,JUM
10151280000000.0,2.02012300491333,1.1371430158615112,3.961596965789795,0.8003528714179993,-0.2971086800098419,0.86315256,0.7134906,111.379425,-74.19723,12.097676,JUM
10151285000000.0,2.025170087814331,1.2192168235778809,4.663265228271484,1.2936350107192993,-0.31252744793891907,0.5421429,0.31978795,111.2875,-74.16298,12.041905999999999,JUM
10151290000000.0,2.0302155017852783,1.2933279275894165,5.3621015548706055,1.6294028759002686,-0.3803514540195465,-0.25534168,-0.024740042,111.30933,-74.22734,11.749303999999999,JUM
10151296000000.0,2.035255193710327,1.3545078039169312,6.053975582122803,1.7627698183059692,-0.468342125415802,-0.6930265999999999,-0.5928446999999999,111.35194399999999,-74.45758000000001,11.323475,JUM
10151301000000.0,2.0402944087982178,1.4627022743225098,6.725430488586426,1.720699429512024,-0.5068808197975159,-0.713796,-0.96791595,111.65812,-74.02473,11.075928999999999,JUM
10151306000000.0,2.0453319549560547,1.6222267150878906,7.375748157501221,1.5157891511917114,-0.5051953196525574,-0.47372600000000004,-0.8698720999999999,112.0225,-73.501564,10.8401985,JUM
10151311000000.0,2.050368070602417,1.8595945835113525,7.999424457550049,1.2937767505645752,-0.482211172580719,-0.087659165,-0.5036584,112.23373400000001,-73.65495,10.49597,JUM
10151317000000.0,2.0554027557373047,2.1760334968566895,8.596624374389648,1.0813424587249756,-0.4452000558376312,0.19883664,-0.110872045,112.38665,-73.881454,10.212994,JUM
10151322000000.0,2.060460329055786,2.587620258331299,9.167512893676758,1.0015974044799805,-0.4092172682285309,0.59559363,0.13072516,112.2656,-74.383514,10.076196000000001,JUM
10151327000000.0,2.0654938220977783,3.078186273574829,9.711642265319824,1.0944548845291138,-0.37155482172966003,0.6630941999999999,0.1685988,112.13439,-74.8812,9.999232000000001,JUM
10151332000000.0,2.0705251693725586,3.6125922203063965,10.229236602783203,1.2654128074645996,-0.3355088531970978,0.6621779000000001,0.08704830000000001,111.93928999999999,-75.1176,10.193311,JUM
10151338000000.0,2.075554370880127,4.168708324432373,10.720952987670898,1.4603948593139648,-0.3004886209964752,0.97524637,0.08368854,111.62788400000001,-75.31954,10.385603,JUM
10151343000000.0,2.080582857131958,4.703705310821533,11.187813758850098,1.6588799953460693,-0.2614911198616028,1.1566733,0.2144137,111.56142,-74.97895,10.852692999999999,JUM
10151348000000.0,2.0856096744537354,5.187626361846924,11.630868911743164,1.846250057220459,-0.22213031351566315,1.1456778,0.31490102,111.45626999999999,-74.65646,11.27157,JUM
10151353000000.0,2.090634822845459,5.564764499664307,12.050993919372559,1.9956213235855103,-0.17798183858394623,1.1374311000000001,0.31001409999999996,111.34742,-74.242134,11.762858999999999,JUM
10151359000000.0,2.095660924911499,5.811749458312988,12.449227333068848,2.0954504013061523,-0.12467806786298752,1.0855075,0.27885997,111.2414,-73.86418,12.2410145,JUM
10151364000000.0,2.1006834506988525,5.88903284072876,12.826562881469727,2.1856439113616943,-0.06959223747253418,0.9993755,0.21044308,111.123924,-73.55001,12.641010000000001,JUM
10151369000000.0,2.105705738067627,5.772858142852783,13.184012413024902,2.2900092601776123,-0.010996253229677677,0.92179567,0.13958271,111.01501499999999,-73.3055,13.008813,JUM
10151374000000.0,2.1107261180877686,5.530417442321777,13.519351959228516,2.396411180496216,0.049555517733097076,0.8042041,0.022602014,110.85428,-73.34121999999999,13.126253,JUM
10151380000000.0,2.1157472133636475,5.289094924926758,13.826546669006348,2.480161190032959,0.10958236455917358,0.6747006999999999,-0.13927728,110.72584499999999,-73.41543,13.209167,JUM
10151385000000.0,2.120765447616577,5.048985958099365,14.107231140136719,2.5426888465881348,0.1645057648420334,0.56107974,-0.29504790000000003,110.57368999999998,-73.82106999999999,12.87064,JUM
10151390000000.0,2.1257829666137695,4.809945583343506,14.362748146057129,2.585010528564453,0.21298623085021973,0.5039638,-0.4465425,110.451195,-74.25140999999999,12.506758999999999,JUM
10151395000000.0,2.1308069229125977,4.571596145629883,14.594160079956055,2.607741117477417,0.25575777888298035,0.47158796,-0.5674938,110.35394,-74.68794,12.1304455,JUM
10151401000000.0,2.1358230113983154,4.334519386291504,14.803290367126465,2.6128151416778564,0.29403620958328247,0.41935900000000004,-0.68661255,110.284454,-75.13525,11.731182,JUM
10151405000000.0,2.1408374309539795,4.107121467590332,14.980128288269043,2.6037540435791016,0.32797956466674805,0.34513888,-0.8054258000000001,110.21869,-75.582634,11.314869999999999,JUM
10151410000000.0,2.1458544731140137,3.913569927215576,15.094925880432129,2.5894243717193604,0.35703757405281067,0.23640485,-0.9086620999999999,110.18028999999999,-76.02837,10.889039,JUM
10151415000000.0,2.1508681774139404,3.751584768295288,15.152144432067871,2.570233106613159,0.3803311586380005,0.11789699,-0.9798279000000001,110.12721,-76.56376999999999,10.409222999999999,JUM
10151420000000.0,2.155880928039551,3.618332862854004,15.13847827911377,2.5325074195861816,0.3970281183719635,0.022602014,-1.0235047,110.0967,-77.08498399999999,9.927902,JUM
10151425000000.0,2.160893440246582,3.512052297592163,15.054574966430664,2.4745564460754395,0.4075451195240021,-0.010690141499999998,-1.0451905000000001,110.07866999999999,-77.58596,9.451168,JUM
10151430000000.0,2.165905237197876,3.4297525882720947,14.898431777954102,2.3906970024108887,0.41291141510009766,0.014966198,-1.0650436,110.06808999999998,-78.00718,9.042997999999999,JUM
10151435000000.0,2.170917272567749,3.3695030212402344,14.670868873596191,2.2790064811706543,0.4147688150405884,0.092240654,-1.0555751,110.04652,-78.400444,8.648289,JUM
10151440000000.0,2.17592716217041,3.324828624725342,14.382071495056152,2.1386306285858154,0.4133531451225281,0.2144137,-1.0152581,109.99973999999999,-78.74327,8.310875,JUM
10151445000000.0,2.1809375286102295,3.2922539710998535,14.037641525268555,1.9693517684936523,0.40896904468536377,0.3735441,-0.93676186,109.9142,-79.05578,7.9920729999999995,JUM
10151450000000.0,2.1859467029571533,3.2615647315979004,13.646388053894043,1.7778067588806152,0.40271881222724915,0.5497787,-0.8414669,109.76427,-79.33525999999999,7.738711400000001,JUM
10151455000000.0,2.1909544467926025,3.226207971572876,13.21446704864502,1.5684837102890015,0.3953692615032196,0.61269784,-0.7492262,109.59688,-79.58555,7.511849400000001,JUM
10151460000000.0,2.1959643363952637,3.1795248985290527,12.758606910705566,1.352783441543579,0.38896483182907104,0.7067711,-0.6924158,109.36398,-79.843414,7.3338337,JUM
10151466000000.0,2.200972080230713,3.1173739433288574,12.29185676574707,1.1391152143478394,0.38451316952705383,0.7464773,-0.58459806,109.12266499999998,-80.06843,7.200685000000001,JUM
10151470000000.0,2.205979347229004,3.0385005474090576,11.821382522583008,0.9357897639274597,0.3817636966705322,0.763887,-0.47555858,108.846855,-80.321724,7.076619,JUM
10151475000000.0,2.2109875679016113,2.9415597915649414,11.354461669921875,0.7513075470924377,0.3793398141860962,0.77304995,-0.38759398,108.55796000000001,-80.55676,6.979637599999999,JUM
10151480000000.0,2.2159922122955322,2.8321330547332764,10.896452903747559,0.5865346193313599,0.3751569390296936,0.79901177,-0.30665436,108.24587,-80.80209,6.878296400000001,JUM
10151486000000.0,2.220998525619507,2.7162539958953857,10.453534126281738,0.44325047731399536,0.36725786328315735,0.8228354999999999,-0.21899518,107.92776,-81.01959000000001,6.8056160000000006,JUM
10151491000000.0,2.2260215282440186,2.593855142593384,10.0238676071167,0.3233071565628052,0.3550918698310852,0.8164214,-0.1142318,107.60908500000001,-81.22229,6.7160953999999995,JUM
10151495000000.0,2.2310266494750977,2.4702367782592773,9.602056503295898,0.2504587471485138,0.33724233508110046,0.77671516,-0.0067195175,107.2911,-81.3867,6.653533500000001,JUM
10151500000000.0,2.236030101776123,2.345003604888916,9.186788558959961,0.22461628913879395,0.3138331174850464,0.6747006999999999,0.08155051,107.005844,-81.50883499999999,6.593576400000001,JUM
10151505000000.0,2.2410335540771484,2.219919443130493,8.791852951049805,0.21914063394069672,0.28579533100128174,0.5403103,0.16890424,106.740845,-81.59043,6.5656357000000005,JUM
10151510000000.0,2.2460367679595947,2.095304012298584,8.41884994506836,0.228343665599823,0.2540104389190674,0.43737950000000003,0.25870144,106.49626,-81.63485,6.564512,JUM
10151515000000.0,2.2510406970977783,1.9706461429595947,8.065086364746094,0.2533169090747833,0.21906881034374237,0.33628133,0.34086279999999997,106.33729,-81.56748,6.5732990000000004,JUM
10151520000000.0,2.2560441493988037,1.845568299293518,7.728227615356445,0.294739305973053,0.18353143334388733,0.28283059999999993,0.42607849999999997,106.19612,-81.471985,6.6088686,JUM
10151525000000.0,2.2610480785369873,1.721346139907837,7.4095282554626465,0.36134833097457886,0.14726728200912476,0.28680122,0.5290093000000001,106.09306000000001,-81.31489599999999,6.6709743,JUM
10151531000000.0,2.266051769256592,1.5995292663574219,7.110711097717285,0.46365854144096375,0.1112266331911087,0.29046643,0.61208695,106.00623,-81.1397,6.751187299999999,JUM
10151535000000.0,2.27105450630188,1.4812792539596558,6.828511714935303,0.5950467586517334,0.07331407070159912,0.25778514,0.6814201999999999,105.94519,-80.88932,6.865193,JUM
10151540000000.0,2.276057243347168,1.3676420450210571,6.559904098510742,0.7495943903923035,0.031773727387189865,0.14874569,0.70463306,105.90414399999999,-80.61861,6.989542500000001,JUM
10151545000000.0,2.2810580730438232,1.2603161334991455,6.299189567565918,0.9125263690948486,-0.014486964792013168,-0.018325957,0.6844745,105.92827,-80.24154,7.1239266,JUM
10151550000000.0,2.2860608100891113,1.162091851234436,6.0378007888793945,1.062092661857605,-0.06518389284610748,-0.1160644,0.6450737,105.96165500000001,-79.839,7.2585773,JUM
10151555000000.0,2.291062593460083,1.073851227760315,5.775676250457764,1.1885805130004883,-0.11820874363183975,-0.29199359999999996,0.6301074999999999,106.09608999999999,-79.33204,7.408533,JUM
10151560000000.0,2.29606556892395,0.9971063137054443,5.512401103973389,1.2780873775482178,-0.16977503895759583,-0.41325033,0.5882632,106.24112,-78.81737,7.5403533,JUM
10151565000000.0,2.301067590713501,0.9311396479606628,5.248250484466553,1.3320609331130981,-0.22101855278015137,-0.47616947,0.54550266,106.41469599999999,-78.26907,7.6855910000000005,JUM
10151570000000.0,2.30607008934021,0.8746969699859619,4.984542369842529,1.3429476022720337,-0.2710449695587158,-0.48930305,0.5271766999999999,106.60535,-77.71424,7.8286147,JUM
10151575000000.0,2.3110735416412354,0.8272875547409058,4.72121524810791,1.3129311800003052,-0.3187634348869324,-0.46578476,0.52656585,106.77193999999999,-77.22434,7.982419500000001,JUM
10151580000000.0,2.316115379333496,0.7859324812889099,4.458937168121338,1.23993718624115,-0.36096009612083435,-0.41263947,0.5335908,106.93208,-76.73987,8.132353,JUM
10151585000000.0,2.3211116790771484,0.7490422129631042,4.201387405395508,1.1383588314056396,-0.39395755529403687,-0.33261612,0.5403103,107.07576,-76.26731,8.27927,JUM
10151590000000.0,2.326111078262329,0.7153298258781433,3.9457528591156006,1.0147408246994019,-0.42161545157432556,-0.24617869,0.548557,107.16501000000001,-75.89638000000001,8.440178,JUM
10151595000000.0,2.3311080932617188,0.6841650009155273,3.691977024078369,0.8741812705993652,-0.44102802872657776,-0.14569137,0.56046885,107.22646,-75.56671999999999,8.5984335,JUM
10151600000000.0,2.3361079692840576,0.6535459756851196,3.4418888092041016,0.7296306490898132,-0.4515440762042999,-0.06352998,0.5439755000000001,107.23838,-75.36999,8.749854,JUM
10151605000000.0,2.341106653213501,0.6228547096252441,3.1961214542388916,0.5854806303977966,-0.4533284604549408,0.009468411,0.5348125,107.22398000000001,-75.20125999999999,8.901102999999999,JUM
10151610000000.0,2.3461084365844727,0.5927231311798096,2.9558682441711426,0.4477810561656952,-0.44787201285362244,0.07666359,0.5161811,107.17336999999999,-75.12941,9.04318,JUM
10151616000000.0,2.3511126041412354,0.5634397268295288,2.721600294113159,0.31918764114379883,-0.4370255470275879,0.12767084,0.48258355,107.1093,-75.09093,9.1751795,JUM
10151620000000.0,2.356112480163574,0.5355961918830872,2.497166156768799,0.20346470177173615,-0.4213530421257019,0.17379116,0.4550946,107.02277,-75.101295,9.299182,JUM
10151625000000.0,2.3611135482788086,0.5094618201255798,2.2842421531677246,0.10247160494327545,-0.4022673964500427,0.2312125,0.40683624,106.92296599999999,-75.140465,9.4046,JUM
10151630000000.0,2.3661136627197266,0.48661866784095764,2.0874710083007812,0.020276430994272232,-0.3815130889415741,0.29046643,0.36865717,106.81248000000001,-75.18548,9.507008,JUM
10151635000000.0,2.3711135387420654,0.4698730409145355,1.9153387546539307,-0.03533367067575455,-0.35911399126052856,0.35002577,0.3268129,106.68951399999999,-75.25761,9.592079,JUM
10151640000000.0,2.3761115074157715,0.46016937494277954,1.7653484344482422,-0.06957512348890305,-0.33610180020332336,0.41783184,0.2761111,106.55706,-75.31107,9.666121,JUM
10151645000000.0,2.381112575531006,0.460979700088501,1.6334749460220337,-0.09363994002342224,-0.31293243169784546,0.4636467000000001,0.23548855,106.41633999999999,-75.37988,9.729714999999999,JUM
10151650000000.0,2.386139154434204,0.4725818932056427,1.5196014642715454,-0.10737021267414093,-0.28990721702575684,0.50579643,0.19425514,106.27688,-75.39108,9.788842,JUM
10151655000000.0,2.391136884689331,0.4924318790435791,1.420775055885315,-0.11296162754297256,-0.2669696807861328,0.51923543,0.17440203,106.13405,-75.41161,9.842036,JUM
10151661000000.0,2.3961374759674072,0.5215069055557251,1.336760401725769,-0.11037540435791016,-0.24450579285621643,0.5164866,0.15271631,105.98658999999999,-75.443275,9.882118,JUM
10151665000000.0,2.4011361598968506,0.5603283047676086,1.2642829418182373,-0.10207736492156982,-0.22270190715789795,0.5323690999999999,0.12614368,105.8317,-75.48347,9.913941000000001,JUM
10151670000000.0,2.4061310291290283,0.6082947254180908,1.202676773071289,-0.08841433376073837,-0.20173446834087372,0.56596667,0.10262536,105.76696000000001,-75.57191,9.820321,JUM
10151675000000.0,2.411130428314209,0.6641623377799988,1.1502270698547363,-0.07034793496131897,-0.18284480273723602,0.559858,0.10231992599999999,105.70763000000001,-75.65472,9.731992,JUM
10151681000000.0,2.4161288738250732,0.7267740368843079,1.1056764125823975,-0.04862666875123978,-0.1672569215297699,0.5332854,0.10995574,105.64412,-75.73354,9.643375,JUM
10151685000000.0,2.4211277961730957,0.7914543747901917,1.0663785934448242,-0.028210729360580444,-0.15404611825942993,0.5018258,0.12186762,105.59369,-75.76705,9.581122,JUM
10151690000000.0,2.426126003265381,0.854967474937439,1.0304416418075562,-0.012429110705852509,-0.14332985877990723,0.48166725,0.15057829,105.546646,-75.78304,9.531062,JUM
10151695000000.0,2.4311254024505615,0.9111238718032837,0.9981618523597717,-0.0020063286647200584,-0.1351868212223053,0.47128254,0.17745635,105.50811000000002,-75.73799,9.537757000000001,JUM
10151700000000.0,2.436124563217163,0.9557180404663086,0.9696798324584961,0.0026673628017306328,-0.1274777501821518,0.43218717,0.20983220000000002,105.50216226485,-75.70772363798459,9.556232527797249,JUM
10151705000000.0,2.4411230087280273,0.985194742679596,0.9441195130348206,0.0005930897896178067,-0.12008184939622879,0.37812558,0.2611449,105.49623000000001,-75.677536,9.57466,JUM
10151710000000.0,2.4461236000061035,0.9975230097770691,0.9209104180335999,-0.008788514882326126,-0.11124075204133987,0.31490102,0.30543262,105.47193,-75.61606,9.627564999999999,JUM
10151715000000.0,2.451122999191284,0.9934291839599609,0.8982368111610413,-0.02429048717021942,-0.10064082592725754,0.24953845,0.34941490000000003,105.425964,-75.54164,9.726166000000001,JUM
10151720000000.0,2.4561359882354736,0.9725497961044312,0.8744874596595764,-0.04531097784638405,-0.08738288283348083,0.20677789,0.38240165,105.39115,-75.47339000000001,9.833537,JUM
10151725000000.0,2.4611339569091797,0.9353506565093994,0.8506292700767517,-0.07095832377672195,-0.07191784679889679,0.20005837,0.42241332,105.33175,-75.447845,9.937195,JUM
10151730000000.0,2.4661333560943604,0.8787705302238464,0.8275085091590881,-0.1013808399438858,-0.05452611297369003,0.21930063,0.47708577,105.27476000000001,-75.42504,10.0528145,JUM
10151735000000.0,2.4711320400238037,0.8070328235626221,0.8029108047485352,-0.1347903162240982,-0.0349685363471508,0.26633725,0.52473325,105.20061000000001,-75.5069,10.066625,JUM
10151740000000.0,2.476130247116089,0.7239730954170227,0.7747241258621216,-0.16953742504119873,-0.014060468412935734,0.33994650000000004,0.5662721,105.108696,-75.58558000000001,10.091522,JUM
10151746000000.0,2.481125831604004,0.6309190392494202,0.7437257766723633,-0.20313510298728943,0.007800575345754623,0.39278635,0.5720753000000001,104.955,-75.66935,10.159224,JUM
10151750000000.0,2.4861249923706055,0.5305487513542175,0.7121971249580383,-0.22594034671783447,0.028691910207271576,0.42088616,0.5644395000000001,104.78650999999999,-75.7483,10.231333,JUM
10151755000000.0,2.491123914718628,0.4289882481098175,0.6949307322502136,-0.24365991353988647,0.04739558324217796,0.3652974,0.54244834,104.61199,-75.8765,10.259884,JUM
10151760000000.0,2.496123790740967,0.3383549749851227,0.7231529951095581,-0.26741304993629456,0.06160285696387291,0.29626966,0.559858,104.432755,-75.98949,10.295371000000001,JUM
10151765000000.0,2.5011239051818848,0.25805121660232544,0.7943153381347656,-0.2968587279319763,0.06834671646356583,0.32192600000000005,0.627664,104.24658000000001,-76.079636,10.304227000000001,JUM
10151770000000.0,2.5061233043670654,0.1875099539756775,0.9059960842132568,-0.331672728061676,0.0646066665649414,0.50518554,0.7678576,104.03153,-76.12687,10.332467999999999,JUM
10151775000000.0,2.511121988296509,0.12620984017848969,1.0560270547866821,-0.3715675473213196,0.04911835864186287,0.88453287,0.9468411,103.74797,-76.12120999999999,10.379977,JUM
10151780000000.0,2.5161218643188477,0.09517162293195724,1.305349349975586,-0.2926909327507019,0.02348453365266323,1.5012014,1.1120802,103.33818000000001,-76.05784,10.441647,JUM
10151785000000.0,2.5211212635040283,0.09919072687625885,1.667251706123352,-0.06431466341018677,-0.03558417037129402,2.0522017,1.2709051000000002,102.8302,-75.83317,10.533828999999999,JUM
10151790000000.0,2.5261199474334717,0.1154528260231018,2.1054770946502686,0.14425772428512573,-0.1520729511976242,1.8936822,1.2483031999999998,102.312386,-75.66413,10.528532,JUM
10151795000000.0,2.5311203002929688,0.132579505443573,2.6012213230133057,0.2504540979862213,-0.24332550168037415,1.3335188999999998,0.8753699,101.77013000000001,-75.7041,10.461345,JUM
10151800000000.0,2.5361196994781494,0.15348011255264282,3.1613879203796387,0.2777087092399597,-0.28511500358581543,0.83108217,0.43554693,101.47319,-75.11662,10.420971,JUM
10151805000000.0,2.5411181449890137,0.18003594875335693,3.7899787425994873,0.2423384040594101,-0.30768388509750366,0.40133846,0.15882497,101.342476,-74.54504,10.350439999999999,JUM
10151811000000.0,2.54611873626709,0.19997739791870117,4.456914901733398,0.17421013116836548,-0.3345192074775696,0.086132,0.02076942,101.20329,-74.59562,10.119347,JUM
10151815000000.0,2.551118850708008,0.20423834025859833,5.137706279754639,0.09685905277729034,-0.3683072328567505,-0.16340645,-0.050396382999999996,101.18119,-74.71804,9.876664,JUM
10151820000000.0,2.5561182498931885,0.1835297793149948,5.81781005859375,0.04924074932932854,-0.3876470923423767,-0.45112398,-0.098043874,101.137085,-75.202835,9.587558999999999,JUM
10151825000000.0,2.5611183643341064,0.13031825423240662,6.48553466796875,0.06309345364570618,-0.36015182733535767,-1.0839803,-0.14844026,101.26515,-75.754425,9.339483999999999,JUM
10151830000000.0,2.566118001937866,0.06559188663959503,7.136281490325928,0.1661459058523178,-0.28131812810897827,-1.8102991999999998,-0.42730024,101.46127,-76.4938,8.991007000000002,JUM
10151835000000.0,2.571117639541626,0.014586045406758785,7.764331340789795,0.3940512239933014,-0.20010964572429657,-2.0665572,-0.7852673000000001,101.70347,-77.19139,8.64069,JUM
10151840000000.0,2.5761160850524902,0.014417169615626335,8.368951797485352,0.71445232629776,-0.18106241524219513,-1.6905695,-0.99204516,101.994644,-77.71021,8.220486,JUM
10151845000000.0,2.5811164379119873,0.13537387549877167,8.947917938232422,1.0758408308029175,-0.21990332007408142,-1.389413,-1.0650436,102.38515500000001,-78.24543,7.780791000000001,JUM
10151850000000.0,2.586116075515747,0.38004952669143677,9.501219749450684,1.4064072370529175,-0.27345624566078186,-0.8338310999999999,-1.0476339,102.71976,-78.34855999999999,7.360658,JUM
10151855000000.0,2.591116189956665,0.7584279179573059,10.028219223022461,1.6007424592971802,-0.32448071241378784,-0.43096542,-1.0555751,103.01746999999999,-78.27247,6.933582,JUM
10151860000000.0,2.5961153507232666,1.2547560930252075,10.529479026794434,1.7079418897628784,-0.36762604117393494,-0.16096300000000002,-1.1505646999999999,103.28356,-77.82587,6.7534776,JUM
10151865000000.0,2.6011154651641846,1.8547053337097168,11.005435943603516,1.7797917127609253,-0.3871975243091583,-0.37568212,-1.0644327,103.56979,-77.431595,6.634156,JUM
10151870000000.0,2.60611629486084,2.519665479660034,11.457184791564941,1.8126708269119263,-0.3895300328731537,-0.6059783000000001,-0.8249735,103.73979,-77.13722,6.7722487000000005,JUM
10151876000000.0,2.611119031906128,3.165938138961792,11.885398864746094,1.7951682806015015,-0.38745731115341187,-0.22540927,-0.65087694,103.7953,-76.8957,6.881862599999999,JUM
10151880000000.0,2.616117477416992,3.794149875640869,12.29132080078125,1.7310415506362915,-0.3721313178539276,0.37812558,-0.5039638,103.87209,-76.66819,7.278857,JUM
10151885000000.0,2.621117115020752,4.355892181396484,12.676136016845703,1.6301600933074951,-0.34010767936706543,0.8542950999999999,-0.38240165,103.86528,-76.46240999999999,7.675851,JUM
10151890000000.0,2.6261162757873535,4.79051399230957,13.040949821472168,1.5055503845214844,-0.29725709557533264,1.181108,-0.30940324,103.72213,-76.283325,8.0501995,JUM
10151895000000.0,2.631115436553955,5.095932483673096,13.386723518371582,1.377280354499817,-0.24692374467849731,1.3219124,-0.2724459,103.42497,-76.26337,8.437685,JUM
10151900000000.0,2.636115312576294,5.266843318939209,13.714325904846191,1.2714906930923462,-0.1873740553855896,1.1866056999999999,-0.26389378,103.11251999999999,-76.28535500000001,8.814484,JUM
10151905000000.0,2.641146421432495,5.321507930755615,14.020200729370117,1.1978285312652588,-0.11810626834630966,0.9370673,-0.29810223,102.72412,-76.511375,9.007079,JUM
10151910000000.0,2.646146297454834,5.308634281158447,14.30260181427002,1.156648874282837,-0.04372391104698181,0.70829827,-0.35979962,102.37162,-76.75175,9.192146000000001,JUM
10151915000000.0,2.651141405105591,5.224969387054443,14.562019348144531,1.149248480796814,0.03138228878378868,0.5369505,-0.41508293,102.02734,-77.1319,9.174808,JUM
10151920000000.0,2.656137466430664,5.072845935821533,14.799517631530762,1.1744637489318848,0.10232309252023697,0.32223140000000006,-0.47036624,101.764175,-77.51862,9.153191,JUM
10151925000000.0,2.661137580871582,4.855067729949951,15.016172409057617,1.2309292554855347,0.16713933646678925,0.02565634,-0.5348125,101.57536,-77.90628000000001,9.124416,JUM
10151930000000.0,2.6661343574523926,4.5770111083984375,15.213301658630371,1.3161503076553345,0.22544120252132416,-0.28313604,-0.59620446,101.44923399999999,-78.28021,9.089266,JUM
10151935000000.0,2.6711297035217285,4.241466045379639,15.391900062561035,1.4287809133529663,0.2765991985797882,-0.65484756,-0.63224554,101.42435,-78.63004000000001,9.056101,JUM
10151941000000.0,2.676135778427124,3.903526782989502,15.499395370483398,1.5388001203536987,0.31697356700897217,-0.9447030999999999,-0.66859204,101.45486,-78.95223,9.008922,JUM
10151945000000.0,2.6811349391937256,3.5840911865234375,15.524581909179688,1.6355451345443726,0.3463251292705536,-1.0207558,-0.73853606,101.52631,-79.25742,8.946571,JUM
10151950000000.0,2.6861324310302734,3.298961639404297,15.458779335021973,1.726578712463379,0.37053143978118896,-1.0396926,-0.79229224,101.73401,-79.72343000000001,8.534141,JUM
10151955000000.0,2.691131830215454,3.053373098373413,15.30087661743164,1.8150432109832764,0.38602524995803833,-0.9682214,-0.9492845999999999,101.94153,-80.17747,8.082400999999999,JUM
10151960000000.0,2.696131944656372,2.855520725250244,15.06018352508545,1.8889541625976562,0.3962659239768982,-0.8866709,-1.1065824,102.16747,-80.60871,7.6438483999999995,JUM
10151965000000.0,2.7011308670043945,2.7072842121124268,14.743473052978516,1.943745493888855,0.4049028158187866,-0.79504114,-1.2125676,102.37016,-81.037704,7.181271000000001,JUM
10151970000000.0,2.7061264514923096,2.6049869060516357,14.36632251739502,1.973003625869751,0.41392582654953003,-0.72356987,-1.2709051000000002,102.571396,-81.40255,6.747963,JUM
10151975000000.0,2.7111427783966064,2.549194812774658,13.93154239654541,1.9714176654815674,0.422467976808548,-0.6722571999999999,-1.3100005,102.75218000000001,-81.76241,6.2967343,JUM
10151980000000.0,2.7161366939544678,2.531931161880493,13.46603775024414,1.9354119300842285,0.4278528690338135,-0.61208695,-1.3225232,102.84926,-82.03469,5.9237269999999995,JUM
10151985000000.0,2.721130847930908,2.5545191764831543,12.973249435424805,1.8588290214538574,0.4284907877445221,-0.50579643,-1.3170254,102.91951,-82.2848,5.5531707,JUM
10151990000000.0,2.7261250019073486,2.6025259494781494,12.47541618347168,1.7522119283676147,0.42290931940078735,-0.38087448,-1.2687671,102.96359,-82.47726,5.2733316,JUM
10151995000000.0,2.7311198711395264,2.670741558074951,11.979345321655273,1.6197527647018433,0.41054466366767883,-0.22418754,-1.1624765,102.96735,-82.62173,5.017005,JUM
10152000000000.0,2.736114978790283,2.744218111038208,11.492484092712402,1.47874915599823,0.3906188905239105,-0.077579886,-0.98746365,102.99738,-82.75905999999999,4.851438,JUM
10152005000000.0,2.7411093711853027,2.8172128200531006,11.017342567443848,1.3359389305114746,0.36418604850769043,0.029626964,-0.7538077,102.98796,-82.83268000000001,4.735958999999999,JUM
10152010000000.0,2.7461068630218506,2.8780667781829834,10.54530143737793,1.210660696029663,0.3331066966056824,0.0983493,-0.48655418,102.91563000000001,-82.869804,4.723746,JUM
10152015000000.0,2.7511026859283447,2.9211833477020264,10.07232666015625,1.1123509407043457,0.3001677393913269,0.14813483,-0.23273966,102.812126,-82.84219,4.7767186,JUM
10152020000000.0,2.756103038787842,2.9350996017456055,9.592625617980957,1.0609968900680542,0.26724252104759216,0.18478674,-0.016493361,102.67757399999999,-82.765976,4.898303,JUM
10152026000000.0,2.7611031532287598,2.912132501602173,9.102846145629883,1.0702065229415894,0.23478607833385468,0.21777347,0.15057829,102.52624,-82.6358,5.0788293,JUM
10152030000000.0,2.766103744506836,2.8551201820373535,8.617181777954102,1.136940360069275,0.19969700276851654,0.25045475,0.24190263,102.390625,-82.42695,5.267158,JUM
10152035000000.0,2.771104097366333,2.7668261528015137,8.148406028747559,1.2581069469451904,0.1576393097639084,0.26725355,0.2779437,102.25027,-82.17368,5.4863553,JUM
10152040000000.0,2.7761032581329346,2.6561832427978516,7.704660892486572,1.4270739555358887,0.1083332970738411,0.24801129,0.28283059999999993,102.17905,-81.80509,5.6385612,JUM
10152045000000.0,2.781121015548706,2.536229133605957,7.302111625671387,1.6385083198547363,0.053239546716213226,0.04153884,0.29504790000000003,102.16291,-81.39609499999999,5.806654,JUM
10152050000000.0,2.7861204147338867,2.4184980392456055,6.935507297515869,1.8668243885040283,-0.005884809419512749,-0.06352998,0.29932398,102.24181999999999,-80.85217,5.931445,JUM
10152055000000.0,2.79111909866333,2.3113372325897217,6.603097438812256,2.0968716144561768,-0.06456030905246735,-0.28527406,0.32375857,102.41032,-80.27031,6.078626,JUM
10152060000000.0,2.7961196899414062,2.2187623977661133,6.297682762145996,2.309525489807129,-0.12385261803865433,-0.514654,0.33628133,102.65671,-79.55074,6.2011538,JUM
10152065000000.0,2.8011229038238525,2.1449739933013916,6.011831760406494,2.4847841262817383,-0.1818406879901886,-0.72234815,0.34513888,102.954025,-78.80547,6.341497400000001,JUM
10152070000000.0,2.806119203567505,2.087692975997925,5.743231296539307,2.617795705795288,-0.23703141510486603,-0.87017757,0.35705075,103.30611400000001,-77.9967,6.504386,JUM
10152075000000.0,2.8111205101013184,2.0444278717041016,5.4879302978515625,2.6884958744049072,-0.2880275249481201,-0.8924741,0.3659083,103.67416,-77.17354,6.677169999999999,JUM
10152080000000.0,2.816117763519287,2.014068126678467,5.245253562927246,2.702038526535034,-0.33308297395706177,-0.8332202,0.39645153,104.03326,-76.41333,6.891669800000001,JUM
10152085000000.0,2.821117401123047,1.9851735830307007,4.9949445724487305,2.60412335395813,-0.3710494339466095,-0.66431594,0.41263947,104.36353000000001,-75.66153,7.102709,JUM
10152091000000.0,2.826115369796753,1.9533987045288086,4.730128288269043,2.3805904388427734,-0.40070948004722595,-0.3933972,0.43676865,104.64161,-74.923,7.3167295,JUM
10152095000000.0,2.831115484237671,1.9140726327896118,4.456339359283447,2.0774142742156982,-0.4220012128353119,-0.12095132,0.48563787,104.83913000000001,-74.42054,7.513255,JUM
10152100000000.0,2.8361151218414307,1.8613446950912476,4.1811089515686035,1.75432288646698,-0.4382842481136322,0.12064589,0.5555819000000001,104.96907,-73.92853000000001,7.7056130000000005,JUM
10152105000000.0,2.8411147594451904,1.8003891706466675,3.90474009513855,1.4199447631835938,-0.4513230323791504,0.3191771,0.60139686,104.88006599999999,-73.88167,7.900781599999999,JUM
10152110000000.0,2.846116304397583,1.7357087135314941,3.6274094581604004,1.0817190408706665,-0.460541695356369,0.47433686,0.65026605,104.73268,-73.84639,8.10207,JUM
10152115000000.0,2.8511195182800293,1.6696137189865112,3.351375102996826,0.7470614910125732,-0.46479278802871704,0.6114761,0.66950834,104.49289,-73.9321,8.2705765,JUM
10152120000000.0,2.85611891746521,1.6046243906021118,3.0792858600616455,0.4240869879722595,-0.46385273337364197,0.73914695,0.6450737,104.21515,-74.0331,8.431875,JUM
10152125000000.0,2.861121416091919,1.5409002304077148,2.8119754791259766,0.1151832565665245,-0.45620766282081604,0.82527894,0.6267477,103.89222,-74.21987,8.583449,JUM
10152130000000.0,2.8661210536956787,1.4797070026397705,2.555450201034546,-0.16579532623291016,-0.4412057399749756,0.8570439000000001,0.5864305999999999,103.55568000000001,-74.438286,8.719699,JUM
10152135000000.0,2.871116876602173,1.4209136962890625,2.3091509342193604,-0.42038795351982117,-0.4168137013912201,0.8542950999999999,0.569021,103.20276,-74.70675,8.854208,JUM
10152140000000.0,2.8761157989501953,1.3618606328964233,2.077359437942505,-0.6257507801055908,-0.38139960169792175,0.7666359,0.56107974,102.87074,-75.01776,8.986508,JUM
10152145000000.0,2.881112575531006,1.3020825386047363,1.8603408336639404,-0.7799959182739258,-0.3411828279495239,0.5714644,0.5671884,102.574,-75.34111,9.127367999999999,JUM
10152150000000.0,2.8861124515533447,1.2389181852340698,1.6697733402252197,-0.8842605948448181,-0.2894526422023773,0.2929099,0.5751295999999999,102.33887,-75.69142,9.28129,JUM
10152156000000.0,2.891110897064209,1.1717100143432617,1.5084844827651978,-0.941615879535675,-0.22615522146224976,-0.022602014,0.58551437,102.17295,-76.05495,9.452228,JUM
10152160000000.0,2.8961119651794434,1.0978058576583862,1.382521390914917,-0.961927056312561,-0.1510443389415741,-0.31795537,0.56779927,102.10882,-76.34775,9.625722,JUM
10152165000000.0,2.9011120796203613,1.0159766674041748,1.2942196130752563,-0.9525284767150879,-0.06631217151880264,-0.54092115,0.5571090999999999,102.11584,-76.665764,9.816423,JUM
10152170000000.0,2.9061119556427,0.9269160032272339,1.238226056098938,-0.9196158647537231,0.02544502541422844,-0.6942484,0.5357288,102.2105,-76.92907,9.9781065,JUM
10152175000000.0,2.9111127853393555,0.8311280608177185,1.2110320329666138,-0.8669443130493164,0.11968586593866348,-0.816116,0.514654,102.36221,-77.20535,10.143419999999999,JUM
10152180000000.0,2.9161128997802734,0.7318025231361389,1.2045297622680664,-0.8033425807952881,0.21339689195156097,-0.8445212,0.43860126,102.54505,-77.49033,10.230997,JUM
10152185000000.0,2.9211127758026123,0.6318444609642029,1.2113032341003418,-0.7369351387023926,0.2994280457496643,-0.7495316,0.29168814,102.73151,-77.77749,10.28926,JUM
10152190000000.0,2.9261109828948975,0.5339776277542114,1.228543758392334,-0.6397138237953186,0.3721008598804474,-0.67256266,0.19608775,102.93968000000001,-78.07304,10.25421,JUM
10152195000000.0,2.931117296218872,0.43977004289627075,1.2547223567962646,-0.4929420053958893,0.4280741810798645,-0.6844745,0.15088372,103.14822,-78.362305,10.187818,JUM
10152201000000.0,2.9361188411712646,0.35233166813850403,1.2831567525863647,-0.30976107716560364,0.4651452898979187,-0.68661255,0.12339478,103.3324,-78.6536,10.056461,JUM
10152205000000.0,2.941117763519287,0.2735133469104767,1.309842824935913,-0.09720590710639954,0.4715438187122345,-0.80970186,0.10323623,103.55445999999999,-78.88681,9.915775,JUM
10152210000000.0,2.946119785308838,0.1985856294631958,1.3327347040176392,0.11604929715394974,0.4554641544818878,-0.97249746,0.08002335,103.81701,-79.00383000000001,9.7556505,JUM
10152215000000.0,2.951122283935547,0.12124212831258774,1.349065899848938,0.2907017469406128,0.4264219403266907,-1.1087204,0.03481932,104.108215,-79.075645,9.586875,JUM
10152221000000.0,2.9561233520507812,0.04075321555137634,1.356337070465088,0.42026934027671814,0.3925304710865021,-1.1917981000000002,0.007941248,104.45591999999999,-78.97844,9.449059,JUM
10152225000000.0,2.961125612258911,-0.0436948798596859,1.3520607948303223,0.49804946780204773,0.3585895597934723,-1.1976013,0.0012217305,104.82112,-78.83797,9.309596,JUM
10152230000000.0,2.966156482696533,-0.13223382830619812,1.334576964378357,0.5245978832244873,0.32570868730545044,-1.1771374,-0.002443461,105.18928999999999,-78.748184,9.150127000000001,JUM
10152235000000.0,2.97115421295166,-0.22240962088108063,1.3062222003936768,0.5145501494407654,0.29534515738487244,-1.1542298999999998,0.0036651915999999997,105.55793,-78.63784,8.994519,JUM
10152240000000.0,2.9761505126953125,-0.3135487735271454,1.2665233612060547,0.4719293713569641,0.26840656995773315,-1.0845913,0.009162978,105.88335,-78.67056,8.817260000000001,JUM
10152245000000.0,2.981152296066284,-0.40353989601135254,1.2164883613586426,0.4080010950565338,0.24383144080638885,-1.0091494,0.015271631,106.19943,-78.69453399999999,8.640779,JUM
10152250000000.0,2.9861502647399902,-0.48587438464164734,1.155883550643921,0.32525718212127686,0.22149379551410675,-0.9236283000000002,0.014660766,106.47068999999999,-78.85749,8.442699000000001,JUM
10152255000000.0,2.991147041320801,-0.5526474714279175,1.0836102962493896,0.22523297369480133,0.20088373124599457,-0.81092364,0.015271631,106.71129599999999,-79.02056999999999,8.240721,JUM
10152260000000.0,2.996145248413086,-0.603679358959198,1.0019022226333618,0.1118306815624237,0.18187662959098816,-0.6765333,0.0067195175,106.90756,-79.266975,8.022222,JUM
10152266000000.0,3.001148223876953,-0.6324441432952881,0.9247992634773254,0.010486514307558537,0.16441962122917175,-0.5122104999999999,0.017104227,107.06116499999999,-79.51345,7.8013573,JUM
10152270000000.0,3.006154775619507,-0.6403505206108093,0.852752685546875,-0.07912024110555649,0.14764879643917084,-0.37048978,0.029321532999999997,107.16758999999999,-79.79276999999999,7.6375337,JUM
10152275000000.0,3.0111541748046875,-0.6310155987739563,0.7940977811813354,-0.15356890857219696,0.1317880004644394,-0.29657507,0.03726278,107.24497,-80.076546,7.469874400000001,JUM
10152280000000.0,3.0161523818969727,-0.604992151260376,0.748328685760498,-0.21344135701656342,0.1172119602560997,-0.28680122,0.05161811400000001,107.30403000000001,-80.269104,7.391679300000001,JUM
10152286000000.0,3.0211575031280518,-0.5620260238647461,0.7294337153434753,-0.26570212841033936,0.10354293882846832,-0.30970868,0.08674286,107.34953999999999,-80.45566600000001,7.3191166,JUM
10152290000000.0,3.026155710220337,-0.5036386847496033,0.7418727278709412,-0.3142073154449463,0.08894208818674088,-0.2773328,0.14141529999999997,107.37454,-80.631226,7.253095599999999,JUM
10152295000000.0,3.0311520099639893,-0.434013694524765,0.7948375344276428,-0.36396312713623047,0.0704965889453888,-0.20280726,0.20952678,107.38766499999998,-80.67352,7.281076400000001,JUM
10152300000000.0,3.0361807346343994,-0.3547360897064209,0.8993231654167175,-0.41908517479896545,0.04727192223072052,-0.07880162,0.28741209999999995,107.3745,-80.691925,7.324567299999999,JUM
10152305000000.0,3.0411758422851562,-0.2745005488395691,1.057386875152588,-0.4671918451786041,0.019587889313697815,0.16371189,0.38453966,107.161354,-80.60765,7.3721440000000005,JUM
10152310000000.0,3.0461766719818115,-0.19450464844703674,1.2816988229751587,-0.5041576027870178,-0.009713482111692429,0.47586402,0.49968776,106.90097,-80.50026,7.437771000000001,JUM
10152315000000.0,3.0511770248413086,-0.10155781358480453,1.620530605316162,-0.3653089702129364,-0.035174474120140076,0.72601336,0.61086524,106.60311999999999,-80.40454,7.552446000000001,JUM
10152320000000.0,3.056173324584961,0.011391397565603256,2.098243474960327,0.03705162927508354,-0.0693868100643158,0.56077427,0.7367035,106.34106399999999,-80.23991,7.698212599999999,JUM
10152325000000.0,3.0611727237701416,0.13100701570510864,2.6723947525024414,0.4389123320579529,-0.14292500913143158,-0.056505035999999995,0.66706485,106.137184,-80.02955,7.779666400000001,JUM
10152330000000.0,3.0661685466766357,0.24999317526817322,3.3148128986358643,0.7078046202659607,-0.20574022829532623,-0.6123924,0.43035457,105.9768,-79.96715,7.844653599999999,JUM
10152335000000.0,3.0711655616760254,0.37705016136169434,3.9989798069000244,0.9309817552566528,-0.23032549023628235,-0.81336707,0.17470746,106.27198,-79.031296,7.9965477,JUM
10152340000000.0,3.076162099838257,0.5187167525291443,4.702008247375488,1.1786125898361206,-0.24031822383403778,-1.1902708999999998,0.096516706,106.77383400000001,-78.068535,8.159382,JUM
10152345000000.0,3.08115816116333,0.6516087055206299,5.403837203979492,1.3535678386688232,-0.24242104589939117,-1.6471981,0.05681047,107.20136000000001,-77.79334,8.195514,JUM
10152351000000.0,3.08615779876709,0.7632926106452942,6.094245433807373,1.4041742086410522,-0.27053695917129517,-2.0751092,0.074830994,107.722206,-77.44674,8.251216000000001,JUM
10152355000000.0,3.0911543369293213,0.8665914535522461,6.76577091217041,1.332937479019165,-0.3155316114425659,-2.0503693,-0.18967366,108.27561000000001,-77.13524,8.263935,JUM
10152360000000.0,3.0961575508117676,0.9697815775871277,7.414871692657471,1.1372697353363037,-0.3372119963169098,-1.5668693999999999,-0.5696318,108.813065,-76.91011999999999,8.249779,JUM
10152365000000.0,3.101160764694214,1.1238982677459717,8.038345336914062,0.9545865654945374,-0.3319699168205261,-0.91965765,-0.6973026999999999,109.170685,-77.004036,8.171448,JUM
10152370000000.0,3.1061809062957764,1.3690239191055298,8.634993553161621,0.8823385834693909,-0.3075394928455353,-0.43279803,-0.59803706,109.43151,-77.16763,8.045392,JUM
10152375000000.0,3.1111767292022705,1.7170021533966064,9.204512596130371,0.9517931938171387,-0.27230069041252136,-0.4120286,-0.41996986,109.50763,-77.7065,7.888459700000001,JUM
10152380000000.0,3.1161742210388184,2.2274792194366455,9.747369766235352,1.2587486505508423,-0.24377423524856567,-0.66767573,-0.24984388,109.51253500000001,-78.1991,7.751919,JUM
10152385000000.0,3.12117075920105,2.819748878479004,10.263714790344238,1.608375072479248,-0.23337092995643616,-0.6921103,-0.12950343,109.58578,-78.24945,7.883049000000001,JUM
10152390000000.0,3.126167058944702,3.4317386150360107,10.753947257995605,1.8503836393356323,-0.2268751859664917,-0.15332718,-0.17134771,109.56660500000001,-78.325325,7.990651,JUM
10152395000000.0,3.131162166595459,4.066057205200195,11.219234466552734,2.0352015495300293,-0.20498540997505188,0.30787608,-0.15943582,109.841606,-77.717735,8.477383999999999,JUM
10152400000000.0,3.136159658432007,4.728909492492676,11.660534858703613,2.243093252182007,-0.17836980521678925,0.3753767,0.01038471,110.058815,-77.08626,8.95116,JUM
10152405000000.0,3.1411545276641846,5.365803241729736,12.078961372375488,2.4508609771728516,-0.1574372798204422,0.38973203,0.17501289,110.09806,-76.61173000000001,9.480846000000001,JUM
10152410000000.0,3.1461544036865234,5.915915012359619,12.475571632385254,2.6330795288085938,-0.13937826454639435,0.47708577,0.23609942,110.089676,-76.17746,9.989046,JUM
10152416000000.0,3.151151657104492,6.352572441101074,12.851449966430664,2.786149024963379,-0.1153312399983406,0.4636467000000001,0.27091873,110.154945,-75.6295,10.608298,JUM
10152420000000.0,3.1561508178710938,6.607078552246094,13.207566261291504,2.899284839630127,-0.08336904644966125,0.37415496,0.29046643,110.20778999999999,-75.10068000000001,11.202795,JUM
10152425000000.0,3.161146402359009,6.7254862785339355,13.535470962524414,2.9856879711151123,-0.04554123803973198,0.30726522,0.2761111,110.21998,-74.704254,11.676206,JUM
10152430000000.0,3.166147470474243,6.76252555847168,13.821709632873535,3.062272310256958,-0.0034463205374777317,0.27885997,0.19486602,110.24670400000001,-74.360176,12.115908000000001,JUM
10152436000000.0,3.1711416244506836,6.725818157196045,14.069561958312988,3.1297895908355713,0.03785393014550209,0.2959642,0.13286320000000001,110.22521,-74.267426,12.297634,JUM
10152440000000.0,3.1761436462402344,6.615301609039307,14.279787063598633,3.1884453296661377,0.07589514553546906,0.39675698,0.00030543262000000003,110.19538999999999,-74.223495,12.427037,JUM
10152445000000.0,3.181138515472412,6.43894624710083,14.45569133758545,3.23899245262146,0.10880006849765778,0.43493605,-0.14080444,110.18265,-74.19483000000001,12.534282000000001,JUM
10152450000000.0,3.1861369609832764,6.197432041168213,14.598191261291504,3.2816665172576904,0.13596343994140625,0.39431350000000004,-0.3136793,110.17166,-74.19894000000001,12.589648,JUM
10152455000000.0,3.191134452819824,5.895424842834473,14.709452629089355,3.316970109939575,0.1573168784379959,0.24251351,-0.50488013,110.18959,-74.22964,12.600594000000001,JUM
10152460000000.0,3.196136474609375,5.5346455574035645,14.790655136108398,3.345191478729248,0.17308861017227173,0.02443461,-0.6835581999999999,110.24581,-74.28469,12.57008,JUM
10152465000000.0,3.2011380195617676,5.11949348449707,14.843810081481934,3.3667960166931152,0.18207859992980957,-0.21685717,-0.8503244000000001,110.365265,-74.36143,12.499583,JUM
10152470000000.0,3.206136465072632,4.745458602905273,14.825884819030762,3.3648884296417236,0.1862597018480301,-0.48136179999999995,-1.001819,110.55966000000001,-74.46486999999999,12.396016,JUM
10152475000000.0,3.2111363410949707,4.429108619689941,14.730470657348633,3.336852550506592,0.18605098128318787,-0.6805039,-1.0913107,110.80598400000001,-74.57084,12.274078,JUM
10152480000000.0,3.2161340713500977,4.163844108581543,14.564711570739746,3.271024227142334,0.18134456872940063,-0.7715228,-1.1429288,111.04636,-75.02368,11.72408,JUM
10152485000000.0,3.221135377883911,3.9465060234069824,14.331598281860352,3.1637229919433594,0.17164766788482666,-0.7632760999999999,-1.1881329,111.31246999999999,-75.46464499999999,11.162558,JUM
10152490000000.0,3.226132869720459,3.77182674407959,14.031269073486328,3.014498472213745,0.1598794311285019,-0.67073005,-1.2073752,111.57429499999999,-75.84225500000001,10.677829,JUM
10152495000000.0,3.231130599975586,3.634233236312866,13.655112266540527,2.8171064853668213,0.14733850955963135,-0.514654,-1.2107350000000001,111.80788999999999,-76.19788,10.189717,JUM
10152501000000.0,3.2361295223236084,3.524986982345581,13.222616195678711,2.5849175453186035,0.13514037430286407,-0.38087448,-1.2024882,111.98820500000001,-76.53229,9.779127,JUM
10152505000000.0,3.2411274909973145,3.4363443851470947,12.751333236694336,2.3298733234405518,0.12404808402061462,-0.29962940000000005,-1.1603385,112.126595,-76.846954,9.382244,JUM
10152510000000.0,3.246123790740967,3.362264394760132,12.251897811889648,2.061723232269287,0.11535371840000153,-0.20891592,-1.0577132,112.179695,-77.15744000000001,9.07283,JUM
10152515000000.0,3.251121997833252,3.2962584495544434,11.735147476196289,1.790873646736145,0.11068744212388992,-0.08857546,-0.9407325000000001,112.1902,-77.460686,8.780965,JUM
