timestamp,rel_time,acc_x,acc_y,acc_z,gyro_x,gyro_y,gyro_z,azimuth,pitch,roll,label
0.0,0.0,0.0,0.0,0.0,0.0,0.054367005999999996,-0.013133603,341.95752000000005,-101.069565,10.105035,STD
391936930000.0,1.4955134247429669e-05,0.00391323072835803,0.02918688766658306,-0.0017360035562887788,-7.399813330266625e-05,0.04276056599999999,-0.008552114,341.98877000000005,-101.07436,10.083101,STD
1169977200000.0,7.443146751029417e-05,0.01166433747857809,0.08712339401245117,-0.005009651184082031,-0.0001772380346665159,0.03756821,-0.011911871999999999,342.0179,-101.07757,10.058383000000001,STD
2322664300000.0,0.0002067046007141471,0.02312244102358818,0.17295360565185547,-0.00960390642285347,-0.0003681443049572408,0.03604105,-0.0015271631,342.04935,-101.083244,10.038974000000001,STD
3833324600000.0,0.00043904344784095883,0.03810504451394081,0.28543323278427124,-0.015283307060599327,-0.0006470152293331921,0.040011674,-0.00061086525,342.08,-101.08645,10.016177,STD
5680645000000.0,0.0007956275367178023,0.05638498812913895,0.4229726791381836,-0.021808702498674393,-0.0009525491041131318,0.039095376,-0.0021380284,342.1122,-101.09149000000001,9.995676,STD
7839382000000.0,0.0012981519103050232,0.07769722491502762,0.5836899876594543,-0.02893706038594246,-0.001430563977919519,0.05589417,-0.004886922,342.13773,-101.0947,9.975797,STD
10281165000000.0,0.0019700252451002598,0.1017444059252739,0.7654699683189392,-0.036400869488716125,-0.002019683364778757,0.06383542,-0.010995574,342.16553,-101.09724,9.954493,STD
12975339000000.0,0.002818549517542124,0.12821562588214874,0.9660292267799377,-0.044015299528837204,-0.0024720774963498116,0.08216137400000001,-0.018020526000000002,342.18503,-101.09918,9.933075,STD
15889824000000.0,0.003859716933220625,0.1567806750535965,1.1829769611358643,-0.051538534462451935,-0.002825746778398752,0.08704830000000001,-0.01740966,342.2059,-101.10068000000001,9.912289,STD
18991920000000.0,0.005102796014398336,0.18710704147815704,1.4138771295547485,-0.05876484513282776,-0.0029059601947665215,0.106901415,-0.016798794,342.21682999999996,-101.102165,9.890764,STD
22249063000000.0,0.006553005892783403,0.21886588633060455,1.656304121017456,-0.06551256775856018,-0.0029546674340963364,0.13164146,-0.016493361,342.22476,-101.10311999999999,9.870004,STD
25629480000000.0,0.008213716559112072,0.2517373263835907,1.9078912734985352,-0.07161442190408707,-0.002464243210852146,0.14508049,-0.029626964,342.2299,-101.10431,9.846260000000001,STD
29102734000000.0,0.010084097273647785,0.2854172885417938,2.166372299194336,-0.07693369686603546,-0.0023729808162897825,0.1423316,-0.027488936000000002,342.233,-101.10566999999999,9.827679,STD
32640176000000.0,0.012163563631474972,0.31961941719055176,2.4296133518218994,-0.08134053647518158,-0.0021952367387712,0.13836098,-0.029626964,342.23227,-101.10694000000001,9.805071,STD
36215260000000.0,0.014446350745856762,0.3540814220905304,2.6956381797790527,-0.0847448855638504,-0.0021376716904342175,0.1255328,-0.032986722999999996,342.2351,-101.10606,9.782996,STD
39803770000000.0,0.016926441341638565,0.38856446743011475,2.96264386177063,-0.08706898242235184,-0.0015250606229528785,0.106901415,-0.03359759,342.2409,-101.108154,9.761409,STD
43383943000000.0,0.019598471000790596,0.42285385727882385,3.229010581970215,-0.08824270218610764,-0.000806000956799835,0.08399397,-0.03573562,342.2516,-101.107025,9.738518,STD
46936520000000.0,0.022454537451267242,0.4567613899707794,3.493304491043091,-0.08822223544120789,-0.00035244502942077816,0.057726767000000005,-0.0421497,342.2685,-101.10537,9.71413,STD
50444705000000.0,0.02548319287598133,0.4901255965232849,3.7542757987976074,-0.08699578791856766,-0.00036322473897598684,0.040927973,-0.03726278,342.2894,-101.10566999999999,9.692430499999999,STD
53894093000000.0,0.028680868446826935,0.52275550365448,4.010910987854004,-0.08521196246147156,-0.0005829846486449242,0.03604105,-0.031154128,342.31412,-101.104546,9.66928,STD
57272546000000.0,0.03202211856842041,0.5544440150260925,4.2624287605285645,-0.08438606560230255,-0.0011593831004574895,0.03481932,-0.038789943,342.34204,-101.0991,9.643582,STD
60570032000000.0,0.03550662845373154,0.5850846767425537,4.508089542388916,-0.08456280082464218,-0.002036001067608595,0.048563786,-0.030848695,342.34738,-101.07695,9.632375999999999,STD
63778465000000.0,0.039126235991716385,0.6146017909049988,4.747291564941406,-0.08574342727661133,-0.0032227011397480965,0.052839845,-0.0290161,342.35547,-101.050865,9.617241,STD
66891515000000.0,0.04286729916930199,0.6429455876350403,4.979557514190674,-0.08789700269699097,-0.004034840036183596,0.0720821,-0.022602014,342.35568,-101.02971,9.606722999999999,STD
69904430000000.0,0.04672277718782425,0.670074462890625,5.204532146453857,-0.09101440012454987,-0.004390474408864975,0.10781772,-0.028710667000000002,342.34967,-101.00582,9.593964,STD
72813850000000.0,0.05068134516477585,0.6959671974182129,5.421958923339844,-0.09506122767925262,-0.004225133452564478,0.12614368,-0.021380282999999996,342.3438,-100.98879000000001,9.587141,STD
75617630000000.0,0.054738257080316544,0.7206071615219116,5.631676197052002,-0.100026436150074,-0.0029185598250478506,0.14782938,-0.024129177,342.3265,-100.9714,9.57705,STD
78314685000000.0,0.058883439749479294,0.743995726108551,5.833596229553223,-0.10587069392204285,-0.0014090309850871563,0.15088372,-0.032986722999999996,342.30962999999997,-100.95367399999999,9.567561,STD
80904840000000.0,0.0631098523736,0.7661401033401489,6.027700424194336,-0.11256386339664459,0.0008509395993314683,0.16187929,-0.03634648,342.28472999999997,-100.941925,9.559972,STD
83388660000000.0,0.06741208583116531,0.7870534658432007,6.2140278816223145,-0.12007943540811539,0.003290526568889618,0.15057829,-0.03634648,342.26572000000004,-100.92844000000001,9.550685000000001,STD
85767385000000.0,0.07178042829036713,0.8067613840103149,6.392660617828369,-0.12836909294128418,0.00556589150801301,0.13683382,-0.032375857,342.24472000000003,-100.91684000000001,9.542218,STD
88042750000000.0,0.07621017843484879,0.8252885341644287,6.563724040985107,-0.13740406930446625,0.007680986076593399,0.113926366,-0.027794369,342.23013,-100.90649,9.533763,STD
90216940000000.0,0.08069588989019394,0.8426651954650879,6.72737455368042,-0.1471504271030426,0.009099663235247135,0.1160644,-0.02321288,342.21277000000003,-100.89574,9.527039,STD
92292460000000.0,0.08525625616312027,0.8588939309120178,6.8838114738464355,-0.15767888724803925,0.009646419435739517,0.110872045,-0.015577064,342.20456,-100.88635,9.521899000000001,STD
94272100000000.0,0.08983724564313889,0.8740742206573486,7.03319787979126,-0.16873885691165924,0.010261550545692444,0.1020145,-0.010690141499999998,342.19705,-100.87843000000001,9.517412,STD
96158820000000.0,0.09446141123771667,0.8882085680961609,7.175771236419678,-0.18041592836380005,0.010659722611308098,0.10781772,-0.011911871999999999,342.18703999999997,-100.86816400000001,9.513711,STD
97955755000000.0,0.09912578761577606,0.9013341069221497,7.311758518218994,-0.19268269836902618,0.010976002551615238,0.112399206,-0.0070249503,342.18032999999997,-100.86137,9.512913000000001,STD
99666120000000.0,0.10382238030433655,0.9134954214096069,7.441390514373779,-0.20548923313617706,0.010866477154195309,0.1282817,-0.003970624,342.1687,-100.852554,9.511751,STD
101293160000000.0,0.10854983329772949,0.9247289896011353,7.564906597137451,-0.21881452202796936,0.010999899357557297,0.14049901,0.0067195175,342.1573,-100.8486,9.514213999999999,STD
102840180000000.0,0.1133100688457489,0.9350674152374268,7.682550430297852,-0.232651948928833,0.011301500722765923,0.14630222,-0.0021380284,342.14288,-100.83944,9.512257,STD
104310450000000.0,0.11809173226356506,0.9445602893829346,7.794555187225342,-0.24693645536899567,0.011635917238891125,0.15607607,-0.0027488936,342.12448,-100.835464,9.516103,STD
105707220000000.0,0.12289319187402725,0.9532442688941956,7.901158809661865,-0.26164597272872925,0.011841882020235062,0.14782938,-0.0027488936,342.117000671026,-100.83308516478901,9.516905246478869,STD
107033690000000.0,0.1277141273021698,0.9611538648605347,8.002596855163574,-0.2767643630504608,0.012325378134846687,0.14874569,-0.0015271631,342.10947000000004,-100.83069,9.517713,STD
108292990000000.0,0.1325543373823166,0.9683226943016052,8.099099159240723,-0.29227638244628906,0.012976672500371933,0.14294247,0.00580322,342.09157999999996,-100.82766,9.521266,STD
109488160000000.0,0.13741037249565125,0.9747878313064575,8.190889358520508,-0.3081527650356293,0.013482458889484406,0.1441642,0.01160644,342.07407,-100.82435600000001,9.5247755,STD
110622190000000.0,0.1422814130783081,0.9805819392204285,8.27818489074707,-0.3243762254714966,0.013978441245853901,0.13469578,0.015882496,342.06167999999997,-100.82341,9.529492999999999,STD
111697960000000.0,0.1471678465604782,0.9857352375984192,8.361198425292969,-0.34093526005744934,0.014320185407996178,0.12797627,0.013439035,342.04828,-100.82159399999999,9.533987,STD
112718230000000.0,0.1520998179912567,0.9902383685112,8.440157890319824,-0.357949823141098,0.014579849317669868,0.13164146,0.018020526000000002,342.03506,-100.82281,9.541609,STD
113685696000000.0,0.15700682997703552,0.994210958480835,8.515206336975098,-0.37509727478027344,0.015180936083197594,0.13744467,0.018936822,342.0231,-100.8232,9.547257,STD
114602940000000.0,0.16192767024040222,0.9976304173469543,8.586564064025879,-0.392536461353302,0.015540926717221737,0.13194689,0.02565634,342.0137,-100.82458000000001,9.555535,JUM
115472430000000.0,0.1668553203344345,1.0005322694778442,8.65440845489502,-0.41022512316703796,0.015704428777098656,0.13133603,0.024129177,342.0012,-100.82503,9.561867,JUM
116296540000000.0,0.17179016768932343,1.0029412508010864,8.718914031982422,-0.4281540513038635,0.01569768600165844,0.13316862,0.0290161,341.98992999999996,-100.82822,9.571677000000001,JUM
117077550000000.0,0.17672938108444214,1.004885196685791,8.78024673461914,-0.44630032777786255,0.01559420209378004,0.13622294,0.03145956,341.9785,-100.83004,9.5801935,JUM
117817640000000.0,0.18167784810066223,1.0063810348510742,8.838570594787598,-0.4646754264831543,0.015528525225818157,0.13744467,0.02443461,341.967,-100.830536,9.587194,JUM
118518870000000.0,0.18663136661052704,1.0074563026428223,8.894035339355469,-0.4832513928413391,0.015028873458504677,0.16310102,0.023518313,341.94788,-100.83171,9.597116999999999,JUM
119183230000000.0,0.19158713519573212,1.0081357955932617,8.946784973144531,-0.5020067095756531,0.014587909914553165,0.15760323,0.016493361,341.9372,-100.83075,9.602386,JUM
119812610000000.0,0.19655023515224457,1.0084329843521118,8.996962547302246,-0.5209550857543945,0.013829631730914116,0.15515977,0.016493361,341.91855,-100.829414,9.610036000000001,JUM
120408810000000.0,0.20151293277740479,1.0083770751953125,9.044694900512695,-0.5400542616844177,0.012867995537817478,0.14385876,0.0125227375,341.90402,-100.82571,9.614144999999999,JUM
120973540000000.0,0.2064831405878067,1.0079761743545532,9.09011459350586,-0.5593310594558716,0.011324224062263966,0.12583824,0.005497787,341.8923,-100.81954,9.617108,JUM
121508440000000.0,0.21145814657211304,1.0077292919158936,9.131731986999512,-0.5780144333839417,0.009439953602850437,0.11026118,0.010079277,341.88347999999996,-100.8154,9.621993,JUM
122015055000000.0,0.21643497049808502,1.0090142488479614,9.165099143981934,-0.593950629234314,0.0070220548659563065,0.083383106,0.01038471,341.88300000000004,-100.806526,9.622900999999999,JUM
122494860000000.0,0.2214248776435852,1.011816143989563,9.190386772155762,-0.6072075366973877,0.004667151253670454,0.06841691,0.018936822,341.92633,-100.79566,9.593596,JUM
122949250000000.0,0.22640490531921387,1.015928030014038,9.208525657653809,-0.6180729866027832,0.0020308298990130424,0.056505035999999995,0.015577064,341.97574,-100.77959399999999,9.560814,JUM
123379560000000.0,0.23138803243637085,1.021352767944336,9.219606399536133,-0.6265894770622253,-1.0812275831995066e-05,0.048258353,0.022602014,342.02823,-100.77037,9.533478,JUM
123787060000000.0,0.23637263476848602,1.0280132293701172,9.224031448364258,-0.6328898072242737,-0.0024154933635145426,0.040317107000000005,0.02107485,342.0831,-100.75487,9.502768,JUM
124172930000000.0,0.24135573208332062,1.0358277559280396,9.222216606140137,-0.6371097564697266,-0.004172455985099077,0.050701816,0.016798794,342.1344,-100.74406,9.473768,JUM
124538320000000.0,0.2463439702987671,1.0447733402252197,9.214340209960938,-0.639315128326416,-0.005332200787961483,0.06261369,0.01282817,342.18677,-100.73170999999999,9.444484,JUM
124884310000000.0,0.2513330280780792,1.05476713180542,9.200815200805664,-0.6396390795707703,-0.005649934522807598,0.06414085,0.007330383,342.2383,-100.71995,9.413825,JUM
125211920000000.0,0.2563207447528839,1.0657416582107544,9.181986808776855,-0.638194739818573,-0.0055280085653066635,0.07544186,0.009162978,342.28302,-100.70945,9.385014,JUM
125522120000000.0,0.26131314039230347,1.0776793956756592,9.157999038696289,-0.6350359320640564,-0.004940948449075222,0.09010262,0.015271631,342.3257,-100.70081,9.356354,JUM
125815830000000.0,0.26630520820617676,1.0905020236968994,9.129234313964844,-0.6302851438522339,-0.004352564923465252,0.11148291,0.017715093,342.36258,-100.69168,9.32802,JUM
126093930000000.0,0.2712991237640381,1.104175090789795,9.095895767211914,-0.6240119934082031,-0.0032261747401207685,0.10995574,0.013744468000000001,342.40137000000004,-100.68509,9.299735,JUM
126357240000000.0,0.27629274129867554,1.1186418533325195,9.058272361755371,-0.6163108348846436,-0.0030218223109841347,0.109650314,0.020463986,342.4336,-100.67806,9.276164,JUM
126606540000000.0,0.28128698468208313,1.133865475654602,9.016570091247559,-0.6072512865066528,-0.003950817510485649,0.10231992599999999,0.03970624,342.46814,-100.6739,9.255198,JUM
126842580000000.0,0.2862823009490967,1.1498087644577026,8.970993995666504,-0.5969019532203674,-0.006148157641291618,0.07880162,0.040317107000000005,342.50674,-100.66389000000001,9.230723,JUM
127066060000000.0,0.291281133890152,1.166447639465332,8.921692848205566,-0.5853148698806763,-0.00801706500351429,0.047647487,0.043982297000000004,342.5498,-100.66038499999999,9.212367,JUM
127277650000000.0,0.29628026485443115,1.1837279796600342,8.868932723999023,-0.5725757479667664,-0.010372243821620941,-0.009468411,0.05497787,342.6068,-100.65308,9.195053,JUM
127477970000000.0,0.30127382278442383,1.2015819549560547,8.813032150268555,-0.5587847828865051,-0.013871211558580399,-0.07086037,0.06658431,342.67343,-100.64535500000001,9.178008,JUM
127667630000000.0,0.3062697649002075,1.2200231552124023,8.753981590270996,-0.5439467430114746,-0.017753424122929573,-0.13225232,0.08552113,342.75607,-100.64211999999999,9.164441,JUM
127847184000000.0,0.31126877665519714,1.2390249967575073,8.69193172454834,-0.5281120538711548,-0.02373962290585041,-0.18570304,0.1020145,342.8531,-100.63251,9.151631,JUM
128017190000000.0,0.31626632809638977,1.2585327625274658,8.627140045166016,-0.5113624334335327,-0.03253147751092911,-0.23335053,0.13469578,342.9655,-100.62714,9.146666,JUM
128178130000000.0,0.3212639391422272,1.2785277366638184,8.559720039367676,-0.493737131357193,-0.04388199746608734,-0.2910773,0.15790866,343.09457000000003,-100.61684,9.141119,JUM
128330510000000.0,0.3262591063976288,1.2989696264266968,8.4898681640625,-0.4752994179725647,-0.0597054585814476,-0.3472769,0.19914207,343.2362,-100.60443000000001,9.147663,JUM
128474770000000.0,0.3312576711177826,1.319867491722107,8.417583465576172,-0.4560543894767761,-0.07911273837089539,-0.40653083,0.24465153,343.39367999999996,-100.59199,9.159061,JUM
128611344000000.0,0.3362988233566284,1.3414227962493896,8.342096328735352,-0.4357835650444031,-0.10241749882698059,-0.4529566,0.28771752,343.5619,-100.57409,9.17873,JUM
128740650000000.0,0.34129568934440613,1.3631153106689453,8.265509605407715,-0.4151035249233246,-0.12936334311962128,-0.48930305,0.35094208,343.74292,-100.5612,9.21384,JUM
128863060000000.0,0.3462929129600525,1.3851803541183472,8.18691635131836,-0.39375513792037964,-0.16029340028762817,-0.5305365,0.40347649999999996,343.93616000000003,-100.54291500000001,9.254599,JUM
128978960000000.0,0.35128992795944214,1.407594919204712,8.106435775756836,-0.37177756428718567,-0.1947513222694397,-0.54702985,0.47250426,344.13104,-100.53416999999999,9.315161,JUM
129088680000000.0,0.3562830984592438,1.4303196668624878,8.024250030517578,-0.3492284417152405,-0.229863703250885,-0.5870415,0.51007247,344.3411,-100.52571,9.377141,JUM
129192560000000.0,0.3612816631793976,1.4533895254135132,7.940245628356934,-0.3260784149169922,-0.2698761224746704,-0.6435465,0.5882632,344.5591,-100.52507,9.466374,JUM
129290900000000.0,0.3662795424461365,1.4767532348632812,7.854650497436523,-0.3023977279663086,-0.3163016140460968,-0.6954701,0.677755,344.78394,-100.53075,9.565221000000001,JUM
129384000000000.0,0.37127700448036194,1.5003962516784668,7.767544746398926,-0.2782132625579834,-0.3696286082267761,-0.7828238000000001,0.75136423,345.03182999999996,-100.54024,9.675841,JUM
129472140000000.0,0.3762719929218292,1.5242918729782104,7.679056167602539,-0.2535656988620758,-0.4289848208427429,-0.870483,0.8020661,345.29086,-100.55632,9.8,JUM
129555590000000.0,0.3812705874443054,1.5484607219696045,7.589122772216797,-0.2284400761127472,-0.49183544516563416,-0.94806284,0.8414669,345.5676,-100.58230999999999,9.935607000000001,JUM
129634595000000.0,0.3862692713737488,1.5728693008422852,7.497896194458008,-0.20288383960723877,-0.5550482273101807,-1.0042624,0.8726209999999999,345.85787999999997,-100.61751600000001,10.077067,JUM
129709390000000.0,0.39126768708229065,1.5975027084350586,7.405454635620117,-0.17692241072654724,-0.6159344911575317,-1.0714576,0.9071349,346.16785,-100.66667,10.224012,JUM
129780200000000.0,0.39626872539520264,1.6223653554916382,7.31179666519165,-0.15055829286575317,-0.6735926866531372,-1.1572843000000002,0.95478237,346.49323,-100.73262,10.377166,JUM
129847230000000.0,0.40126392245292664,1.647397518157959,7.217177391052246,-0.12386815994977951,-0.7263718247413635,-1.2266175,1.0125091,346.82684,-100.81926999999999,10.536769,JUM
129910690000000.0,0.4062897264957428,1.6727972030639648,7.120822906494141,-0.09662946313619614,-0.7729204297065735,-1.2886202,1.0653489999999999,347.17645,-100.92472,10.701485,JUM
129970770000000.0,0.4112887680530548,1.6978602409362793,7.027803421020508,-0.0691414624452591,-0.8111289739608765,-1.3741413,1.1139128,347.54614,-101.051956,10.873761,JUM
130027640000000.0,0.41628333926200867,1.7209227085113525,6.955750942230225,-0.04078441858291626,-0.8413441181182861,-1.4987578000000001,1.1646146000000002,347.93823,-101.19759,11.0535965,JUM
130081490000000.0,0.42127725481987,1.742082118988037,6.903766632080078,-0.011572825722396374,-0.8673285841941833,-1.6053538,1.1685851999999999,348.20782,-101.5088,11.405666,JUM
130132470000000.0,0.4262710213661194,1.7614387273788452,6.8708109855651855,0.01845203898847103,-0.8879730701446533,-1.6093245,1.1343768,348.47385,-101.82749,11.752044999999999,JUM
130180730000000.0,0.4312647581100464,1.7790882587432861,6.8558759689331055,0.04924778640270233,-0.9026180505752563,-1.4718798,1.0549643,348.71927,-102.13248,12.077347,JUM
130226420000000.0,0.43625974655151367,1.7951184511184692,6.85807991027832,0.08078471571207047,-0.9089789390563965,-1.1523973,0.95233893,348.9027,-102.418755,12.377814,JUM
130269680000000.0,0.44125398993492126,1.8096203804016113,6.876391887664795,0.11300624161958694,-0.9084411859512329,-0.5821546,0.84513205,348.96367999999995,-102.67697,12.647632000000002,JUM
130310630000000.0,0.44625356793403625,1.8226603269577026,6.910322189331055,0.14592953026294708,-0.9016003012657166,-0.22571471,0.72418076,348.98724,-102.899475,12.877507000000001,JUM
130349405000000.0,0.4512493908405304,1.8343384265899658,6.958500385284424,0.17943882942199707,-0.8895734548568726,0.47922380000000003,0.6563747,348.73795,-103.10574,13.091178999999999,JUM
130386105000000.0,0.4562453329563141,1.8447178602218628,7.020392417907715,0.21353566646575928,-0.877096951007843,1.0690142,0.548557,348.41656,-103.26517,13.256521,JUM
130420850000000.0,0.46124157309532166,1.853867530822754,7.095277309417725,0.24819014966487885,-0.8667665719985962,1.4278975,0.48380527,347.95862,-103.41988,13.415907,JUM
130453750000000.0,0.4662381112575531,1.8618528842926025,7.182465553283691,0.28337302803993225,-0.8606002330780029,1.5741998,0.49693888,347.3955,-103.57029,13.569501,JUM
130484900000000.0,0.47123461961746216,1.8687366247177124,7.2812819480896,0.3190532922744751,-0.8574482798576355,1.5326608,0.5864305999999999,346.78955,-76.27011999999999,13.729807000000001,JUM
130514380000000.0,0.4762699604034424,1.8744789361953735,7.393481731414795,0.355550616979599,-0.8556525111198425,1.3237450000000002,0.79717916,346.19763,-76.066055,13.931815,JUM
130542290000000.0,0.48126521706581116,1.8793357610702515,7.513654708862305,0.39213672280311584,-0.8510388135910034,1.0485502,0.86009824,345.6446,-75.87405,14.1196375,JUM
130568720000000.0,0.4862602949142456,1.8832582235336304,7.6436848640441895,0.4291435182094574,-0.8429109454154968,0.7156286000000001,0.9578367,345.17502,-75.60956,14.378701999999999,JUM
130593730000000.0,0.4912544786930084,1.8862981796264648,7.783001899719238,0.46654194593429565,-0.8308702111244202,0.35033122,1.0491611,344.7998,-75.329155,14.654266,JUM
130617410000000.0,0.496254026889801,1.8884867429733276,7.931491374969482,0.5043666958808899,-0.8159226775169373,-0.10659598599999999,1.1096367,344.55194,-75.03198,14.948443,JUM
130639836000000.0,0.5012499094009399,1.8898913860321045,8.088130950927734,0.5425171852111816,-0.7988743782043457,-0.70371675,1.1713341,344.45392000000004,-74.712906,15.267428,JUM
130661070000000.0,0.5062459707260132,1.8905447721481323,8.252707481384277,0.5810083150863647,-0.7826206684112549,-1.4282030000000001,1.2623531000000001,344.52756,-74.37384,15.608813,JUM
130681170000000.0,0.511242151260376,1.8904870748519897,8.42479419708252,0.6198214292526245,-0.7696585059165955,-2.2171354,1.4059063,344.79400000000004,-74.01009,15.976962,JUM
130700190000000.0,0.5162421464920044,1.8897467851638794,8.604219436645508,0.6589726805686951,-0.7651839256286621,-2.9553661,1.6291776000000002,345.2544,-73.607315,16.384298,JUM
130718200000000.0,0.5212423205375671,1.8883689641952515,8.790380477905273,0.6984131336212158,-0.7703072428703308,-3.3490686000000003,1.858252,345.83777000000003,-73.175934,16.81955,JUM
130735260000000.0,0.526239812374115,1.8863948583602905,8.982745170593262,0.7381021976470947,-0.7787548303604126,-3.121216,1.9480493000000003,346.4432,-72.73883000000001,17.259258,JUM
130751400000000.0,0.5312407612800598,1.8838410377502441,9.18134880065918,0.7780798077583313,-0.7774416208267212,-2.2937990000000004,1.8640553,346.97186,-72.306816,17.69276,JUM
130766690000000.0,0.5362411141395569,1.8807481527328491,9.38562297821045,0.8182964324951172,-0.7533612847328186,-1.2043208,1.6655241000000003,347.3391,-108.09863999999999,18.098633,JUM
130781160000000.0,0.5412411689758301,1.87714421749115,9.595282554626465,0.8587417006492615,-0.7101850509643555,-0.34972036,1.416902,347.51752,-108.45100000000001,18.45045,JUM
130794860000000.0,0.5462684035301208,1.8729867935180664,9.811717987060547,0.8996479511260986,-0.6619036197662354,0.124311075,1.2299771000000002,347.47708,-108.75522600000001,18.75359,JUM
130807830000000.0,0.551267683506012,1.8684418201446533,10.031285285949707,0.9405120015144348,-0.6219574213027954,0.22571471,1.1658363,347.29053,-109.0197,19.016653,JUM
130820110000000.0,0.5562660694122314,1.8634648323059082,10.255383491516113,0.981564462184906,-0.589023232460022,0.28405234,1.1016953999999999,346.97537,-109.23048,19.22568,JUM
130831730000000.0,0.5612660646438599,1.8580727577209473,10.483918190002441,1.0228166580200195,-0.5681151747703552,0.29229903,1.0842858999999998,346.6469,-109.434494,19.429276,JUM
130842740000000.0,0.5662654042243958,1.8522931337356567,10.716522216796875,1.0642390251159668,-0.5535300970077515,0.29718593,1.0845913,346.3045,-109.62508400000002,19.619616,JUM
130853160000000.0,0.5712642669677734,1.8461461067199707,10.952988624572754,1.1058237552642822,-0.5415942072868347,0.2144137,1.0680978,345.98897999999997,-109.80461000000001,19.799597,JUM
130863020000000.0,0.5762639045715332,1.8396483659744263,11.193182945251465,1.1475727558135986,-0.5306850671768188,0.034513887,0.95233893,345.70416,-109.95485,19.950483,JUM
130872360000000.0,0.5812628269195557,1.832822322845459,11.436819076538086,1.1894644498825073,-0.5194457769393921,-0.1881465,0.6973026999999999,345.45984,-110.0597,20.055744,JUM
130881200000000.0,0.5862622857093811,1.825682282447815,11.683788299560547,1.2315021753311157,-0.5056802034378052,-0.40530908,0.40133846,345.2706,-110.11931000000001,20.115211,JUM
130889570000000.0,0.5912610292434692,1.8182481527328491,11.933837890625,1.2736672163009644,-0.48760226368904114,-0.5720753000000001,0.14752395,345.1354,-110.11873,20.113792,JUM
130897500000000.0,0.5962604284286499,1.8105322122573853,12.186885833740234,1.3159645795822144,-0.4669229984283447,-0.743423,-0.02076942,345.0691,-110.05998000000001,20.053364000000002,JUM
130905000000000.0,0.6012607216835022,1.8025487661361694,12.442788124084473,1.3583897352218628,-0.4485503137111664,-0.9468411,-0.08735373,345.06453999999997,-109.96085,19.95172,JUM
130912105000000.0,0.6062594056129456,1.7943183183670044,12.701242446899414,1.400913953781128,-0.43665850162506104,-1.1133018999999997,-0.09468412,345.1015,-109.83404499999999,19.821749,JUM
130918830000000.0,0.6112593412399292,1.7861695289611816,12.955621719360352,1.4427810907363892,-0.43060919642448425,-1.2229522,-0.16584991,345.18256,-109.67305,19.65682,JUM
130925200000000.0,0.6162589192390442,1.7795771360397339,13.175582885742188,1.4804660081863403,-0.426933228969574,-1.2797627,-0.31337386,345.29699999999997,-109.49033,19.469769,JUM
130931220000000.0,0.6212580800056458,1.7744574546813965,13.362972259521484,1.514192819595337,-0.4217928647994995,-1.2385293,-0.52534413,345.70108,-108.91745,18.89338,JUM
130936930000000.0,0.6262567043304443,1.7707319259643555,13.51953125,1.5441728830337524,-0.4132314920425415,-1.0839803,-0.7593055000000001,346.06827000000004,-108.32733999999999,18.30023,JUM
130942330000000.0,0.6312556266784668,1.7683292627334595,13.646842956542969,1.5706002712249756,-0.40073150396347046,-0.7761043000000001,-0.9828822,346.35900000000004,-107.71023999999998,17.680635000000002,JUM
130947450000000.0,0.6362553834915161,1.7671815156936646,13.746420860290527,1.5936601161956787,-0.38407957553863525,-0.31520647,-1.169807,346.54227000000003,-107.06754,17.035992,JUM
130952290000000.0,0.6412547826766968,1.7672165632247925,13.819839477539062,1.6135408878326416,-0.3654176890850067,-0.03970624,-1.3121386,346.67697000000004,-106.40401499999999,16.370542999999998,JUM
130956875000000.0,0.6462505459785461,1.7683579921722412,13.868742942810059,1.6304353475570679,-0.3471480906009674,0.56046885,-1.3448198,346.56995,-105.74881,15.716915,JUM
130961210000000.0,0.6512492895126343,1.7705734968185425,13.893940925598145,1.6444562673568726,-0.3304055631160736,1.1047498,-1.3552046,346.39346,-105.08883999999999,15.059013,JUM
130965320000000.0,0.6562450528144836,1.773781657218933,13.897147178649902,1.6557989120483398,-0.3165736794471741,1.4883732,-1.2849549999999998,346.0876,-104.47038,14.444884,JUM
130969214000000.0,0.6612446904182434,1.777957797050476,13.879008293151855,1.664556860923767,-0.3056112825870514,1.6997325,-1.2113458000000001,345.6762,-103.87688,13.856964999999999,JUM
130972900000000.0,0.6662420630455017,1.7830251455307007,13.841129302978516,1.6709115505218506,-0.2928728759288788,1.8304577000000002,-1.2049317,345.1827,-103.31025,13.29551,JUM
130976390000000.0,0.6712387204170227,1.7889423370361328,13.784449577331543,1.6749805212020874,-0.274774432182312,1.9694294999999997,-1.317331,344.63347999999996,-102.75410500000001,12.743866,JUM
130979690000000.0,0.6762393116950989,1.7956833839416504,13.709610939025879,1.6768519878387451,-0.24644169211387634,2.0402899,-1.5228871000000002,344.0755,-102.19634,12.188411,JUM
130982820000000.0,0.681236743927002,1.803175449371338,13.618121147155762,1.6766934394836426,-0.20741087198257446,2.0518963,-1.7467692,343.50446,-101.62382,11.616627000000001,JUM
130985780000000.0,0.6862375736236572,1.8114056587219238,13.510361671447754,1.6745657920837402,-0.15756845474243164,2.0567832,-1.9126191000000003,342.92517000000004,-101.03373,11.02483,JUM
130988580000000.0,0.6912303566932678,1.820286750793457,13.388089179992676,1.6706571578979492,-0.09861374646425247,2.0900755,-1.9825631000000001,342.34472999999997,-100.43365,10.419731,JUM
130991234000000.0,0.6962247490882874,1.8298232555389404,13.251350402832031,1.6649945974349976,-0.032025296241045,2.125811,-1.9617938000000001,341.77258,-99.84205,9.817147,JUM
130993740000000.0,0.7012187242507935,1.8399720191955566,13.101066589355469,1.6576855182647705,0.039739131927490234,2.1285597999999997,-1.9025398,341.2108,-99.27441400000001,9.229384,JUM
130996125000000.0,0.7062128186225891,1.8507025241851807,12.937922477722168,1.6488142013549805,0.11477596312761307,2.0909917,-1.8387043,340.6607,-98.75071,8.671753,JUM
130998370000000.0,0.711209237575531,1.8619931936264038,12.76242733001709,1.6384475231170654,0.19131560623645782,1.9776763,-1.7916678,340.142,-98.27894599999999,8.147361,JUM
131000500000000.0,0.7162041664123535,1.8737984895706177,12.575531959533691,1.626692533493042,0.2682850658893585,1.7754797999999998,-1.7690656999999999,339.66974,-97.86191600000001,7.653217999999999,JUM
131002526000000.0,0.721199095249176,1.8860969543457031,12.377731323242188,1.6136125326156616,0.34474992752075195,1.4801265,-1.7705929,339.26627,-97.49799,7.181998700000001,JUM
131004440000000.0,0.7261947989463806,1.8988656997680664,12.169544219970703,1.5992724895477295,0.41923952102661133,1.0778716999999998,-1.7617353,338.9603,-97.19187,6.733407000000001,JUM
131006250000000.0,0.7312100529670715,1.9121588468551636,11.950053215026855,1.5836018323898315,0.48868507146835327,0.61453044,-1.7660115,338.76352,-96.92876,6.29084,JUM
131007960000000.0,0.7362051010131836,1.9257851839065552,11.722893714904785,1.5669552087783813,0.5483907461166382,0.40591997,-1.7296648999999997,338.61487,-96.71738,5.87329,JUM
131009580000000.0,0.7411991357803345,1.9398034811019897,11.487053871154785,1.5492517948150635,0.5946598052978516,0.09254608,-1.6963727,338.63263,-96.5337,5.456226999999999,JUM
131011115000000.0,0.7461941838264465,1.954201102256775,11.242841720581055,1.5305334329605103,0.6320823431015015,-0.07727446,-1.6084082,338.6731,-96.40451999999999,5.07357,JUM
131012570000000.0,0.7511966228485107,1.9689849615097046,10.990198135375977,1.5108070373535156,0.654407262802124,-0.13713925,-1.5091426000000001,338.77463,-96.26253,4.7085349999999995,JUM
131013940000000.0,0.7561991810798645,1.9841055870056152,10.730111122131348,1.4901765584945679,0.6637088060379028,-0.13255776,-1.3860531999999999,338.90955,-96.15084,4.380723000000001,JUM
131015250000000.0,0.7612021565437317,1.9995460510253906,10.462956428527832,1.4686883687973022,0.6651573181152344,-0.11056661,-1.3081678999999997,339.0587,-96.03772,4.0739279999999995,JUM
131016480000000.0,0.7662051916122437,2.0152883529663086,10.189131736755371,1.4463900327682495,0.6633545160293579,-0.0018325957999999999,-1.2602149999999999,339.18457,-95.928154,3.8013031,JUM
131017650000000.0,0.7712067365646362,2.0313093662261963,9.90911865234375,1.4233365058898926,0.6584737300872803,0.19394971,-1.1749994,339.28278,-95.821434,3.5690364999999997,JUM
131018760000000.0,0.7762062549591064,2.0475919246673584,9.623295783996582,1.399572730064392,0.6504510641098022,0.29962940000000005,-1.0815369,339.3781,-95.71931500000001,3.3579263999999998,JUM
131019810000000.0,0.7812087535858154,2.0641427040100098,9.331584930419922,1.3751001358032227,0.63857501745224,0.2959642,-1.0231993000000001,339.45172,-95.61539,3.167249,JUM
131020800000000.0,0.7862114906311035,2.0809364318847656,9.034504890441895,1.3499757051467896,0.6237834095954895,0.26816985,-0.9935723,339.5055,-95.51604,3.000466,JUM
131021735000000.0,0.7912128567695618,2.0979535579681396,8.732466697692871,1.3242459297180176,0.6059874892234802,0.27152961,-0.9459248,339.55487,-95.41317,2.8591889999999998,JUM
131022625000000.0,0.7962154746055603,2.1151926517486572,8.425538063049316,1.2979246377944946,0.5858193635940552,0.31429017,-0.8365799999999999,339.60443,-95.31428000000001,2.7470617,JUM
131023470000000.0,0.8012462854385376,2.132755994796753,8.111857414245605,1.2708449363708496,0.5636821985244751,0.35002577,-0.68752885,339.65826,-95.21576,2.6622422,JUM
131024270000000.0,0.8062456250190735,2.150381088256836,7.796346664428711,1.2434738874435425,0.5395018458366394,0.37079520000000005,-0.5714644,339.70676000000003,-95.115326,2.6015549,JUM
131025020000000.0,0.8112457990646362,2.1673433780670166,7.4808430671691895,1.2158163785934448,0.5160567164421082,0.40072759999999996,-0.50793445,339.74506,-95.029945,2.5701294,JUM
131025740000000.0,0.8162462115287781,2.1802825927734375,7.181912422180176,1.1887452602386475,0.493405282497406,0.48716503,-0.46700647,339.7634,-94.94663,2.5669572,JUM
131026420000000.0,0.8212462663650513,2.189419984817505,6.898672103881836,1.162231206893921,0.472074955701828,0.593761,-0.45662177,339.69116,-95.0118,2.6778178,JUM
131027060000000.0,0.8262457847595215,2.194960832595825,6.630286693572998,1.1362453699111938,0.4518650770187378,0.7076874,-0.46486846,339.58945,-95.08206,2.803693,JUM
131027675000000.0,0.8312463164329529,2.1970791816711426,6.375962734222412,1.1107544898986816,0.4325532019138336,0.8035932,-0.49632803,339.45926000000003,-95.15463000000001,2.9343126,JUM
131028250000000.0,0.8362470269203186,2.1959662437438965,6.134951591491699,1.0857347249984741,0.41275671124458313,0.8384125,-0.52106804,339.31143,-95.22578399999999,3.0720754,JUM
131028800000000.0,0.8412461280822754,2.19181489944458,5.906545162200928,1.0611668825149536,0.3916712999343872,0.88361657,-0.54305923,339.13055,-95.29281999999999,3.210325,JUM
131029320000000.0,0.8462468981742859,2.1847500801086426,5.690069198608398,1.0370163917541504,0.36993536353111267,0.88606006,-0.5589417,338.94965,-95.35799399999999,3.3494029999999997,JUM
131029805000000.0,0.8512469530105591,2.1749541759490967,5.484889507293701,1.0132685899734497,0.34533727169036865,0.86345804,-0.5543602,338.76122999999995,-95.4098,3.4946165000000002,JUM
131030270000000.0,0.8562442660331726,2.1625959873199463,5.290406227111816,0.989908754825592,0.3187946081161499,0.8408559999999999,-0.5222898,338.57062,-95.46669,3.649203,JUM
131030700000000.0,0.8612447381019592,2.1477456092834473,5.106044292449951,0.9668973088264465,0.2909318804740906,0.7987063,-0.45356745,338.39087,-95.52575,3.8203592000000004,JUM
131031120000000.0,0.8662453889846802,2.130568265914917,4.931266784667969,0.9442248344421387,0.2618519961833954,0.75502944,-0.34819320000000004,338.21707000000004,-95.5959,4.015932,JUM
131031520000000.0,0.8712407946586609,2.111250877380371,4.765567302703857,0.9218912124633789,0.2318151593208313,0.70005155,-0.19608775,338.0578,-95.69229,4.2481919999999995,JUM
131031890000000.0,0.8762416243553162,2.0897867679595947,4.608453273773193,0.8998439311981201,0.20217454433441162,0.63438356,0.020158553,337.91348,-95.83431,4.531978,JUM
131032250000000.0,0.8812419176101685,2.066356897354126,4.459472179412842,0.8780868053436279,0.17458559572696686,0.56016344,0.30848694,337.78652999999997,-96.040306,4.881961,JUM
131032580000000.0,0.8862425088882446,2.041055917739868,4.31818962097168,0.8566014170646667,0.15076205134391785,0.45631635,0.5329799,337.6833,-96.30131,5.2760406,JUM
131032900000000.0,0.8912400603294373,2.0140223503112793,4.184198379516602,0.8353843688964844,0.13112176954746246,0.34574974,0.6609562,337.5987,-96.62828,5.7244673,JUM
131033200000000.0,0.8962456583976746,1.9852213859558105,4.057100296020508,0.814385175704956,0.11594641953706741,0.24556783,0.7021896,337.53406,-97.01142,6.210415,JUM
131033490000000.0,0.9012499451637268,1.9548505544662476,3.936535596847534,0.7936215996742249,0.10462367534637451,0.1441642,0.6973026999999999,337.49292,-97.4329,6.7167580000000005,JUM
131033760000000.0,0.9062495231628418,1.9230353832244873,3.822159767150879,0.773093044757843,0.09613434225320816,0.040927973,0.67011917,337.47125,-97.87324,7.2251577000000005,JUM
131034020000000.0,0.9112508893013,1.8897792100906372,3.713637113571167,0.7527660131454468,0.09018093347549438,-0.05497787,0.6426301999999999,337.4664,-98.323364,7.728476,JUM
131034260000000.0,0.9162510633468628,1.855191946029663,3.6106581687927246,0.7326391339302063,0.08581443130970001,-0.15363261,0.6261369000000001,337.48172,-98.77472,8.223096,JUM
131034490000000.0,0.9212508201599121,1.819337010383606,3.5129268169403076,0.7126996517181396,0.08330836892127991,-0.2501493,0.6026186,337.51358,-99.22233,8.703711,JUM
131034704000000.0,0.9262477159500122,1.7823106050491333,3.420166015625,0.6929457783699036,0.08368673175573349,-0.3051272,0.59315014,337.55197000000004,-99.67298000000001,9.179733,JUM
131034910000000.0,0.9312477707862854,1.744106650352478,3.3321051597595215,0.673348069190979,0.08897696435451508,-0.32711834,0.59986967,337.59872,-100.1263,9.649405,JUM
131035110000000.0,0.9362484812736511,1.7048152685165405,3.2484960556030273,0.653905987739563,0.09881964325904846,-0.32406402,0.59864795,337.64417000000003,-100.5764,10.110145,JUM
131035290000000.0,0.9412585496902466,1.6643916368484497,3.169093608856201,0.6345820426940918,0.11466499418020248,-0.27152961,0.6065891999999999,337.6724,-101.03755,10.572172,JUM
131035470000000.0,0.9462608695030212,1.623091220855713,3.093688726425171,0.6154253482818604,0.1375604122877121,-0.26328292,0.61117065,337.70346,-101.50256999999999,11.028504,JUM
131035635000000.0,0.9512603878974915,1.5809069871902466,3.022063970565796,0.5964118242263794,0.16356544196605682,-0.24923302,0.5833763000000001,337.70853,-101.96056999999999,11.475091,JUM
131035795000000.0,0.9562599062919617,1.5378550291061401,2.9540157318115234,0.5775249600410461,0.19516758620738983,-0.30421090000000006,0.5369505,337.72287,-102.42545,11.9129095,JUM
131035946000000.0,0.9612594842910767,1.4939814805984497,2.8893532752990723,0.5587579607963562,0.22567154467105865,-0.40469822,0.40653083,337.73657000000003,-102.85133,12.3145895,JUM
131036090000000.0,0.9662609100341797,1.4493083953857422,2.827894449234009,0.540098249912262,0.24608564376831055,-0.4529566,0.2843578,337.74268,-103.25824,12.701806,JUM
131036220000000.0,0.9712594747543335,1.4039331674575806,2.76947283744812,0.5215557217597961,0.25419673323631287,-0.45540005,0.21594086,337.75607,-103.63580999999999,13.062945,JUM
131036350000000.0,0.9762580394744873,1.357860803604126,2.7139241695404053,0.5031149387359619,0.2524835169315338,-0.43127087,0.20830505,337.76773,-103.98221,13.403379999999999,JUM
131036474000000.0,0.9812576770782471,1.311116099357605,2.6610941886901855,0.4847669005393982,0.24571795761585236,-0.40683624,0.23671028,337.77283,-104.30581,13.731985,JUM
131036590000000.0,0.9862571954727173,1.2637485265731812,2.6108391284942627,0.4665105938911438,0.2356993854045868,-0.3839288,0.27550024,337.76492,-104.61588,14.059306,JUM
131036700000000.0,0.991256594657898,1.2157912254333496,2.5630218982696533,0.44834110140800476,0.22341503202915192,-0.39553526,0.31306845,337.75427,-104.92506999999999,14.39151,JUM
131036800000000.0,0.9962579607963562,1.1672513484954834,2.517510414123535,0.43024688959121704,0.2105645388364792,-0.42058071,0.33628133,337.73508,-105.23626999999999,14.728007999999999,JUM
131036900000000.0,1.0012568235397339,1.1182098388671875,2.4741859436035156,0.41223812103271484,0.198171004652977,-0.47983465,0.34422258,337.72362999999996,-105.54926,15.066849,JUM
131036994000000.0,1.006255865097046,1.0686653852462769,2.432929754257202,0.39430227875709534,0.1862751841545105,-0.5403103,0.34941490000000003,337.71405,-105.86441,15.407720000000001,JUM
131037090000000.0,1.0112578868865967,1.0186104774475098,2.3936288356781006,0.37642571330070496,0.1740204095840454,-0.6072,0.34972036,337.71768,-106.17686,15.744717000000001,JUM
131037170000000.0,1.0162591934204102,0.9703861474990845,2.378249168395996,0.35801997780799866,0.16175134479999542,-0.65026605,0.36651915,337.7263,-106.49308,16.083559,JUM
131037254000000.0,1.021257758140564,0.9241089224815369,2.387373685836792,0.33906954526901245,0.14800380170345306,-0.62949663,0.40408736,337.72974,-106.8097,16.424554999999998,JUM
131037330000000.0,1.0262542963027954,0.8796734809875488,2.4197540283203125,0.3195997476577759,0.13007314503192902,-0.5516113,0.45448375,337.93018,-106.88157,16.496907999999998,JUM
131037405000000.0,1.0312541723251343,0.8369695544242859,2.4746100902557373,0.2996087074279785,0.10668478906154633,-0.39431350000000004,0.5213734999999999,338.0974,-106.96036000000001,16.582174,JUM
131037470000000.0,1.0362554788589478,0.7959086894989014,2.550600528717041,0.2791334092617035,0.07563915103673935,-0.29046643,0.5558874,338.25347999999997,-107.03245,16.668953,JUM
131037540000000.0,1.0412523746490479,0.7564171552658081,2.6460726261138916,0.25823360681533813,0.04032306745648384,-0.08246681,0.62888575,338.32968,-107.12793,16.786901,JUM
131037600000000.0,1.0462524890899658,0.7183936834335327,2.760658025741577,0.23688873648643494,-0.010902069509029388,0.09132435,0.72173727,338.38232,-107.2163,16.918266,JUM
131037660000000.0,1.051253080368042,0.6817665100097656,2.893094062805176,0.2151382565498352,-0.08400863409042358,0.15424347,0.8481864,338.4045,-107.32458999999999,17.078894000000002,JUM
131037716000000.0,1.0562937259674072,0.6463671326637268,3.046003818511963,0.19277355074882507,-0.1773584485054016,0.09437868,0.95814216,338.40918,-107.44518000000001,17.259743,JUM
131037770000000.0,1.0612915754318237,0.6123211979866028,3.2110328674316406,0.17029519379138947,-0.27610206604003906,0.03390302,1.0369438,338.39218,-107.59364,17.466053,JUM
131037820000000.0,1.0662890672683716,0.5794613361358643,3.391157388687134,0.1474759429693222,-0.3556987941265106,0.018325957,1.0793989,338.375,-107.77213,17.689705,JUM
131037870000000.0,1.0712864398956299,0.5477243065834045,3.5855729579925537,0.12433397024869919,-0.39771756529808044,-0.070554934,1.1169671,338.3926,-107.98227,17.92925,JUM
131037920000000.0,1.0762816667556763,0.5170546770095825,3.7933504581451416,0.10089725255966187,-0.40308672189712524,-0.15149458,1.1374311000000001,338.40726,-108.20773999999999,18.171860000000002,JUM
131037960000000.0,1.081279993057251,0.4873836040496826,4.014232158660889,0.07715222239494324,-0.38411182165145874,-0.0067195175,1.149343,338.37637,-108.44661,18.418357999999998,JUM
131038000000000.0,1.0862785577774048,0.4586641788482666,4.247280597686768,0.05313071981072426,-0.35407036542892456,0.33383787,1.1933253000000001,338.3076,-108.70174399999999,18.674643,JUM
131038040000000.0,1.0912741422653198,0.4308532178401947,4.491560459136963,0.02886597253382206,-0.3295852839946747,0.69027776,1.3048081,338.18832000000003,-108.97652,18.949324,JUM
131038085000000.0,1.0962728261947632,0.4038884937763214,4.746999263763428,0.004337040241807699,-0.3269633650779724,0.8775079,1.4547756,338.01666,-109.26939399999999,19.244507000000002,JUM
131038120000000.0,1.1012712717056274,0.3777320683002472,5.012729644775391,-0.020424431189894676,-0.35348743200302124,0.8961393,1.6102408000000001,337.78815,-109.58951,19.570854,JUM
131038150000000.0,1.1062698364257812,0.35234034061431885,5.288222312927246,-0.04540728032588959,-0.4098992943763733,0.5006041,1.7345519,337.6277,-109.93661499999999,19.926605,JUM
131038186000000.0,1.1112695932388306,0.3276699185371399,5.573057651519775,-0.07060617953538895,-0.4921320080757141,-0.8356636999999999,1.7690656999999999,337.74585,-110.29772,20.294392000000002,JUM
131038220000000.0,1.1162689924240112,0.30368590354919434,5.866603374481201,-0.09600099176168442,-0.5725866556167603,-2.9648345000000003,1.5430456,338.2228,-110.61793,20.616844,JUM
131038250000000.0,1.1212669610977173,0.2803543508052826,6.168295383453369,-0.12157480418682098,-0.5933781266212463,-4.163352,1.1102476000000001,338.81552,-110.88176999999999,20.880058,JUM
131038280000000.0,1.126296043395996,0.25756359100341797,6.4806227684021,-0.14750637114048004,-0.5281914472579956,-4.298659,0.8518515999999999,339.71997000000005,-111.11653000000001,21.108342999999998,JUM
131038300000000.0,1.131293773651123,0.23542866110801697,6.797549724578857,-0.1734243780374527,-0.3978046178817749,-4.245208,0.9147707,340.91907000000003,-111.31058,21.275488,JUM
131038330000000.0,1.1362913846969604,0.21384476125240326,7.121486663818359,-0.19950059056282043,-0.2485668659210205,-4.6276097,1.0296134,342.27994,-111.448425,21.343075,JUM
131038350000000.0,1.1412862539291382,0.19278855621814728,7.45182991027832,-0.22571177780628204,-0.11634889990091324,-5.0955324,1.1459832,343.6383,-111.616905,21.381892999999998,JUM
131038380000000.0,1.146281361579895,0.17222552001476288,7.788482666015625,-0.2520664632320404,-0.045885372906923294,-3.7033706,0.8011498,344.5194,-111.66551000000001,21.305107,JUM
131038400000000.0,1.1512792110443115,0.15212306380271912,8.13134765625,-0.2785724103450775,-0.03370615839958191,-0.9773844,0.41325033,345.1153,-111.71478,21.238974,JUM
131038430000000.0,1.156274676322937,0.1324685961008072,8.479639053344727,-0.3051922917366028,-0.044345758855342865,1.4905111999999998,0.13255776,345.34517999999997,-111.66708999999999,21.1181,JUM
131038450000000.0,1.1612728834152222,0.11322642117738724,8.833518028259277,-0.33194899559020996,-0.04960025101900101,3.032335,-0.14935656,345.01507999999995,-111.48057,20.930574,JUM
131038470000000.0,1.1662713289260864,0.09438010305166245,9.192476272583008,-0.35882166028022766,-0.04601282998919487,3.6984837,-0.54305923,344.2019,-111.17274499999999,20.677498,JUM
131038490000000.0,1.1712673902511597,0.07591483741998672,9.55600357055664,-0.3857887089252472,-0.04155856370925903,3.6028830000000003,-0.9691377,343.16534,-110.791306,20.364784,JUM
131038504000000.0,1.1762633323669434,0.05780515447258949,9.924052238464355,-0.4128577709197998,-0.04502458870410919,3.0075950000000002,-1.2812898000000001,342.09872,-110.35335500000001,19.991498999999997,JUM
131038520000000.0,1.1812622547149658,0.040024805814027786,10.296659469604492,-0.4400412440299988,-0.056493405252695084,2.3765712000000003,-1.3720033,341.0958,-109.88228600000001,19.574986,JUM
131038540000000.0,1.1862587928771973,0.02256857231259346,10.673112869262695,-0.4673028290271759,-0.06640692800283432,1.9434677,-1.3197743999999998,340.2363,-109.38743600000001,19.120522,JUM
131038555000000.0,1.19125497341156,0.005414653103798628,11.053380012512207,-0.4946494698524475,-0.06815806031227112,1.611768,-1.2825116,339.55807000000004,-108.88135,18.643376999999997,JUM
131038570000000.0,1.196278691291809,-0.011518880724906921,11.439760208129883,-0.5222378373146057,-0.061107486486434937,1.2489139999999999,-1.3350459,339.03857,-108.384056,18.163870000000003,JUM
131038590000000.0,1.2012765407562256,-0.02812107466161251,11.827261924743652,-0.5497545599937439,-0.048230987042188644,0.8720101,-1.4779885,338.63824,-107.89187,17.67895,JUM
131038605000000.0,1.2062736749649048,-0.044465839862823486,12.217965126037598,-0.5773411989212036,-0.031287726014852524,0.47983465,-1.6578883000000002,338.36322,-107.39502,17.177189000000002,JUM
131038620000000.0,1.2112720012664795,-0.060586657375097275,12.603850364685059,-0.6050761342048645,-0.008671366609632969,0.15454891,-1.8093828999999997,338.1902,-106.88686000000001,16.651752,JUM
131038640000000.0,1.2162705659866333,-0.07657486945390701,12.943410873413086,-0.6333213448524475,0.023303700610995293,-0.038179077,-1.9226984,338.1015,-106.361305,16.094847,JUM
131038655000000.0,1.221269130706787,-0.09243682026863098,13.239141464233398,-0.6620476841926575,0.06605945527553558,-0.14080444,-2.0705278000000003,338.66916000000003,-105.16018999999999,14.789833999999999,JUM
131038660000000.0,1.2262651920318604,-0.1081726998090744,13.493609428405762,-0.6912115812301636,0.12186989933252335,-0.2724459,-2.3359487,339.2142,-104.04415999999999,13.531866,JUM
131038670000000.0,1.2312638759613037,-0.12380244582891464,13.708545684814453,-0.7208259105682373,0.18912778794765472,-0.34269542,-2.490803,339.70300000000003,-103.05552,12.358500999999999,JUM
131038680000000.0,1.2362627983093262,-0.13932590186595917,13.886262893676758,-0.7508507966995239,0.2585146725177765,-0.45448375,-2.733011,340.17908,-102.09879000000001,11.162967,JUM
131038690000000.0,1.241257667541504,-0.15473681688308716,14.029166221618652,-0.7812317609786987,0.33263540267944336,-0.55924714,-2.8457158,340.6255,-101.28836,10.028934,JUM
131038700000000.0,1.2462610006332397,-0.17007504403591156,14.137911796569824,-0.8120424151420593,0.40446633100509644,-0.65087694,-2.8130345,341.05957,-100.57240999999999,8.927296,JUM
131038706000000.0,1.2512599229812622,-0.18531031906604767,14.215530395507812,-0.8431664109230042,0.46563267707824707,-0.5552765000000001,-2.6245825000000003,341.43903,-99.984955,7.8952765,JUM
131038710000000.0,1.2562589645385742,-0.20045988261699677,14.263262748718262,-0.8746193051338196,0.5084502100944519,-0.13286320000000001,-2.3200662,341.72983,-99.51899999999999,6.961058,JUM
131038720000000.0,1.2612593173980713,-0.21553164720535278,14.282584190368652,-0.9063926935195923,0.5326434373855591,0.47952923,-1.9446895,341.92812999999995,-99.17104,6.1514225,JUM
131038730000000.0,1.266263484954834,-0.23053689301013947,14.274755477905273,-0.9384890198707581,0.541158139705658,1.0213667,-1.5720617000000001,342.02435,-98.90121500000001,5.4740863,JUM
131038740000000.0,1.2712621688842773,-0.24545416235923767,14.242110252380371,-0.9708226323127747,0.5403642058372498,1.3368785,-1.2571607,342.01633,-98.69315999999999,4.9283543,JUM
131038750000000.0,1.2762584686279297,-0.260295569896698,14.185707092285156,-1.0034011602401733,0.5345991253852844,1.4550809999999998,-1.0473284999999999,341.9192,-98.51733,4.4927874,JUM
131038760000000.0,1.2812570333480835,-0.27507779002189636,14.106365203857422,-1.0362461805343628,0.527708888053894,1.4657712,-0.91446525,341.77353,-98.37761,4.1494403,JUM
131038764000000.0,1.2862563133239746,-0.2898000478744507,14.00544548034668,-1.0693327188491821,0.5218369364738464,1.3613132,-0.79901177,341.63702,-98.268745,3.874633,JUM
131038770000000.0,1.2912529706954956,-0.3044566810131073,13.88441276550293,-1.102623701095581,0.5166523456573486,1.071763,-0.68661255,341.55817,-98.18188,3.6418095,JUM
131038780000000.0,1.2962530851364136,-0.3190671503543854,13.743772506713867,-1.136151909828186,0.51076740026474,0.6966918000000001,-0.58032197,341.53995,-98.114914,3.4425760000000003,JUM
131038790000000.0,1.3012523651123047,-0.33362290263175964,13.584959983825684,-1.1698745489120483,0.5022661685943604,0.5128214,-0.44684792,341.55576,-98.0639,3.2869803999999996,JUM
131038800000000.0,1.3062492609024048,-0.3481224775314331,13.409098625183105,-1.203769326210022,0.49130430817604065,0.42485678,-0.32406402,341.6533,-98.02422,3.154242,JUM
131038810000000.0,1.3112494945526123,-0.36258411407470703,13.216556549072266,-1.2378687858581543,0.47576671838760376,0.3115413,-0.21288654,341.8124,-97.97623399999999,3.052711,JUM
131038815000000.0,1.3162493705749512,-0.3770001232624054,13.008567810058594,-1.2721353769302368,0.45369982719421387,0.12767084,-0.11178834,342.0176,-97.91771999999999,2.9803495,JUM
131038820000000.0,1.3212484121322632,-0.391371488571167,12.786006927490234,-1.306556224822998,0.42488187551498413,-0.12095132,-0.026572637000000003,342.27295,-97.84331999999999,2.9305031,JUM
131038830000000.0,1.3262455463409424,-0.40569794178009033,12.549742698669434,-1.341115951538086,0.38853320479393005,-0.24923302,0.0720821,342.5453,-97.74198,2.912003,JUM
131038840000000.0,1.3312453031539917,-0.41999351978302,12.300093650817871,-1.3758388757705688,0.344534307718277,-0.50732356,0.14294247,342.9206,-97.60889399999999,2.896725,JUM
131038850000000.0,1.3362462520599365,-0.4342566728591919,12.037886619567871,-1.410707712173462,0.2981272339820862,-0.77518797,0.2959642,343.33386,-97.48048399999999,2.9280784,JUM
131038860000000.0,1.3412456512451172,-0.4484817087650299,11.764053344726562,-1.4456943273544312,0.24167604744434357,-1.0980303,0.48747048,343.8306,-97.287025,2.9797165,JUM
131038865000000.0,1.3462419509887695,-0.46266618371009827,11.47937297821045,-1.4807801246643066,0.17617179453372955,-1.4327843999999998,0.7287621999999999,344.40244,-97.10714,3.0785644,JUM
131038870000000.0,1.3512415885925293,-0.4768293797969818,11.183816909790039,-1.5160067081451416,0.10247130692005157,-1.7159204,1.0048733,345.04498,-96.91283,3.2311673,JUM
131038880000000.0,1.3562389612197876,-0.4909576177597046,10.878488540649414,-1.551326036453247,0.02700144425034523,-1.8530598000000003,1.1985176000000002,345.7297,-96.73295999999999,3.4197245,JUM
131038890000000.0,1.3612399101257324,-0.5050684213638306,10.563353538513184,-1.5867761373519897,-0.04127233847975731,-1.7922786,1.2611313,346.4241,-96.58783000000001,3.6417634,JUM
131038900000000.0,1.3662397861480713,-0.51915043592453,10.239372253417969,-1.6223162412643433,-0.09962456673383713,-1.5247196,1.2183707000000001,347.08102,-96.47426999999999,3.8840256,JUM
131038910000000.0,1.371239185333252,-0.5332067608833313,9.90695858001709,-1.6579458713531494,-0.1456703394651413,-1.0778716999999998,1.102001,347.64972,-96.41181,4.1214576,JUM
131038915000000.0,1.376236915588379,-0.5472352504730225,9.566685676574707,-1.693650722503662,-0.17877958714962006,-0.54336464,0.9627235999999999,348.09805,-96.389534,4.3410416,JUM
131038920000000.0,1.3812800645828247,-0.5613656640052795,9.21442699432373,-1.7297778129577637,-0.20105786621570587,-0.07849618,0.8717046999999999,348.4232,-96.4,4.5431824,JUM
131038930000000.0,1.3862783908843994,-0.5753535032272339,8.859294891357422,-1.7656503915786743,-0.21409158408641815,0.28771752,0.86070913,348.61246,-96.44485,4.732849,JUM
131038940000000.0,1.3912739753723145,-0.5893139839172363,8.497628211975098,-1.8015764951705933,-0.219545379281044,0.6001751000000001,0.893085,348.6765,-96.51524,4.9135865999999995,JUM
131038950000000.0,1.3962739706039429,-0.6032681465148926,8.129079818725586,-1.8376070261001587,-0.22054153680801392,0.8524625,0.9263771000000001,348.6486,-96.60629,5.0941343,JUM
131038960000000.0,1.4012725353240967,-0.6172006726264954,7.75457239151001,-1.8736934661865234,-0.21902671456336975,1.0161743,0.91324353,348.55400000000003,-96.71391,5.271758,JUM
131038966000000.0,1.4062708616256714,-0.6311160922050476,7.374305248260498,-1.9098418951034546,-0.2160462737083435,1.1007791999999998,0.8481864,348.4085,-96.82876,5.444228599999999,JUM
131038970000000.0,1.411266803741455,-0.6463097929954529,6.989884376525879,-1.944279670715332,-0.2111411690711975,1.1258247,0.73975784,348.23217999999997,-96.94019,5.5996914,JUM
131038980000000.0,1.4162654876708984,-0.6767266392707825,6.612761974334717,-1.9582632780075073,-0.20320944488048553,1.1099421999999999,0.59712076,348.0422,-97.03675,5.72535,JUM
131038990000000.0,1.421260118484497,-0.7203558683395386,6.243041038513184,-1.9540231227874756,-0.1914520412683487,1.0876455,0.45601090000000005,347.80518,-97.18506,5.8584495,JUM
131039000000000.0,1.4262593984603882,-0.7684716582298279,5.881670951843262,-1.9391608238220215,-0.17620305716991425,1.0198395,0.30268374,347.58398,-97.308266,5.9445267,JUM
131039010000000.0,1.4312660694122314,-0.8206380009651184,5.528476715087891,-1.914422631263733,-0.15869031846523285,0.95081174,0.15851954,347.37405,-97.37404000000001,5.962884,JUM
131039020000000.0,1.436266303062439,-0.8730247616767883,5.188354015350342,-1.8845016956329346,-0.13263745605945587,0.8689558000000001,0.09162979,347.18658,-97.45695,5.955628400000001,JUM
131039024000000.0,1.4412713050842285,-0.9255284667015076,4.860628128051758,-1.8495022058486938,-0.10439200699329376,0.7519751,-0.034208454,347.0257,-97.4678,5.8745046,JUM
131039030000000.0,1.4462664127349854,-0.9754494428634644,4.547998905181885,-1.8112000226974487,-0.07130367308855057,0.6200281999999999,-0.14782938,346.89203,-97.51124,5.7730303,JUM
131039040000000.0,1.451305866241455,-1.02297043800354,4.249166011810303,-1.7686890363693237,-0.03517688810825348,0.355829,-0.31123585,346.82535,-97.51904,5.6077265999999995,JUM
131039040000000.0,1.456302285194397,-1.0670645236968994,3.969510316848755,-1.7234597206115723,0.0034683162812143564,0.25686884,-0.3659083,346.7494,-97.556625,5.438761,JUM
131039050000000.0,1.461294412612915,-1.1076393127441406,3.7091755867004395,-1.6747941970825195,0.040965545922517776,0.040011674,-0.46150870000000005,346.77786000000003,-97.569885,5.1984005,JUM
131039060000000.0,1.4662883281707764,-1.1448570489883423,3.467228412628174,-1.6227483749389648,0.07696904242038727,-0.1994475,-0.5161811,346.8376,-97.60376,4.9481363,JUM
131039060000000.0,1.4712785482406616,-1.1789206266403198,3.242598056793213,-1.567622423171997,0.1087261512875557,-0.44837508,-0.5503895999999999,346.95984,-97.632935,4.6659656,JUM
131039070000000.0,1.4762736558914185,-1.2070696353912354,3.039276123046875,-1.513164758682251,0.13462384045124054,-0.6927211999999999,-0.5491679,347.14832,-97.671425,4.366892,JUM
131039070000000.0,1.4812692403793335,-1.2292906045913696,2.8566293716430664,-1.4598873853683472,0.15490925312042236,-0.8927795000000001,-0.5018258,347.39513999999997,-97.71983,4.0601325,JUM
131039075000000.0,1.4862638711929321,-1.2443301677703857,2.6919448375701904,-1.4116275310516357,0.17023959755897522,-1.01312,-0.43401974,347.6829,-97.74945,3.7571559999999997,JUM
131039080000000.0,1.491258144378662,-1.2522000074386597,2.543933391571045,-1.368996262550354,0.18187184631824493,-1.0830641,-0.36346483,348.01474,-97.78495,3.4589347999999998,JUM
131039080000000.0,1.4962536096572876,-1.2515290975570679,2.4061367511749268,-1.3336174488067627,0.19211915135383606,-1.0653489999999999,-0.30573806,348.35257,-97.82943,3.184294,JUM
131039090000000.0,1.5012459754943848,-1.242512583732605,2.2766997814178467,-1.305457592010498,0.20291092991828918,-0.95172805,-0.26939157,348.68442000000005,-97.8851,2.9207012999999997,JUM
131039090000000.0,1.5062416791915894,-1.2144187688827515,2.168761968612671,-1.2683669328689575,0.21641559898853302,-0.74464476,-0.26389378,348.9788,-97.970665,2.6844842,JUM
131039100000000.0,1.511238694190979,-1.1660109758377075,2.0840251445770264,-1.219439148902893,0.2321304976940155,-0.462425,-0.27763826,349.21976,-98.06997,2.4570513,JUM
131039110000000.0,1.5162353515625,-1.0964285135269165,2.0242724418640137,-1.136581540107727,0.25163066387176514,-0.11362094,-0.28221974,349.3729,-98.22515,2.2690444,JUM
131039110000000.0,1.521241545677185,-1.0050954818725586,1.990183711051941,-1.0110137462615967,0.2724355459213257,0.28191432,-0.2724459,349.43246,-98.39045,2.0921197,JUM
131039120000000.0,1.5262371301651,-0.9021716713905334,1.9693845510482788,-0.8575541377067566,0.28894132375717163,0.46578476,-0.24465153,349.47662,-98.4926,2.0306830000000002,JUM
131039120000000.0,1.5312340259552002,-0.7894997000694275,1.9591238498687744,-0.6786630749702454,0.3011817932128906,0.7623598,-0.16707164,349.3798,-98.60767,2.0072947,JUM
131039125000000.0,1.5362305641174316,-0.6745448112487793,1.9504458904266357,-0.4871055781841278,0.30271053314208984,0.9166033000000001,-0.076358154,349.2304,-98.55405,2.0895166,JUM
131039130000000.0,1.5412273406982422,-0.5611391663551331,1.9387303590774536,-0.2896023988723755,0.29302409291267395,0.9468411,0.0061086523,349.03442,-98.4845,2.200186,JUM
131039130000000.0,1.54622483253479,-0.45321643352508545,1.9232895374298096,-0.10323664546012878,0.27280154824256897,0.88453287,0.062308256,348.78384,-98.28598000000001,2.3937497000000003,JUM
131039140000000.0,1.5512220859527588,-0.3518136739730835,1.9040606021881104,0.06704927980899811,0.24310898780822754,0.77182823,0.11026118,348.5372,-98.0583,2.6088237999999997,JUM
131039140000000.0,1.5562189817428589,-0.25808918476104736,1.884187936782837,0.20740476250648499,0.20640438795089722,0.655153,0.15454891,348.30573,-97.77736,2.8628886000000002,JUM
131039150000000.0,1.5612176656723022,-0.1721261739730835,1.8646197319030762,0.3146260678768158,0.16384275257587433,0.53969944,0.18845193,348.09772000000004,-97.487976,3.1233988,JUM
131039160000000.0,1.56621515750885,-0.09373253583908081,1.8486779928207397,0.39275333285331726,0.11808015406131744,0.4447099,0.2415972,347.91092000000003,-97.22485999999999,3.3926857000000004,JUM
131039160000000.0,1.571212649345398,-0.022611480206251144,1.8374543190002441,0.4440220296382904,0.07132184505462646,0.36285394,0.31948254,347.74487,-96.98489000000001,3.6746647000000006,JUM
131039170000000.0,1.576209545135498,0.07634313404560089,1.8513894081115723,0.5687360763549805,0.024385930970311165,0.29657507,0.43066000000000004,347.60022000000004,-96.82936,3.9556391000000004,JUM
131039170000000.0,1.5812082290649414,0.21413269639015198,1.8966388702392578,0.7984007596969604,-0.024883011355996132,0.21074851,0.59620446,347.4786,-96.71238000000001,4.2700877,JUM
131039175000000.0,1.5862059593200684,0.35881081223487854,1.9642990827560425,1.0417535305023193,-0.08506903052330017,-0.16401732,0.8912524,347.47342000000003,-96.66821999999999,4.6236234000000005,JUM
131039180000000.0,1.591220498085022,0.4911985993385315,2.050175905227661,1.243040680885315,-0.1767997145652771,-0.9669996999999999,1.2892311,347.61093,-96.63463,5.0398545,JUM
131039180000000.0,1.5962179899215698,0.5914448499679565,2.1506989002227783,1.3402713537216187,-0.30482348799705505,-1.6514741999999998,1.5149458999999998,347.649,-96.64921,5.691974,JUM
131039190000000.0,1.6012156009674072,0.646984338760376,2.2663040161132812,1.292273998260498,-0.4378744661808014,-1.7928895,1.5247196,347.7333,-96.87961,6.3815627,JUM
131039190000000.0,1.6062129735946655,0.673928439617157,2.4264187812805176,1.1513859033584595,-0.5438624620437622,-1.5201381,1.4575243999999998,347.89813,-97.275024,7.062276400000001,JUM
131039200000000.0,1.6112112998962402,0.6837531924247742,2.6511900424957275,0.9548177719116211,-0.6074315309524536,-1.0323622,1.4202617,348.01212000000004,-97.8036,7.742127,JUM
131039200000000.0,1.6162093877792358,0.6891451478004456,2.966109037399292,0.7165356874465942,-0.6239407062530518,-0.5687156,1.4511104,348.23645,-98.23165999999999,8.197968,JUM
131039210000000.0,1.6212072372436523,0.7145423889160156,3.4268641471862793,0.46093031764030457,-0.602490246295929,-0.38484509999999994,1.5008959,348.39038,-98.6624,8.636242999999999,JUM
131039220000000.0,1.626204013824463,0.7717893719673157,3.987588405609131,0.16804340481758118,-0.5703167915344238,-0.011301007,1.7027868999999998,348.52835,-99.037476,9.004732,JUM
131039220000000.0,1.6312061548233032,0.8739022016525269,4.6056227684021,-0.18385910987854004,-0.5335423350334167,0.46486846,1.9960022000000002,348.58557,-99.4606,9.405755000000001,JUM
131039226000000.0,1.636208415031433,1.0316652059555054,5.253762722015381,-0.5194485187530518,-0.5120913982391357,1.033584,2.3139575,348.5283,-99.90669,9.823846000000001,JUM
131039226000000.0,1.6412079334259033,1.2542916536331177,5.90901517868042,-0.7746723294258118,-0.5149462819099426,1.4700472,2.6004534,348.37292,-100.41689000000001,10.310464999999999,JUM
131039230000000.0,1.6462125778198242,1.594873309135437,6.56133508682251,-0.8367377519607544,-0.5452554225921631,1.0296134,2.7733282999999997,348.35916000000003,-101.06466,10.931782,JUM
131039240000000.0,1.6512117385864258,2.09330677986145,7.199408531188965,-0.6144353747367859,-0.6042739748954773,-1.3200798,2.777299,348.7802,-101.70581,11.555902,JUM
131039240000000.0,1.6562087535858154,2.7018380165100098,7.819466590881348,-0.23864327371120453,-0.664135217666626,-4.9192976999999996,2.454762,349.5112,-102.446,12.289699,JUM
131039250000000.0,1.661208152770996,3.368884801864624,8.41720962524414,0.14726680517196655,-0.6580734252929688,-7.4198747,1.8023578999999998,350.606,-103.089226,12.876294,JUM
131039250000000.0,1.6662054061889648,4.010872840881348,8.991253852844238,0.5270192623138428,-0.5550286769866943,-8.416807,1.2892311,351.76437000000004,-104.0972,13.884031,JUM
131039260000000.0,1.6712039709091187,4.532661437988281,9.540032386779785,0.8824753761291504,-0.38849204778671265,-8.267145,1.1004738,353.29427999999996,-104.97923,14.705912,JUM
131039270000000.0,1.676200270652771,4.898776531219482,10.06354808807373,1.1025325059890747,-0.24417804181575775,-5.4067682999999995,0.8613200000000001,354.20078,-105.84215,15.526337,JUM
131039270000000.0,1.6811997890472412,5.056406021118164,10.56148624420166,1.03877592086792,-0.1856699287891388,-0.9315694999999999,0.73364913,354.5647,-106.61357,16.278921,JUM
131039280000000.0,1.6861978769302368,5.025854587554932,11.034994125366211,0.7541478276252747,-0.19683796167373657,2.627026,0.7696901999999999,354.4508,-107.14307,16.817635,JUM
131039280000000.0,1.6911976337432861,4.838830471038818,11.484715461730957,0.42474907636642456,-0.2318105548620224,4.528955000000001,0.5934556,353.5044,-107.5296,17.284739000000002,JUM
131039284000000.0,1.696190357208252,4.5346856117248535,11.911588668823242,0.11169087141752243,-0.2714303135871887,5.101641000000001,0.08979719,352.4392,-107.41624499999999,17.217670000000002,JUM
131039290000000.0,1.7011855840682983,4.15150785446167,12.316473960876465,-0.10645850002765656,-0.3065946698188782,4.848132,-0.5885687,351.06482,-107.204155,17.06777,JUM
131039290000000.0,1.7061775922775269,3.702127695083618,12.700335502624512,-0.21339546144008636,-0.3301023542881012,4.0958514,-1.2565498,349.91785,-106.63213,16.531858,JUM
131039300000000.0,1.7111746072769165,3.19827938079834,13.06399917602539,-0.17488063871860504,-0.33707281947135925,2.9886582,-1.7922786,348.95203,-105.937126,15.857141500000001,JUM
131039300000000.0,1.7161673307418823,2.6795825958251953,13.408531188964844,-0.06498540937900543,-0.3228856325149536,2.3173172,-1.9840903000000003,348.09125,-105.00007,14.936419500000001,JUM
131039310000000.0,1.721163034439087,2.201664447784424,13.734954833984375,0.013286911882460117,-0.2971650958061218,1.0247264,-2.172237,347.75845,-103.957756,13.892232,JUM
131039320000000.0,1.7261583805084229,1.7791759967803955,14.0438871383667,0.05705079063773155,-0.2480086088180542,0.17501289,-2.116648,347.50385,-102.85118,12.783700999999999,JUM
131039320000000.0,1.731156349182129,1.441757082939148,14.335603713989258,0.05856137350201607,-0.187505841255188,-0.17348573,-1.9318613000000002,347.5023,-101.76758000000001,11.6897135,JUM
131039330000000.0,1.7361512184143066,1.1836090087890625,14.611037254333496,0.0208778977394104,-0.12933218479156494,-0.25228736,-1.8270978999999998,347.6874,-100.74592,10.637295,JUM
131039330000000.0,1.7411561012268066,1.003496527671814,14.871020317077637,-0.05581865832209587,-0.08065576106309891,-0.22510384,-1.8423696,347.94973999999996,-99.78355,9.627738,JUM
131039335000000.0,1.746163010597229,0.8955367803573608,15.116395950317383,-0.16834884881973267,-0.04064488783478737,-0.15057829,-1.9956968000000002,348.25,-98.85988,8.64276,JUM
131039340000000.0,1.7511675357818604,0.8548921942710876,15.347955703735352,-0.314169704914093,-0.0031569604761898518,-0.043676864,-2.2003367000000003,348.53622,-97.956604,7.6614895,JUM
131039340000000.0,1.7561684846878052,0.880103588104248,15.564051628112793,-0.48383796215057373,0.03861618787050247,0.094989546,-2.3903157999999998,348.80685,-97.06806,6.6698976,JUM
131039350000000.0,1.7611749172210693,0.9795833230018616,15.755948066711426,-0.6476349830627441,0.09341500699520111,0.27977628,-2.509129,349.03717,-96.21979,5.6651998,JUM
131039350000000.0,1.7661792039871216,1.1483174562454224,15.922789573669434,-0.7993916869163513,0.16500531136989594,0.48808134,-2.5124888,349.11142,-95.835594,5.0019073,JUM
131039360000000.0,1.7711822986602783,1.3936080932617188,16.038373947143555,-0.8689914345741272,0.2524434030056,0.6209445,-2.4061983,349.1506,-95.59366999999999,4.3568620000000005,JUM
131039370000000.0,1.7761917114257812,1.7107616662979126,16.096616744995117,-0.843766450881958,0.34930160641670227,0.4886922,-2.245846,349.14124,-95.63046999999999,3.8890324,JUM
131039370000000.0,1.7811946868896484,2.0828568935394287,16.079416275024414,-0.6868510842323303,0.4443022608757019,0.105374254,-2.0430387999999997,349.1651,-95.81667,3.4748936,JUM
131039380000000.0,1.7861971855163574,2.4963467121124268,15.988508224487305,-0.42599472403526306,0.5241969227790833,-0.24801129,-1.7669276999999999,349.1574,-96.11176999999999,3.300645,JUM
131039380000000.0,1.7912001609802246,2.901909351348877,15.824846267700195,-0.15812867879867554,0.5794057250022888,-0.35399640000000004,-1.4541647,349.19116,-96.42161999999999,3.1971877,JUM
131039385000000.0,1.7962030172348022,3.289402961730957,15.589178085327148,0.10624407976865768,0.6109349727630615,-0.29077184,-1.2055426,349.20615,-96.62854,3.3082583,JUM
131039390000000.0,1.8012019395828247,3.6114704608917236,15.271294593811035,0.3209560215473175,0.6263459324836731,-0.09254608,-1.0656544,349.21255,-96.79441,3.477297,JUM
131039390000000.0,1.8062012195587158,3.8689184188842773,14.877781867980957,0.4873180687427521,0.6357105374336243,0.23518312,-1.0161743,349.1408,-96.94422,3.7359693,JUM
131039400000000.0,1.8112252950668335,4.047598361968994,14.42853832244873,0.5992807149887085,0.644478440284729,0.6600399,-0.9651671000000001,348.98206,-97.081055,4.042753,JUM
131039400000000.0,1.8162211179733276,4.162621974945068,13.942980766296387,0.670813262462616,0.6548299789428711,0.8405505999999999,-0.92179567,348.8178,-97.23378000000001,4.2894063,JUM
131039410000000.0,1.8212218284606934,4.202197074890137,13.450227737426758,0.7366816401481628,0.6654111742973328,1.0076222,-0.78801614,348.5359,-97.41164,4.594158,JUM
131039420000000.0,1.826220154762268,4.1738739013671875,12.951117515563965,0.8004756569862366,0.6756563782691956,0.90010995,-0.6227771,348.31805,-97.60999,4.808661,JUM
131039420000000.0,1.8312218189239502,4.0926313400268555,12.442320823669434,0.8862202763557434,0.6830604672431946,0.66920286,-0.47158796,348.08884,-97.82603,5.0669703,JUM
131039430000000.0,1.836228609085083,3.9619696140289307,11.92389965057373,0.991570770740509,0.6851216554641724,0.4456262,-0.3576616,347.92926,-97.97632,5.2181809999999995,JUM
131039430000000.0,1.8412301540374756,3.7997145652770996,11.39530086517334,1.0978163480758667,0.681880533695221,0.25076020000000004,-0.28680122,347.82788,-98.13748000000001,5.3999367,JUM
131039435000000.0,1.8462461233139038,3.606656551361084,10.85392951965332,1.2040902376174927,0.6738638281822205,0.112704635,-0.25076020000000004,347.75372000000004,-98.17958,5.44537,JUM
131039440000000.0,1.8512500524520874,3.4035613536834717,10.301492691040039,1.2995578050613403,0.6611958146095276,0.036957346,-0.25350907,347.7179,-98.2061,5.4996395,JUM
131039440000000.0,1.856256127357483,3.190922975540161,9.736564636230469,1.3844712972640991,0.6430175304412842,-0.025961772999999997,-0.25259277,347.75354,-98.156136,5.4787426,JUM
131039450000000.0,1.8612569570541382,2.9816999435424805,9.161911964416504,1.4589219093322754,0.6188575625419617,-0.056199603,-0.26694809999999997,347.80026000000004,-98.07943,5.4531217000000005,JUM
131039450000000.0,1.8662687540054321,2.776136636734009,8.576475143432617,1.5239158868789673,0.5871465802192688,-0.04337143,-0.26389378,347.85086,-97.9547,5.377430400000001,JUM
131039460000000.0,1.871267318725586,2.5852184295654297,7.994101524353027,1.5898280143737793,0.5460895299911499,-0.045814894,-0.26389378,347.91434,-97.79041,5.296222,JUM
131039460000000.0,1.8762633800506592,2.408308744430542,7.413529396057129,1.6567803621292114,0.49371030926704407,-0.07788532,-0.28038713,347.94632,-97.5679,5.1698713,JUM
131039470000000.0,1.881286382675171,2.248748302459717,6.848972320556641,1.7432981729507446,0.4278288781642914,-0.21533000000000002,-0.28496864,348.01022,-97.29105,5.043218599999999,JUM
131039480000000.0,1.8862775564193726,2.10432505607605,6.303750514984131,1.845106601715088,0.34885555505752563,-0.44409904,-0.27977628,348.1101,-96.958435,4.91108,JUM
131039480000000.0,1.8912773132324219,2.0144307613372803,5.8065056800842285,1.9252369403839111,0.25994592905044556,-0.74220127,-0.24923302,348.25766,-96.58673,4.7945933,JUM
131039486000000.0,1.8962723016738892,1.97708261013031,5.356295585632324,1.9824721813201904,0.16714754700660706,-1.0207558,-0.1966986,348.46637000000004,-96.18658,4.6818495,JUM
131039486000000.0,1.901271939277649,1.9803054332733154,4.965634346008301,1.9627916812896729,0.075469471514225,-1.2205088,-0.105374254,348.7262,-95.77404,4.60923,JUM
131039490000000.0,1.9062628746032715,2.018075942993164,4.632311820983887,1.8636624813079834,-0.0073511539958417416,-1.2415836,0.0036651915999999997,349.01552999999996,-95.403625,4.5570393,JUM
131039500000000.0,1.911263346672058,2.0687150955200195,4.356092929840088,1.6817126274108887,-0.07517776638269424,-1.1612548999999999,0.13164146,349.28494,-95.25564,4.682036,JUM
131039500000000.0,1.9162554740905762,2.128308057785034,4.13149356842041,1.4266786575317383,-0.12465870380401611,-0.78893244,0.19547687,349.4751,-95.18955,4.827197,JUM
131039510000000.0,1.921254277229309,2.172344446182251,3.942624807357788,1.1380294561386108,-0.1638360321521759,-0.19211712,0.3210097,349.5607,-95.37441,5.126337,JUM
131039510000000.0,1.9262473583221436,2.198558807373047,3.7842884063720703,0.82557612657547,-0.18837566673755646,0.49846604,0.42424592,349.5119,-95.62638000000001,5.445238,JUM
131039520000000.0,1.9312477111816406,2.2019870281219482,3.63832950592041,0.5329781174659729,-0.20328977704048157,1.1652255,0.52778757,349.31067,-96.00898000000001,5.8342023,JUM
131039530000000.0,1.9362401962280273,2.1842567920684814,3.501354694366455,0.265376478433609,-0.2140233963727951,1.6603317,0.591623,348.9638,-96.424164,6.249037,JUM
131039530000000.0,1.9412399530410767,2.1479196548461914,3.3666608333587646,0.03797910735011101,-0.22457563877105713,1.9217819999999999,0.6075055,348.52643,-96.83211999999999,6.627341700000001,JUM
131039540000000.0,1.9462370872497559,2.0952365398406982,3.2328906059265137,-0.14867307245731354,-0.23754428327083588,1.9993619999999999,0.57787853,348.00504,-97.250656,7.0165844,JUM
131039540000000.0,1.9512461423873901,2.030999183654785,3.0962681770324707,-0.3012906014919281,-0.2534516453742981,1.8988745999999999,0.5140431,347.48199999999997,-97.58789,7.32923,JUM
131039544000000.0,1.9562392234802246,1.9588450193405151,2.9568192958831787,-0.42605286836624146,-0.2721899449825287,1.7040085999999999,0.44073927,346.96786000000003,-97.91306999999999,7.632485000000001,JUM
131039550000000.0,1.9612408876419067,1.881541132926941,2.8142974376678467,-0.5299780964851379,-0.2915899157524109,1.4966198,0.3753767,346.4937,-98.14067,7.857885400000001,JUM
131039550000000.0,1.9662373065948486,1.800791621208191,2.6695358753204346,-0.6170167922973633,-0.3092072308063507,1.3200798,0.33505958,346.06897000000004,-98.354904,8.068636,JUM
131039560000000.0,1.9712368249893188,1.7158193588256836,2.524676561355591,-0.6916764378547668,-0.3219791054725647,1.1530081,0.31337386,345.70288,-98.51019000000001,8.229202,JUM
131039560000000.0,1.9762345552444458,1.6268061399459839,2.3804800510406494,-0.755804181098938,-0.3286011517047882,1.0262536,0.2855795,345.37726000000004,-98.65719,8.375509,JUM
131039570000000.0,1.9812350273132324,1.533884048461914,2.238229274749756,-0.8112843632698059,-0.32809892296791077,0.9034697,0.26969699999999996,345.10067999999995,-98.779854,8.496066,JUM
131039580000000.0,1.9862322807312012,1.4374626874923706,2.098339557647705,-0.8590850234031677,-0.31932201981544495,0.7816021,0.23640485,344.86127,-98.900795,8.602818,JUM
131039580000000.0,1.9912282228469849,1.338440179824829,1.9647413492202759,-0.8958122730255127,-0.30209285020828247,0.6606508000000001,0.19608775,344.66147,-98.993706,8.673138,JUM
131039590000000.0,1.9962313175201416,1.2369799613952637,1.8385039567947388,-0.9204564094543457,-0.27692699432373047,0.5018258,0.14721853,344.50847999999996,-99.088974,8.729878999999999,JUM
131039590000000.0,2.0012283325195312,1.1342041492462158,1.7181293964385986,-0.9332339763641357,-0.24351494014263153,0.32375857,0.10842858,344.40157999999997,-99.16032,8.74564,JUM
131039595000000.0,2.0062246322631836,1.0304977893829346,1.6024984121322632,-0.9339080452919006,-0.20354950428009033,0.13194689,0.07269296,344.34485,-99.23655,8.745649,JUM
131039600000000.0,2.0112226009368896,0.927839994430542,1.49241042137146,-0.9246296286582947,-0.15881234407424927,0.036651913,0.032070424,344.31277,-99.27869399999999,8.698586,JUM
131039600000000.0,2.0162203311920166,0.8268823027610779,1.3879379034042358,-0.9065443873405457,-0.1140340268611908,-0.15668693,0.016187929,344.36496,-99.33294000000001,8.64257,JUM
131039610000000.0,2.0212178230285645,0.727954626083374,1.2926653623580933,-0.8843445181846619,-0.06846798956394196,-0.36743546,-0.024129177,344.44757000000004,-99.35961999999999,8.541431,JUM
131039610000000.0,2.0262203216552734,0.6310515403747559,1.2077162265777588,-0.859830379486084,-0.023637447506189346,-0.54611355,-0.032375857,344.57736,-99.402275,8.439618,JUM
131039620000000.0,2.031221389770508,0.5417162179946899,1.1392258405685425,-0.8397749662399292,0.016850670799613,-0.71868294,-0.044593163,344.7622,-99.411575,8.30204,JUM
131039630000000.0,2.0362234115600586,0.46252381801605225,1.09001886844635,-0.8274518251419067,0.05010253190994263,-0.84696466,-0.032070424,344.98633,-99.42952,8.163105999999999,JUM
131039630000000.0,2.0412240028381348,0.3933444023132324,1.0568466186523438,-0.8261356353759766,0.07269487529993057,-0.8961393,0.0061086523,345.23798,-99.41874,8.003375,JUM
131039640000000.0,2.046227216720581,0.33396899700164795,1.0379315614700317,-0.8373789191246033,0.08254256844520569,-0.8524625,0.0580322,345.50057999999996,-99.39741,7.8469553,JUM
131039640000000.0,2.0512280464172363,0.2829846441745758,1.0313714742660522,-0.8527876138687134,0.07972254604101181,-0.72601336,0.12950343,345.75183,-99.38632,7.7162857,JUM
131039645000000.0,2.0562291145324707,0.23954761028289795,1.0360926389694214,-0.867883563041687,0.06600049138069153,-0.5714644,0.22388211,345.98444,-99.36246,7.6063776,JUM
131039650000000.0,2.0612335205078125,0.2015916407108307,1.0471343994140625,-0.8620419502258301,0.04475710913538933,-0.43127087,0.33933565,346.18883999999997,-99.37043,7.541894,JUM
131039650000000.0,2.0662713050842285,0.16805070638656616,1.0619500875473022,-0.8204869627952576,0.019176656380295753,-0.35002577,0.45631635,346.3685,-99.37401,7.505578,JUM
131039660000000.0,2.0712692737579346,0.13812002539634705,1.079300045967102,-0.75369793176651,-0.00727054150775075,-0.35155296,0.5534439,346.52377,-99.387566,7.506708000000001,JUM
131039660000000.0,2.0762650966644287,0.1118900328874588,1.0995649099349976,-0.6587604284286499,-0.03488011658191681,-0.48655418,0.6273586,346.69672,-99.40307,7.5313454,JUM
131039670000000.0,2.0812642574310303,0.08944985270500183,1.1294771432876587,-0.5443773865699768,-0.06749668717384338,-0.78801614,0.7058548000000001,346.92072,-99.421486,7.5782924,JUM
131039680000000.0,2.086263418197632,0.07078292220830917,1.1743332147598267,-0.41869300603866577,-0.1090204119682312,-1.1496483999999998,0.7984009,347.20288,-99.43826999999999,7.6426444,JUM
131039680000000.0,2.091259241104126,0.05295301601290703,1.2335858345031738,-0.28571781516075134,-0.1575767546892166,-1.4135422,0.8775079,347.46246,-99.30731,7.724658,JUM
131039690000000.0,2.096261501312256,0.020098872482776642,1.3097865581512451,-0.1639605611562729,-0.20453831553459167,-1.5784757999999999,0.91690874,347.793,-99.19976,7.814424000000001,JUM
131039690000000.0,2.1012611389160156,-0.022512244060635567,1.40427827835083,-0.0548776276409626,-0.24178630113601685,-1.7073683999999998,0.9407325000000001,348.16452000000004,-99.08575,7.9241443,JUM
131039695000000.0,2.1062607765197754,-0.06360164284706116,1.5241996049880981,0.036155879497528076,-0.26798275113105774,-1.756543,0.97585726,348.55328,-99.01223,8.046228,JUM
131039695000000.0,2.1112611293792725,-0.09912383556365967,1.6753562688827515,0.09681549668312073,-0.28081926703453064,-1.7654005000000002,1.0033462,348.9861,-98.90857,8.079692999999999,JUM
131039700000000.0,2.1162803173065186,-0.11392123252153397,1.8847777843475342,0.07809675484895706,-0.28405171632766724,-1.4156802,1.1187996999999998,349.32599999999996,-98.86411,8.153236,JUM
131039710000000.0,2.1212785243988037,-0.10840822756290436,2.159932851791382,-0.0043178824707865715,-0.25725921988487244,-1.2311988999999999,1.1649200000000002,349.71732000000003,-98.86834,8.170066,JUM
131039710000000.0,2.126276731491089,-0.07077693194150925,2.5717601776123047,-0.14835622906684875,-0.22902977466583252,-0.7831292,1.3078625,349.9317,-98.8948,8.257055000000001,JUM
131039720000000.0,2.131294012069702,0.0024107901845127344,3.1151022911071777,-0.3507903814315796,-0.21159911155700684,-0.23640485,1.4895949,350.01376,-99.02958000000001,8.298475,JUM
131039730000000.0,2.1363306045532227,0.12669217586517334,3.7289109230041504,-0.5795504450798035,-0.21591611206531525,0.27214047,1.7507398,349.9912,-99.20206,8.415967,JUM
131039730000000.0,2.1413328647613525,0.2979598939418793,4.387740612030029,-0.7978776693344116,-0.2713255286216736,0.2837469,1.8002199,350.07007000000004,-99.42300999999999,8.619132,JUM
131039740000000.0,2.146329879760742,0.6188286542892456,5.0578179359436035,-0.6800581216812134,-0.34442171454429626,-1.3185526,1.858252,350.47433,-99.721664,8.873145,JUM
131039740000000.0,2.1513285636901855,1.0830470323562622,5.737783432006836,-0.2747099697589874,-0.4242514967918396,-4.5967607,1.704925,351.35373,-100.049065,9.202547000000001,JUM
131039746000000.0,2.1563239097595215,1.6522244215011597,6.403486251831055,-0.05672961473464966,-0.43286192417144775,-6.4403524,1.2812898000000001,352.26974,-100.42305,9.44385,JUM
131039750000000.0,2.161343574523926,2.331590175628662,7.057519435882568,-0.013272103853523731,-0.35892680287361145,-6.3948426,0.98471475,352.99374,-101.00278,10.260660000000001,JUM
131039750000000.0,2.1663386821746826,3.041574001312256,7.687998294830322,0.2718237042427063,-0.23565611243247986,-6.506631400000001,1.1160508,354.27727999999996,-101.64831,10.970738,JUM
131039760000000.0,2.1713383197784424,3.774351119995117,8.296935081481934,0.7715450525283813,-0.11008372157812119,-6.8462725,1.3081678999999997,355.59448,-102.7109,11.894675999999999,JUM
131039760000000.0,2.176333427429199,4.370754241943359,8.878960609436035,0.9926564693450928,-0.048450861126184464,-4.307211,1.1511755,356.10602,-103.58983,12.709552,JUM
131039770000000.0,2.1813454627990723,4.827561378479004,9.435826301574707,0.9322916865348816,-0.05799540504813194,-0.15027285,1.001819,356.0539,-104.469284,13.733054000000001,JUM
131039770000000.0,2.186340570449829,5.110204696655273,9.965489387512207,0.6915815472602844,-0.09605380892753601,3.1917708,0.9257663,355.50687,-105.25775,14.688207,JUM
131039780000000.0,2.19132924079895,5.222221851348877,10.469494819641113,0.2730996310710907,-0.1350790113210678,5.052772,0.7263188,354.45425,-105.76591499999999,15.299466,JUM
131039790000000.0,2.196329116821289,5.189696311950684,10.94848346710205,-0.14233459532260895,-0.1674342304468155,5.7280836,0.34330627,352.79107999999997,-106.16583999999999,15.841498999999999,JUM
131039790000000.0,2.2013192176818848,5.035672187805176,11.403486251831055,-0.5194549560546875,-0.19406092166900635,5.7415223,-0.17073683,350.80704,-106.471725,16.27479,JUM
131039800000000.0,2.206348419189453,4.774355411529541,11.835393905639648,-0.7303350567817688,-0.213311105966568,5.0399437,-0.6933321,349.30862,-106.41171000000001,16.252888000000002,JUM
131039800000000.0,2.2113380432128906,4.442269325256348,12.245108604431152,-0.812927782535553,-0.22079233825206757,4.653877,-0.91996306,347.72272000000004,-106.30118600000002,16.173246,JUM
131039805000000.0,2.2163331508636475,4.093963623046875,12.633392333984375,-0.821256697177887,-0.21970364451408386,3.7638462,-1.2345587,346.5892,-105.79533400000001,15.678956,JUM
131039810000000.0,2.221322536468506,3.747899055480957,13.001230239868164,-0.7789411544799805,-0.19500569999217987,2.7491992,-1.3695598999999998,345.6143,-105.31687,15.188982999999999,JUM
131039810000000.0,2.22631573677063,3.425218343734741,13.334540367126465,-0.7152156233787537,-0.14147832989692688,1.7076738,-1.3949108000000001,344.913,-104.60470600000001,14.471292000000002,JUM
131039820000000.0,2.2313058376312256,3.1307053565979004,13.631260871887207,-0.6398006081581116,-0.06370179355144501,0.766025,-1.426065,344.50577000000004,-103.905075,13.738269,JUM
131039820000000.0,2.2363030910491943,2.863288402557373,13.892605781555176,-0.5527288317680359,0.024286432191729546,-0.0036651915999999997,-1.4859296999999998,344.37292,-103.207245,12.989338,JUM
131039830000000.0,2.2412939071655273,2.620971918106079,14.121407508850098,-0.4553799033164978,0.10769946873188019,-0.5861251999999999,-1.5696181999999999,344.47402999999997,-102.54267,12.2396345,JUM
131039840000000.0,2.2462944984436035,2.4341375827789307,14.285711288452148,-0.345438152551651,0.1801237016916275,-1.0372492,-1.6236799,344.78424,-101.92358,11.4987,JUM
131039840000000.0,2.2512853145599365,2.3069660663604736,14.381994247436523,-0.22414954006671906,0.24126577377319336,-1.3197743999999998,-1.6551393,345.21686,-101.32719,10.749172999999999,JUM
131039850000000.0,2.256282329559326,2.270310401916504,14.418771743774414,-0.08082124590873718,0.2952265739440918,-1.4107933000000001,-1.6624697,345.69723999999997,-100.7965,10.058827,JUM
131039850000000.0,2.2612802982330322,2.332148313522339,14.404102325439453,0.0875895544886589,0.34505829215049744,-1.3206906,-1.6337591,346.20682,-100.29115,9.377243,JUM
131039855000000.0,2.2662785053253174,2.4496541023254395,14.352720260620117,0.25278082489967346,0.3905903398990631,-1.0485502,-1.543351,346.6189,-99.91635,8.838614999999999,JUM
131039860000000.0,2.2712738513946533,2.6102771759033203,14.2698335647583,0.40842416882514954,0.42718490958213806,-0.59559363,-1.3836098,346.95462000000003,-99.57239,8.340188000000001,JUM
131039860000000.0,2.2762820720672607,2.7567310333251953,14.141016960144043,0.5520721673965454,0.449946790933609,-0.08246681,-1.1899655,347.0957,-99.405136,8.089433999999999,JUM
131039870000000.0,2.2812795639038086,2.874413251876831,13.96899127960205,0.6838713884353638,0.45735061168670654,0.2929099,-1.0662653,347.14886,-99.24116500000001,7.876835300000001,JUM
131039870000000.0,2.2862775325775146,2.9502065181732178,13.760055541992188,0.8064912557601929,0.45265644788742065,0.44012842,-1.0177015,347.09106,-99.19009,7.834380599999999,JUM
131039880000000.0,2.2912731170654297,2.9828641414642334,13.518365859985352,0.9210629463195801,0.44214099645614624,0.41477749999999997,-1.0231993000000001,346.9781,-99.13516,7.8200216000000005,JUM
131039890000000.0,2.296268939971924,2.9761862754821777,13.24986743927002,1.0185519456863403,0.4299885034561157,0.27488935,-1.0118983,346.86694,-99.06036999999999,7.795702,JUM
131039890000000.0,2.3012702465057373,2.9321112632751465,12.956640243530273,1.0967202186584473,0.4181906580924988,0.10598512,-0.9611965,346.7743,-98.98801999999999,7.784343700000001,JUM
131039900000000.0,2.3062684535980225,2.854422092437744,12.633185386657715,1.1570560932159424,0.40772148966789246,0.01985312,-0.91721416,346.71524,-98.85144,7.694089999999999,JUM
131039900000000.0,2.3112688064575195,2.7444193363189697,12.277604103088379,1.2002531290054321,0.39815205335617065,-0.15241088,-0.8060366999999999,346.73376,-98.74725,7.6367106,JUM
131039905000000.0,2.316267967224121,2.6137237548828125,11.887038230895996,1.232157588005066,0.3891577124595642,-0.29504790000000003,-0.713796,346.79242,-98.60198000000001,7.5088015,JUM
131039910000000.0,2.3212640285491943,2.4672231674194336,11.461784362792969,1.2552461624145508,0.3793568015098572,-0.3915646,-0.6469063,346.88995,-98.47842,7.4065194000000005,JUM
131039910000000.0,2.3262581825256348,2.312361717224121,11.00739574432373,1.266688346862793,0.36560192704200745,-0.46944994,-0.61453044,347.05322,-98.310486,7.242988599999999,JUM
131039920000000.0,2.33125376701355,2.1543097496032715,10.527634620666504,1.2645514011383057,0.3457110524177551,-0.52015173,-0.57848936,347.23828,-98.15176,7.1003046,JUM
131039920000000.0,2.3362491130828857,2.0011279582977295,10.032570838928223,1.2407846450805664,0.3182694911956787,-0.52503866,-0.5503895999999999,347.43976000000004,-97.956924,6.9165616,JUM
131039930000000.0,2.3412442207336426,1.8586673736572266,9.529616355895996,1.1896374225616455,0.28130316734313965,-0.46150870000000005,-0.50854534,347.63785,-97.75057,6.748298599999999,JUM
131039940000000.0,2.3462486267089844,1.7310510873794556,9.026180267333984,1.115035891532898,0.23776127398014069,-0.34055737,-0.45540005,347.83704,-97.55249,6.584092999999999,JUM
131039940000000.0,2.351245164871216,1.6201664209365845,8.529496192932129,1.0221742391586304,0.1894592046737671,-0.17806722,-0.39706242,348.00735,-97.34276,6.4356003,JUM
131039950000000.0,2.356240749359131,1.5266307592391968,8.03810977935791,0.9155157208442688,0.13866902887821198,0.0021380284,-0.3390302,348.10666000000003,-97.147385,6.297874,JUM
131039950000000.0,2.3612382411956787,1.4530391693115234,7.549918174743652,0.8065075874328613,0.08793239295482635,0.15577064,-0.28955013,348.16882000000004,-96.95513000000001,6.176979,JUM
131039956000000.0,2.366234540939331,1.3973541259765625,7.069058895111084,0.7038273811340332,0.0393136665225029,0.28863382,-0.24098633,348.1381,-96.79964,6.085953,JUM
131039956000000.0,2.3712313175201416,1.3575751781463623,6.600647926330566,0.6188389658927917,-0.006795421242713928,0.36774087,-0.21044308,348.07956,-96.64973,6.0052414,JUM
131039960000000.0,2.3762271404266357,1.3338432312011719,6.145967960357666,0.5518730878829956,-0.0502193421125412,0.37812558,-0.16615535,347.98615,-96.56942,5.990172,JUM
131039970000000.0,2.3812248706817627,1.3280953168869019,5.7089409828186035,0.5054694414138794,-0.09106864780187607,0.3475823,-0.124311075,347.8827,-96.50094,5.9843554,JUM
131039970000000.0,2.3862202167510986,1.3410921096801758,5.2938923835754395,0.4682614505290985,-0.12987120449543,0.27580565,-0.07819075,347.7685,-96.482765,6.040228,JUM
131039980000000.0,2.39121675491333,1.3749480247497559,4.907120704650879,0.42533934116363525,-0.1663617044687271,0.24770586,-0.0012217305,347.6518,-96.493065,6.118678,JUM
131039980000000.0,2.396219253540039,1.4278557300567627,4.548211097717285,0.36751729249954224,-0.2005494236946106,0.3115413,0.09560041,347.50626,-96.56669000000001,6.269689,JUM
131039990000000.0,2.401221513748169,1.4968974590301514,4.216797828674316,0.283731073141098,-0.2322966456413269,0.38331795,0.20586158,347.36734,-96.67821500000001,6.448821499999999,JUM
131040000000000.0,2.406214952468872,1.5771291255950928,3.9093081951141357,0.17585991322994232,-0.26259613037109375,0.61117065,0.26389378,347.14398,-96.88596,6.7142854000000005,JUM
131040000000000.0,2.411212921142578,1.6616848707199097,3.621072292327881,0.042921505868434906,-0.29108554124832153,0.9202684999999999,0.37293324,346.87772,-97.15340400000001,7.0304723,JUM
131040010000000.0,2.4162073135375977,1.7484065294265747,3.3501436710357666,-0.10954983532428741,-0.3182682693004608,1.2800681999999999,0.46303585,346.52158,-97.51911,7.4257135,JUM
131040010000000.0,2.4212052822113037,1.82870352268219,3.0913355350494385,-0.2641987204551697,-0.3443116247653961,1.6029103999999998,0.5320636,346.08867999999995,-97.919426,7.851889,JUM
131040014000000.0,2.4262049198150635,1.9015988111495972,2.844510793685913,-0.4164493680000305,-0.3689996302127838,1.8164078000000001,0.5653558000000001,345.58966000000004,-98.383095,8.327052,JUM
131040020000000.0,2.431206703186035,1.9611706733703613,2.6113643646240234,-0.5456416606903076,-0.38983267545700073,1.9022343000000002,0.569021,345.03784,-98.86534,8.818839,JUM
131040020000000.0,2.4362032413482666,2.0081489086151123,2.39292311668396,-0.6516926288604736,-0.4058605134487152,1.8377881,0.54244834,344.4785,-99.35058000000001,9.309188,JUM
131040030000000.0,2.4412007331848145,2.0420656204223633,2.1954240798950195,-0.7287136912345886,-0.41558125615119934,1.6526958999999999,0.4700608,343.93335,-99.83073399999999,9.791686,JUM
131040030000000.0,2.446200370788574,2.0634055137634277,2.019371747970581,-0.7780787944793701,-0.41718244552612305,1.3842206,0.3811799,343.4347,-100.26912,10.232605,JUM
131040040000000.0,2.451199769973755,2.0721993446350098,1.8708518743515015,-0.8012177348136902,-0.41000619530677795,1.0571023000000002,0.29718593,343.0099,-100.6957,10.657511,JUM
131040050000000.0,2.4561986923217773,2.0683372020721436,1.7485460042953491,-0.801344633102417,-0.3944551646709442,0.70921457,0.23579398,342.6661,-101.06130999999999,11.022852,JUM
131040050000000.0,2.4612276554107666,2.0477612018585205,1.6538382768630981,-0.7848225235939026,-0.37040597200393677,0.3594942,0.22235495,342.41992,-101.425156,11.38053,JUM
131040060000000.0,2.466223955154419,2.014662504196167,1.5797377824783325,-0.7569867372512817,-0.3384742736816406,0.049785517,0.24312437,342.25894,-101.72872,11.678622,JUM
131040060000000.0,2.4712212085723877,1.9668114185333252,1.5210976600646973,-0.7221260070800781,-0.30018702149391174,-0.21960606,0.26878070000000004,342.18896,-102.03769,11.975748,JUM
131040065000000.0,2.476217746734619,1.9051716327667236,1.4760044813156128,-0.6811122298240662,-0.25653401017189026,-0.47342056,0.30604348,342.21042,-102.28386,12.206698,JUM
131040070000000.0,2.481215715408325,1.8310178518295288,1.4355361461639404,-0.6378406882286072,-0.20928242802619934,-0.70707655,0.32803464,342.3044,-102.53965,12.439738,JUM
131040070000000.0,2.486225128173828,1.7447125911712646,1.3992505073547363,-0.5922954082489014,-0.15960070490837097,-0.90224797,0.36041048,342.45703,-102.731445,12.598039,JUM
131040080000000.0,2.4912214279174805,1.6513477563858032,1.3636841773986816,-0.545291006565094,-0.10872520506381989,-1.0595458,0.40775254,342.66418,-102.93695,12.760617,JUM
131040080000000.0,2.496234655380249,1.5500608682632446,1.3280807733535767,-0.4962841868400574,-0.05746830254793167,-1.1826351000000002,0.44104472,342.9101,-103.06742,12.836457000000001,JUM
131040090000000.0,2.5012319087982178,1.4437649250030518,1.2873561382293701,-0.4443225860595703,-0.008210541680455208,-1.2315042999999999,0.45478916,343.1773,-103.20495600000001,12.912164,JUM
131040100000000.0,2.506237506866455,1.3322409391403198,1.2409429550170898,-0.3873453438282013,0.03788498416543007,-1.3093896999999999,0.46578476,343.51434,-103.3069,12.948837,JUM
131040100000000.0,2.511233329772949,1.221941351890564,1.1875650882720947,-0.30697786808013916,0.0795869454741478,-1.3866642,0.44318274,343.86276000000004,-103.40121500000001,12.972974,JUM
131040110000000.0,2.5162484645843506,1.112708330154419,1.1268137693405151,-0.2011045515537262,0.11462277919054031,-1.5012014,0.38515055,344.20004,-103.40428,12.903853999999999,JUM
131040110000000.0,2.5212457180023193,1.0185928344726562,1.0688352584838867,-0.061829645186662674,0.13935978710651398,-1.6517796999999999,0.32589662,344.5703,-103.390625,12.821324,JUM
131040115000000.0,2.5262417793273926,0.9393854141235352,1.0134520530700684,0.11157119274139404,0.14967523515224457,-1.7119498,0.31887165,344.92978,-103.34626999999999,12.746205999999999,JUM
131040120000000.0,2.531271457672119,0.8849636316299438,0.9806017875671387,0.28431177139282227,0.1432124227285385,-1.6435330000000001,0.37873647,345.2941,-103.283615,12.669847,JUM
131040120000000.0,2.5362627506256104,0.8498281836509705,0.965888261795044,0.45172742009162903,0.11931916326284409,-1.4132367000000001,0.47800204,345.62698,-103.20489,12.602236,JUM
131040130000000.0,2.54125714302063,0.8334377408027649,0.971293032169342,0.5961083173751831,0.07791518419981003,-1.1242975,0.6044512,345.83362,-103.136154,12.619848,JUM
131040130000000.0,2.5462520122528076,0.8342373371124268,0.9955751895904541,0.7157012224197388,0.02315659262239933,-0.8313876,0.7247916,345.96915,-103.086975,12.670369,JUM
131040140000000.0,2.5512478351593018,0.8495485186576843,1.032047986984253,0.8232088088989258,-0.0413149893283844,-0.59650993,0.86284715,345.99515,-103.13871999999999,12.836622,JUM
131040150000000.0,2.5562403202056885,0.8781610727310181,1.0791817903518677,0.9207014441490173,-0.11182411760091782,-0.44776422,1.0103711,345.95554,-103.24123399999999,13.045186,JUM
131040150000000.0,2.5612375736236572,0.896184504032135,1.1174641847610474,0.9602752923965454,-0.18469589948654175,-0.38515055,1.1465940000000001,345.89166,-103.468704,13.357039000000002,JUM
131040160000000.0,2.5662310123443604,0.901536762714386,1.145167350769043,0.9406507611274719,-0.25746047496795654,-0.40439278,1.2626585,345.79956,-103.75388000000001,13.704429000000001,JUM
131040160000000.0,2.571227550506592,0.8817110061645508,1.1633617877960205,0.8569254279136658,-0.32320570945739746,-0.44257188,1.2974777,345.67355,-104.12971999999999,14.116044,JUM
131040165000000.0,2.5762224197387695,0.8358248472213745,1.172838807106018,0.7122623324394226,-0.3741832673549652,-0.45540005,1.2174544,345.5348,-104.52371,14.52325,JUM
131040170000000.0,2.5812199115753174,0.7797137498855591,1.1867175102233887,0.5137214660644531,-0.4058900475502014,-0.36774087,1.108415,345.47104,-75.16975,14.829583999999999,JUM
131040170000000.0,2.5862174034118652,0.7235504984855652,1.2128562927246094,0.2679543197154999,-0.4173346161842346,-0.12064589,1.0415252000000002,345.35846000000004,-74.87655,15.119831,JUM
131040180000000.0,2.591214179992676,0.6802597641944885,1.2653485536575317,-0.006565411109477282,-0.4156031608581543,0.25961772,1.0198395,345.4817,-74.68032,15.315971,JUM
131040180000000.0,2.5962181091308594,0.6534368991851807,1.3481693267822266,-0.30463865399360657,-0.4050602614879608,0.49907690000000005,1.0387764000000002,345.5753,-74.49566,15.502026,JUM
131040190000000.0,2.6012346744537354,0.6537606716156006,1.5041574239730835,-0.6179453134536743,-0.3906680643558502,1.3387111,1.0906999,345.4919,-74.373276,15.626591000000001,JUM
131040190000000.0,2.606231689453125,0.6804838180541992,1.7346642017364502,-0.9396283626556396,-0.37678244709968567,1.6572775000000002,1.119716,345.4945,-105.75043000000001,15.749247,JUM
131040200000000.0,2.611229419708252,0.7496604919433594,2.0998523235321045,-1.2734014987945557,-0.36565521359443665,2.3154847999999997,1.2095132,345.20322000000004,-105.90568999999999,15.898179999999998,JUM
131040210000000.0,2.6162309646606445,0.8707407712936401,2.636213779449463,-1.6205512285232544,-0.36291784048080444,3.00057,1.3206906,344.81023999999996,-106.081535,16.064936,JUM
131040210000000.0,2.621227979660034,1.135538935661316,3.254340171813965,-1.6868572235107422,-0.3739016354084015,3.6535849999999996,1.4950926000000002,344.2661,-106.30433000000001,16.275760000000002,JUM
131040216000000.0,2.6262242794036865,1.5710645914077759,3.926088809967041,-1.3845336437225342,-0.40314924716949463,3.9336667000000003,1.6859881,343.6272,-106.566345,16.529865,JUM
131040216000000.0,2.6312203407287598,2.120417594909668,4.615785598754883,-0.9348276853561401,-0.4507616460323334,1.6307048000000002,1.9477438999999999,343.59567000000004,-106.87722,16.821066000000002,JUM
131040220000000.0,2.6362180709838867,2.760861396789551,5.310830116271973,-0.4179455041885376,-0.49772483110427856,-5.096754,2.4236077999999996,344.80142,-107.307526,17.192833,JUM
131040230000000.0,2.641214609146118,3.4429280757904053,5.995987892150879,0.030368933454155922,-0.5103792548179626,-9.325774000000001,2.5286767000000006,345.07538,-108.36108,18.29402,JUM
131040230000000.0,2.646212339401245,4.143198013305664,6.6647047996521,0.3473394513130188,-0.4896906614303589,10.002308,1.9672915000000002,340.21564,-70.727036,19.267870000000002,JUM
131040240000000.0,2.65120792388916,4.711587905883789,7.31345796585083,0.5505971312522888,-0.4217771887779236,-9.805609,1.1145236,348.26428,-110.38981000000001,20.30839,JUM
131040240000000.0,2.656203508377075,5.000906467437744,7.939157485961914,0.6549758315086365,-0.291852742433548,-7.8184643,0.6762278,343.90097000000003,-111.41946000000002,21.416168,JUM
131040250000000.0,2.6611998081207275,5.082280158996582,8.539219856262207,0.5725067257881165,-0.15685591101646423,-3.61113,0.48716503,344.9917,-112.29303,22.2719,JUM
131040260000000.0,2.66619610786438,5.000712871551514,9.112736701965332,0.2592427134513855,-0.10251311212778091,0.99021256,0.42607849999999997,345.32956,-112.98647,22.956907,JUM
131040260000000.0,2.6711931228637695,4.806546211242676,9.659380912780762,-0.1120949238538742,-0.11755936592817307,4.083634399999999,0.52687126,345.25122000000005,-113.074265,23.03479,JUM
131040270000000.0,2.6761906147003174,4.5275092124938965,10.179677963256836,-0.4555392861366272,-0.16199824213981628,5.522833,0.42852196,344.26328,-113.08568000000001,23.064293,JUM
131040270000000.0,2.681187391281128,4.189942359924316,10.674009323120117,-0.724396824836731,-0.22010204195976257,5.767484,0.04428773,343.25104,-112.69136999999999,22.68178,JUM
131040274000000.0,2.686185121536255,3.808373212814331,11.143206596374512,-0.8953818082809448,-0.2738071382045746,5.304448000000001,-0.5345071,342.00507000000005,-112.24443000000001,22.243660000000002,JUM
131040280000000.0,2.6911792755126953,3.3980088233947754,11.588388442993164,-0.9630352258682251,-0.30936571955680847,4.9400673,-1.1236867,340.7353,-68.4777,21.519997,JUM
131040280000000.0,2.696174144744873,2.97045636177063,12.010663986206055,-0.9200160503387451,-0.33106541633605957,3.9736784,-1.3631458,339.78925,-69.22078,20.767935,JUM
131040290000000.0,2.7011702060699463,2.563568592071533,12.410890579223633,-0.8339641094207764,-0.3193144202232361,2.8964176,-1.6795740000000001,339.00037000000003,-70.198814,19.779444,JUM
131040290000000.0,2.7061660289764404,2.196380615234375,12.79004192352295,-0.7410798668861389,-0.27031227946281433,1.8558086,-1.8216002,338.51205,-71.15143,18.824036,JUM
131040300000000.0,2.711164712905884,1.8850682973861694,13.149242401123047,-0.6640774607658386,-0.19722674787044525,1.0873401000000003,-1.8506162,338.24564,-72.15749,17.816727,JUM
131040310000000.0,2.716160774230957,1.6358264684677124,13.489550590515137,-0.6141684651374817,-0.11807440221309662,0.6026186,-1.8319849,338.22345,-73.1569,16.825563,JUM
131040310000000.0,2.7211568355560303,1.4425389766693115,13.81151008605957,-0.5823197364807129,-0.04610278084874153,0.31673363,-1.815797,338.35825,-74.09769,15.895042000000002,JUM
131040320000000.0,2.7261526584625244,1.3001683950424194,14.115809440612793,-0.5626984238624573,0.013438827358186245,0.112399206,-1.8096883000000001,338.61905,-75.00477,14.994517000000002,JUM
131040320000000.0,2.731149196624756,1.210322618484497,14.387535095214844,-0.5495505332946777,0.06240110471844673,-0.06352998,-1.8393153000000002,338.9423,-104.19540400000001,14.193681,JUM
131040325000000.0,2.7361464500427246,1.1731466054916382,14.617098808288574,-0.5388489961624146,0.10650777071714401,-0.24098633,-1.9208657999999998,339.3262,-103.41026,13.398016,JUM
131040330000000.0,2.7411446571350098,1.1863224506378174,14.802844047546387,-0.5312892198562622,0.15272386372089386,-0.35643986,-2.0210476,339.73913999999996,-102.7246,12.690528,JUM
131040330000000.0,2.7461471557617188,1.2481739521026611,14.943318367004395,-0.5274558663368225,0.2071874737739563,-0.37904188,-2.0992384,340.1733,-102.05018000000001,11.979541000000001,JUM
131040340000000.0,2.7511470317840576,1.3580210208892822,15.040719032287598,-0.5150602459907532,0.27234014868736267,-0.29260445,-2.1145099999999997,340.56284,-101.49875,11.372274,JUM
131040340000000.0,2.7561471462249756,1.5194886922836304,15.094964027404785,-0.47326964139938354,0.3463263213634491,-0.15760323,-2.0558669999999997,340.9402,-100.98366999999999,10.774544,JUM
131040350000000.0,2.76114821434021,1.7250932455062866,15.100703239440918,-0.3870278298854828,0.4232223331928253,-0.05955936,-1.8985691999999998,341.25403,-100.64709,10.32661,JUM
131040360000000.0,2.766148567199707,1.9655598402023315,15.050750732421875,-0.2369050681591034,0.4953204393386841,-0.07941248,-1.702176,341.55852999999996,-100.37536999999999,9.914255,JUM
131040360000000.0,2.7711448669433594,2.219575881958008,14.944507598876953,-0.046765152364969254,0.5523285865783691,-0.15057829,-1.5149458999999998,341.77875,-100.2688,9.675765,JUM
131040370000000.0,2.77614426612854,2.4573309421539307,14.776823043823242,0.15156526863574982,0.5886702537536621,-0.23884831,-1.3790283,342.00626,-100.20291999999999,9.48156,JUM
131040370000000.0,2.7811410427093506,2.669428586959839,14.550241470336914,0.34695562720298767,0.6068140864372253,-0.31581733,-1.3115277,342.1266,-100.21621999999999,9.424859,JUM
131040375000000.0,2.7861735820770264,2.8290045261383057,14.252729415893555,0.5143086314201355,0.6150384545326233,-0.39706242,-1.3045027,342.27112,-100.23001,9.389872,JUM
131040380000000.0,2.7911722660064697,2.946460008621216,13.913716316223145,0.6553216576576233,0.618104100227356,-0.43554693,-1.2861768,342.39047,-100.2432,9.391113,JUM
131040380000000.0,2.796177864074707,3.0143821239471436,13.54299259185791,0.7593033313751221,0.6201761960983276,-0.47067168,-1.2693780000000001,342.5292,-100.2496,9.396019,JUM
131040390000000.0,2.8011820316314697,3.037471055984497,13.145063400268555,0.8304595947265625,0.6210472583770752,-0.41386122,-1.2159271999999999,342.66174,-100.22823000000001,9.364041,JUM
131040390000000.0,2.8061811923980713,3.021641254425049,12.727042198181152,0.8759328722953796,0.6201465129852295,-0.32895094,-1.1291844,342.79416000000003,-100.22084,9.351778999999999,JUM
131040400000000.0,2.811201572418213,2.965776205062866,12.285719871520996,0.8953307867050171,0.61683589220047,-0.25778514,-1.0619892,342.9502,-100.17352,9.272724,JUM
131040410000000.0,2.8162004947662354,2.886603355407715,11.825396537780762,0.9000369906425476,0.6107229590415955,-0.14782938,-0.9764681000000001,343.07004,-100.15261,9.231458,JUM
131040410000000.0,2.82120418548584,2.786763906478882,11.346490859985352,0.8909384608268738,0.601436197757721,-0.003970624,-0.8903360999999999,343.18197999999995,-100.08211999999999,9.1209545,JUM
131040420000000.0,2.826201915740967,2.688580274581909,10.870141983032227,0.8767054080963135,0.5889005661010742,0.17928895,-0.77946407,343.25237999999996,-100.03654499999999,9.049521,JUM
131040420000000.0,2.8311989307403564,2.592116355895996,10.395084381103516,0.8585319519042969,0.5718241930007935,0.3472769,-0.67347896,343.28806000000003,-99.96056999999999,8.944539,JUM
131040425000000.0,2.8361973762512207,2.4993703365325928,9.914754867553711,0.8463066220283508,0.5504328608512878,0.44593164,-0.61819565,343.29297,-99.89424,8.862860000000001,JUM
131040430000000.0,2.8412320613861084,2.4104418754577637,9.425481796264648,0.8397098183631897,0.5261284708976746,0.52626044,-0.57787853,343.2553,-99.85396999999999,8.813594,JUM
131040430000000.0,2.8462367057800293,2.3307297229766846,8.935869216918945,0.8301067352294922,0.5006288886070251,0.5876524000000001,-0.548557,343.1964,-99.819046,8.781982000000001,JUM
131040440000000.0,2.8512332439422607,2.2601265907287598,8.443670272827148,0.817369818687439,0.47349321842193604,0.6215554,-0.5305365,343.14975,-99.810326,8.7944765,JUM
131040440000000.0,2.856255292892456,2.203411340713501,7.94666051864624,0.8069708347320557,0.4440436363220215,0.6337727,-0.52748215,343.09073,-99.80038499999999,8.81441,JUM
131040450000000.0,2.86124849319458,2.158381700515747,7.450831890106201,0.7989498972892761,0.41077569127082825,0.58093286,-0.514654,343.0401,-99.79008499999999,8.844041,JUM
131040450000000.0,2.8662452697753906,2.1256330013275146,6.958804607391357,0.8077676892280579,0.37260696291923523,0.4718934,-0.4841107,342.8499,-99.71009000000001,8.806500999999999,JUM
131040460000000.0,2.8712379932403564,2.1042582988739014,6.471714496612549,0.8338525891304016,0.3286755084991455,0.28160888,-0.45234573,342.6998,-99.62203000000001,8.772621000000001,JUM
131040470000000.0,2.8762335777282715,2.1000146865844727,5.997317790985107,0.9045159816741943,0.27827924489974976,0.027183502999999998,-0.40042216,342.5718,-99.56335,8.785022,JUM
131040470000000.0,2.881227493286133,2.1123976707458496,5.536080837249756,1.0196645259857178,0.22096508741378784,-0.30329459999999997,-0.34055737,342.52213,-99.50271,8.8065195,JUM
131040476000000.0,2.8862245082855225,2.147075653076172,5.10874605178833,1.1157928705215454,0.1584039181470871,-0.4642576,-0.23335053,342.47402999999997,-99.48635,8.898277,JUM
131040476000000.0,2.891221284866333,2.2044153213500977,4.7197160720825195,1.1759788990020752,0.09448892623186111,-0.7257079000000001,-0.17012598,342.55084,-99.475426,8.990893,JUM
131040480000000.0,2.8962273597717285,2.2829031944274902,4.37237024307251,1.17318594455719,0.03355692699551582,-0.8549059000000001,-0.013744468000000001,342.59143,-99.56197,9.213558,JUM
131040490000000.0,2.90122389793396,2.379300594329834,4.065136909484863,1.1030369997024536,-0.02196294441819191,-0.78984874,0.16523905,342.65024,-99.697075,9.464286999999999,JUM
131040490000000.0,2.9062209129333496,2.4766459465026855,3.791180372238159,0.968247652053833,-0.06874555349349976,-0.4896085,0.37201694,342.66202000000004,-99.99586,9.841699,JUM
131040500000000.0,2.9112179279327393,2.5666606426239014,3.546020269393921,0.7731409668922424,-0.10577528923749924,0.036651913,0.5681046999999999,342.58752000000004,-100.367645,10.274397,JUM
131040500000000.0,2.916215658187866,2.634026527404785,3.3294003009796143,0.5645238161087036,-0.13217204809188843,0.7113526,0.7125743,342.39954,-100.88038,10.812965,JUM
131040510000000.0,2.921211004257202,2.6754589080810547,3.1399905681610107,0.3564947843551636,-0.1489419937133789,1.3182472,0.75991637,342.07855,-101.43479,11.387361,JUM
131040520000000.0,2.9262309074401855,2.6888701915740967,2.9765491485595703,0.16990779340267181,-0.15884444117546082,1.7403551,0.7629706999999999,341.66946,-102.02016400000001,11.9745455,JUM
131040520000000.0,2.931227445602417,2.67964768409729,2.834876298904419,0.0063227140344679356,-0.16380798816680908,1.9752327,0.75991637,341.14246,-102.625,12.5802965,JUM
131040530000000.0,2.9362242221832275,2.6471335887908936,2.7127182483673096,-0.12996810674667358,-0.1655445396900177,2.057394,0.75747293,340.57965,-103.14973,13.102214,JUM
131040530000000.0,2.9412224292755127,2.5924904346466064,2.6084935665130615,-0.23919543623924255,-0.16580496728420258,2.0277672,0.7528914000000001,339.98557,-103.67775999999999,13.626868,JUM
131040534000000.0,2.946227788925171,2.5187644958496094,2.514185667037964,-0.32313627004623413,-0.16652356088161469,1.8820758000000002,0.75136423,339.4243,-104.112595,14.060410500000001,JUM
131040540000000.0,2.951228618621826,2.428514242172241,2.4271485805511475,-0.3841457664966583,-0.16930364072322845,1.6395624,0.7431175999999999,338.90396,-104.546265,14.492097,JUM
131040540000000.0,2.956228733062744,2.325002670288086,2.3414387702941895,-0.42734983563423157,-0.17405161261558533,1.3112222,0.7058548000000001,338.464,-104.87403,14.820876,JUM
131040550000000.0,2.9612300395965576,2.2095794677734375,2.255317211151123,-0.45480701327323914,-0.18007662892341614,0.9596693000000001,0.6569856,338.10497999999995,-105.19613999999999,15.142871,JUM
131040550000000.0,2.966231346130371,2.0841245651245117,2.1673529148101807,-0.47354456782341003,-0.18584567308425903,0.57971114,0.5897904,337.8555,-105.42186000000001,15.370503,JUM
131040560000000.0,2.971231698989868,1.9496972560882568,2.0770905017852783,-0.4864656329154968,-0.1905585080385208,0.19853121,0.5311473000000001,337.71176,-105.63553999999999,15.583988,JUM
131040570000000.0,2.9762299060821533,1.8086496591567993,1.984039545059204,-0.49581441283226013,-0.1925460249185562,-0.18509217,0.47219884,337.68323,-105.76656000000001,15.714560500000001,JUM
131040570000000.0,2.9812307357788086,1.6623162031173706,1.8877756595611572,-0.5030305981636047,-0.19120469689369202,-0.5403103,0.42271876,337.75982999999997,-105.88323000000001,15.827658999999999,JUM
131040580000000.0,2.986231803894043,1.5167876482009888,1.789379596710205,-0.5130994319915771,-0.18498654663562775,-0.6988298000000001,0.39492437,337.90424,-105.93348999999999,15.871957,JUM
131040580000000.0,2.991231918334961,1.3743343353271484,1.6893298625946045,-0.5278047919273376,-0.17387475073337555,-0.98990715,0.38362336,338.19385,-105.974434,15.901092000000002,JUM
131040585000000.0,2.9962406158447266,1.2362332344055176,1.5886608362197876,-0.5461899042129517,-0.16042520105838776,-1.2153163999999999,0.36774087,338.52316,-105.96713999999999,15.878901500000001,JUM
131040590000000.0,3.001242160797119,1.1032267808914185,1.4883232116699219,-0.5673703551292419,-0.1402536779642105,-1.382388,0.3753767,338.92215,-105.967316,15.854501999999998,JUM
131040590000000.0,3.006239652633667,0.977552056312561,1.3915703296661377,-0.5861004590988159,-0.11282314360141754,-1.4877623,0.40133846,339.38347999999996,-105.95963,15.812234,JUM
131040600000000.0,3.0112404823303223,0.8601074814796448,1.2998459339141846,-0.5998732447624207,-0.07944826036691666,-1.5561791999999999,0.43371433,339.88416,-105.961105,15.767411,JUM
131040600000000.0,3.0162405967712402,0.7504319548606873,1.2128839492797852,-0.6090108156204224,-0.041715458035469055,-1.575116,0.47525316,340.41022000000004,-105.977905,15.721441,JUM
131040610000000.0,3.021240711212158,0.6481145620346069,1.1304303407669067,-0.6137523651123047,-0.002314860699698329,-1.5192219,0.5155702999999999,340.93567,-106.01133999999999,15.677979999999998,JUM
131040620000000.0,3.0262415409088135,0.5557796359062195,1.0577093362808228,-0.5660794973373413,0.035262685269117355,-1.4376712999999999,0.5421429,341.46047999999996,-106.05937,15.635798999999999,JUM
131040620000000.0,3.0312418937683105,0.47467878460884094,0.9974499344825745,-0.4401370584964752,0.06488011032342911,-1.3906348,0.5555819000000001,341.9804,-106.11558500000001,15.594876000000001,JUM
131040630000000.0,3.0362424850463867,0.4072384834289551,0.9588584303855896,-0.2577175498008728,0.07831835746765137,-1.4052955,0.57604593,342.48022000000003,-106.18041000000001,15.575125,JUM
131040630000000.0,3.0412397384643555,0.3545328378677368,0.9468328356742859,-0.034020643681287766,0.06318990141153336,-1.4184291,0.61208695,342.96692,-106.22478000000001,15.559122,JUM
131040635000000.0,3.046236276626587,0.3125405013561249,0.9569969773292542,0.16493473947048187,0.011462331749498844,-1.3591752000000001,0.7076874,343.1982,-106.10601000000001,15.516369000000001,JUM
131040640000000.0,3.051236152648926,0.2781144380569458,0.9859030246734619,0.2885856032371521,-0.0683378353714943,-1.1924089,0.8231409,343.40247,-105.98875,15.496898999999999,JUM
131040640000000.0,3.056236982345581,0.24744614958763123,1.038099765777588,0.3455318510532379,-0.15910455584526062,-0.9251554,0.8900306999999998,343.4429,-105.86321000000001,15.527716,JUM
131040650000000.0,3.0612387657165527,0.2174101620912552,1.117327094078064,0.3428250849246979,-0.24208785593509674,-0.57940567,0.93218035,343.40985,-105.80234499999999,15.599777,JUM
131040650000000.0,3.066232919692993,0.190376877784729,1.2326579093933105,0.3185221254825592,-0.30616191029548645,-0.23518312,0.95539325,343.4843,-105.86436499999999,15.738477,JUM
131040660000000.0,3.0712337493896484,0.16896438598632812,1.3974132537841797,0.31026768684387207,-0.34657225012779236,0.010690141499999998,0.9841039,343.48,-105.96403500000001,15.892673499999999,JUM
131040670000000.0,3.0762276649475098,0.16048279404640198,1.6103129386901855,0.30273711681365967,-0.36270809173583984,0.10231992599999999,1.0454959000000001,343.4576,-105.98751999999999,15.927864000000001,JUM
131040670000000.0,3.0812294483184814,0.18027302622795105,1.8798706531524658,0.2688184380531311,-0.3578489422798157,0.16004670000000001,1.1551461,343.37987999999996,-106.047905,15.992269,JUM
131040680000000.0,3.0862221717834473,0.2275320291519165,2.2111899852752686,0.20417970418930054,-0.33718299865722656,0.22968534,1.2198978999999999,343.30905,-106.10706,16.053669,JUM
131040680000000.0,3.0912230014801025,0.3083605468273163,2.635239362716675,0.09071110934019089,-0.3135327994823456,0.45204028,1.3994923000000001,343.18158,-106.236084,16.183101999999998,JUM
131040685000000.0,3.096226215362549,0.41939157247543335,3.140918016433716,-0.06441479176282883,-0.29467517137527466,0.7761043000000001,1.6468927,343.03662,-106.43597,16.374441,JUM
131040690000000.0,3.101226806640625,0.5567617416381836,3.714611768722534,-0.251650333404541,-0.29334402084350586,1.1181888999999998,1.9080375,342.82434,-106.686325,16.623165,JUM
131040690000000.0,3.106222152709961,0.7222889065742493,4.348209381103516,-0.45673254132270813,-0.316011518239975,1.3607023,2.1429152,342.6408,-106.9998,16.932194,JUM
131040700000000.0,3.1112611293792725,0.9643476009368896,5.0118279457092285,-0.5351577401161194,-0.36419838666915894,1.1267409,2.3493876,342.49838,-107.36628,17.303734,JUM
131040700000000.0,3.116257667541504,1.2619715929031372,5.6827287673950195,-0.5192930102348328,-0.4361865520477295,-0.31734450000000003,2.431549,342.74435,-107.75788999999999,17.695992,JUM
131040710000000.0,3.121256113052368,1.6602649688720703,6.345746994018555,-0.3651803731918335,-0.5085378289222717,-3.148705,2.2015583999999997,343.47052,-108.11067,18.039194000000002,JUM
131040710000000.0,3.1262526512145996,2.139111042022705,6.997656345367432,-0.15088610351085663,-0.5269153714179993,-5.3887477,1.557401,344.17725,-108.56631499999999,18.489218,JUM
131040720000000.0,3.1312527656555176,2.6458895206451416,7.627034664154053,-0.14177417755126953,-0.46658918261528015,-5.6532526,0.8949176,345.1195,-108.930725,18.825909,JUM
131040730000000.0,3.136270046234131,3.183213710784912,8.235507011413574,-0.3144975006580353,-0.3529466986656189,-4.736344,0.63071835,346.00417999999996,-109.55138999999998,19.42911,JUM
131040730000000.0,3.141266107559204,3.768866777420044,8.818222045898438,-0.17631541192531586,-0.21855172514915466,-4.334089,0.59986967,347.10352,-110.03528999999999,19.8512,JUM
131040736000000.0,3.1462743282318115,4.368091106414795,9.376747131347656,0.21476976573467255,-0.09110743552446365,-4.535369,0.60994893,348.40432999999996,-110.582695,20.232882999999998,JUM
131040736000000.0,3.1512749195098877,4.780768871307373,9.908727645874023,0.4509664475917816,-0.01762675866484642,-3.0686815,0.6243043,349.06032999999996,-111.08318,20.598692,JUM
131040740000000.0,3.1562705039978027,5.015354156494141,10.41541576385498,0.5369298458099365,-0.006139657460153103,-0.24648413,0.6075055,348.86422999999996,-111.67286000000001,21.220568,JUM
131040750000000.0,3.1612703800201416,5.074842929840088,10.896910667419434,0.45856061577796936,-0.02117827534675598,2.1618521,0.5006041,348.35938,-112.18977,21.799448,JUM
131040750000000.0,3.1662657260894775,4.980654239654541,11.354374885559082,0.25078898668289185,-0.038703467696905136,3.5802812999999993,0.24770586,347.66812000000004,-112.282776,21.954935,JUM
131040760000000.0,3.1712646484375,4.788480281829834,11.788223266601562,0.07494542747735977,-0.054285500198602676,4.106236,-0.14569137,346.52643,-112.2941,22.061407,JUM
131040760000000.0,3.1762592792510986,4.510512828826904,12.199671745300293,-0.06621231883764267,-0.067197784781456,3.8967093999999998,-0.6059783000000001,345.5624,-111.89317,21.703794,JUM
131040770000000.0,3.1812937259674072,4.186590194702148,12.589774131774902,-0.10651340335607529,-0.07571069896221161,3.2305607999999997,-0.97066486,344.59225,-111.438484,21.28555,JUM
131040780000000.0,3.186291456222534,3.8382232189178467,12.959505081176758,-0.07805121690034866,-0.07441046088933945,2.8118126,-1.0769554,343.7175,-110.76411399999999,20.6387,JUM
131040780000000.0,3.1912896633148193,3.505944013595581,13.30978012084961,-0.01716209389269352,-0.06598492711782455,1.9834794999999998,-1.2147056,343.18402000000003,-110.014496,19.8998,JUM
131040790000000.0,3.1963014602661133,3.1908187866210938,13.640880584716797,0.07250846177339554,-0.04173106327652931,1.2128729999999999,-1.2892311,342.81155,-109.22838600000001,19.121084,JUM
131040790000000.0,3.2013001441955566,2.916532278060913,13.944669723510742,0.14358042180538177,-0.0042991917580366135,0.3454443,-1.4184291,342.73273,-108.42132,18.307238,JUM
131040794000000.0,3.206308126449585,2.6829564571380615,14.221779823303223,0.19586768746376038,0.04005781561136246,-0.5195409000000001,-1.5861117,342.87952,-107.61747,17.487284,JUM
