timestamp,rel_time,acc_x,acc_y,acc_z,gyro_x,gyro_y,gyro_z,azimuth,pitch,roll,label
0.0,0.0,0.0,0.0,0.0,0.0,0.025350908,0.014966198,8.645266000000001,-116.673294,1.7654398999999998,STD
27551316000.0,1.475174485676689e-05,0.0027714758180081844,0.029206575825810432,-0.004744182340800762,-5.6640546972630545e-05,0.025961772999999997,0.005497787,8.647191000000001,-117.860596,1.6156843,STD
82243900000.0,7.402680785162374e-05,0.008189593441784382,0.08726737648248672,-0.014061745256185532,-0.00016180277452804148,0.035124752999999995,0.0070249503,8.644051,-119.00628999999999,1.4728366000000002,STD
163272440000.0,0.00020623252203222364,0.01614212989807129,0.17339777946472168,-0.027642320841550827,-0.0003609790001064539,0.03481932,0.0070249503,8.63838,-120.1137,1.3304795,STD
269464880000.0,0.00043791969073936343,0.02654973790049553,0.2862192690372467,-0.04498511552810669,-0.0005861634272150695,0.030848695,0.0061086523,8.625584,-121.18422,1.1842593000000001,STD
399323040000.0,0.000794215127825737,0.03935156390070915,0.42388445138931274,-0.06544468551874161,-0.0008837097557261586,0.028099801,-0.0033597588,8.608571000000001,-122.21773999999999,1.040843,STD
551072500000.0,0.0012970565585419536,0.05428780987858772,0.5845309495925903,-0.08884182572364807,-0.0012892732629552484,0.032070424,0.0033597588,8.585278500000001,-123.21235,0.9011582,STD
722718800000.0,0.001964650582522154,0.07109050452709198,0.7660568952560425,-0.11493895202875137,-0.0018024955643340945,0.029321532999999997,-0.00580322,8.558074000000001,-124.17523,0.75887686,STD
912107300000.0,0.0028126253746449947,0.08978074789047241,0.9664878845214844,-0.14465612173080444,-0.002280178712680936,0.024740042,-0.0061086523,8.530741,-125.10571000000002,0.6260066999999999,STD
1116982600000.0,0.0038533960469067097,0.11035057157278061,1.1837184429168701,-0.17879365384578705,-0.002834622748196125,0.018020526000000002,-0.005192355,8.501355,-126.00514,0.4950924,STD
1335046400000.0,0.005096456967294216,0.13262943923473358,1.415381669998169,-0.2173098623752594,-0.0032684181351214647,0.019547688,-0.0076358155,8.46894,-126.87894399999999,0.3678197,STD
1564009600000.0,0.00654641492292285,0.15643370151519775,1.6591042280197144,-0.2600850760936737,-0.003839320270344615,0.018936822,-0.00580322,8.43788,-127.72298,0.24463248,STD
1801638200000.0,0.008206366561353207,0.18148215115070343,1.9121239185333252,-0.30549269914627075,-0.004412847571074963,0.007330383,-0.005192355,8.415069,-128.53983,0.12913357,STD
2045793300000.0,0.010077417828142643,0.20750412344932556,2.171807050704956,-0.3520045876502991,-0.00494174100458622,0.0070249503,-0.002443461,8.389113,-129.33139,0.020121738,STD
2294460400000.0,0.012155831791460514,0.23398098349571228,2.435872793197632,-0.3972327709197998,-0.0051412275061011314,0.00061086525,-0.0018325957999999999,8.36395,-130.1138,-0.08461775,STD
2545774000000.0,0.014438209123909473,0.26006582379341125,2.7020745277404785,-0.4367099106311798,-0.005509296432137489,0.0076358155,-0.013133603,8.332751,-130.86888000000002,-0.1854502,STD
2798031500000.0,0.016917206346988678,0.2859463095664978,2.9687182903289795,-0.4736412465572357,-0.005439507309347391,0.018020526000000002,-0.007941248,8.311475999999999,-131.60586999999998,-0.2732188,STD
3049703000000.0,0.019588304683566093,0.31255555152893066,3.2345454692840576,-0.5181781649589539,-0.005297965835779905,0.01740966,-0.006414085,8.286827,-132.31656999999998,-0.36192495,STD
3299435000000.0,0.02243971824645996,0.33935511112213135,3.498070240020752,-0.5666283369064331,-0.005702195223420858,0.01160644,-0.016798794,8.259922,-132.99136000000001,-0.45118213,STD
3546046800000.0,0.025465071201324463,0.36545416712760925,3.757936477661133,-0.6120966672897339,-0.0056554460898041725,0.027183502999999998,-0.013744468000000001,8.2305765,-133.65344,-0.5303486999999999,STD
3788525300000.0,0.0286555178463459,0.3906624913215637,4.01324462890625,-0.6537032723426819,-0.005570263136178255,0.04428773,-0.011911871999999999,8.2008915,-134.31563,-0.60573936,STD
4026017500000.0,0.031997837126255035,0.41450414061546326,4.263980865478516,-0.6880075931549072,-0.005379822105169296,0.045814894,-0.016798794,8.169283,-134.96123,-0.67915314,STD
4257818300000.0,0.0354824960231781,0.4369068443775177,4.509402275085449,-0.7148961424827576,-0.005862971767783165,0.05497787,-0.010690141499999998,8.134848,-135.57841000000002,-0.7438153000000001,STD
4483359000000.0,0.03910188004374504,0.4593174457550049,4.749288558959961,-0.744455873966217,-0.006041035987436771,0.06047566,-0.008552114,8.098134,-136.1839,-0.8080638000000001,STD
4702195400000.0,0.04284504055976868,0.4823302924633026,4.983311653137207,-0.7809591889381409,-0.006072439253330231,0.06352998,-0.0061086523,8.060541,-136.7663,-0.86717296,STD
4913992600000.0,0.04670241102576256,0.5047092437744141,5.210841655731201,-0.8172758221626282,-0.006174562498927116,0.06994407,-0.009773844,8.021809,-137.31659,-0.92666346,STD
5118514700000.0,0.05066623166203499,0.525653064250946,5.43144416809082,-0.8487907648086548,-0.0066511123441159725,0.0693332,-0.00580322,7.985434,-137.84967,-0.9826998,STD
5315611000000.0,0.054753437638282776,0.5448528528213501,5.644287109375,-0.8767961859703064,-0.0072133163921535015,0.07238753,-0.00580322,7.95856413541667,-138.144716992188,-1.01061753815104,STD
5505205000000.0,0.058900799602270126,0.5623976588249207,5.848823070526123,-0.9027087092399597,-0.007873033173382282,0.07788532,-0.0018325957999999999,7.937106,-138.38034,-1.0329125,STD
5687284000000.0,0.06312886625528336,0.5781970620155334,6.045018196105957,-0.9264274835586548,-0.008191492408514023,0.070249505,-0.0070249503,7.890299300000001,-138.89615,-1.0853078,STD
5861889000000.0,0.06743327528238297,0.5922773480415344,6.232921600341797,-0.9479831457138062,-0.008587674237787724,0.07086037,-0.004276057,7.846562,-139.38965,-1.1305146000000001,STD
6029106000000.0,0.07180330902338028,0.6048831343650818,6.412511348724365,-0.9682573676109314,-0.009058577939867973,0.06719518,0.007330383,7.801572999999999,-139.86427,-1.1770288,STD
6189057300000.0,0.07623597979545593,0.6162126660346985,6.583812236785889,-0.9880149364471436,-0.010307302698493004,0.07147124,0.00580322,7.7524055999999995,-140.32034,-1.2213618,STD
6341896700000.0,0.08072185516357422,0.6263161897659302,6.747014045715332,-1.0072550773620605,-0.010990806855261326,0.081855945,0.005497787,7.7198477,-140.77649,-1.2605680000000001,STD
6487800300000.0,0.08526021242141724,0.6352224349975586,6.902317523956299,-1.025991439819336,-0.011798590421676636,0.08246681,0.006414085,7.687899000000001,-141.21108999999998,-1.2993663999999998,STD
6626963600000.0,0.08984380960464478,0.6431466341018677,7.049871444702148,-1.0430988073349,-0.012803140096366405,0.08643743400000001,0.008857545999999999,7.6510043,-141.63904,-1.3351479,STD
6759596000000.0,0.09446851164102554,0.6502658724784851,7.189850807189941,-1.057671308517456,-0.013729195110499859,0.0983493,0.011911871999999999,7.612704300000001,-142.05498,-1.3670499,STD
6885916300000.0,0.09913164377212524,0.6567009687423706,7.3229756355285645,-1.0705363750457764,-0.014910155907273293,0.10476339,0.010995574,7.575457000000001,-142.45819,-1.4016695,STD
7006150700000.0,0.10382834821939468,0.6627230644226074,7.450716018676758,-1.08370840549469,-0.01638161949813366,0.112704635,0.009773844,7.536343,-142.84944,-1.4312022,STD
7120529000000.0,0.10855522751808167,0.6683485507965088,7.573266506195068,-1.0971680879592896,-0.01729034259915352,0.11545353400000001,0.00580322,7.510009299999999,-143.23033,-1.453131,STD
7229281400000.0,0.11331252753734589,0.6735925078392029,7.690837860107422,-1.110909342765808,-0.018853336572647095,0.1282817,0.01160644,7.482187,-143.59236,-1.468518,STD
7332639000000.0,0.1181180477142334,0.6784629821777344,7.803709983825684,-1.1249890327453613,-0.020848415791988373,0.12797627,0.016493361,7.454664999999999,-143.94812,-1.486181,STD
7430830000000.0,0.12291824072599411,0.6829302906990051,7.911348342895508,-1.1390354633331299,-0.02322261594235897,0.13683382,0.01282817,7.4224215,-144.29058999999998,-1.4983631000000002,STD
7524078600000.0,0.1277395486831665,0.6869267225265503,8.013486862182617,-1.1529489755630493,-0.025333363562822342,0.13561209,0.016187929,7.3943405,-144.62425,-1.5101619,STD
7612605700000.0,0.13257811963558197,0.6904760003089905,8.110371589660645,-1.1667289733886719,-0.02698470652103424,0.14569137,0.027183502999999998,7.3625693,-144.93848,-1.5161916000000002,STD
7696625400000.0,0.1374330073595047,0.6935985684394836,8.202240943908691,-1.1803812980651855,-0.028407523408532143,0.14935656,0.025961772999999997,7.32972,-145.24329,-1.5246075000000001,STD
7776347000000.0,0.14230090379714966,0.696316659450531,8.289328575134277,-1.193906307220459,-0.030432619154453278,0.14782938,0.03145956,7.2980113,-145.54146,-1.5299841,STD
7851972500000.0,0.1471846103668213,0.698646068572998,8.371858596801758,-1.2073173522949219,-0.032546792179346085,0.13958271,0.03848451,7.266603,-145.83423,-1.5352886000000001,STD
7923697700000.0,0.15207603573799133,0.700851559638977,8.450157165527344,-1.2200989723205566,-0.03482583910226822,0.13439035,0.03848451,7.2373095,-146.11588,-1.5381733,STD
7991710400000.0,0.15698176622390747,0.7034507393836975,8.524657249450684,-1.231203317642212,-0.037583738565444946,0.13408493,0.04428773,7.211292299999999,-146.38695,-1.5393126,STD
8056192600000.0,0.16189689934253693,0.7061042785644531,8.595538139343262,-1.241044044494629,-0.04027918353676796,0.12980886,0.043676864,7.181871000000001,-146.6621,-1.5480423,STD
8117318300000.0,0.1668214201927185,0.7081275582313538,8.662975311279297,-1.2503724098205566,-0.04223642498254776,0.13225232,0.052839845,7.154988,-146.93018,-1.5521813999999998,STD
8175254000000.0,0.1717517077922821,0.7095577716827393,8.727136611938477,-1.2592140436172485,-0.043994493782520294,0.11911872,0.051923547,7.125672,-147.18213,-1.5618118,STD
8230160300000.0,0.17669115960597992,0.7104178071022034,8.788189888000488,-1.2675931453704834,-0.04595189169049263,0.119729586,0.052839845,7.096291000000001,-147.4284,-1.5653011000000001,STD
8282189000000.0,0.1816355586051941,0.7105185985565186,8.846468925476074,-1.2757132053375244,-0.04803340137004852,0.11545353400000001,0.06414085,7.063706,-147.66924,-1.5760108,STD
8331487000000.0,0.18658798933029175,0.7088801860809326,8.902926445007324,-1.284397840499878,-0.049584414809942245,0.11881329,0.06505715,7.027591,-147.90521,-1.5852896,STD
8378193000000.0,0.19154329597949982,0.7056474089622498,8.957347869873047,-1.293400764465332,-0.051297008991241455,0.12889257,0.07238753,7.006968,-148.13123000000002,-1.58735,STD
8422440000000.0,0.19650430977344513,0.7010785937309265,9.007649421691895,-1.3011764287948608,-0.05385994911193848,0.1255328,0.06994407,6.9855967,-148.34927,-1.5927438,STD
8464354500000.0,0.20146727561950684,0.69548499584198,9.054146766662598,-1.3079447746276855,-0.056887995451688766,0.1133155,0.06688975,6.96997,-148.55505,-1.5992007,STD
8504057300000.0,0.20643480122089386,0.6915572285652161,9.098075866699219,-1.3154981136322021,-0.05970754101872444,0.10048734,0.06811147,6.9553027,-148.7534,-1.6060133,STD
8541662300000.0,0.2114252895116806,0.689304769039154,9.139561653137207,-1.3238755464553833,-0.06247552111744881,0.07941248,0.063224554,6.947623700000001,-148.93849,-1.6196896,STD
8577279300000.0,0.21639876067638397,0.6884410977363586,9.17874813079834,-1.332867980003357,-0.06496722996234894,0.06383542,0.06811147,6.9437294000000005,-149.11975,-1.6332173,STD
8611011500000.0,0.22137102484703064,0.6889705657958984,9.215747833251953,-1.3425073623657227,-0.06774935871362686,0.04062254,0.061086524,6.935658,-149.29224,-1.6584306,STD
8642957400000.0,0.22635062038898468,0.6907549500465393,9.251331329345703,-1.352386474609375,-0.06970182806253433,0.029321532999999997,0.06261369,6.931609599999999,-149.4664,-1.6820202000000002,STD
8673211000000.0,0.2313317358493805,0.693633496761322,9.285980224609375,-1.3622175455093384,-0.07216828316450119,0.017715093,0.0580322,6.9280100000000004,-149.6268,-1.7126346999999997,STD
8701860000000.0,0.23631423711776733,0.6971023678779602,9.318568229675293,-1.3720169067382812,-0.07432517409324646,0.009773844,0.054367005999999996,6.9217414999999995,-149.7936,-1.7356866999999998,STD
8728990000000.0,0.24129784107208252,0.700639545917511,9.34791374206543,-1.3818011283874512,-0.07638388872146606,0.0018325957999999999,0.061391957000000004,6.918781299999999,-149.95145,-1.7600582999999999,STD
8754680000000.0,0.24628394842147827,0.7040039896965027,9.3731689453125,-1.3901190757751465,-0.07852841168642044,-0.008552114,0.059253927000000005,6.9125304000000005,-150.1038,-1.7846988000000001,STD
8779006000000.0,0.25127112865448,0.7069255113601685,9.393383979797363,-1.3953529596328735,-0.08039647340774536,-0.020463986,0.058337633,6.9097669999999995,-150.25359,-1.8098743999999998,STD
8802040000000.0,0.2562643885612488,0.7097851037979126,9.409453392028809,-1.3991175889968872,-0.08192138373851776,-0.030543262,0.057421334000000004,6.9046535,-150.39876,-1.8372317999999999,STD
8823850000000.0,0.26125410199165344,0.7128793597221375,9.422271728515625,-1.4027595520019531,-0.08354414999485016,-0.034513887,0.04795292,6.89818,-150.53864,-1.8666133999999999,STD
8844502000000.0,0.2662578821182251,0.7162215113639832,9.431852340698242,-1.4062904119491577,-0.08470658957958221,-0.046120327,0.04184427,6.892160400000001,-150.67678999999998,-1.9014161,STD
8864055000000.0,0.2712481915950775,0.719758927822113,9.438611030578613,-1.409708023071289,-0.08544938266277313,-0.058337633,0.03970624,6.885699000000001,-150.81021,-1.9372068999999998,STD
8882569000000.0,0.2762543261051178,0.7235234379768372,9.442436218261719,-1.4130269289016724,-0.08537187427282333,-0.064446285,0.028405233999999998,6.881696000000001,-150.94913,-1.9728096000000002,STD
8900098000000.0,0.28124555945396423,0.7274588942527771,9.443756103515625,-1.416243553161621,-0.08482672274112701,-0.06017022599999999,0.016493361,6.877544400000001,-151.08456,-2.008348,STD
8916695000000.0,0.2862453758716583,0.7315864562988281,9.442787170410156,-1.4193817377090454,-0.08341579139232635,-0.06658431,0.009773844,6.8791633,-151.22146999999998,-2.0449066000000005,STD
8932409000000.0,0.2912374436855316,0.7358334064483643,9.443225860595703,-1.4225789308547974,-0.08110375702381134,-0.069027774,-0.0015271631,6.875725,-151.35785,-2.0807984,STD
8947287000000.0,0.29624414443969727,0.7402222752571106,9.445113182067871,-1.4258512258529663,-0.07829649746417999,-0.069027774,-0.010079277,6.868816000000001,-151.50752,-2.1135612,STD
8961374000000.0,0.3012375235557556,0.744709849357605,9.448229789733887,-1.4291709661483765,-0.07515052706003189,-0.06627888,-0.019547688,6.8589234,-151.65775,-2.1469259999999997,STD
8974711000000.0,0.3062310814857483,0.7493076920509338,9.452576637268066,-1.4325467348098755,-0.07108181715011597,-0.06627888,-0.01985312,6.8513584000000005,-151.80438,-2.1781987999999997,STD
8987338000000.0,0.3112255334854126,0.7546453475952148,9.459066390991211,-1.4352983236312866,-0.06651374697685242,-0.06047566,-0.02687807,6.838682700000001,-151.94786000000002,-2.2085060000000003,STD
8999292000000.0,0.3162200152873993,0.7609919905662537,9.468055725097656,-1.4371274709701538,-0.061993636190891266,-0.062308256,-0.03023783,6.8280187,-152.09035,-2.2393131,STD
9010611000000.0,0.3212147653102875,0.7677333950996399,9.478281021118164,-1.43639075756073,-0.057600315660238266,-0.06261369,-0.035430185,6.813521400000001,-152.22745,-2.2663717,STD
9021327000000.0,0.32621169090270996,0.7746108174324036,9.4891996383667,-1.4324753284454346,-0.05280628800392151,-0.070249505,-0.028099801,6.8026752,-152.36443,-2.2935789,STD
9031473000000.0,0.3312079906463623,0.7818865180015564,9.500720024108887,-1.4270780086517334,-0.048121120780706406,-0.06536258,-0.0290161,6.7855495999999995,-152.49018999999998,-2.3151443,STD
9041078000000.0,0.33620399236679077,0.7897018790245056,9.512784957885742,-1.421156883239746,-0.04394588991999626,-0.0711658,-0.028405233999999998,6.7731832999999995,-152.61345,-2.339326,STD
9050172000000.0,0.3411996066570282,0.7980278134346008,9.525365829467773,-1.4147402048110962,-0.04025345295667648,-0.08735373,-0.021685716,6.764242599999999,-152.71563999999998,-2.3604182999999996,STD
9058782000000.0,0.3461970388889313,0.8068446516990662,9.538444519042969,-1.4078476428985596,-0.0368390828371048,-0.08460484,-0.021991148999999998,6.752014999999999,-152.81464,-2.3783038,STD
9066934000000.0,0.35119035840034485,0.8162524700164795,9.55189037322998,-1.400816798210144,-0.03332992270588875,-0.09407325,-0.01985312,6.7459817,-152.91133,-2.4015234,STD
9074651000000.0,0.35618895292282104,0.8267865777015686,9.565433502197266,-1.3947030305862427,-0.03033321723341942,-0.10262536,-0.02107485,6.738645599999999,-153.00177,-2.4236242999999997,STD
9081958000000.0,0.361185222864151,0.8382725119590759,9.578940391540527,-1.3899904489517212,-0.027626369148492813,-0.09437868,-0.018020526000000002,6.727442699999999,-153.08513,-2.4382884999999996,STD
9088875000000.0,0.3661830723285675,0.8505254983901978,9.59218692779541,-1.3878272771835327,-0.025421803817152977,-0.09040806,-0.011911871999999999,6.7185163,-153.16331,-2.4553213,STD
9095425000000.0,0.37120938301086426,0.8632945418357849,9.605060577392578,-1.3876988887786865,-0.023285867646336555,-0.08979719,-0.010690141499999998,6.706115700000001,-153.24008,-2.4663258,STD
9101625000000.0,0.37620577216148376,0.8749839663505554,9.616848945617676,-1.3867788314819336,-0.021182354539632797,-0.08460484,-0.01160644,6.6935970000000005,-153.31308,-2.474168,STD
9107496000000.0,0.3811996877193451,0.885607898235321,9.62756633758545,-1.385022521018982,-0.0197280365973711,-0.07299839999999999,-0.0018325957999999999,6.6845393,-153.38211,-2.4706001,STD
9113053000000.0,0.3861968219280243,0.895877480506897,9.638026237487793,-1.3823612928390503,-0.01849769614636898,-0.064446285,-0.005497787,6.671302000000001,-153.45193,-2.4681032000000003,STD
9118315000000.0,0.39119189977645874,0.9059761762619019,9.648430824279785,-1.3788381814956665,-0.017723549157381058,-0.047036625,0.0018325957999999999,6.6604867,-153.51547,-2.4575984,STD
9123297000000.0,0.396189421415329,0.9159193634986877,9.658790588378906,-1.3744826316833496,-0.016827886924147606,-0.038789943,-0.0018325957999999999,6.651097999999999,-153.58231999999998,-2.4478505,STD
9128013000000.0,0.4011836647987366,0.9257073998451233,9.669097900390625,-1.369360089302063,-0.015784630551934242,-0.0290161,-0.003970624,6.641149,-153.64543,-2.4322681,STD
9132479000000.0,0.40618085861206055,0.9354298710823059,9.679343223571777,-1.3637182712554932,-0.0151387769728899,-0.026572637000000003,-0.005192355,6.625642999999999,-153.70802,-2.4201267000000004,STD
9136707000000.0,0.41118109226226807,0.9451139569282532,9.689521789550781,-1.357657551765442,-0.014934258535504341,-0.014966198,-0.003970624,6.6074204,-153.76958,-2.4031072,STD
9140711000000.0,0.41617873311042786,0.9541677832603455,9.700358390808105,-1.3522371053695679,-0.015261497348546982,0.0033597588,0.0036651915999999997,6.5882883,-153.82336,-2.3812428,STD
9144500000000.0,0.4211769998073578,0.9622639417648315,9.7122802734375,-1.3480558395385742,-0.016433974727988243,0.0070249503,0.010079277,6.569090400000001,-153.87175,-2.3602645,STD
9148088000000.0,0.42617642879486084,0.9691674709320068,9.72407341003418,-1.3449852466583252,-0.017462586984038353,0.013744468000000001,0.01740966,6.548225,-153.91945,-2.3315928,STD
9151486000000.0,0.4311736226081848,0.9746308922767639,9.734434127807617,-1.3428823947906494,-0.018355000764131546,0.017104227,0.016798794,6.526355000000001,-153.96149,-2.3033287999999996,STD
9154703000000.0,0.43617138266563416,0.9792187213897705,9.743773460388184,-1.3405004739761353,-0.02014392614364624,0.018325957,0.027183502999999998,6.509073,-153.99487,-2.273373,STD
9157748000000.0,0.4412148892879486,0.983311653137207,9.752365112304688,-1.3367429971694946,-0.02204912155866623,0.021991148999999998,0.028405233999999998,6.4879627,-154.03172,-2.2434833,STD
9160632000000.0,0.44620978832244873,0.9870938658714294,9.760294914245605,-1.3322745561599731,-0.024357380345463753,0.03145956,0.03176499,6.4766449999999995,-154.0598,-2.208646,STD
9163361000000.0,0.4512050747871399,0.9909145832061768,9.767441749572754,-1.327564001083374,-0.02698211371898651,0.033292156,0.036957346,6.465968599999999,-154.08633,-2.1750326,STD
9165946000000.0,0.45620211958885193,0.9947730302810669,9.773845672607422,-1.3226218223571777,-0.02919026091694832,0.035124752999999995,0.040927973,6.4546328,-154.11246,-2.1402973999999997,STD
9168393000000.0,0.4612022042274475,0.9986684918403625,9.779544830322266,-1.3174577951431274,-0.03100402280688286,0.032375857,0.046731193,6.4447913,-154.13567,-2.1060302,STD
9170710000000.0,0.4662369191646576,1.00254225730896,9.784544944763184,-1.3121141195297241,-0.03355126455426216,0.03268129,0.053145275,6.4348493,-154.1539,-2.0705814,STD
9172904000000.0,0.4712319076061249,1.0054898262023926,9.789098739624023,-1.307595133781433,-0.036516185849905014,0.03176499,0.048258353,6.4233346,-154.17463999999998,-2.0374987,STD
9174981000000.0,0.4762304127216339,1.007430911064148,9.793197631835938,-1.303954005241394,-0.0394858717918396,0.040011674,0.052534412999999995,6.413139299999999,-154.19299999999998,-1.9993044999999998,STD
9176948000000.0,0.4812261760234833,1.0086276531219482,9.797094345092773,-1.3005765676498413,-0.0425577349960804,0.043676864,0.053450707,6.400857,-154.20767,-1.9641863999999998,STD
9178811000000.0,0.4862219989299774,1.0092964172363281,9.801015853881836,-1.29691481590271,-0.04572632908821106,0.03848451,0.05589417,6.3894696,-154.22116,-1.9291721999999998,STD
9180574000000.0,0.49121615290641785,1.009545922279358,9.80538558959961,-1.2933127880096436,-0.04906788840889931,0.052839845,0.04917465,6.3679194,-154.23901,-1.8974214,STD
9182244000000.0,0.4962119460105896,1.0095746517181396,9.811182022094727,-1.2905250787734985,-0.05265457555651665,0.058337633,0.044593163,6.348798,-154.25461,-1.8691148000000002,STD
9183825000000.0,0.5012056231498718,1.0093971490859985,9.818305969238281,-1.2884997129440308,-0.056375667452812195,0.062308256,0.043066,6.3296003,-154.2704,-1.8387650000000002,STD
9185322000000.0,0.5062022805213928,1.009780764579773,9.825634002685547,-1.286789059638977,-0.05978451296687126,0.055283304000000005,0.04184427,6.3094325,-154.28603999999999,-1.8107607,STD
9186740000000.0,0.5112291574478149,1.010927677154541,9.832963943481445,-1.2853001356124878,-0.062360603362321854,0.083383106,0.038789943,6.2829804000000005,-154.30267,-1.7734618999999998,STD
9188082000000.0,0.5162270069122314,1.0126451253890991,9.840218544006348,-1.2839958667755127,-0.06556443870067596,0.09254608,0.03604105,6.2597055,-154.30908,-1.7440823,STD
9189353000000.0,0.5212226510047913,1.0149693489074707,9.84743595123291,-1.2828774452209473,-0.06854870170354843,0.09254608,0.034208454,6.232916,-154.3231,-1.7104644,STD
9190557000000.0,0.5262195467948914,1.0176596641540527,9.85431957244873,-1.281103491783142,-0.07249706238508224,0.099265605,0.028405233999999998,6.2017794,-154.32661000000002,-1.6739619,STD
9191697000000.0,0.5312163233757019,1.020469069480896,9.860573768615723,-1.2778490781784058,-0.07641405612230301,0.118507855,0.025961772999999997,6.168857599999999,-154.33531000000002,-1.6343831,STD
9192776000000.0,0.5362133383750916,1.023348331451416,9.866477012634277,-1.27365243434906,-0.08043157309293747,0.12614368,0.024740042,6.133041,-154.31946000000002,-1.5902965,STD
9193797000000.0,0.5412101745605469,1.026257872581482,9.872249603271484,-1.2689443826675415,-0.08446287363767624,0.12950343,0.030848695,6.0957989999999995,-154.30358999999999,-1.5422122,STD
9194765000000.0,0.5462061166763306,1.0291955471038818,9.877898216247559,-1.2637543678283691,-0.0889955386519432,0.13133603,0.04184427,6.0576086,-154.28314,-1.4919708,STD
9195681000000.0,0.5512023568153381,1.03253173828125,9.88414192199707,-1.2561084032058716,-0.09390518069267273,0.13164146,0.043676864,6.017519999999999,-154.26266,-1.442149,STD
9196548000000.0,0.55619877576828,1.0363560914993286,9.891162872314453,-1.245539903640747,-0.09935076534748077,0.13164146,0.048258353,5.9798865,-154.238,-1.3908018999999998,STD
9197370000000.0,0.5611963868141174,1.04056978225708,9.898457527160645,-1.232899785041809,-0.10554789006710052,0.13408493,0.05375614,5.9414463,-154.20819,-1.3383378000000001,STD
9198149000000.0,0.566193699836731,1.0450652837753296,9.905489921569824,-1.2190974950790405,-0.11217978596687317,0.124005646,0.06872234,5.9072886,-154.17642,-1.2879336000000001,STD
9198886000000.0,0.5711901187896729,1.0498265027999878,9.912274360656738,-1.2041990756988525,-0.11954883486032486,0.13500121,0.08246681,5.867261,-154.12611,-1.23078,STD
9199584000000.0,0.5761926770210266,1.0548526048660278,9.918827056884766,-1.1882147789001465,-0.12737159430980682,0.13072516,0.09040806,5.831869,-154.07443,-1.1796222,STD
9200245000000.0,0.5811971426010132,1.060122013092041,9.92515754699707,-1.171229600906372,-0.13627496361732483,0.12950343,0.10354166,5.798643599999999,-154.01491000000001,-1.1231909,STD
9200871000000.0,0.5861936211585999,1.0656030178070068,9.9312744140625,-1.1533643007278442,-0.14597348868846893,0.12308934,0.10415252,5.7644825,-153.95381,-1.0705022,STD
9201464000000.0,0.5911898612976074,1.0712982416152954,9.9371919631958,-1.1346156597137451,-0.15650616586208344,0.12095132,0.11911872,5.735899400000001,-153.88493,-1.0143803,STD
9202026000000.0,0.5961830019950867,1.0771909952163696,9.94291877746582,-1.1150498390197754,-0.16690073907375336,0.12308934,0.12980886,5.7057385,-153.81633,-0.9600009,STD
9202558000000.0,0.6011759042739868,1.0833693742752075,9.948515892028809,-1.0941417217254639,-0.1767250895500183,0.13255776,0.14141529999999997,5.6780953,-153.74498,-0.90308774,STD
9203062000000.0,0.6061707139015198,1.0899618864059448,9.954062461853027,-1.0711264610290527,-0.186758354306221,0.15241088,0.17409660000000002,5.656093,-153.6694,-0.8397885,STD
9203539000000.0,0.6111634373664856,1.0971227884292603,9.958873748779297,-1.046528935432434,-0.19856829941272736,0.1337795,0.17623462,5.635274400000001,-153.57728999999998,-0.7772876999999999,STD
9203991000000.0,0.6161585450172424,1.1052190065383911,9.96158504486084,-1.0211350917816162,-0.21158820390701294,0.111177474,0.18539760000000002,5.6213512,-153.48611,-0.70715475,STD
9204419000000.0,0.6211508512496948,1.1135940551757812,9.963496208190918,-0.9965611696243286,-0.22552569210529327,0.09407325,0.20861048,5.615469999999999,-153.3686,-0.6330927,STD
9204825000000.0,0.6261484026908875,1.1212655305862427,9.966591835021973,-0.9753547310829163,-0.2407550811767578,0.07544186,0.23426682,5.6144986,-153.24251,-0.5652161,JUM
9205210000000.0,0.6311421990394592,1.1284552812576294,9.969886779785156,-0.9574096202850342,-0.2567354738712311,0.06963864,0.24312437,5.6129690000000005,-153.1004,-0.49338433,JUM
9205573000000.0,0.6361386179924011,1.135505199432373,9.971789360046387,-0.9428542256355286,-0.27251532673835754,0.061391957000000004,0.26511553,5.622987,-152.9565,-0.4236106,JUM
9205918000000.0,0.6411339640617371,1.14262056350708,9.9712553024292,-0.9313402771949768,-0.28869131207466125,0.07849618,0.30390546,5.6358356,-152.81958,-0.34991857,JUM
9206246000000.0,0.6461297869682312,1.1504194736480713,9.96490478515625,-0.9222996234893799,-0.3048679232597351,0.07422013,0.33750305,5.6558194,-152.68527,-0.28329334,JUM
9206555000000.0,0.6511276364326477,1.1582368612289429,9.952948570251465,-0.9157299399375916,-0.32086610794067383,0.06169739,0.35918877,5.6804657,-152.55951000000002,-0.21204454,JUM
9206849000000.0,0.6561262011528015,1.16477370262146,9.935582160949707,-0.9117318987846375,-0.33658140897750854,0.056199603,0.3817908,5.712337000000001,-152.43348999999998,-0.13773216,JUM
9207126000000.0,0.6611249446868896,1.1700998544692993,9.913104057312012,-0.910164475440979,-0.35168707370758057,0.05222898,0.39736784,5.751641,-152.3141,-0.058418832999999996,JUM
9207390000000.0,0.6661223769187927,1.17428457736969,9.885821342468262,-0.910885751247406,-0.3660528361797333,0.052534412999999995,0.4334089,5.800739,-152.19613999999999,0.02378421,JUM
9207639000000.0,0.6711199879646301,1.176713228225708,9.853543281555176,-0.9132875204086304,-0.3798157572746277,0.051923547,0.44959682,5.848129,-152.07993000000002,0.10164766,JUM
9207876000000.0,0.6761181950569153,1.174480676651001,9.814677238464355,-0.9150577187538147,-0.3938218653202057,0.048258353,0.4709771,5.905028,-151.96245,0.18160768,JUM
9208101000000.0,0.6811183094978333,1.1679564714431763,9.769364356994629,-0.9160579442977905,-0.408546507358551,0.069027774,0.48288897,5.967839,-151.87004,0.26612782,JUM
9208313000000.0,0.6861171126365662,1.1581677198410034,9.717178344726562,-0.9154568314552307,-0.4244397282600403,0.10354166,0.49388456,6.0331306,-151.77249,0.3529627,JUM
9208515000000.0,0.691115140914917,1.14577054977417,9.658875465393066,-0.9120811223983765,-0.44036492705345154,0.15485434,0.50671273,6.102447,-151.68973,0.43539350000000004,JUM
9208706000000.0,0.6961408257484436,1.1329503059387207,9.59582233428955,-0.8996729850769043,-0.4546438455581665,0.20219639,0.5225952,6.1698675000000005,-151.60823,0.5244199,JUM
9208887000000.0,0.7011383175849915,1.1201798915863037,9.530130386352539,-0.8796724677085876,-0.4678036868572235,0.24037547,0.5299255999999999,6.2365129999999995,-151.53694,0.6117626,JUM
9209059000000.0,0.7061364054679871,1.1094021797180176,9.46452808380127,-0.8455160856246948,-0.4798552691936493,0.25625798,0.5519168000000001,6.3059525,-151.47258,0.7062613,JUM
9209221000000.0,0.7111353278160095,1.100780725479126,9.399771690368652,-0.8000521063804626,-0.49159014225006104,0.23151793,0.5699373000000001,6.3889594,-151.39548,0.80588555,JUM
9209376000000.0,0.716133177280426,1.0955418348312378,9.33968448638916,-0.7545750737190247,-0.502748429775238,0.20922135,0.5830709,6.471860400000001,-151.32455,0.90858775,JUM
9209522000000.0,0.7211308479309082,1.09348726272583,9.284119606018066,-0.7092236280441284,-0.5138655304908752,0.17715092,0.60139686,6.560617,-151.16158000000001,1.0207484,JUM
9209662000000.0,0.7261317372322083,1.0941354036331177,9.234109878540039,-0.6658175587654114,-0.5246994495391846,0.13347405,0.6239988000000001,6.656517999999999,-151.00404,1.1233742,JUM
9209794000000.0,0.7311281561851501,1.0972700119018555,9.189286231994629,-0.6242663860321045,-0.5359326004981995,0.12217305,0.63071835,6.7514634000000004,-150.8151,1.2399895,JUM
9209919000000.0,0.7361263036727905,1.0996776819229126,9.145637512207031,-0.5881395936012268,-0.5472996234893799,0.10354166,0.6435465,6.858893400000001,-150.6307,1.3443614,JUM
9210037000000.0,0.7411232590675354,1.100976824760437,9.10260009765625,-0.5576139092445374,-0.560762882232666,0.09712757,0.6609562,6.96731,-150.43536,1.4471729,JUM
9210150000000.0,0.7461248636245728,1.1012052297592163,9.060103416442871,-0.5324706435203552,-0.5785220861434937,0.12003502,0.64996064,7.067603,-150.21962,1.557857,JUM
9210257000000.0,0.7511225342750549,1.100450873374939,9.018173217773438,-0.5123069286346436,-0.5991600155830383,0.16218472,0.63346726,7.1695839999999995,-150.00337,1.670718,JUM
9210359000000.0,0.7561236619949341,1.0966957807540894,8.972274780273438,-0.4997541308403015,-0.6220512390136719,0.24037547,0.59437186,7.253039,-149.76825,1.7897618000000002,JUM
9210456000000.0,0.7611249089241028,1.0894250869750977,8.921143531799316,-0.49530163407325745,-0.646538496017456,0.32925636,0.5561928,7.3231983,-149.52155,1.9159647000000002,JUM
9210547000000.0,0.7661640048027039,1.0805953741073608,8.862265586853027,-0.501086413860321,-0.6695905327796936,0.40622538,0.5186246,7.382333,-149.36096,2.0315237,JUM
9210634000000.0,0.7711611390113831,1.0714292526245117,8.798254013061523,-0.5144307613372803,-0.6882399916648865,0.48563787,0.4905248,7.4190416,-149.20658999999998,2.1616855,JUM
9210717000000.0,0.7761608362197876,1.0672974586486816,8.726800918579102,-0.5312752723693848,-0.7024122476577759,0.5363397,0.453262,7.441190700000001,-149.08373999999998,2.281396,JUM
9210795000000.0,0.7811606526374817,1.072662353515625,8.647493362426758,-0.5469570159912109,-0.7123783826828003,0.5354234,0.41355577,7.449563,-148.98113999999998,2.4000158,JUM
9210870000000.0,0.7861599922180176,1.0892740488052368,8.562813758850098,-0.5585249662399292,-0.7197461724281311,0.48716503,0.4071417,7.4572460000000005,-148.90695,2.5165222000000003,JUM
9210941000000.0,0.7911581993103027,1.1179444789886475,8.47436237335205,-0.5642988085746765,-0.724719226360321,0.42913285,0.41783184,7.458869,-148.85281,2.6242509999999997,JUM
9211008000000.0,0.796158492565155,1.1538299322128296,8.385029792785645,-0.5623253583908081,-0.7295737266540527,0.37048978,0.43554693,7.454726700000001,-148.81116,2.7477782000000004,JUM
9211072000000.0,0.8011581897735596,1.1940993070602417,8.296427726745605,-0.551893949508667,-0.7358623743057251,0.30940324,0.43982297,7.456510499999999,-148.77307,2.853358,JUM
9211133000000.0,0.8061572909355164,1.2361551523208618,8.221787452697754,-0.5287827253341675,-0.7436877489089966,0.23732115,0.4636467000000001,7.461264999999999,-148.73088,2.9898682,JUM
9211191000000.0,0.8111580610275269,1.278509497642517,8.168441772460938,-0.49074140191078186,-0.7524959444999695,0.19028452,0.4877759,7.469651700000001,-148.6839,3.115271,JUM
9211245000000.0,0.8161576986312866,1.3205395936965942,8.137067794799805,-0.44280239939689636,-0.7617462873458862,0.1554652,0.5195409000000001,7.490408,-148.6191,3.2560384,JUM
9211298000000.0,0.8211571574211121,1.361409068107605,8.129490852355957,-0.39148208498954773,-0.7697548866271973,0.12308934,0.5503895999999999,7.520577,-148.5586,3.3860867,JUM
9211348000000.0,0.8261562585830688,1.4034417867660522,8.145023345947266,-0.33743831515312195,-0.7757740616798401,0.12797627,0.5723807,7.5437207,-148.35286000000002,3.5502672,JUM
9211395000000.0,0.8311566710472107,1.4487730264663696,8.183141708374023,-0.2812395989894867,-0.7808864712715149,0.14905111,0.57787853,7.5705137,-148.15213,3.7091404999999997,JUM
9211440000000.0,0.83616703748703,1.5008705854415894,8.247859001159668,-0.21975864470005035,-0.7835940718650818,0.18325958,0.57543504,7.596989999999999,-147.9057,3.8823452000000005,JUM
9211483000000.0,0.8411656022071838,1.5618953704833984,8.339699745178223,-0.1510447859764099,-0.7839111089706421,0.21655174,0.5467244000000001,7.613014,-147.66943,4.053389,JUM
9211524000000.0,0.8461639285087585,1.6317647695541382,8.461816787719727,-0.07556616514921188,-0.7817370891571045,0.25167647,0.48380527,7.608142,-147.39283999999998,4.245327,JUM
9211563000000.0,0.8511633276939392,1.7099109888076782,8.617176055908203,0.005640215706080198,-0.7770583033561707,0.29168814,0.40103304,7.5831347000000004,-147.13539,4.4345784,JUM
9211601000000.0,0.8561625480651855,1.7948946952819824,8.806510925292969,0.09276417642831802,-0.7703337669372559,0.31826079999999995,0.32253686,7.511576700000001,-146.78757,4.6594973,JUM
9211636000000.0,0.8611633777618408,1.8848758935928345,9.032672882080078,0.1864386796951294,-0.760581910610199,0.32650748,0.2312125,7.41165,-146.46628,4.8700366,JUM
9211670000000.0,0.8661602139472961,1.9782156944274902,9.292983055114746,0.2851119935512543,-0.7470688223838806,0.30604348,0.116675265,7.261749000000001,-146.06476,5.0980067,JUM
9211702000000.0,0.8711599111557007,2.070643186569214,9.587686538696289,0.38521701097488403,-0.7282044291496277,0.2968805,0.017715093,7.090186,-145.70009,5.3134336,JUM
9211734000000.0,0.8761613368988037,2.162182569503784,9.914164543151855,0.48634573817253113,-0.7052016854286194,0.23487769,-0.06780604,6.883707000000001,-145.25047,5.5188537,JUM
9211763000000.0,0.8811609148979187,2.2527198791503906,10.262689590454102,0.5845931172370911,-0.6782974600791931,0.15485434,-0.13316862,6.665662299999999,-144.84476999999998,5.6999607,JUM
9211792000000.0,0.8861570358276367,2.3422834873199463,10.63183307647705,0.6800966262817383,-0.6470323204994202,0.06658431,-0.19058995,6.4330754,-144.39969,5.851943,JUM
9211819000000.0,0.8911561369895935,2.431513786315918,11.012369155883789,0.7686238884925842,-0.6108736395835876,-0.03145956,-0.22510384,6.2118397000000005,-144.00189,5.9715685999999994,JUM
9211845000000.0,0.8961539268493652,2.520458221435547,11.40142822265625,0.849702000617981,-0.5685520768165588,-0.12370021,-0.26236662,5.996846700000001,-143.65636999999998,6.058755000000001,JUM
9211870000000.0,0.9011538028717041,2.6044602394104004,11.786764144897461,0.9194463491439819,-0.5197449922561646,-0.17592919,-0.28771752,5.7786007,-143.30511,6.1251964999999995,JUM
9211894000000.0,0.9061707854270935,2.6824722290039062,12.166193962097168,0.976898193359375,-0.4657421410083771,-0.19761491,-0.32895094,5.567139599999999,-143.00613,6.166383000000001,JUM
9211917000000.0,0.9111701250076294,2.7523574829101562,12.532231330871582,1.023795247077942,-0.40724360942840576,-0.21227567,-0.364992,5.3691926,-142.76096,6.198966,JUM
9211939000000.0,0.916169285774231,2.813028573989868,12.883153915405273,1.0602325201034546,-0.34579119086265564,-0.20036379999999998,-0.41355577,5.165424,-142.56274,6.222525599999999,JUM
9211960000000.0,0.9211679100990295,2.863020658493042,13.207268714904785,1.0851889848709106,-0.2811028063297272,-0.19150625,-0.4700608,4.9767684999999995,-142.45012,6.2261940000000005,JUM
9211980000000.0,0.9261680841445923,2.902313709259033,13.50256061553955,1.0987716913223267,-0.21362760663032532,-0.16371189,-0.5335908,4.774842,-142.37631000000002,6.228098999999999,JUM
9211999000000.0,0.9311681985855103,2.9315202236175537,13.76990032196045,1.0994415283203125,-0.1468835324048996,-0.11636983,-0.55924714,4.579089,-142.3511,6.216836,JUM
9212017000000.0,0.9361670017242432,2.9512150287628174,14.010592460632324,1.0872069597244263,-0.07902484387159348,-0.046731193,-0.59315014,4.3611164,-142.37153999999998,6.207453299999999,JUM
9212035000000.0,0.941166341304779,2.963099241256714,14.22484302520752,1.0661711692810059,-0.012096770107746124,0.028405233999999998,-0.59681535,4.151862,-142.42377,6.1942900000000005,JUM
9212052000000.0,0.9461643695831299,2.968557596206665,14.413320541381836,1.0394566059112549,0.05316897854208946,0.06017022599999999,-0.64843345,3.9203854,-142.49553,6.1768136,JUM
9212068000000.0,0.951163649559021,2.968590021133423,14.57728385925293,1.0033717155456543,0.11645404994487762,0.074830994,-0.6936375,3.7049272000000006,-142.60143,6.1658974,JUM
9212084000000.0,0.9561624526977539,2.9640841484069824,14.718143463134766,0.9553481936454773,0.17708268761634827,0.07727446,-0.7150178,3.4792342000000005,-142.71173000000002,6.1588707000000005,JUM
9212099000000.0,0.9611614942550659,2.9541571140289307,14.836784362792969,0.8933071494102478,0.23527784645557404,0.07513642,-0.73273283,3.256211,-142.85449,6.1435737999999995,JUM
9212113000000.0,0.9661617875099182,2.938105583190918,14.934070587158203,0.8155974745750427,0.2904367446899414,0.084910266,-0.7443393,3.0262312999999996,-142.99443,6.133785700000001,JUM
9212127000000.0,0.9711609482765198,2.9158473014831543,15.008312225341797,0.7249652743339539,0.3415817618370056,0.10629055,-0.7302894,2.8042404999999997,-143.16103,6.1223564,JUM
9212141000000.0,0.9761610627174377,2.887101411819458,15.057062149047852,0.6240631937980652,0.3865991532802582,0.14049901,-0.71929383,2.5737696,-143.31152,6.118761,JUM
9212154000000.0,0.9811606407165527,2.8512797355651855,15.077909469604492,0.5166622400283813,0.42503416538238525,0.17715092,-0.70005155,2.3559265,-143.48587,6.112201,JUM
9212167000000.0,0.9861598014831543,2.8072264194488525,15.066234588623047,0.40805965662002563,0.45744919776916504,0.21807889999999996,-0.68539083,2.1315584,-143.63931000000002,6.1204123,JUM
9212180000000.0,0.9911578297615051,2.753422975540161,15.021697044372559,0.3017287850379944,0.48346513509750366,0.25259277,-0.6740898,1.9163883999999998,-143.80867,6.123685,JUM
9212191000000.0,0.996158242225647,2.686023712158203,14.941038131713867,0.2046961635351181,0.5031300187110901,0.26969699999999996,-0.6728681,1.69688,-143.95108000000002,6.137478,JUM
9212203000000.0,1.0011552572250366,2.6056549549102783,14.824986457824707,0.11906488984823227,0.5153824687004089,0.26389378,-0.6774496,1.4903581,-144.1018,6.1380215,JUM
9212214000000.0,1.0061548948287964,2.510758876800537,14.666049003601074,0.05571705102920532,0.520601212978363,0.20311269,-0.6774496,1.290549,-144.22221000000002,6.1348314,JUM
9212225000000.0,1.0111536979675293,2.4032986164093018,14.467896461486816,0.013878339901566505,0.519681990146637,0.08521569999999999,-0.6927211999999999,1.1172874,-144.36737,6.078885,JUM
9212235000000.0,1.016157865524292,2.2857272624969482,14.233309745788574,-0.005738311912864447,0.5130658745765686,-0.040011674,-0.69974613,0.9570991,-144.47617,6.013165,JUM
9212246000000.0,1.0211540460586548,2.161560297012329,13.965408325195312,-0.008177435956895351,0.5015122294425964,-0.1151481,-0.6939429,0.8254593000000001,-144.60266000000001,5.8977512999999995,JUM
9212256000000.0,1.0261564254760742,2.035818099975586,13.660837173461914,-0.0005020422977395356,0.4888163208961487,-0.25992316,-0.6921103,0.7247051,-144.71497,5.7409596,JUM
9212265000000.0,1.031153917312622,1.9093834161758423,13.308806419372559,0.009237615391612053,0.4728741943836212,-0.38331795,-0.6881397,0.6468632,-144.83331,5.542675,JUM
9212275000000.0,1.036153793334961,1.7834537029266357,12.868135452270508,0.000717878807336092,0.4553888738155365,-0.48075095,-0.6921103,0.58890635,-144.94894,5.3220019999999995,JUM
9212284000000.0,1.0411536693572998,1.6596453189849854,12.35009479522705,-0.025474293157458305,0.43509161472320557,-0.5338961999999999,-0.6924158,0.54882705,-145.10088000000002,5.0758095,JUM
9212294000000.0,1.0461536645889282,1.5493232011795044,11.799522399902344,-0.07225987315177917,0.4128647446632385,-0.52931476,-0.7031059000000001,0.51389277,-145.24243,4.824539700000001,JUM
9212302000000.0,1.0511544942855835,1.4527450799942017,11.2210054397583,-0.13810013234615326,0.3896086812019348,-0.48655418,-0.7162395,0.47612378,-145.57031,4.577823599999999,JUM
9212311000000.0,1.0561540126800537,1.3729805946350098,10.62863826751709,-0.21979328989982605,0.36580148339271545,-0.41386122,-0.71868294,0.4332684,-145.88266000000002,4.345715,JUM
9212319000000.0,1.0611538887023926,1.310055136680603,10.024946212768555,-0.3136115074157715,0.3415376543998718,-0.33322698,-0.7110472,0.35635382,-146.13835,4.138013,JUM
9212327000000.0,1.0661540031433105,1.2679187059402466,9.422459602355957,-0.40164920687675476,0.3176228106021881,-0.24678956,-0.6844745,0.27066267,-146.39217,3.9561943999999998,JUM
9212336000000.0,1.0711535215377808,1.2449021339416504,8.825980186462402,-0.48170363903045654,0.29579633474349976,-0.16065755,-0.62796944,0.14776944,-146.56396,3.8195071000000005,JUM
9212343000000.0,1.0761545896530151,1.2378426790237427,8.256209373474121,-0.54301518201828,0.27648407220840454,-0.08307768,-0.5393939999999999,0.026177863,-146.74016,3.713049,JUM
9212350000000.0,1.0811558961868286,1.2448279857635498,7.714858531951904,-0.5854741334915161,0.26013800501823425,-0.024129177,-0.40775254,359.88333,-146.9185,3.6913252,JUM
9212358000000.0,1.0861554145812988,1.2602137327194214,7.215516567230225,-0.6044697761535645,0.2456071674823761,0.038789943,-0.24037547,359.75777999999997,-147.10676999999998,3.7106307000000003,JUM
9212365000000.0,1.0911985635757446,1.2830017805099487,6.759954452514648,-0.599389910697937,0.23175305128097534,0.112704635,-0.057421334000000004,359.63167999999996,-147.29291,3.8213877999999997,JUM
9212372000000.0,1.0961952209472656,1.3049898147583008,6.34566068649292,-0.5827703475952148,0.2160654366016388,0.17043139999999998,0.12034045,359.53864,-147.47932,3.9708383,JUM
9212380000000.0,1.1012085676193237,1.3255923986434937,5.97472620010376,-0.5527862906455994,0.19716079533100128,0.20250183,0.27916542,359.4645,-147.60776,4.189902,JUM
9212387000000.0,1.1062047481536865,1.3376436233520508,5.638932704925537,-0.5195088982582092,0.17473852634429932,0.23304509,0.41966440000000005,359.42163,-147.72765,4.4495214999999995,JUM
9212394000000.0,1.1112306118011475,1.3396354913711548,5.3379902839660645,-0.4828833043575287,0.1490512192249298,0.24068089999999998,0.5320636,359.40878,-147.77577,4.732097,JUM
9212402000000.0,1.1162294149398804,1.327663779258728,5.054009914398193,-0.450981080532074,0.12183548510074615,0.25350907,0.61422503,359.41797,-147.81413,5.042306,JUM
9212408000000.0,1.1212425231933594,1.300110936164856,4.785912036895752,-0.4238579273223877,0.09423081576824188,0.27000242,0.68539083,359.4632,-147.80796999999998,5.3392153,JUM
9212414000000.0,1.1262404918670654,1.2581089735031128,4.525486946105957,-0.3975600600242615,0.0672345757484436,0.2764165,0.7098253999999999,359.51672,-147.7953,5.643326999999999,JUM
9212421000000.0,1.1312365531921387,1.201636791229248,4.27199649810791,-0.3720127046108246,0.041823532432317734,0.28741209999999995,0.74036866,359.60927999999996,-147.78712,5.903439499999999,JUM
9212427000000.0,1.1362318992614746,1.1309092044830322,4.02482795715332,-0.345713347196579,0.01667613349854946,0.27855456,0.7452555999999999,359.70364,-147.77039,6.1601186,JUM
9212433000000.0,1.141227126121521,1.046379804611206,3.783510684967041,-0.3178870379924774,-0.008514665998518467,0.2724459,0.729984,359.7985,-147.75592,6.4216175,JUM
9212440000000.0,1.14622163772583,0.9527977705001831,3.5511839389801025,-0.2870330214500427,-0.03475574776530266,0.25625798,0.6985244,359.92578,-147.69917,6.6040177,JUM
9212446000000.0,1.1512178182601929,0.853803813457489,3.330171823501587,-0.25195711851119995,-0.06120982766151428,0.25900686,0.659429,0.045513995,-147.64015,6.7858806,JUM
9212452000000.0,1.1562131643295288,0.7575580477714539,3.1255083084106445,-0.21789753437042236,-0.08823993057012558,0.2773328,0.6065891999999999,0.18360071,-147.5742,6.888308500000001,JUM
9212458000000.0,1.1612119674682617,0.6685705184936523,2.9397947788238525,-0.18778209388256073,-0.11438295990228653,0.3051272,0.5540548000000001,0.31029677,-147.50734,6.98665,JUM
9212465000000.0,1.166209101676941,0.590559720993042,2.7806711196899414,-0.1636902242898941,-0.13753756880760193,0.3390302,0.5149594,0.43736216,-147.43063,7.044048299999999,JUM
9212471000000.0,1.171205759048462,0.5280628204345703,2.6576075553894043,-0.14818288385868073,-0.15563303232192993,0.37904188,0.48716503,0.5488687,-147.36234,7.1017594,JUM
9212477000000.0,1.1762038469314575,0.4812481105327606,2.5761680603027344,-0.14262710511684418,-0.16893896460533142,0.38789943,0.46914452,0.6480703,-147.2881,7.159506299999999,JUM
9212484000000.0,1.1812019348144531,0.4499155580997467,2.5395584106445312,-0.14780814945697784,-0.17948482930660248,0.38912117,0.46975538,0.73971146,-147.22537,7.222167,JUM
9212490000000.0,1.18619966506958,0.4336123764514923,2.551301956176758,-0.16213056445121765,-0.18871992826461792,0.4166101,0.4896085,0.80183595,-147.39261000000002,7.286322999999999,JUM
9212495000000.0,1.1911965608596802,0.4318253993988037,2.613417625427246,-0.18430908024311066,-0.19754424691200256,0.45906523,0.5103779,0.86223274,-147.56511,7.352591,JUM
9212500000000.0,1.1961919069290161,0.4451236128807068,2.7294914722442627,-0.21700192987918854,-0.20633777976036072,0.5177083,0.52626044,0.8852581,-148.17421000000002,7.383014999999999,JUM
9212506000000.0,1.2011898756027222,0.4748140573501587,2.906251907348633,-0.2640324831008911,-0.2139953076839447,0.59437186,0.5534439,0.9080615,-148.7505,7.4342976,JUM
9212511000000.0,1.20618736743927,0.5226088762283325,3.147965908050537,-0.3278718888759613,-0.21914497017860413,0.68325275,0.6041456999999999,0.9018603999999999,-149.16574,7.55625,JUM
9212516000000.0,1.2111858129501343,0.5915655493736267,3.4632041454315186,-0.4125449061393738,-0.22024384140968323,0.7996226,0.65148777,0.88540214,-149.56781,7.7060804,JUM
9212521000000.0,1.2161827087402344,0.6775683164596558,3.8496243953704834,-0.5013484358787537,-0.21833795309066772,0.8689558000000001,0.6921103,0.8393586,-149.78831,7.925716,JUM
9212527000000.0,1.2211811542510986,0.7768110036849976,4.30714750289917,-0.5767422914505005,-0.21547560393810272,0.95111716,0.69058317,0.77204174,-150.00441,8.173302,JUM
9212532000000.0,1.2261794805526733,0.8880734443664551,4.829205513000488,-0.6359086036682129,-0.213107630610466,0.8866709,0.66553766,0.6590491999999999,-150.00848,8.462848,JUM
9212537000000.0,1.2311780452728271,1.0097200870513916,5.406913757324219,-0.6707139611244202,-0.21312840282917023,0.68569624,0.6221663000000001,0.5432089,-150.00655,8.728995,JUM
9212542000000.0,1.23617422580719,1.1387735605239868,6.018404006958008,-0.6910125017166138,-0.2147432416677475,0.4538729,0.6020076999999999,0.36376733,-149.79314,9.016997,JUM
9212548000000.0,1.2411725521087646,1.2716587781906128,6.6356611251831055,-0.7099802494049072,-0.21654874086380005,0.3277292,0.59437186,0.18830758,-149.58945,9.271291,JUM
9212553000000.0,1.2461684942245483,1.4065479040145874,7.241634845733643,-0.7178491950035095,-0.21654890477657318,0.31795537,0.61666846,359.95697,-149.21698,9.537827,JUM
9212558000000.0,1.25116765499115,1.5405992269515991,7.80472993850708,-0.6950266361236572,-0.21565380692481995,0.3622431,0.65668017,359.74402000000003,-148.86893,9.783225999999999,JUM
9212563000000.0,1.2561662197113037,1.6737719774246216,8.327373504638672,-0.6435552835464478,-0.21693873405456543,0.31123585,0.6392705,359.5254,-148.45918,10.038163,JUM
9212569000000.0,1.2611664533615112,1.791846752166748,8.822127342224121,-0.539730966091156,-0.22199663519859314,0.20555615,0.5891795,359.3158,-148.07555,10.283617999999999,JUM
9212574000000.0,1.2661796808242798,1.8953708410263062,9.293858528137207,-0.3859640955924988,-0.23020324110984802,0.16065755,0.55680364,359.10977,-147.70956,10.524505,JUM
9212579000000.0,1.2711780071258545,2.00602126121521,9.769627571105957,-0.247394397854805,-0.2381189912557602,0.18081611,0.516792,358.8729,-147.34291000000002,10.796139,JUM
9212584000000.0,1.2762531042099,2.1279819011688232,10.259750366210938,-0.12573954463005066,-0.24253647029399872,0.2565634,0.4343252,358.60474,-146.79984,11.080088,JUM
9212590000000.0,1.2812482118606567,2.2599456310272217,10.732864379882812,-0.01200904231518507,-0.2417539358139038,0.35613444,0.31703907,358.31772,-146.28583,11.352821,JUM
9212595000000.0,1.2862428426742554,2.411029100418091,11.187646865844727,0.09538516402244568,-0.23573924601078033,0.44104472,0.19853121,358.00592,-145.80632,11.617674000000001,JUM
9212600000000.0,1.2912389039993286,2.5599615573883057,11.62193775177002,0.19816777110099792,-0.225064218044281,0.4896085,0.06963864,357.63199999999995,-145.36733999999998,11.903103,JUM
9212605000000.0,1.2962348461151123,2.697697401046753,12.035385131835938,0.29719847440719604,-0.2112956941127777,0.5235115,-0.08704830000000001,357.21732000000003,-144.96057,12.172029499999999,JUM
9212610000000.0,1.301243782043457,2.82311749458313,12.429152488708496,0.3919016718864441,-0.19393116235733032,0.5338961999999999,-0.25137106,356.73672,-144.60747,12.494985,JUM
9212616000000.0,1.3062381744384766,2.920611619949341,12.803417205810547,0.47315987944602966,-0.17306458950042725,0.5299255999999999,-0.41233405,356.2217,-144.28024,12.787429,JUM
9212621000000.0,1.311236023902893,2.9906680583953857,13.159253120422363,0.5416208505630493,-0.14631079137325287,0.516792,-0.5467244000000001,355.68703999999997,-143.97997,13.041072,JUM
9212626000000.0,1.3162323236465454,3.0401558876037598,13.496878623962402,0.6036694049835205,-0.115692637860775,0.5149594,-0.63407815,355.129,-143.69942,13.271975,JUM
9212631000000.0,1.3212329149246216,3.070084571838379,13.817261695861816,0.6597568988800049,-0.08423205465078354,0.4831944,-0.65668017,354.61188,-143.47601,13.409606,JUM
9212637000000.0,1.3262282609939575,3.0854687690734863,14.121049880981445,0.7123757004737854,-0.051111239939928055,0.41722095,-0.70096785,354.07874,-143.28592,13.522039999999999,JUM
9212642000000.0,1.3312431573867798,3.085853099822998,14.408882141113281,0.7613646984100342,-0.016434943303465843,0.31978795,-0.71593404,353.60242,-143.14165,13.584432999999999,JUM
9212647000000.0,1.3362380266189575,3.0735363960266113,14.675034523010254,0.8002705574035645,0.020641745999455452,0.22143865,-0.72082096,353.1321,-143.02425,13.63093,JUM
9212652000000.0,1.341231346130371,3.048307180404663,14.920218467712402,0.8291070461273193,0.05960024893283844,0.1432479,-0.72204274,352.6982,-142.92107,13.625138,JUM
9212658000000.0,1.3462259769439697,3.013914108276367,15.135526657104492,0.8457605242729187,0.10050304979085922,0.05681047,-0.71868294,352.2855,-142.84663,13.602685999999999,JUM
9212663000000.0,1.3512187004089355,2.9714441299438477,15.321274757385254,0.85062575340271,0.14148858189582825,-0.02443461,-0.7293731,351.88425,-142.78682,13.568594000000001,JUM
9212668000000.0,1.3562145233154297,2.926042079925537,15.465576171875,0.8392234444618225,0.18359418213367462,-0.061391957000000004,-0.75228053,351.5201,-142.76581000000002,13.490456,JUM
9212673000000.0,1.3612160682678223,2.878875255584717,15.56748104095459,0.811198890209198,0.2273949831724167,-0.044593163,-0.7715228,351.16052,-142.76242,13.413885,JUM
9212679000000.0,1.3662160634994507,2.8295228481292725,15.620074272155762,0.7727994322776794,0.2728331685066223,0.012217305,-0.79351395,350.8218,-142.80446,13.316166,JUM
9212684000000.0,1.371211051940918,2.7779452800750732,15.623010635375977,0.7264929413795471,0.31980523467063904,0.071776666,-0.82619524,350.47253,-142.86507,13.2272,JUM
9212689000000.0,1.3762098550796509,2.724475383758545,15.567087173461914,0.6778278946876526,0.36588549613952637,0.1160644,-0.8549059000000001,350.14597000000003,-142.99336,13.161654,JUM
9212694000000.0,1.3812071084976196,2.6694960594177246,15.451211929321289,0.6298493146896362,0.4088263511657715,0.12950343,-0.88056225,349.8054,-143.125,13.106158,JUM
9212700000000.0,1.3862040042877197,2.6149652004241943,15.287298202514648,0.5834408402442932,0.44669535756111145,0.1142318,-0.89858276,349.47647,-143.31802,13.0584755,JUM
9212705000000.0,1.3912014961242676,2.561342716217041,15.080057144165039,0.5387564897537231,0.4783303737640381,0.071776666,-0.904386,349.14435,-143.49425,13.013816,JUM
9212710000000.0,1.3962000608444214,2.5085768699645996,14.831704139709473,0.4957030117511749,0.5041287541389465,-0.0009162978999999999,-0.9104946,348.83218,-143.73071000000002,12.977484,JUM
9212715000000.0,1.4011973142623901,2.4566385746002197,14.544866561889648,0.45419982075691223,0.5241736769676208,-0.07544186,-0.8854492,348.53143,-143.94089,12.943234,JUM
9212721000000.0,1.4061939716339111,2.4032790660858154,14.22347640991211,0.41263267397880554,0.538853108882904,-0.15882497,-0.8723155999999999,348.2388,-144.12384,12.894902,JUM
9212726000000.0,1.4111958742141724,2.3475048542022705,13.869133949279785,0.37027600407600403,0.5484367609024048,-0.24617869,-0.8396343000000001,347.9687,-144.28337,12.843594,JUM
9212731000000.0,1.4162416458129883,2.2834599018096924,13.476644515991211,0.32279568910598755,0.5528869032859802,-0.31245756,-0.8069529999999999,347.72955,-144.56949,12.808551,JUM
9212736000000.0,1.4212363958358765,2.2132692337036133,13.065081596374512,0.27140823006629944,0.5533723831176758,-0.32009340000000003,-0.7968736999999999,347.4964,-144.83383,12.775094000000001,JUM
9212742000000.0,1.426232933998108,2.1324992179870605,12.622730255126953,0.21474765241146088,0.5517972707748413,-0.31123585,-0.77549344,347.30002,-145.15486,12.745119,JUM
9212747000000.0,1.4312292337417603,2.0390946865081787,12.147859573364258,0.15305371582508087,0.546139121055603,-0.26725355,-0.7641924,347.09814,-145.44093,12.727086,JUM
9212752000000.0,1.4362260103225708,1.9379733800888062,11.646353721618652,0.08507535606622696,0.5370387434959412,-0.19822577,-0.7464773,346.93027,-145.79603999999998,12.704742999999999,JUM
9212757000000.0,1.4412215948104858,1.8319175243377686,11.122221946716309,0.0103960782289505,0.5249074101448059,-0.105068825,-0.7147123000000001,346.75705,-146.12798,12.707297,JUM
9212763000000.0,1.4462189674377441,1.7298672199249268,10.583553314208984,-0.06605874001979828,0.5099717974662781,-0.010995574,-0.62949663,346.62192000000005,-146.4224,12.675999999999998,JUM
9212768000000.0,1.4512152671813965,1.6367303133010864,10.03586483001709,-0.14141753315925598,0.4926906228065491,0.09896017,-0.48685959999999995,346.49112,-146.70595,12.688889999999999,JUM
9212773000000.0,1.456210970878601,1.5754914283752441,9.488798141479492,-0.18747161328792572,0.4722122251987457,0.4089743,-0.13225232,346.40106000000003,-146.98962,12.758241,JUM
9212778000000.0,1.4612133502960205,1.562575340270996,8.948356628417969,-0.18413466215133667,0.43120887875556946,0.004886922,-0.06658431,346.37567,-147.15688,12.66212,JUM
9212783000000.0,1.466214895248413,1.5763336420059204,8.423184394836426,-0.14571155607700348,0.39082807302474976,-0.20586158,-0.013133603,346.35522000000003,-147.55435,12.769793,JUM
9212789000000.0,1.4712111949920654,1.5854970216751099,7.926515102386475,-0.091829814016819,0.363260954618454,-0.04428773,0.33505958,346.4318,-147.93182,12.924888000000001,JUM
9212794000000.0,1.4762067794799805,1.5822739601135254,7.455440998077393,-0.0385676734149456,0.3370978534221649,-0.028099801,0.6236934000000001,346.45412999999996,-147.94939,13.100783,JUM
9212799000000.0,1.4812042713165283,1.5555460453033447,7.006545543670654,-0.00862828642129898,0.30238357186317444,0.020463986,0.7861836,346.50104,-147.99112,13.361063,JUM
9212804000000.0,1.4862124919891357,1.500442385673523,6.573473930358887,-0.004765640012919903,0.25493481755256653,0.18875736,0.86070913,346.57004,-147.9991,13.685510999999998,JUM
9212810000000.0,1.4912090301513672,1.415980577468872,6.151400566101074,-0.02666589803993702,0.19897869229316711,0.44868052,0.88147855,346.6437,-147.98602,14.063901000000001,JUM
9212815000000.0,1.4962043762207031,1.3072115182876587,5.740110874176025,-0.06989891827106476,0.14268404245376587,0.7593055000000001,0.88147855,346.7456,-147.96237,14.415651,JUM
9212820000000.0,1.5012011528015137,1.1831555366516113,5.340328216552734,-0.12670564651489258,0.09244963526725769,1.0619892,0.8741482,346.81036,-147.92035,14.831461,JUM
9212825000000.0,1.506197452545166,1.0528935194015503,4.956741809844971,-0.19293095171451569,0.051305633038282394,1.2617421,0.86162543,346.92453,-147.93668,15.157335999999999,JUM
9212831000000.0,1.5111970901489258,0.9286975860595703,4.596225738525391,-0.2632916271686554,0.01842576265335083,1.3148874,0.84329945,347.0121,-147.97138999999999,15.517069000000001,JUM
9212836000000.0,1.5162018537521362,0.8107179403305054,4.258180141448975,-0.33623576164245605,-0.010097471997141838,1.3683381000000001,0.82924956,347.11877000000004,-148.06642,15.838639,JUM
9212841000000.0,1.5211987495422363,0.7042878270149231,3.948434829711914,-0.39500752091407776,-0.03299873322248459,1.3472633,0.8026769,347.225,-148.20283999999998,16.147022,JUM
9212846000000.0,1.5262223482131958,0.6095039248466492,3.667297124862671,-0.43942564725875854,-0.05352383106946945,1.2586879,0.75441855,347.33698,-148.35373,16.429642,JUM
9212852000000.0,1.5312190055847168,0.5249087810516357,3.4163403511047363,-0.4769813120365143,-0.07256443053483963,1.0778716999999998,0.73792523,347.4729,-148.52719,16.681997,JUM
9212857000000.0,1.5362118482589722,0.4504222571849823,3.1953251361846924,-0.5076352953910828,-0.08940205723047256,0.87964594,0.7012733,347.58517,-148.66937,16.921389,JUM
9212862000000.0,1.541208028793335,0.38329190015792847,3.0058095455169678,-0.5365378260612488,-0.10306353121995926,0.70829827,0.6826419,347.7258,-148.82324,17.120758,JUM
9212867000000.0,1.5462018251419067,0.322515606880188,2.8463339805603027,-0.5649096965789795,-0.11173228174448013,0.5888741,0.6585127,347.8823,-148.99275,17.275198,JUM
9212873000000.0,1.5511988401412964,0.264319509267807,2.7221221923828125,-0.5866698026657104,-0.11606504023075104,0.48441613,0.62858033,348.0324,-149.1473,17.404484,JUM
9212878000000.0,1.556220293045044,0.20762509107589722,2.6350584030151367,-0.6002047061920166,-0.1183275580406189,0.36957347,0.6056729000000001,348.20092999999997,-149.31386,17.496738,JUM
9212883000000.0,1.561218023300171,0.15260951220989227,2.5782549381256104,-0.6070886850357056,-0.12004628777503967,0.2321288,0.5699373000000001,348.37656,-149.65248,17.53421,JUM
9212888000000.0,1.5662143230438232,0.09906835108995438,2.552292823791504,-0.607168436050415,-0.12221057713031769,0.09987647,0.51251596,348.5594,-149.98814,17.534224,JUM
9212894000000.0,1.5712106227874756,0.052610523998737335,2.555180072784424,-0.6122722625732422,-0.12458506971597672,0.007330383,0.43676865,348.74457,-150.31863,17.498814000000003,JUM
9212899000000.0,1.5762104988098145,0.016139447689056396,2.5854532718658447,-0.6287118196487427,-0.1244402527809143,-0.030848695,0.3659083,348.92892,-150.65201000000002,17.433773000000002,JUM
9212904000000.0,1.5812077522277832,-0.006719039753079414,2.645077705383301,-0.6491567492485046,-0.11990826576948166,-0.052839845,0.30970868,349.0931,-151.24696,17.291933,JUM
9212909000000.0,1.5862044095993042,-0.009427007287740707,2.739389181137085,-0.6626653671264648,-0.11428305506706238,-0.10720685,0.2501493,349.24627999999996,-151.7997,17.126158,JUM
9212915000000.0,1.5912001132965088,0.0039271884597837925,2.867882013320923,-0.6763922572135925,-0.11014587432146072,-0.14752395,0.21135938,349.37177,-152.26952,16.974485,JUM
9212919000000.0,1.5961982011795044,0.03013061173260212,3.030461072921753,-0.696168065071106,-0.1083940640091896,-0.14202617,0.17806722,349.4824,-152.7107,16.818785000000002,JUM
9212924000000.0,1.6011955738067627,0.06557616591453552,3.237302303314209,-0.7155194282531738,-0.10774481296539307,-0.09254608,0.14966199,349.5191,-153.02979,16.728523000000003,JUM
9212929000000.0,1.6061924695968628,0.10695881396532059,3.498758316040039,-0.7282854914665222,-0.10877417027950287,-0.064751714,0.14477506,349.55405,-153.31703000000002,16.637836,JUM
9212934000000.0,1.6111936569213867,0.15710754692554474,3.8256680965423584,-0.7290325164794922,-0.11306925117969513,-0.049480084,0.16920967,349.53485,-153.48985,16.596022,JUM
9212939000000.0,1.6161924600601196,0.21843767166137695,4.225814342498779,-0.7127260565757751,-0.11905616521835327,-0.064446285,0.20555615,349.51653999999996,-153.65182,16.558594,JUM
9212944000000.0,1.621190071105957,0.29669189453125,4.697028160095215,-0.6897938251495361,-0.12797948718070984,-0.06047566,0.26939157,349.43887,-153.61081000000001,16.566446,JUM
9212949000000.0,1.6261931657791138,0.4012734889984131,5.240050315856934,-0.6753204464912415,-0.1366225928068161,0.023518313,0.31337386,349.35699999999997,-153.57816,16.595943,JUM
9212954000000.0,1.6311912536621094,0.5357375144958496,5.828158378601074,-0.6669663190841675,-0.1428680717945099,0.18936823,0.33444872,349.15912000000003,-153.30498,16.707714000000003,JUM
9212959000000.0,1.6361896991729736,0.7089099884033203,6.4296040534973145,-0.6619245409965515,-0.1466321051120758,0.36896262,0.34972036,348.9606,-153.05165,16.848770000000002,JUM
9212964000000.0,1.6411861181259155,0.9244189858436584,7.038338661193848,-0.6577466726303101,-0.14863291382789612,0.52381694,0.3747658,348.6328,-152.63087,17.104858,JUM
9212969000000.0,1.6461849212646484,1.2004557847976685,7.638636112213135,-0.6471520066261292,-0.1457415521144867,0.6545420999999999,0.46211955,348.30753,-152.2737,17.404324,JUM
9212974000000.0,1.6511807441711426,1.5223231315612793,8.22808837890625,-0.625176191329956,-0.1355980932712555,0.7516696999999999,0.64476824,347.87537000000003,-151.90012,17.893848000000002,JUM
9212980000000.0,1.6561777591705322,1.8527270555496216,8.799110412597656,-0.5728806853294373,-0.11920754611492157,0.7501425,0.8213083000000001,347.46274,-151.58687,18.387314,JUM
9212984000000.0,1.6611732244491577,2.167574405670166,9.34996223449707,-0.49591541290283203,-0.10121633857488632,0.59131753,0.84940815,346.90668,-151.29153,19.07974,JUM
9212989000000.0,1.6661697626113892,2.426490545272827,9.877266883850098,-0.4018339216709137,-0.08537217974662781,0.47678033,0.7538077,346.36227,-151.04468,19.760901999999998,JUM
9212994000000.0,1.6711658239364624,2.639008045196533,10.377519607543945,-0.2957198917865753,-0.0724070742726326,0.59559363,0.24953845,345.61407,-150.70404,20.468866000000002,JUM
9213000000000.0,1.6761635541915894,2.819941997528076,10.842756271362305,-0.18614494800567627,-0.06693684309720993,0.66798115,-0.41050145,344.83698,-150.3288,21.069397,JUM
9213004000000.0,1.6811599731445312,2.9642701148986816,11.27967643737793,-0.06584624946117401,-0.061855800449848175,0.5900958000000001,-0.38851030000000003,344.16696,-149.93471,21.581419,JUM
9213009000000.0,1.686158537864685,3.0580224990844727,11.700417518615723,0.08179035037755966,-0.050290439277887344,0.41599923,-0.25381452,343.37134,-149.50122,21.989843,JUM
9213014000000.0,1.6911565065383911,3.1140997409820557,12.10513687133789,0.2377815544605255,-0.026107944548130035,0.37384954,-0.36835176,342.569513903916,-149.092828958417,22.3146022955188,JUM
9213019000000.0,1.6961504220962524,3.1587748527526855,12.493062973022461,0.35953623056411743,0.006161551922559738,0.40622538,-0.55955255,341.77797999999996,-148.68968,22.635193,JUM
9213024000000.0,1.7011476755142212,3.192139148712158,12.864945411682129,0.4492931663990021,0.040764376521110535,0.3924809,-0.66889745,341.03595,-148.21886999999998,22.813005,JUM
9213029000000.0,1.7061433792114258,3.2114129066467285,13.218104362487793,0.523322343826294,0.07406026870012283,0.3631594,-0.69974613,340.27258,-147.77606,22.971857,JUM
9213034000000.0,1.7111402750015259,3.2165637016296387,13.553418159484863,0.5803472399711609,0.10506086051464081,0.24098633,-0.72418076,339.56445,-147.41914,23.041447,JUM
9213039000000.0,1.7161364555358887,3.206066370010376,13.871366500854492,0.6141709685325623,0.1338559091091156,0.12308934,-0.7147123000000001,338.86862,-147.07773,23.107595,JUM
9213044000000.0,1.7211329936981201,3.1810216903686523,14.169817924499512,0.6285483837127686,0.1598304808139801,0.06688975,-0.66889745,338.23645,-146.77974,23.146235,JUM
9213049000000.0,1.7261303663253784,3.143479108810425,14.437226295471191,0.6351128220558167,0.18124671280384064,0.034208454,-0.6209445,337.62982,-146.48276,23.169735,JUM
9213054000000.0,1.7311272621154785,3.094952344894409,14.66740608215332,0.6345005035400391,0.19418053328990936,-0.04520403,-0.58032197,337.1103,-146.23828,23.140356,JUM
9213059000000.0,1.736124038696289,3.038527011871338,14.836639404296875,0.6276798248291016,0.19818873703479767,-0.19486602,-0.52595496,336.62807999999995,-145.99165,23.105463,JUM
9213065000000.0,1.741122841835022,2.9766793251037598,14.95103645324707,0.6118941307067871,0.19246108829975128,-0.37904188,-0.49999319999999997,336.2102,-145.73766,23.022865,JUM
9213069000000.0,1.7461241483688354,2.9183826446533203,15.026681900024414,0.5752652287483215,0.17989292740821838,-0.5271766999999999,-0.49816059999999995,335.82372999999995,-145.46806,22.92701,JUM
9213074000000.0,1.7511239051818848,2.863837957382202,15.06824016571045,0.5220715999603271,0.16156500577926636,-0.59650993,-0.48349985,335.51718,-145.25015,22.8193,JUM
9213079000000.0,1.7561231851577759,2.814584970474243,15.086834907531738,0.46575072407722473,0.13999798893928528,-0.552833,-0.43004912,335.22867,-145.02048,22.717854,JUM
9213084000000.0,1.7611290216445923,2.770085573196411,15.081183433532715,0.4052160680294037,0.12091508507728577,-0.58276546,-0.39645153,335.01276,-144.89015,22.606178,JUM
9213089000000.0,1.7661290168762207,2.7258830070495605,15.0283784866333,0.32690274715423584,0.11102038621902466,-0.6264423000000001,-0.41416663,334.7916,-144.77638000000002,22.506777,JUM
9213094000000.0,1.77112877368927,2.6811752319335938,14.929237365722656,0.23381030559539795,0.11454466730356216,-0.5503895999999999,-0.42730024,334.57596,-144.73572,22.45037,JUM
9213099000000.0,1.7761650085449219,2.629492998123169,14.773420333862305,0.1444145292043686,0.12528732419013977,-0.40866885,-0.41538838,334.35703,-144.7102,22.404934,JUM
9213104000000.0,1.7811596393585205,2.573561668395996,14.579532623291016,0.05883649364113808,0.13666199147701263,-0.33536503,-0.42394048,334.17514,-144.79588,22.360723,JUM
9213109000000.0,1.7861576080322266,2.505167245864868,14.323368072509766,-0.01759323664009571,0.1483745574951172,-0.28038713,-0.43799037,333.96835,-144.91306,22.349012,JUM
9213114000000.0,1.7911731004714966,2.4226508140563965,14.000899314880371,-0.08393395692110062,0.15978847444057465,-0.25534168,-0.43371433,333.75287000000003,-145.03079,22.352232,JUM
9213119000000.0,1.7961705923080444,2.332415819168091,13.637898445129395,-0.14475657045841217,0.17209163308143616,-0.25473082,-0.45204028,333.56586,-145.23248,22.36401,JUM
9213124000000.0,1.80116605758667,2.2341432571411133,13.233047485351562,-0.20023562014102936,0.18484598398208618,-0.24862215,-0.47464229999999996,333.42233,-145.51495,22.384249,JUM
9213130000000.0,1.8061643838882446,2.1303727626800537,12.80393123626709,-0.2538631856441498,0.19792981445789337,-0.2565634,-0.4877759,333.2778,-145.79797,22.402186999999998,JUM
9213135000000.0,1.8111737966537476,2.02164888381958,12.354530334472656,-0.3065832257270813,0.21023498475551605,-0.25595254,-0.50488013,333.1224,-146.07228,22.421302999999998,JUM
9213139000000.0,1.8161747455596924,1.9131404161453247,11.89732551574707,-0.3578224778175354,0.2214774489402771,-0.24007004,-0.5140431,333.00763,-146.44006000000002,22.432205,JUM
9213144000000.0,1.8211725950241089,1.806885004043579,11.436470031738281,-0.4074340760707855,0.23101390898227692,-0.23457226,-0.5149594,332.89203,-146.79741,22.441736,JUM
9213149000000.0,1.8261703252792358,1.7034870386123657,10.969715118408203,-0.4544748365879059,0.23935849964618683,-0.226631,-0.49541172,332.8141,-147.13803000000001,22.415802,JUM
9213154000000.0,1.831169605255127,1.604230284690857,10.493056297302246,-0.49709179997444153,0.24584224820137024,-0.2519819,-0.47250426,332.74203,-147.46783,22.386656,JUM
9213159000000.0,1.836168646812439,1.5093179941177368,10.009430885314941,-0.5341220498085022,0.250971257686615,-0.25992316,-0.44012842,332.6898,-147.77615,22.335752,JUM
9213164000000.0,1.8411669731140137,1.4189772605895996,9.521655082702637,-0.5643131732940674,0.2542480230331421,-0.267559,-0.3998113,332.6504,-148.07861,22.286757,JUM
9213169000000.0,1.8461664915084839,1.333845615386963,9.032506942749023,-0.5845926403999329,0.2547457814216614,-0.28955013,-0.355829,332.63766,-148.37267,22.224629999999998,JUM
9213175000000.0,1.851165533065796,1.2550615072250366,8.546664237976074,-0.5900823473930359,0.2516685724258423,-0.30695978,-0.31398472,332.63605,-148.66023,22.169954,JUM
9213179000000.0,1.8561652898788452,1.1818639039993286,8.067511558532715,-0.5819403529167175,0.24268390238285065,-0.33261612,-0.27275133,332.68616000000003,-149.13857,22.204983,JUM
9213184000000.0,1.861167311668396,1.1133508682250977,7.599789619445801,-0.5614335536956787,0.2257138192653656,-0.34238997,-0.20708331,332.75595,-149.59011999999998,22.248379999999997,JUM
9213189000000.0,1.8661702871322632,1.0494933128356934,7.143786907196045,-0.5319552421569824,0.201216459274292,-0.29718593,-0.13316862,332.78592000000003,-149.64542,22.154778,JUM
9213195000000.0,1.8711694478988647,0.9902870059013367,6.700104236602783,-0.49730822443962097,0.17214851081371307,-0.23548855,-0.05955936,332.83237,-149.68306,22.073557,JUM
9213199000000.0,1.8761667013168335,0.9364123940467834,6.271040916442871,-0.4617389440536499,0.14267638325691223,-0.18325958,0.004581489,332.88065,-149.67563,22.013494,JUM
9213204000000.0,1.8811664581298828,0.8888883590698242,5.859872817993164,-0.43079912662506104,0.11392848938703537,-0.14538592,0.061086524,332.93875,-149.65532,21.975443,JUM
9213209000000.0,1.8861628770828247,0.8473429679870605,5.471070766448975,-0.40694499015808105,0.08607783168554306,-0.11789699,0.11026118,333.00516,-149.65407,21.973688,JUM
9213214000000.0,1.891161561012268,0.811603844165802,5.113526344299316,-0.3951387107372284,0.05775813013315201,-0.101098195,0.15851954,333.08227999999997,-149.65171999999998,21.987743,JUM
9213219000000.0,1.8961576223373413,0.7815503478050232,4.786665439605713,-0.3942488133907318,0.02907576784491539,-0.07788532,0.20738874,333.1705,-149.67184,22.028416,JUM
9213224000000.0,1.9011560678482056,0.7579907774925232,4.494347095489502,-0.40264734625816345,1.7521846530144103e-05,-0.03848451,0.23609942,333.26166,-149.68883,22.082145999999998,JUM
9213229000000.0,1.9061552286148071,0.7408600449562073,4.234166145324707,-0.4161415994167328,-0.027736293151974678,-0.004886922,0.29565877,333.37085,-149.71315,22.1471,JUM
9213234000000.0,1.9111559391021729,0.7305132746696472,4.003431797027588,-0.4264327883720398,-0.05252978950738907,0.023518313,0.36010507,333.48425,-149.74374,22.226,JUM
9213240000000.0,1.9161683320999146,0.7269513607025146,3.8012855052948,-0.43326982855796814,-0.07489511370658875,0.01160644,0.41172317,333.60699999999997,-149.81703000000002,22.325708,JUM
9213244000000.0,1.9211667776107788,0.7305538654327393,3.6257853507995605,-0.4339704215526581,-0.09567787498235703,0.008857545999999999,0.45814893,333.74036,-149.90448,22.443222,JUM
9213249000000.0,1.926178216934204,0.7417731881141663,3.47689151763916,-0.4286380112171173,-0.11628086864948273,0.024129177,0.5027421,333.88266,-150.35541,22.683228,JUM
9213254000000.0,1.9311773777008057,0.7608844637870789,3.3484439849853516,-0.4226961135864258,-0.13826003670692444,0.044898596,0.53786683,334.03693,-150.79276000000002,22.918554,JUM
9213260000000.0,1.9361741542816162,0.7877742648124695,3.2398056983947754,-0.41614487767219543,-0.15993057191371918,0.07880162,0.5732970000000001,334.17203,-151.29652,23.205917000000003,JUM
9213264000000.0,1.9411721229553223,0.8138521909713745,3.1403703689575195,-0.4137789011001587,-0.18186235427856445,0.12278391400000001,0.59040123,334.30768,-151.7669,23.48805,JUM
9213269000000.0,1.9461684226989746,0.8375462293624878,3.047725200653076,-0.41626107692718506,-0.20267416536808014,0.20128010000000002,0.6093381,334.4431,-152.22482,23.777767,JUM
9213274000000.0,1.951167345046997,0.8521072864532471,2.9609498977661133,-0.42580920457839966,-0.2221815288066864,0.27305678,0.61636305,334.534,-152.56646999999998,24.079023,JUM
9213279000000.0,1.9561635255813599,0.8564370274543762,2.879565715789795,-0.44251495599746704,-0.24012841284275055,0.35063666,0.63255095,334.61856,-152.90167,24.393713,JUM
9213284000000.0,1.9611631631851196,0.8481149077415466,2.803915500640869,-0.45286738872528076,-0.2559468746185303,0.46395215,0.6606508000000001,334.70782,-153.32608000000002,24.728117,JUM
9213289000000.0,1.9661593437194824,0.827519416809082,2.733793020248413,-0.45443952083587646,-0.2686760723590851,0.5681046999999999,0.6450737,334.7777,-153.73516999999998,25.061539,JUM
9213294000000.0,1.9711586236953735,0.797946572303772,2.6772305965423584,-0.4496437609195709,-0.2778783440589905,0.61727935,0.59803706,334.84783999999996,-154.01772,25.342026,JUM
9213299000000.0,1.976157784461975,0.7607420086860657,2.6354873180389404,-0.43943729996681213,-0.2870296835899353,0.5907066999999999,0.5561928,334.90967,-154.28583,25.619137,JUM
9213304000000.0,1.981157660484314,0.718177318572998,2.6113483905792236,-0.4219995439052582,-0.29645836353302,0.5729916,0.52290064,334.96176,-154.56503,25.874067,JUM
9213309000000.0,1.9861574172973633,0.671596884727478,2.6057772636413574,-0.3965885639190674,-0.30636119842529297,0.5531385,0.49480084,335.00665,-154.82707,26.10926,JUM
9213314000000.0,1.9911566972732544,0.6280118227005005,2.6250393390655518,-0.36070168018341064,-0.31484103202819824,0.52106804,0.48472157,335.04407000000003,-155.10097,26.30665,JUM
9213319000000.0,1.9961572885513306,0.5902354121208191,2.6711618900299072,-0.3135307729244232,-0.32290151715278625,0.49113566,0.46822822,335.0722,-155.3496,26.488896999999998,JUM
9213325000000.0,2.00115704536438,0.5551244020462036,2.7471964359283447,-0.2850784361362457,-0.33315309882164,0.4156938,0.46273044,335.0649,-155.4145,26.638815,JUM
9213329000000.0,2.0061557292938232,0.5209582448005676,2.8541476726531982,-0.29079553484916687,-0.3437861502170563,0.36071593,0.4529566,335.05078,-155.48238,26.780594,JUM
9213334000000.0,2.0111618041992188,0.48847997188568115,3.0046393871307373,-0.3221133351325989,-0.35517099499702454,0.38728857,0.44806966,334.93773999999996,-155.3566,26.945864,JUM
9213339000000.0,2.0161643028259277,0.45855435729026794,3.209568738937378,-0.3676505386829376,-0.36145657300949097,0.46395215,0.41844269999999995,334.81192000000004,-155.25017,27.103517999999998,JUM
9213344000000.0,2.0211634635925293,0.4483420252799988,3.479403257369995,-0.4047960638999939,-0.3625076711177826,0.5665775,0.37507126,334.70175,-155.28486999999998,27.197316999999998,JUM
9213349000000.0,2.026162624359131,0.4681895673274994,3.820207118988037,-0.4197929799556732,-0.36340510845184326,0.61208695,0.35430184,334.5846,-155.31387,27.2958,JUM
9213354000000.0,2.0311617851257324,0.5243478417396545,4.243165493011475,-0.4207703173160553,-0.3675101697444916,0.5751295999999999,0.3387248,334.38333,-155.2183,27.368123999999998,JUM
9213359000000.0,2.036161184310913,0.6219362616539001,4.757368087768555,-0.41468140482902527,-0.37413105368614197,0.5555819000000001,0.32711834,334.16666000000004,-155.12498,27.456478000000004,JUM
9213364000000.0,2.0411593914031982,0.7533084750175476,5.328282833099365,-0.38418424129486084,-0.380561888217926,0.57848936,0.2910773,333.67562999999996,-154.79475,27.646117999999998,JUM
9213369000000.0,2.046159505844116,0.912992000579834,5.930820941925049,-0.316216379404068,-0.3862267732620239,0.5519168000000001,0.18387043,333.17316,-154.45604,27.80704,JUM
9213374000000.0,2.051158905029297,1.1013511419296265,6.546412467956543,-0.2271323949098587,-0.3927291929721832,0.37415496,0.0580322,332.38495,-153.8619,28.037059999999997,JUM
9213379000000.0,2.056157350540161,1.3188821077346802,7.159721374511719,-0.1306358426809311,-0.3998454511165619,0.17318029999999998,-0.0021380284,331.60986,-153.29611,28.243464000000003,JUM
9213384000000.0,2.061161518096924,1.5470134019851685,7.764327526092529,-0.030443156138062477,-0.4056709110736847,0.06994407,-0.01160644,330.57977,-152.53708,28.551616999999997,JUM
9213390000000.0,2.066164493560791,1.7657817602157593,8.35246467590332,0.06923723220825195,-0.40794673562049866,0.023518313,0.0033597588,329.6019,-151.8231,28.804049,JUM
9213394000000.0,2.0711634159088135,1.9649549722671509,8.920710563659668,0.16846199333667755,-0.4081154465675354,-0.069027774,0.03970624,328.53137000000004,-151.06215,29.113438000000002,JUM
9213399000000.0,2.076162576675415,2.133634328842163,9.4657564163208,0.2674257159233093,-0.4057847261428833,-0.15577064,0.08582657,327.52075,-150.36705,29.397479999999998,JUM
9213404000000.0,2.0811617374420166,2.2748801708221436,9.988036155700684,0.3665941059589386,-0.40094128251075745,-0.21594086,0.13500121,326.5331,-149.68816,29.659997999999998,JUM
9213410000000.0,2.086160659790039,2.3946690559387207,10.486212730407715,0.4674423336982727,-0.3930679261684418,-0.24342979999999997,0.15302174,325.60067999999995,-149.06448,29.897303000000004,JUM
9213414000000.0,2.091157913208008,2.4950063228607178,10.961273193359375,0.5697680115699768,-0.3817889988422394,-0.24251351,0.13622294,324.75133999999997,-148.48111,30.095330999999998,JUM
9213419000000.0,2.0961577892303467,2.5803091526031494,11.413230895996094,0.6732831001281738,-0.3658210039138794,-0.21013765,0.064751714,323.92217999999997,-147.94342,30.278643,JUM
9213424000000.0,2.101184129714966,2.6523191928863525,11.84301471710205,0.7783234119415283,-0.3483600616455078,-0.14660765,0.01985312,323.1169,-147.40161,30.43088,JUM
9213429000000.0,2.1061813831329346,2.715696096420288,12.250807762145996,0.8832464218139648,-0.32968103885650635,-0.10751228,-0.09254608,322.29900000000004,-146.88297,30.554104,JUM
9213434000000.0,2.111180305480957,2.772219657897949,12.637723922729492,0.9836416244506836,-0.3098488748073578,-0.06841691,-0.22021692,321.4724,-146.35861,30.655537,JUM
9213439000000.0,2.1161789894104004,2.8262290954589844,13.004518508911133,1.069218635559082,-0.2892830967903137,-0.0061086523,-0.35918877,320.62198,-145.8412,30.743091999999997,JUM
9213444000000.0,2.121176242828369,2.8774423599243164,13.352194786071777,1.1409063339233398,-0.26701363921165466,0.04062254,-0.48014009999999996,319.7613,-145.32533,30.815939,JUM
9213449000000.0,2.1261744499206543,2.9249086380004883,13.681596755981445,1.199613332748413,-0.24257785081863403,0.06414085,-0.5693264,318.88318,-144.81865,30.873115999999996,JUM
9213455000000.0,2.131171703338623,2.967067241668701,13.9933500289917,1.2468760013580322,-0.21767008304595947,0.036957346,-0.62949663,318.01877,-144.35166999999998,30.912755999999998,JUM
9213459000000.0,2.136172294616699,2.999077320098877,14.287396430969238,1.2853991985321045,-0.18943439424037933,-0.008552114,-0.6618725000000001,317.1514,-143.91488999999999,30.940752000000003,JUM
9213464000000.0,2.141179084777832,3.021385908126831,14.564665794372559,1.3155750036239624,-0.15869922935962677,-0.058643065,-0.6969972,316.30902000000003,-143.51723,30.953733000000003,JUM
9213469000000.0,2.1461782455444336,3.0349128246307373,14.826108932495117,1.3381654024124146,-0.12611867487430573,-0.13927728,-0.70707655,315.49207,-143.14781000000002,30.95138,JUM
9213475000000.0,2.1511764526367188,3.0399417877197266,15.072543144226074,1.3534295558929443,-0.09444428235292435,-0.23915374,-0.7156286000000001,314.6921,-142.78923,30.930722999999997,JUM
9213479000000.0,2.1561737060546875,3.036924362182617,15.304768562316895,1.3617568016052246,-0.06291156262159348,-0.31856623,-0.70829827,313.91577,-142.45944,30.902315,JUM
9213484000000.0,2.16117262840271,3.026137113571167,15.519469261169434,1.3619188070297241,-0.032343100756406784,-0.36743546,-0.6988298000000001,313.16174,-142.1332,30.858189000000003,JUM
9213489000000.0,2.1661715507507324,3.007458209991455,15.688332557678223,1.3432871103286743,-0.0029642318841069937,-0.37384954,-0.68203104,312.4272,-141.82416,30.813745,JUM
9213494000000.0,2.171177625656128,2.980501174926758,15.808955192565918,1.3070487976074219,0.027111509814858437,-0.36560285,-0.6747006999999999,311.7721,-141.57246,30.725517,JUM
9213499000000.0,2.1761765480041504,2.944157123565674,15.87222957611084,1.2574901580810547,0.05713077634572983,-0.35033122,-0.66645396,311.12387,-141.3298,30.64801,JUM
9213504000000.0,2.181173801422119,2.898477792739868,15.878646850585938,1.1957001686096191,0.08631527423858643,-0.34666604,-0.6462954000000001,310.5431,-141.19177,30.594196000000004,JUM
9213509000000.0,2.1861724853515625,2.8427369594573975,15.823204040527344,1.1256684064865112,0.11537685245275497,-0.33108896,-0.63071835,309.9547,-141.0651,30.552742,JUM
9213514000000.0,2.1911802291870117,2.777120590209961,15.707010269165039,1.048194169998169,0.14297105371952057,-0.30726522,-0.6227771,309.43927,-141.0104,30.5134,JUM
9213520000000.0,2.1961777210235596,2.7032573223114014,15.533042907714844,0.9730997085571289,0.16937139630317688,-0.301462,-0.61483586,308.92377,-140.96361000000002,30.482165999999996,JUM
9213524000000.0,2.201176643371582,2.6208558082580566,15.302175521850586,0.9003699421882629,0.19402295351028442,-0.3155119,-0.60048056,308.4905,-140.99411,30.458911999999998,JUM
9213529000000.0,2.206174373626709,2.5276668071746826,15.02513599395752,0.8322626352310181,0.2159120887517929,-0.36987892,-0.6081163,308.05762000000004,-141.01497,30.430246,JUM
9213534000000.0,2.2111902236938477,2.4233109951019287,14.70089340209961,0.7679036855697632,0.23442097008228302,-0.43982297,-0.61361414,307.69237999999996,-141.10657,30.411207,JUM
9213540000000.0,2.216193199157715,2.3114984035491943,14.3456449508667,0.7008206248283386,0.24992507696151733,-0.47158796,-0.6203337,307.3249,-141.18713,30.39081,JUM
9213545000000.0,2.2212092876434326,2.191504955291748,13.956487655639648,0.6308555006980896,0.26289379596710205,-0.49602258,-0.62888575,307.0303,-141.3228,30.367248999999997,JUM
9213549000000.0,2.226207733154297,2.0690951347351074,13.546217918395996,0.5657203793525696,0.2752527594566345,-0.5112942,-0.63255095,306.73782,-141.4534,30.342259999999996,JUM
9213554000000.0,2.2312049865722656,1.9438450336456299,13.113332748413086,0.5052269697189331,0.2871972322463989,-0.5342017,-0.63438356,306.5148,-141.63647,30.298502000000003,JUM
9213559000000.0,2.236205816268921,1.8179938793182373,12.620318412780762,0.44319063425064087,0.2977238595485687,-0.56199604,-0.6395759,306.29318,-141.81094,30.252665000000004,JUM
9213565000000.0,2.2412188053131104,1.6918922662734985,12.0580472946167,0.3780381679534912,0.3049711585044861,-0.5671884,-0.63163465,306.07245,-141.9768,30.212551,JUM
9213569000000.0,2.246213674545288,1.578773021697998,11.490193367004395,0.3188502788543701,0.3096998929977417,-0.5674938,-0.61911196,305.90887000000004,-142.19994,30.181614,JUM
9213574000000.0,2.2512083053588867,1.4806227684020996,10.923577308654785,0.26696300506591797,0.3126465678215027,-0.5271766999999999,-0.59620446,305.7409,-142.41411000000002,30.164291,JUM
9213579000000.0,2.256204843521118,1.396711826324463,10.35791301727295,0.22201883792877197,0.31405261158943176,-0.48838675,-0.5714644,305.67667,-142.75394,30.172571,JUM
9213585000000.0,2.2612030506134033,1.3262813091278076,9.7931489944458,0.1836477518081665,0.31413039565086365,-0.45112398,-0.52931476,305.6159,-143.09175,30.197628,JUM
9213589000000.0,2.266209363937378,1.271002173423767,9.246262550354004,0.15648216009140015,0.311371773481369,-0.42241332,-0.45845437,305.5582,-143.42343,30.23235,JUM
9213594000000.0,2.271206855773926,1.22966468334198,8.719285011291504,0.14000065624713898,0.30443036556243896,-0.41783184,-0.37782016,305.5131,-143.74855,30.279909999999997,JUM
9213599000000.0,2.2762043476104736,1.1996545791625977,8.217474937438965,0.1292106956243515,0.29242226481437683,-0.42852196,-0.27977628,305.54916000000003,-143.81076000000002,30.158651000000003,JUM
9213605000000.0,2.281200885772705,1.179019570350647,7.743410587310791,0.12100239843130112,0.27530819177627563,-0.43646320000000005,-0.16920967,305.6065,-143.87296,30.058664,JUM
9213609000000.0,2.286198139190674,1.1647961139678955,7.297759532928467,0.11086723208427429,0.254174143075943,-0.4343252,-0.06841691,305.66614,-143.91028,29.994622999999997,JUM
9213614000000.0,2.2911949157714844,1.1549392938613892,6.880429744720459,0.09597951918840408,0.22915296256542206,-0.43799037,0.03970624,305.75797,-143.94608,29.952312,JUM
9213619000000.0,2.2961912155151367,1.144972324371338,6.4896111488342285,0.07308556884527206,0.2030561864376068,-0.4288274,0.08979719,305.84308,-143.98678999999998,29.945807000000002,JUM
9213624000000.0,2.3011889457702637,1.130234956741333,6.123596668243408,0.038688044995069504,0.17548537254333496,-0.38973203,0.1881465,305.961,-144.03433,29.977221999999998,JUM
9213629000000.0,2.3061864376068115,1.1100406646728516,5.779292583465576,-0.003050698433071375,0.14767475426197052,-0.33475417,0.28191432,306.08472,-144.10144,30.032290999999997,JUM
9213634000000.0,2.3111913204193115,1.083661437034607,5.454115390777588,-0.04904824122786522,0.12084164470434189,-0.2724459,0.35705075,306.21857,-144.17827,30.114340000000002,JUM
9213639000000.0,2.3161890506744385,1.0529450178146362,5.147634983062744,-0.09517359733581543,0.09635008126497269,-0.1994475,0.42363504,306.3819,-144.32234,30.224257,JUM
9213644000000.0,2.3211865425109863,1.0189805030822754,4.859441757202148,-0.13835230469703674,0.07427059859037399,-0.124005646,0.47922380000000003,306.54865,-144.47943,30.360521000000002,JUM
9213650000000.0,2.3261845111846924,0.9828197956085205,4.590002059936523,-0.17780791223049164,0.05349801108241081,-0.051923547,0.5216789000000001,306.73382999999995,-144.68954,30.517256,JUM
9213654000000.0,2.331183671951294,0.9457141757011414,4.340187072753906,-0.21252813935279846,0.032627929002046585,0.0015271631,0.5665775,306.92395,-144.91138,30.695697999999997,JUM
9213659000000.0,2.336181163787842,0.908660888671875,4.110347747802734,-0.242105171084404,0.01203992497175932,0.04734206,0.589485,307.10873,-145.1633,30.893269,JUM
9213664000000.0,2.3411788940429688,0.8738435506820679,3.9029457569122314,-0.2651423513889313,-0.008215921930968761,0.089186326,0.63194007,307.30252,-145.4234,31.110735,JUM
9213670000000.0,2.346174478530884,0.8424089550971985,3.716538190841675,-0.28198257088661194,-0.028027094900608063,0.10842858,0.66553766,307.48703,-145.8375,31.41808,JUM
9213674000000.0,2.351173162460327,0.8167895674705505,3.5498971939086914,-0.29275044798851013,-0.047547511756420135,0.11545353400000001,0.7104363,307.68527,-146.25066999999999,31.731140000000003,JUM
9213679000000.0,2.356170892715454,0.7958073616027832,3.40008282661438,-0.29900479316711426,-0.06568580865859985,0.12095132,0.7492262,307.85132000000004,-146.67838,32.044296,JUM
9213684000000.0,2.3611738681793213,0.7777228951454163,3.26299786567688,-0.30314627289772034,-0.08308535069227219,0.12034045,0.79045963,308.03558,-147.09885,32.353638000000004,JUM
9213689000000.0,2.3661718368530273,0.7623177766799927,3.13779354095459,-0.3053514361381531,-0.099769227206707,0.11698069400000001,0.8268061,308.1984,-147.49841,32.672123,JUM
9213694000000.0,2.3711705207824707,0.745684802532196,3.0210978984832764,-0.3072810471057892,-0.1143106147646904,0.12797627,0.8549059000000001,308.37155,-147.89883,32.98686,JUM
9213699000000.0,2.376169443130493,0.7263882756233215,2.9113311767578125,-0.3095811605453491,-0.12706784904003143,0.14172074,0.8561276,308.55163999999996,-148.28906,33.29065,JUM
9213704000000.0,2.3811686038970947,0.7026578187942505,2.8075132369995117,-0.31104403734207153,-0.1373709887266159,0.07238753,0.8213083000000001,308.73172,-148.74773000000002,33.601074,JUM
9213709000000.0,2.386167526245117,0.6732542514801025,2.7088496685028076,-0.3107891082763672,-0.14872023463249207,0.007330383,0.795652,308.9143,-149.18073,33.9004,JUM
9213715000000.0,2.391172170639038,0.6383243203163147,2.6150572299957275,-0.30887115001678467,-0.1593506932258606,-0.11575896,0.78038037,309.12082000000004,-149.54991,34.12356,JUM
9213719000000.0,2.3961715698242188,0.5984348654747009,2.525891065597534,-0.3054431676864624,-0.168714702129364,-0.20983220000000002,0.7470882,309.3249,-149.89651,34.320194,JUM
9213724000000.0,2.401170492172241,0.5493507981300354,2.446044921875,-0.30277103185653687,-0.17585428059101105,-0.24587326,0.70157874,309.52832,-150.21806,34.473175,JUM
9213729000000.0,2.4061684608459473,0.48758217692375183,2.379530429840088,-0.3028346002101898,-0.18083913624286652,-0.23579398,0.65576386,309.73346000000004,-150.5276,34.601673,JUM
9213735000000.0,2.4111711978912354,0.41926029324531555,2.3319926261901855,-0.3043522834777832,-0.18562345206737518,-0.18936823,0.6047566,309.9371,-150.85313,34.69424,JUM
9213739000000.0,2.416170358657837,0.3493524491786957,2.3065896034240723,-0.30631178617477417,-0.1927897334098816,-0.1518,0.5421429,310.12512000000004,-151.15334,34.77074,JUM
9213744000000.0,2.4211690425872803,0.28397008776664734,2.307140350341797,-0.30720657110214233,-0.20357832312583923,-0.10140363,0.48899764,310.29276,-151.3631,34.79692,JUM
9213749000000.0,2.4262022972106934,0.2269797921180725,2.3386573791503906,-0.30598729848861694,-0.21667304635047913,-0.06597344599999999,0.44226643,310.44022,-151.55069,34.816165999999996,JUM
9213754000000.0,2.431199550628662,0.18187695741653442,2.3961293697357178,-0.29969170689582825,-0.2326021045446396,-0.0693332,0.40042216,310.53296,-151.65686000000002,34.808506,JUM
9213759000000.0,2.436196804046631,0.1561422497034073,2.48720383644104,-0.2830604314804077,-0.2500099241733551,-0.09743301,0.36835176,310.6127,-151.74611000000002,34.796479999999995,JUM
9213764000000.0,2.441193103790283,0.15029151737689972,2.615309715270996,-0.28217175602912903,-0.2668644189834595,-0.07513642,0.36621370000000003,310.5874,-151.77228,34.798286,JUM
9213769000000.0,2.4461915493011475,0.16491355001926422,2.783714771270752,-0.31888023018836975,-0.27827930450439453,0.04642576,0.3622431,310.53713999999997,-151.80106999999998,34.812565,JUM
9213774000000.0,2.4511892795562744,0.22131961584091187,3.0500712394714355,-0.3564821779727936,-0.28189125657081604,0.28313604,0.35521814,310.3208,-151.72585,34.909557,JUM
9213779000000.0,2.456186056137085,0.3401755392551422,3.4701950550079346,-0.36021676659584045,-0.27894628047943115,0.50946164,0.34177909999999995,310.07568,-151.66418000000002,35.030654999999996,JUM
9213784000000.0,2.4611928462982178,0.5056949853897095,4.004435062408447,-0.33183059096336365,-0.2755559980869293,0.5897904,0.33505958,309.7701,-151.56769,35.136322,JUM
9213789000000.0,2.4661917686462402,0.6949078440666199,4.594693660736084,-0.2764774262905121,-0.27672499418258667,0.516792,0.35124752,309.44818,-151.47769,35.260094,JUM
9213794000000.0,2.4711880683898926,0.9003559947013855,5.225129127502441,-0.20362859964370728,-0.28281256556510925,0.45081854,0.38453966,308.43933,-150.95318999999998,35.54657,JUM
9213800000000.0,2.4761855602264404,1.1084657907485962,5.866831302642822,-0.13037727773189545,-0.2899918258190155,0.46181414,0.3747658,307.43286,-150.44478,35.819214,JUM
9213804000000.0,2.4811809062957764,1.317976474761963,6.511600017547607,-0.05602453276515007,-0.29563280940055847,0.49418998,0.31245756,306.0487,-149.67428999999998,36.1278,JUM
9213809000000.0,2.4861793518066406,1.5268679857254028,7.143835544586182,0.02123306319117546,-0.30017557740211487,0.5119051,0.23884831,304.7035,-148.939,36.409991999999995,JUM
9213814000000.0,2.4911746978759766,1.7325230836868286,7.761350631713867,0.09783139824867249,-0.3043134808540344,0.41233405,0.20891592,303.27707000000004,-148.15848,36.667957,JUM
9213820000000.0,2.496206045150757,1.9254450798034668,8.357102394104004,0.15970849990844727,-0.3073030412197113,0.26083946,0.21013765,301.90222,-147.42657,36.891273,JUM
9213824000000.0,2.50120210647583,2.106720447540283,8.929686546325684,0.21009628474712372,-0.3068452477455139,0.24648413,0.23945917,300.48492000000005,-146.69858,37.125755,JUM
9213829000000.0,2.506199598312378,2.2779860496520996,9.477557182312012,0.27682599425315857,-0.3036935329437256,0.25228736,0.2929099,299.1612,-146.02495,37.321396,JUM
9213834000000.0,2.5111985206604004,2.439875841140747,10.001702308654785,0.3613901734352112,-0.29654279351234436,0.24556783,0.34025195,297.8983,-145.41513,37.502483000000005,JUM
9213839000000.0,2.5162007808685303,2.5938055515289307,10.501184463500977,0.4567968249320984,-0.2872175872325897,0.21838433,0.3436117,296.69934,-144.86755,37.666893,JUM
9213844000000.0,2.5211944580078125,2.740299940109253,10.9768648147583,0.5609461665153503,-0.27485716342926025,0.2764165,0.35094208,295.52727999999996,-144.3809,37.84809,JUM
9213849000000.0,2.5261924266815186,2.869495153427124,11.428760528564453,0.6733537316322327,-0.2597372233867645,0.37812558,0.3381139,294.30922999999996,-143.85873,38.025696,JUM
9213854000000.0,2.5311872959136963,2.981699228286743,11.857983589172363,0.7931669354438782,-0.24263963103294373,0.47403142,0.2706133,293.09952000000004,-143.36409,38.191536,JUM
9213859000000.0,2.5361852645874023,3.0743887424468994,12.265275955200195,0.9102483987808228,-0.22523242235183716,0.50793445,0.16982053,291.85785,-142.86136000000002,38.35698,JUM
9213865000000.0,2.5411813259124756,3.147949695587158,12.651651382446289,1.0218784809112549,-0.20850872993469238,0.5161811,0.06261369,290.61014,-142.37157,38.505947,JUM
9213869000000.0,2.5461785793304443,3.2023301124572754,13.017755508422852,1.1187829971313477,-0.19036491215229034,0.51893,-0.07696902,289.32532000000003,-141.84814,38.611897,JUM
9213874000000.0,2.5511770248413086,3.23837947845459,13.364585876464844,1.2000763416290283,-0.17165794968605042,0.50885075,-0.20433442,288.05048,-141.32211,38.683105,JUM
9213879000000.0,2.5561747550964355,3.25896954536438,13.693175315856934,1.2691103219985962,-0.15119706094264984,0.48747048,-0.31215215,286.7914,-140.78548999999998,38.691685,JUM
9213884000000.0,2.561176300048828,3.2654919624328613,14.00450325012207,1.3274812698364258,-0.12936870753765106,0.41386122,-0.39492437,285.5563,-140.24731,38.657692,JUM
9213890000000.0,2.5661990642547607,3.258739471435547,14.294106483459473,1.3719526529312134,-0.10671781748533249,0.34574974,-0.46578476,284.37366000000003,-139.72146999999998,38.565887,JUM
9213894000000.0,2.5711958408355713,3.2418770790100098,14.561683654785156,1.4035841226577759,-0.08436252176761627,0.23884831,-0.5296202,283.23154,-139.19756999999998,38.43524,JUM
9213899000000.0,2.5761938095092773,3.2143139839172363,14.807697296142578,1.4219305515289307,-0.06088721752166748,0.12217305,-0.5910121,282.14797999999996,-138.68663,38.254948,JUM
9213904000000.0,2.5811920166015625,3.176673650741577,15.033330917358398,1.4277530908584595,-0.03815838322043419,0.048563786,-0.64843345,281.09076,-138.1726,38.051804,JUM
9213909000000.0,2.5861895084381104,3.1295254230499268,15.239690780639648,1.4217514991760254,-0.01569674350321293,-0.076052725,-0.6753115,280.08867999999995,-137.70091000000002,37.854862,JUM
9213914000000.0,2.591186761856079,3.073350667953491,15.427786827087402,1.4045305252075195,0.006381720304489136,-0.17837265,-0.7141015000000001,279.10497999999995,-137.22632,37.636466999999996,JUM
9213919000000.0,2.5961856842041016,3.0138731002807617,15.572213172912598,1.3730019330978394,0.028960127383470535,-0.2611449,-0.7476991,278.1647,-136.76407,37.401295000000005,JUM
9213924000000.0,2.601184129714966,2.9540202617645264,15.66209888458252,1.3261886835098267,0.052142053842544556,-0.31184670000000003,-0.7602218000000001,277.25702,-136.31223,37.15643,JUM
9213930000000.0,2.6061813831329346,2.8946685791015625,15.69589900970459,1.2659598588943481,0.0758790597319603,-0.33964106,-0.7495316,276.48965,-135.93558000000002,36.886314,JUM
9213934000000.0,2.6111817359924316,2.8362154960632324,15.673299789428711,1.1933413743972778,0.09963696449995041,-0.34422258,-0.7290677,275.73334,-135.5698,36.619965,JUM
9213939000000.0,2.6161816120147705,2.777050495147705,15.599645614624023,1.1165534257888794,0.12422852963209152,-0.29443705,-0.7021896,275.05847,-135.28665,36.39011,JUM
9213944000000.0,2.6211795806884766,2.716200828552246,15.479005813598633,1.0406324863433838,0.14876289665699005,-0.29016098,-0.68233645,274.39954,-135.01144,36.163002,JUM
9213950000000.0,2.626178026199341,2.651487112045288,15.312191009521484,0.9680843949317932,0.1726408451795578,-0.3323107,-0.6478225999999999,273.82956,-134.83081,35.98713,JUM
9213954000000.0,2.6311769485473633,2.5797195434570312,15.099599838256836,0.9026342034339905,0.19477424025535583,-0.36987892,-0.6078109,273.2566,-134.65633,35.82277,JUM
9213959000000.0,2.636176824569702,2.499143123626709,14.847899436950684,0.8421558737754822,0.21496304869651794,-0.40408736,-0.5751295999999999,272.75558,-134.55385,35.70001,JUM
9213964000000.0,2.6411750316619873,2.4082889556884766,14.563920974731445,0.7846536040306091,0.23388060927391052,-0.4288274,-0.5522222,272.2636,-134.45673,35.58331,JUM
9213969000000.0,2.646172046661377,2.3079428672790527,14.247815132141113,0.7304286360740662,0.2526038587093353,-0.43615779999999993,-0.5513059,271.81775,-134.41177,35.499905,JUM
9213974000000.0,2.6511693000793457,2.19888973236084,13.899231910705566,0.6798890233039856,0.2712082862854004,-0.44318274,-0.54305923,271.3804,-134.37053999999998,35.421993,JUM
9213979000000.0,2.65616774559021,2.083613157272339,13.522120475769043,0.6333217024803162,0.28808873891830444,-0.47739118,-0.5369505,271.0005,-134.36812,35.353317,JUM
9213984000000.0,2.6611669063568115,1.9643948078155518,13.120338439941406,0.5909579396247864,0.3021163046360016,-0.52534413,-0.5488624,270.62164,-134.35889,35.28037,JUM
9213989000000.0,2.666163921356201,1.844003438949585,12.694618225097656,0.5498852729797363,0.31337791681289673,-0.5693264,-0.54611355,270.3027,-134.39523,35.22632,JUM
9213995000000.0,2.6711618900299072,1.7256015539169312,12.24445629119873,0.5065750479698181,0.3232417702674866,-0.59315014,-0.5500841999999999,269.9864,-134.4219,35.16492,JUM
9213999000000.0,2.676159620285034,1.6120158433914185,11.775428771972656,0.4603908956050873,0.3301708996295929,-0.59742624,-0.5439755000000001,269.72567999999995,-134.48755,35.130676,JUM
9214004000000.0,2.6811575889587402,1.5062508583068848,11.29301929473877,0.41060832142829895,0.3350379168987274,-0.5849035,-0.52870387,269.46646,-134.55136000000002,35.09778,JUM
9214009000000.0,2.6861562728881836,1.4096466302871704,10.803363800048828,0.35983866453170776,0.3388154208660126,-0.5439755000000001,-0.5225952,269.26166,-134.66856,35.092144,JUM
9214015000000.0,2.6911556720733643,1.3238561153411865,10.313515663146973,0.31109482049942017,0.3393477499485016,-0.48685959999999995,-0.48502702,269.05643,-134.78204,35.102856,JUM
9214019000000.0,2.6961488723754883,1.2489312887191772,9.823993682861328,0.26580485701560974,0.336872935295105,-0.42394048,-0.44409904,268.89977999999996,-134.9544,35.149418,JUM
9214024000000.0,2.7011449337005615,1.188254714012146,9.333016395568848,0.2311328500509262,0.3313559293746948,-0.36041048,-0.37873647,268.73895,-135.12823,35.219242,JUM
9214029000000.0,2.7061398029327393,1.1403790712356567,8.845932960510254,0.2077789157629013,0.3229263126850128,-0.31215215,-0.310625,268.64935,-135.28203,35.266068,JUM
9214034000000.0,2.7111377716064453,1.1040178537368774,8.369004249572754,0.19722719490528107,0.31095796823501587,-0.27824909999999997,-0.23701571,268.55957,-135.43973,35.338390000000004,JUM
9214039000000.0,2.7161312103271484,1.07810378074646,7.902929306030273,0.19701369106769562,0.29606273770332336,-0.26816985,-0.16310102,268.5042,-135.613,35.443870000000004,JUM
9214044000000.0,2.72112774848938,1.0616428852081299,7.449445724487305,0.20182189345359802,0.2781849503517151,-0.2678644,-0.0720821,268.46088,-135.79465,35.575687,JUM
9214049000000.0,2.726123094558716,1.0505841970443726,7.011483669281006,0.2037755399942398,0.25730451941490173,-0.23732115,0.01282817,268.50307999999995,-135.81602,35.578014,JUM
9214054000000.0,2.7311201095581055,1.039005994796753,6.593781471252441,0.190470352768898,0.23441162705421448,-0.17043139999999998,0.0842994,268.54834,-135.84761,35.60647,JUM
9214059000000.0,2.736114978790283,1.0269527435302734,6.195306301116943,0.16294850409030914,0.21190860867500305,-0.08796459400000001,0.1432479,268.59564,-135.91277,35.68858,JUM
9214064000000.0,2.741112232208252,1.014430284500122,5.814979553222656,0.12170250713825226,0.19055600464344025,-0.008857545999999999,0.19761491,268.63622999999995,-135.98827,35.79886,JUM
9214069000000.0,2.74611234664917,1.0013247728347778,5.454325199127197,0.06966201215982437,0.17053666710853577,0.06750060599999999,0.23609942,268.66112999999996,-136.07336,35.932503000000004,JUM
9214074000000.0,2.7511467933654785,0.9869849681854248,5.122002601623535,0.014596627093851566,0.15257714688777924,0.13164146,0.29199359999999996,268.6792,-136.17976000000002,36.095875,JUM
9214080000000.0,2.756145715713501,0.9719606041908264,4.814725399017334,-0.041623204946517944,0.13723501563072205,0.16096300000000002,0.32620203,268.79086,-136.35979,36.258984000000005,JUM
9214084000000.0,2.7611520290374756,0.956332266330719,4.534124851226807,-0.09718812257051468,0.12481029331684113,0.18967366,0.36835176,268.89799999999997,-136.56229,36.448475,JUM
9214089000000.0,2.7661519050598145,0.940199077129364,4.278287887573242,-0.15202130377292633,0.1151963323354721,0.20616703,0.40408736,269.00388,-136.7867,36.64547,JUM
9214094000000.0,2.771151304244995,0.9252504706382751,4.049438953399658,-0.20098170638084412,0.10721786320209503,0.21930063,0.43096542,269.112,-137.02466,36.85478,JUM
9214099000000.0,2.7761499881744385,0.9115960597991943,3.846468687057495,-0.24385003745555878,0.10033195465803146,0.22968534,0.46944994,269.22876,-137.2812,37.077909999999996,JUM
9214104000000.0,2.7811503410339355,0.8991897106170654,3.6688501834869385,-0.2754041850566864,0.09360141307115555,0.24251351,0.47586402,269.31113,-137.57516,37.325140000000005,JUM
9214109000000.0,2.7861480712890625,0.8879597187042236,3.5151233673095703,-0.2954876720905304,0.08724583685398102,0.25076020000000004,0.50610185,269.40915,-137.88626000000002,37.58607,JUM
9214114000000.0,2.7911477088928223,0.8721983432769775,3.3786160945892334,-0.3066600263118744,0.08093597739934921,0.26816985,0.5329799,269.40033,-138.37027,37.99585,JUM
9214119000000.0,2.796144962310791,0.8515594005584717,3.25758695602417,-0.3097793459892273,0.07499494403600693,0.29871312,0.5421429,269.40207000000004,-138.83888000000002,38.393135,JUM
9214125000000.0,2.801145315170288,0.8257717490196228,3.1464109420776367,-0.30643028020858765,0.06997278332710266,0.3304781,0.5412266,269.35773,-139.2071,38.730185999999996,JUM
9214129000000.0,2.8061444759368896,0.7951344847679138,3.0436956882476807,-0.29726630449295044,0.06458345055580139,0.34025195,0.5329799,269.31958,-139.55965,39.05635,JUM
9214134000000.0,2.811147928237915,0.7585019469261169,2.9487428665161133,-0.2831656038761139,0.05855352059006691,0.34086279999999997,0.51251596,269.22922,-139.8679,39.360382,JUM
9214139000000.0,2.816150665283203,0.7156808972358704,2.8609509468078613,-0.26482686400413513,0.05188458040356636,0.30909783,0.48075095,269.1477,-140.15765,39.644420000000004,JUM
9214145000000.0,2.8211843967437744,0.6644207239151001,2.784372568130493,-0.249317467212677,0.044268857687711716,0.25228736,0.44135013,269.03693,-140.41827,39.90713,JUM
9214149000000.0,2.826184034347534,0.607052206993103,2.7180633544921875,-0.2379496544599533,0.0339663028717041,0.21471913,0.39950588,268.9272,-140.6507,40.1486,JUM
9214154000000.0,2.8311827182769775,0.5450771450996399,2.6678950786590576,-0.22762086987495422,0.021771196275949478,0.19730948,0.37140608,268.81107000000003,-140.78891000000002,40.318726,JUM
9214159000000.0,2.8361806869506836,0.47977468371391296,2.6354458332061768,-0.21682250499725342,0.00861454289406538,0.18692477,0.34147367,268.6959,-140.90546,40.468903000000005,JUM
9214164000000.0,2.8411784172058105,0.41753414273262024,2.6244163513183594,-0.2046821266412735,-0.00665693823248148,0.19853121,0.3323107,268.57318,-140.98795,40.583324,JUM
9214169000000.0,2.846177577972412,0.36093586683273315,2.6358327865600586,-0.19086343050003052,-0.02344221994280815,0.18631389999999998,0.31764993,268.45333999999997,-141.05483999999998,40.680473,JUM
9214174000000.0,2.8511760234832764,0.3141695261001587,2.673118829727173,-0.1780809462070465,-0.04083048552274704,0.18325958,0.31978795,268.2829,-141.04446000000002,40.73361,JUM
9214179000000.0,2.8561768531799316,0.2814995348453522,2.7402026653289795,-0.1690068244934082,-0.05911514535546303,0.17256944,0.33139440000000003,268.11554,-141.02331999999998,40.780415000000005,JUM
9214184000000.0,2.8611793518066406,0.2622089087963104,2.8393025398254395,-0.17792139947414398,-0.07706017792224884,0.16737708,0.35277468,267.8648,-140.95013,40.803936,JUM
9214190000000.0,2.866182327270508,0.2556005120277405,2.9730429649353027,-0.22057953476905823,-0.09305595606565475,0.21655174,0.36621370000000003,267.59796,-140.87592,40.833496000000004,JUM
9214194000000.0,2.8711812496185303,0.26119840145111084,3.1472647190093994,-0.28982847929000854,-0.10404855012893677,0.33933565,0.36071593,267.21972999999997,-140.80199,40.88165,JUM
9214199000000.0,2.87618088722229,0.27917084097862244,3.3736164569854736,-0.377320796251297,-0.10936050862073898,0.41294490000000006,0.35338554,266.84036000000003,-140.73344,40.92958,JUM
9214204000000.0,2.881176471710205,0.3130134046077728,3.6551613807678223,-0.4689531922340393,-0.11253375560045242,0.5748241999999999,0.35277468,266.42273,-140.63788,40.94497,JUM
9214210000000.0,2.8861749172210693,0.37369832396507263,4.008627414703369,-0.5315014123916626,-0.11412176489830017,0.68661255,0.35460728,265.99286,-140.55199,40.962173,JUM
9214215000000.0,2.891195774078369,0.4639267027378082,4.439174175262451,-0.5636085867881775,-0.11738310009241104,0.73639804,0.36865717,265.43787000000003,-140.33566000000002,40.896229999999996,JUM
9214219000000.0,2.896193027496338,0.5818502902984619,4.934011936187744,-0.5684210658073425,-0.12681879103183746,0.7528914000000001,0.37782016,264.85526,-140.11139,40.842876000000004,JUM
9214224000000.0,2.901209592819214,0.7312502264976501,5.502755165100098,-0.5432214140892029,-0.1377374678850174,0.7489208,0.37507126,263.88156000000004,-139.707,40.767376,JUM
9214230000000.0,2.906205415725708,0.8998322486877441,6.091153144836426,-0.497265100479126,-0.15175293385982513,0.68569624,0.34116822,262.92822,-139.28745,40.679435999999995,JUM
9214234000000.0,2.911207437515259,1.0891497135162354,6.70277738571167,-0.429372102022171,-0.16756075620651245,0.55955255,0.28527406,261.57465,-138.62784,40.510082000000004,JUM
9214239000000.0,2.916205883026123,1.2863149642944336,7.310070991516113,-0.3430836498737335,-0.18317721784114838,0.40591997,0.23182335,260.2954,-137.99345,40.32291,JUM
9214244000000.0,2.92120099067688,1.4880398511886597,7.911019325256348,-0.241925448179245,-0.19859625399112701,0.23823744,0.2144137,258.87915,-137.27165,40.108579999999996,JUM
9214249000000.0,2.9261982440948486,1.677488923072815,8.49316120147705,-0.141327902674675,-0.21322612464427948,0.13225232,0.25259277,257.568,-136.60078000000001,39.88988,JUM
9214254000000.0,2.9311935901641846,1.8537875413894653,9.056451797485352,-0.03937928006052971,-0.22510677576065063,0.062002823,0.2706133,256.2329,-135.88608,39.633765999999994,JUM
9214259000000.0,2.9361910820007324,2.0065832138061523,9.596047401428223,0.07781104743480682,-0.23267558217048645,-0.0027488936,0.25717425,255.01344,-135.22824,39.377098,JUM
9214264000000.0,2.9412035942077637,2.137002944946289,10.113301277160645,0.20927713811397552,-0.23591819405555725,-0.015271631,0.23182335,253.82431,-134.59703000000002,39.124012,JUM
9214269000000.0,2.9462006092071533,2.254295825958252,10.606200218200684,0.33843111991882324,-0.23607434332370758,0.03176499,0.18936823,252.69928,-134.007,38.873077,JUM
9214275000000.0,2.951199769973755,2.358929395675659,11.076149940490723,0.46564552187919617,-0.23177845776081085,0.11545353400000001,0.12522738,251.54056,-133.38928,38.591815999999994,JUM
9214279000000.0,2.956195831298828,2.4538815021514893,11.52299976348877,0.5901855826377869,-0.22154240310192108,0.20219639,0.036651913,250.41785,-132.80193,38.307682,JUM
9214284000000.0,2.9612083435058594,2.5393707752227783,11.948121070861816,0.7124910950660706,-0.20718024671077728,0.22937989,-0.048258353,249.31741,-132.21594,38.00305,JUM
9214289000000.0,2.9662060737609863,2.614574670791626,12.351408958435059,0.8233108520507812,-0.19112561643123627,0.23854288,-0.10873401,248.23767,-131.65248,37.697086,JUM
9214294000000.0,2.9711990356445312,2.679298162460327,12.733744621276855,0.9204035997390747,-0.17494994401931763,0.23518312,-0.20891592,247.18533,-131.09073999999998,37.3677,JUM
9214299000000.0,2.9761974811553955,2.7292728424072266,13.09599781036377,0.9958605766296387,-0.15854573249816895,0.22968534,-0.24404067,246.1514,-130.55334,37.051272999999995,JUM
9214304000000.0,2.9811947345733643,2.7648324966430664,13.439189910888672,1.0499136447906494,-0.14036253094673157,0.21410827,-0.33200526,245.14597,-130.00458,36.700466,JUM
9214309000000.0,2.986192226409912,2.7855515480041504,13.763199806213379,1.089221477508545,-0.12139041721820831,0.20647246,-0.38728857,244.19019,-129.48148999999998,36.352245,JUM
9214314000000.0,2.9911890029907227,2.7919704914093018,14.068765640258789,1.1160120964050293,-0.101215660572052,0.16462818,-0.44348818,243.27396000000002,-128.96072,35.984535,JUM
9214319000000.0,2.996187448501587,2.7847559452056885,14.35686206817627,1.1308773756027222,-0.08032555878162384,0.08979719,-0.49632803,242.41931,-128.46688999999998,35.610687,JUM
9214324000000.0,3.001185178756714,2.764735221862793,14.62842845916748,1.1345322132110596,-0.05862802267074585,0.021380282999999996,-0.54825157,241.59256000000002,-127.97861499999999,35.228446999999996,JUM
9214329000000.0,3.0061819553375244,2.7326090335845947,14.884347915649414,1.1275887489318848,-0.03688228502869606,-0.08093964,-0.6020076999999999,240.81686000000002,-127.49293,34.83283,JUM
9214334000000.0,3.0111820697784424,2.688803195953369,15.125434875488281,1.110438346862793,-0.01606755517423153,-0.19456059,-0.6462954000000001,240.08178999999998,-127.01225,34.429897,JUM
9214340000000.0,3.0161805152893066,2.6418912410736084,15.328461647033691,1.0830975770950317,0.004988919943571091,-0.27672195,-0.6569856,239.3845,-126.54472,34.026978,JUM
9214344000000.0,3.021178722381592,2.59462833404541,15.487170219421387,1.0458101034164429,0.026404475793242455,-0.33322698,-0.66553766,238.7272,-126.0805,33.617188,JUM
9214349000000.0,3.0261778831481934,2.5471019744873047,15.590473175048828,0.9990548491477966,0.047785598784685135,-0.38362336,-0.65668017,238.13065,-125.64766000000002,33.20132,JUM
9214354000000.0,3.031177043914795,2.4993956089019775,15.632657051086426,0.9433974027633667,0.06926433742046356,-0.40622538,-0.6404922,237.5475,-125.22838999999999,32.79449,JUM
9214360000000.0,3.036175489425659,2.4491162300109863,15.611809730529785,0.8842418193817139,0.08967979997396469,-0.41996986,-0.6087272,237.03195,-124.86641000000002,32.42879,JUM
9214364000000.0,3.0411734580993652,2.395451545715332,15.529150009155273,0.8236900568008423,0.10881194472312927,-0.44318274,-0.5766568,236.52835,-124.5175,32.0736,JUM
9214369000000.0,3.0461719036102295,2.3357582092285156,15.384438514709473,0.7619927525520325,0.12576879560947418,-0.4541782999999999,-0.5561928,236.08107,-124.23433,31.772216999999998,JUM
9214374000000.0,3.051170825958252,2.2691633701324463,15.179633140563965,0.6992983818054199,0.14113831520080566,-0.45448375,-0.535118,235.63846,-123.96351999999999,31.483707,JUM
9214379000000.0,3.056168794631958,2.1964128017425537,14.922337532043457,0.6344314813613892,0.15407729148864746,-0.46303585,-0.5372560000000001,235.25117000000003,-123.74614,31.245958,JUM
9214385000000.0,3.0611720085144043,2.1177778244018555,14.615928649902344,0.5667639970779419,0.16513846814632416,-0.47769663,-0.528093,234.86608999999999,-123.537476,31.018852000000003,JUM
9214389000000.0,3.066174268722534,2.0351099967956543,14.268050193786621,0.49537527561187744,0.1742917001247406,-0.48747048,-0.5271766999999999,234.52863,-123.381805,30.835804,JUM
9214394000000.0,3.0711724758148193,1.949555516242981,13.883902549743652,0.4197932183742523,0.18222464621067047,-0.48685959999999995,-0.52595496,234.19107000000002,-123.22685,30.655874,JUM
9214399000000.0,3.0762085914611816,1.85970139503479,13.4545259475708,0.3430251479148865,0.1898975968360901,-0.47342056,-0.5235115,233.90292000000002,-123.1281,30.519464000000003,JUM
9214405000000.0,3.0812058448791504,1.7676727771759033,12.996969223022461,0.2691877484321594,0.19644543528556824,-0.47525316,-0.52870387,233.6174,-123.02341499999999,30.380527,JUM
9214409000000.0,3.086202621459961,1.6756092309951782,12.510008811950684,0.19526395201683044,0.20264431834220886,-0.49907690000000005,-0.5311473000000001,233.39026,-122.97952,30.280521000000004,JUM
9214414000000.0,3.0911991596221924,1.585917592048645,11.999326705932617,0.11919733136892319,0.20861051976680756,-0.5314528000000001,-0.52442783,233.16602000000003,-122.93446999999999,30.18102,JUM
9214419000000.0,3.096195936203003,1.4987516403198242,11.470671653747559,0.04222109168767929,0.21419364213943481,-0.52320606,-0.5235115,233.00113,-122.91853,30.098615999999996,JUM
9214425000000.0,3.1011927127838135,1.4142111539840698,10.928783416748047,-0.034692615270614624,0.21946296095848083,-0.49907690000000005,-0.5122104999999999,232.84204,-122.90775,30.020984999999996,JUM
9214429000000.0,3.106189250946045,1.3336255550384521,10.380807876586914,-0.106893390417099,0.22368642687797546,-0.45051312,-0.49938235,232.80255,-122.89241000000001,29.921898,JUM
9214434000000.0,3.1111910343170166,1.2580955028533936,9.83210563659668,-0.170427143573761,0.22732670605182648,-0.40011674,-0.47739118,232.75413999999998,-122.88587,29.832851,JUM
9214439000000.0,3.1161904335021973,1.1878461837768555,9.289327621459961,-0.22412869334220886,0.23034977912902832,-0.36163223,-0.43676865,232.72311000000002,-122.95058,29.805212,JUM
9214444000000.0,3.121187686920166,1.1231276988983154,8.758051872253418,-0.26670342683792114,0.23116078972816467,-0.33017266,-0.37904188,232.6818,-123.02346999999999,29.793764000000003,JUM
9214449000000.0,3.1261847019195557,1.064954161643982,8.239012718200684,-0.2977635860443115,0.22948697209358215,-0.33414328,-0.3051272,232.75083999999998,-123.07073999999999,29.747332,JUM
9214454000000.0,3.13118314743042,1.0178381204605103,7.736835479736328,-0.3143799901008606,0.2252003252506256,-0.34666604,-0.20799962,232.81912000000003,-123.13723999999999,29.727179,JUM
9214459000000.0,3.1361782550811768,0.981523871421814,7.257118225097656,-0.31880396604537964,0.21834242343902588,-0.36957347,-0.11636983,232.96764,-123.17711000000001,29.684773999999997,JUM
9214464000000.0,3.141176223754883,0.9563621282577515,6.8080596923828125,-0.3132898509502411,0.20812247693538666,-0.41050145,-0.02321288,233.13492000000002,-123.236725,29.668165000000002,JUM
9214470000000.0,3.146209478378296,0.941692590713501,6.392073631286621,-0.2992776930332184,0.195956751704216,-0.41813725,0.09437868,233.30487000000002,-123.33168,29.704285,JUM
9214474000000.0,3.1512060165405273,0.9332760572433472,6.009830474853516,-0.28201404213905334,0.18040259182453156,-0.39522982,0.20005837,233.48627000000002,-123.437744,29.763464000000003,JUM
9214479000000.0,3.156202793121338,0.9300188422203064,5.6606974601745605,-0.26265794038772583,0.16294275224208832,-0.32711834,0.29626966,233.6427,-123.56971000000001,29.872383000000003,JUM
9214484000000.0,3.161205530166626,0.9241802096366882,5.340439319610596,-0.2488415688276291,0.1439555138349533,-0.23762658,0.36560285,233.79303,-123.71558999999999,30.008571999999997,JUM
9214490000000.0,3.166203737258911,0.915840744972229,5.046563148498535,-0.2401159256696701,0.1237664446234703,-0.19822577,0.41630468,233.91946000000002,-123.86708999999999,30.170773999999998,JUM
9214494000000.0,3.17120099067688,0.9036862254142761,4.772607803344727,-0.23636534810066223,0.10370922088623047,-0.1142318,0.43737950000000003,234.00735,-124.02836599999999,30.356628000000004,JUM
9214499000000.0,3.176201343536377,0.8877731561660767,4.5173211097717285,-0.23759466409683228,0.08363031595945358,-0.04184427,0.46700647,234.08087,-124.19583,30.552301,JUM
9214504000000.0,3.181203603744507,0.867378830909729,4.276654243469238,-0.24586419761180878,0.06367738544940948,0.009468411,0.47678033,234.13512999999998,-124.363754,30.754648,JUM
9214509000000.0,3.186208963394165,0.8428026437759399,4.0499701499938965,-0.26063641905784607,0.0434856191277504,0.055283304000000005,0.4914411,234.1496,-124.55823000000001,30.985577000000003,JUM
9214514000000.0,3.1912057399749756,0.8155689835548401,3.8381669521331787,-0.2788219451904297,0.0241094883531332,0.09193522,0.49571714,234.15232999999998,-124.75415,31.219859999999997,JUM
9214519000000.0,3.1962027549743652,0.7856892943382263,3.6405436992645264,-0.3003767430782318,0.004805602133274078,0.13561209,0.48258355,234.08154,-125.02645,31.522057,JUM
9214524000000.0,3.201200008392334,0.755024254322052,3.4581446647644043,-0.31974029541015625,-0.01482054777443409,0.15485434,0.47036624,234.01497999999998,-125.29556000000001,31.821632,JUM
9214529000000.0,3.2062206268310547,0.7235660552978516,3.2907254695892334,-0.3364536762237549,-0.034116968512535095,0.19730948,0.43646320000000005,233.93094,-125.55183400000001,32.111965000000005,JUM
9214535000000.0,3.2112176418304443,0.6917376518249512,3.1366629600524902,-0.3509118854999542,-0.05290590599179268,0.22907446,0.41080686,233.78173999999999,-125.885185,32.468070000000004,JUM
9214540000000.0,3.2162399291992188,0.6591606736183167,2.996108055114746,-0.36296969652175903,-0.07215848565101624,0.26694809999999997,0.3753767,233.63852999999997,-126.18255,32.784073,JUM
9214544000000.0,3.2212352752685547,0.6304431557655334,2.8689894676208496,-0.3757299482822418,-0.09123146533966064,0.3145956,0.3484986,233.49475,-126.46451,33.086323,JUM
9214549000000.0,3.2262284755706787,0.6061012744903564,2.755370616912842,-0.3896207809448242,-0.10956471413373947,0.3555236,0.3286455,233.3513,-126.72696,33.371853,JUM
9214555000000.0,3.23122501373291,0.5864362120628357,2.6542739868164062,-0.4062165915966034,-0.12638378143310547,0.37873647,0.3203988,233.23752000000002,-126.85991000000001,33.547134,JUM
9214559000000.0,3.2362172603607178,0.5711866021156311,2.564781904220581,-0.42555442452430725,-0.14185073971748352,0.38331795,0.31306845,233.1179,-126.985596,33.71587,JUM
