timestamp,rel_time,acc_x,acc_y,acc_z,gyro_x,gyro_y,gyro_z,azimuth,pitch,roll,label
0.0,0.0,0.0,0.0,0.0,0.0,0.029626964,0.014660766,78.9764,-31.185476,46.89711,STD
0.18510352075099945,1.2043589841303289e-15,3.4388531383383256e-14,2.34101843812895e-12,2.104066839378818e-13,-7.60414595738423e-15,0.028405233999999998,0.015577064,79.46570600000003,-31.84719,46.53074,STD
11.416297912597656,1.119657277591675e-13,2.120912820369192e-12,1.443876962436974e-10,1.2967871568236866e-11,-4.4381796957156106e-13,0.023518313,0.013744468000000001,79.93735,-32.510864,46.141705,STD
170.15423583984375,2.1389415846145843e-12,3.16110609910325e-11,2.1520880633119077e-09,1.931673848654114e-10,-6.14519719832618e-12,0.02443461,0.011911871999999999,80.39458,-33.17163,45.74705,STD
1321.061767578125,2.0072839224116734e-11,2.4542470833388563e-10,1.6709062578001976e-08,1.4989052221636712e-09,-4.590513733027102e-11,0.016798794,0.0125227375,80.84335,-33.826656,45.350407000000004,STD
6931.23193359375,1.2281928252200203e-10,1.2876697486063904e-09,8.766992465325529e-08,7.860144535243307e-09,-2.3514523661560816e-10,0.022296581,0.015271631,81.2749,-34.478127,44.947309999999995,STD
27860.4609375,5.622941001703907e-10,5.175845529947765e-09,3.52402935277496e-07,3.157788341923151e-08,-9.191459815482972e-10,0.017104227,0.014660766,81.70055,-35.1257,44.543137,STD
92156.53125,2.0831072422566876e-09,1.712056452163324e-08,1.16570345198852e-06,1.0439966047215421e-07,-2.93136825924023e-09,0.01985312,0.009773844,82.1098,-35.76834,44.133152,STD
262449.625,6.567963950487865e-09,4.875698778050719e-08,3.3198523397004465e-06,2.971646040350606e-07,-8.070974999441205e-09,0.018325957,0.01282817,82.50820999999998,-36.40238,43.72371,STD
663489.8125,1.820317407918992e-08,1.2326054843470047e-07,8.393011739826761e-06,7.508695603064552e-07,-1.989974585114851e-08,0.0125227375,0.014660766,82.89641,-37.03459,43.310745000000004,STD
1521803.875,4.538524223107743e-08,2.8271409746594145e-07,1.9250983314123005e-05,1.7213531009474536e-06,-4.4857870307168923e-08,0.004276057,0.011301007,83.27453,-37.66126,42.895965999999994,STD
3218369.25,1.0360516711216405e-07,5.978931767458562e-07,4.071370858582668e-05,3.6385622479429003e-06,-9.36026935960399e-08,0.004276057,0.008552114,83.63962,-38.281425,42.47982800000001,STD
6353764.0,2.1946040362763597e-07,1.1803690540546086e-06,8.037969382712618e-05,7.179752174124587e-06,-1.8258390355185838e-07,0.0027488936,0.02076942,83.99401999999998,-38.892708,42.06681,STD
11823689.0,4.359096976713772e-07,2.196538162024808e-06,0.0001495817705290392,1.3354192560655065e-05,-3.3627100037847413e-07,0.0027488936,0.020463986,84.16443407224149,-39.19364193369621,41.8603526541316,STD
20901314.0,8.18786361378443e-07,3.882918917952338e-06,0.000264429283561185,2.35953411902301e-05,-5.892771355320292e-07,0.004886922,0.017104227,84.33981,-39.503338,41.64788400000001,STD
35321820.0,1.4644559769294574e-06,6.561857844644692e-06,0.00044687825720757246,3.985525108873844e-05,-9.889014336295077e-07,0.008552114,0.021685716,84.67049399999998,-40.102333,41.233425,STD
57363932.0,2.5084168555622455e-06,1.0656674021447543e-05,0.0007257636170834303,6.469531217589974e-05,-1.5979125009835116e-06,0.004886922,0.01863139,84.99436,-40.698284,40.816788,STD
89923192.0,4.134538357902784e-06,1.6705269445083104e-05,0.001137726940214634,0.00010136745549971238,-2.4974028747237753e-06,0.004581489,0.016798794,85.304344,-41.285957,40.40068400000001,STD
136572208.0,6.584580205526436e-06,2.537132240831852e-05,0.0017279795138165355,0.00015388043539132923,-3.789684342336841e-06,0.0027488936,0.015882496,85.606224,-41.86754000000001,39.985268,STD
201604016.0,1.0167598702537362e-05,3.7452340620802715e-05,0.002550852485001087,0.00022704698494635522,-5.6007470448093954e-06,0.003970624,0.015271631,85.89754,-42.44357,39.569824,STD
290055904.0,1.5268826246028766e-05,5.3884086810285226e-05,0.0036700984928756952,0.000326508772559464,-8.082022759481333e-06,0.0067195175,0.010079277,86.18018000000002,-43.01444,39.15406,STD
407712224.0,2.2357666239258833e-05,7.57410962251015e-05,0.0051589286886155605,0.0004587376897688955,-1.1410296792746522e-05,0.0070249503,0.0125227375,86.452515,-43.578266,38.741528,STD
561086144.0,3.199449565727264e-05,0.0001042332878569141,0.007099783513695002,0.0006310135358944535,-1.578715819050558e-05,0.009773844,0.017104227,86.714485,-44.13528400000001,38.329082,STD
757381120.0,4.483604061533697e-05,0.00014069881581235677,0.009583844803273678,0.0008513787179253995,-2.143747769878246e-05,0.00580322,0.008857545999999999,86.971214,-44.689964,37.91661,STD
1004434368.0,6.16391989751719e-05,0.00018659353372640908,0.012710321694612503,0.001128573203459382,-2.8605667466763407e-05,0.0036651915999999997,0.017715093,87.21419499999998,-45.23341,37.511044,STD
1310644480.0,8.326334500452504e-05,0.00024347759608644992,0.016585536301136017,0.0014719512546434999,-3.755163561436348e-05,0.003970624,0.0070249503,87.45363,-45.776207,37.100770000000004,STD
1684886400.0,0.00011067071318393573,0.000312999589368701,0.021321848034858704,0.001891384832561016,-4.854429789702408e-05,0.007941248,0.008552114,87.6809,-46.30972,36.698067,STD
2136417024.0,0.00014492511400021613,0.00039687909884378314,0.027036460116505623,0.002397156786173582,-6.185646634548903e-05,0.0036651915999999997,0.007330383,87.90478,-46.83782,36.295456,STD
2674774528.0,0.00018718908540904522,0.0004968878929503262,0.03385014459490776,0.0029998458921909332,-7.776007987558842e-05,0.005192355,0.008552114,88.117035,-47.36025,35.89542,STD
3309674496.0,0.00023871973098721355,0.0006148307584226131,0.04188593477010727,0.0037102107889950275,-9.652178414398804e-05,-0.008552114,0.018020526000000002,88.32694000000002,-47.873657,35.50244,STD
4050905856.0,0.00030086326296441257,0.0007525260443799198,0.05126779526472092,0.004539072047919035,-0.00011839983926620334,-0.01038471,0.016798794,88.52651999999998,-48.382263,35.10843,STD
4908228096.0,0.00037504849024116993,0.000911786628421396,0.06211933493614197,0.005497197154909372,-0.0001436402089893818,-0.0076358155,0.01985312,88.719925,-48.88183,34.7222,STD
5891273216.0,0.0004627793387044221,0.0010944016976282,0.07456255704164505,0.006595191080123186,-0.00017247264622710645,-0.008857545999999999,0.015577064,88.909454,-49.37623,34.337627000000005,STD
7009454080.0,0.0005656268913298845,0.001302119460888207,0.08871670067310333,0.00784339103847742,-0.0002051077171927318,-0.008857545999999999,0.020158553,88.99964316600479,-49.6219129626688,34.145366249404304,STD
8271876608.0,0.0006852209335193038,0.0015366316074505448,0.10469713807106018,0.009251774288713932,-0.00024173375277314335,-0.002443461,0.01282817,89.08827,-49.86334,33.956436,STD
9687264256.0,0.0008232409018091857,0.0017995582893490791,0.12261439114809036,0.010829867795109749,-0.00028251518961042166,-0.0012217305,0.013133603,89.2628,-50.34395,33.579117,STD
11263885312.0,0.000981407123617828,0.0020924354903399944,0.1425732672214508,0.012586673721671104,-0.00032759242458269,0.007941248,0.017104227,89.42633000000002,-50.81783,33.204075,STD
13009497088.0,0.0011614718241617084,0.002416703850030899,0.1646720916032791,0.014530601911246777,-0.0003770833136513829,0.0030543262,0.018020526000000002,89.588165,-51.285441999999996,32.833397,STD
14931290112.0,0.0013652099296450615,0.0027736991178244352,0.18900202214717865,0.016669413074851036,-0.0004310769436415285,0.005497787,0.015271631,89.73883000000002,-51.74947,32.464825,STD
17035845632.0,0.001594410976395011,0.003164643421769142,0.21564650535583496,0.019010169431567192,-0.0004896298050880432,-0.002443461,0.014966198,89.8882,-52.202473,32.102615,STD
19329101824.0,0.0018508704379200935,0.003590639680624008,0.24468088150024414,0.021559201180934906,-0.0005527647444978356,0.003970624,0.016187929,90.02686,-52.651978,31.742277,STD
21816326144.0,0.0021363820414990187,0.0040526664815843105,0.2761719822883606,0.024322066456079483,-0.0006204717210493982,0.0018325957999999999,0.012217305,90.16596,-53.096153,31.386124,STD
24502093824.0,0.0024527290370315313,0.004551575053483248,0.3101779520511627,0.027303526178002357,-0.0006927119684405625,0.0012217305,0.010995574,90.289375,-53.549114,31.012602,STD
27390279680.0,0.0028016779106110334,0.005088087171316147,0.3467479944229126,0.0305075291544199,-0.0007694190717302263,-0.0021380284,0.005497787,90.40983,-53.999184,30.64145,STD
30484051968.0,0.0031849707011133432,0.005662794690579176,0.385922372341156,0.03393718972802162,-0.0008505023433826864,0.0012217305,0.007330383,90.522446,-54.43866,30.275513,STD
33785866240.0,0.0036043194122612476,0.006276160944253206,0.4277324378490448,0.03759478032588959,-0.0009358504321426153,0.005192355,0.018325957,90.63041,-54.87226500000001,29.91509000000001,STD
37297479680.0,0.00406139949336648,0.006928520277142525,0.4722006022930145,0.041481733322143555,-0.0010253338841721416,0.020158553,0.018020526000000002,90.73005,-55.30164,29.555048,STD
41019957248.0,0.004557844717055559,0.0076200831681489944,0.5193405151367188,0.04559864103794098,-0.0011188099160790443,0.009773844,0.016798794,90.83051999999999,-55.720909999999996,29.204037,STD
44953681920.0,0.005095242522656918,0.008350937627255917,0.5691573023796082,0.04994526132941246,-0.0012161264894530177,0.01282817,0.01985312,90.91720600000001,-56.133945,28.855833,STD
49098375168.0,0.005675129126757383,0.009121051989495754,0.6216476559638977,0.054520536214113235,-0.00131712865550071,0.028710667000000002,0.01863139,90.999344,-56.540572999999995,28.510328,STD
53453127680.0,0.00629898626357317,0.009930282831192017,0.6768002510070801,0.05932260677218437,-0.0014216640265658498,0.021685716,0.016187929,91.08321,-56.941166,28.171526,STD
58016403456.0,0.006968236993998289,0.010778375901281834,0.7345959544181824,0.06434882432222366,-0.0015295852208510041,0.021685716,0.014966198,91.15594,-57.33544000000001,27.83514000000001,STD
62786084864.0,0.007684243842959404,0.011664974503219128,0.7950081825256348,0.06959579139947891,-0.0016407505609095097,0.01282817,0.023823743999999997,91.22888,-57.721695,27.506712,STD
67759489024.0,0.008448305539786816,0.012589622288942337,0.8580031991004944,0.07505938410758972,-0.0017550260527059436,0.025961772999999997,0.027488936000000002,91.291916,-58.102665,27.179113,STD
72933408768.0,0.009261655621230602,0.013551770709455013,0.9235405921936035,0.08073477447032928,-0.0018722874810919166,0.021991148999999998,0.023823743999999997,91.35905,-58.47871800000001,26.858605999999998,STD
78304116736.0,0.010125459171831608,0.014550783671438694,0.9915735721588135,0.08661646395921707,-0.001992423553019762,0.029321532999999997,0.027183502999999998,91.41415400000001,-58.844513,26.543407000000002,STD
83867435008.0,0.011040814220905304,0.0155859449878335,1.062049388885498,0.09269833564758301,-0.00211533741094172,0.03176499,0.019547688,91.469925,-59.209637,26.229387,STD
89618743296.0,0.012008747085928917,0.016656462103128433,1.1349098682403564,0.09897367656230927,-0.0022409476805478334,0.02687807,0.027488936000000002,91.520676,-59.56244,25.925022,STD
95553003520.0,0.013030213303864002,0.0177614726126194,1.210091471672058,0.10543521493673325,-0.00236918730661273,0.030848695,0.020158553,91.566895,-59.91698,25.617903,STD
101664817152.0,0.01410609856247902,0.018900051712989807,1.2875261306762695,0.11207517236471176,-0.0024999992456287146,0.033292156,0.026572637000000003,91.61004,-60.260216,25.321679999999997,STD
107948441600.0,0.015237215906381607,0.02007121779024601,1.3671413660049438,0.11888528615236282,-0.0026333376299589872,0.038179077,0.021991148999999998,91.64986999999999,-60.600685,25.02436,STD
114397822976.0,0.016424307599663734,0.021273933351039886,1.4488608837127686,0.12585686147212982,-0.0027691626455634832,0.03726278,0.015271631,91.68743,-60.93898000000001,24.732866,STD
121006620672.0,0.017668046057224274,0.022507119923830032,1.532604694366455,0.1329808086156845,-0.002907438902184367,0.03023783,0.011911871999999999,91.72270999999999,-61.26786800000001,24.445518,STD
127768264704.0,0.018969031050801277,0.02376965433359146,1.618289828300476,0.14024768769741058,-0.003048133570700884,0.036957346,0.020158553,91.75097,-61.592636,24.162941,STD
134675955712.0,0.020327793434262276,0.0250603798776865,1.705830454826355,0.14764772355556488,-0.0031912128906697035,0.034513887,0.028405233999999998,91.781784,-61.913123999999996,23.885057,STD
141722714112.0,0.021744797006249428,0.02637810818850994,1.7951384782791138,0.15517090260982513,-0.0033366375137120485,0.032070424,0.024740042,91.808334,-62.22896,23.609968,STD
148901380096.0,0.02322043664753437,0.027721626684069633,1.8861236572265625,0.1628069430589676,-0.003484355052933097,0.027794369,0.028710667000000002,91.83241,-62.536766,23.343828,STD
156204695552.0,0.024755040183663368,0.029089700430631638,1.978694200515747,0.17054538428783417,-0.0036342921666800976,0.022602014,0.02443461,91.85608,-62.843338,23.078854,STD
163625271296.0,0.02634887397289276,0.03048107773065567,2.0727570056915283,0.17837560176849365,-0.0037863554898649454,0.027794369,0.028099801,91.87462,-63.139509999999994,22.820894,STD
171155652608.0,0.028002137318253517,0.0318944938480854,2.168217897415161,0.1862868368625641,-0.003940430004149675,0.018936822,0.031154128,91.89704,-63.43563,22.567099,STD
178788335616.0,0.029714971780776978,0.03332868218421936,2.264981985092163,0.19426824152469635,-0.004096377640962601,0.023823743999999997,0.026572637000000003,91.9119,-63.726177,22.314928,STD
186515767296.0,0.03148745372891426,0.03478236496448517,2.3629539012908936,0.20230892300605774,-0.004254037048667669,0.008857545999999999,0.026267206,91.93269000000001,-64.008606,22.070829999999997,STD
194330378240.0,0.033319611102342606,0.036254268139600754,2.462038278579712,0.21039795875549316,-0.004413224291056395,0.011301007,0.032986722999999996,91.94451,-64.28797,21.829853,STD
202224631808.0,0.03521140664815903,0.03774311766028404,2.5621397495269775,0.21852442622184753,-0.004573732614517212,0.013744468000000001,0.025350908,91.95991500000001,-64.56527,21.589796,STD
210191007744.0,0.03716275468468666,0.039247650653123856,2.663163423538208,0.22667743265628815,-0.004735334776341915,0.01160644,0.02443461,91.97299,-64.83373,21.357489,STD
218222051328.0,0.039173513650894165,0.04076660796999931,2.765014886856079,0.23484617471694946,-0.004897781182080507,0.01863139,0.01282817,91.98201999999999,-65.10534,21.123155999999998,STD
226310340608.0,0.04124349355697632,0.04229874536395073,2.867600679397583,0.24301990866661072,-0.005060802213847637,0.017104227,0.022602014,91.99091,-65.362686,20.899073,STD
234448568320.0,0.043372463434934616,0.04384283348917961,2.9708282947540283,0.2511880099773407,-0.005224111024290323,0.005497787,0.027488936000000002,92.00010999999999,-65.62401,20.674444,STD
242629509120.0,0.04556013271212578,0.04539765790104866,3.0746066570281982,0.2593400180339813,-0.005387407261878252,0.01282817,0.018325957,92.002655,-65.87879000000001,20.451244,STD
250846052352.0,0.04780617728829384,0.04696202650666237,3.1788456439971924,0.26746559143066406,-0.005550379399210215,0.015882496,0.019547688,92.0072,-66.12711999999999,20.237019,STD
259091202048.0,0.05011023208498955,0.04853476956486702,3.2834572792053223,0.2755545973777771,-0.005712703801691532,0.010690141499999998,0.014355333500000001,92.011444,-66.375114,20.022177,STD
267358109696.0,0.05247188359498978,0.05011475458741188,3.388354539871216,0.28359705209732056,-0.0058740535750985146,0.0070249503,0.011301007,92.01253,-66.61426,19.811613,STD
275640057856.0,0.05489068478345871,0.0517009012401104,3.493453025817871,0.2915831506252289,-0.006034108344465494,0.002443461,0.013744468000000001,92.0267,-66.88729000000001,19.58771,STD
283930492928.0,0.057366158813238144,0.05329219251871109,3.5986695289611816,0.2995032072067261,-0.006192566826939583,0.008246681,0.003970624,92.03737,-67.15661,19.362728,STD
292223057920.0,0.05989778786897659,0.05488770082592964,3.703923463821411,0.3073476552963257,-0.006349154748022556,0.009162978,0.0033597588,92.04774,-67.41787,19.145155,STD
300511494144.0,0.06248502433300018,0.05648660287261009,3.809136152267456,0.3151070475578308,-0.006503633223474026,0.008246681,0.0070249503,92.05501,-67.675064,18.929409,STD
308789772288.0,0.06512729078531265,0.05808820202946663,3.914231300354004,0.32277196645736694,-0.006655805744230747,0.0076358155,0.004581489,92.06008,-67.92859,18.715258,STD
317052026880.0,0.06782398372888565,0.05969194322824478,4.019134521484375,0.33033302426338196,-0.006805525626987219,0.01160644,0.0015271631,92.06169,-68.17611,18.505222,STD
325292589056.0,0.07057447731494904,0.06129743158817291,4.12377405166626,0.3377808630466461,-0.00695270299911499,0.007941248,-0.009162978,92.06421,-68.42235600000001,18.296288,BSC
333505986560.0,0.07337810844182968,0.06290444731712341,4.228080749511719,0.3451061248779297,-0.007097311783581972,0.008246681,-0.016798794,92.06233,-68.661125,18.090311,BSC
341686943744.0,0.07623421400785446,0.06451296806335449,4.331987380981445,0.35229939222335815,-0.007239399943500757,0.014966198,-0.015577064,92.057755,-68.89678,17.887123000000006,BSC
349830348800.0,0.07914209365844727,0.06612315773963928,4.435429096221924,0.35935118794441223,-0.007379093673080206,0.015882496,-0.02107485,92.05374,-69.130775,17.683670000000006,BSC
357931352064.0,0.08210103213787079,0.06773539632558823,4.538344383239746,0.36625197529792786,-0.0075166067108511925,0.017715093,-0.029321532999999997,92.04574000000001,-69.35754,17.48276,BSC
365985267712.0,0.08511029928922653,0.06935028731822968,4.640673637390137,0.3729921281337738,-0.0076522515155375,0.018020526000000002,-0.032375857,92.036156,-69.58027,17.28521,BSC
373987606528.0,0.0881691575050354,0.0709686428308487,4.7423601150512695,0.3795619308948517,-0.00778645183891058,0.024129177,-0.041233405,92.02345,-69.799934,17.0867,BSC
381934141440.0,0.09127684682607651,0.07259151339530945,4.843349456787109,0.38595154881477356,-0.007919754832983017,0.015882496,-0.046731193,92.013275,-70.01341,16.892426,BSC
389820743680.0,0.09443259239196777,0.07422017306089401,4.943589210510254,0.3921510577201843,-0.00805283710360527,0.03176499,-0.058337633,91.99351999999999,-70.22578,16.69569,BSC
397643579392.0,0.09763561934232712,0.07585611194372177,5.043030261993408,0.3981504440307617,-0.008186512626707554,0.03634648,-0.058643065,91.977745,-70.43036,16.505013,BSC
405398978560.0,0.10088513791561127,0.07750104367733002,5.141625881195068,0.4039396345615387,-0.008321731351315975,0.03634648,-0.06352998,91.95813000000001,-70.634254,16.312586,BSC
413083500544.0,0.10418035089969635,0.07915690541267395,5.239331245422363,0.4095084071159363,-0.008459581062197685,0.030543262,-0.06780604,91.937546,-70.83345,16.123665,BSC
420693835776.0,0.1075204536318779,0.08082584291696548,5.336104393005371,0.4148464798927307,-0.00860128179192543,0.03634648,-0.06627888,91.91226999999999,-71.02864,15.937748000000001,BSC
428226936832.0,0.11090464144945145,0.08251019567251205,5.431906223297119,0.41994354128837585,-0.008748181164264679,0.030848695,-0.070249505,91.8913,-71.21905,15.753262,BSC
435679887360.0,0.11433209478855133,0.08421251177787781,5.526699066162109,0.4247891902923584,-0.008901749737560749,0.03176499,-0.08032878,91.86582,-71.40969,15.570123,BSC
443050033152.0,0.11780200898647308,0.08593551814556122,5.620448112487793,0.42937299609184265,-0.00906357541680336,0.021991148999999998,-0.08002335,91.843636,-71.58923,15.392837,BSC
450334851072.0,0.12131356447935104,0.08768211305141449,5.713120937347412,0.4336845576763153,-0.009235362522304058,0.004581489,-0.07544186,91.82265,-71.7693,15.21749,BSC
457532014592.0,0.12486594170331955,0.08945535868406296,5.804687023162842,0.4377133846282959,-0.009418927133083344,-0.008552114,-0.07849618,91.80261999999999,-71.94321,15.043514000000002,BSC
464639361024.0,0.12845832109451294,0.09125848114490509,5.895118713378906,0.4414490759372711,-0.009616190567612648,-0.01863139,-0.07941248,91.785416,-72.11285,14.875226000000001,BSC
471654924288.0,0.13208989799022675,0.0930948257446289,5.984389781951904,0.44488123059272766,-0.009829170070588589,-0.025961772999999997,-0.08032878,91.7704,-72.27771,14.709617999999999,BSC
478576902144.0,0.1357598602771759,0.09496787190437317,6.072476863861084,0.447999507188797,-0.010059972293674946,-0.020158553,-0.0888809,91.753975,-72.4385,14.544431,BSC
485403656192.0,0.13946740329265594,0.096881203353405,6.159358024597168,0.45079368352890015,-0.010310787707567215,-0.028099801,-0.08857546,91.742325,-72.59563399999998,14.385454000000001,BSC
492133711872.0,0.1432117074728012,0.09883851557970047,6.24501371383667,0.4532535970211029,-0.010583889670670033,-0.03481932,-0.09254608,91.72841,-72.74760400000002,14.225432999999999,BSC
498765725696.0,0.14699199795722961,0.10084356367588043,6.329425811767578,0.4553692042827606,-0.010881628841161728,-0.04917465,-0.099265605,91.718285,-72.89741500000002,14.068368,BSC
505298518016.0,0.1508074551820755,0.1029001921415329,6.412578582763672,0.45713064074516296,-0.011206434108316898,-0.0693332,-0.11759156,91.71177,-73.042946,13.910352,BSC
511731073024.0,0.1546573042869568,0.10501229017972946,6.494458198547363,0.45852819085121155,-0.01156082283705473,-0.07574729,-0.11575896,91.70396,-73.17849,13.758973999999998,BSC
518062538752.0,0.1585407704114914,0.1071837916970253,6.575052738189697,0.4595523476600647,-0.011947406455874443,-0.09407325,-0.13347405,91.70656,-73.3189,13.601304,BSC
524292128768.0,0.16245706379413605,0.10941865295171738,6.654351234436035,0.4601937532424927,-0.012368904426693916,-0.12095132,-0.14141529999999994,91.71219,-73.44589,13.450425,BSC
530419220480.0,0.16640542447566986,0.11172085255384445,6.732345104217529,0.46044331789016724,-0.0128281619399786,-0.14172074,-0.14660765,91.72136,-73.57003,13.298728,BSC
536443355136.0,0.17038510739803314,0.11409436911344528,6.809027194976807,0.46029216051101685,-0.013328175991773605,-0.15790866,-0.14813483,91.73651,-73.68265,13.149701,BSC
542364172288.0,0.174395352602005,0.11654316633939743,6.884391784667969,0.45973169803619385,-0.013872125186026096,-0.17898351,-0.14660765,91.758514,-73.7908,13.004062,BSC
548181409792.0,0.17843541502952576,0.11907119303941727,6.958434581756592,0.4587536156177521,-0.014463390223681927,-0.18600847,-0.13591751,91.780136,-73.88578000000003,12.863401,BSC
553894936576.0,0.1825045645236969,0.12168235331773758,7.031152725219727,0.4573499262332916,-0.015105580911040306,-0.19883664,-0.13225232,91.80925,-73.97109,12.725145,BSC
559504687104.0,0.18660208582878113,0.12438049167394638,7.102545261383057,0.455513060092926,-0.015802554786205292,-0.22449298,-0.13194689,91.84323,-74.0476,12.592487,BSC
565010759680.0,0.19072726368904114,0.12716937065124512,7.172611713409424,0.45323601365089417,-0.016558434814214706,-0.24495697,-0.12064589,91.94034599999999,-74.17558000000002,12.521386999999999,BSC
570413350912.0,0.19487939774990082,0.13005267083644867,7.241352558135986,0.45051252841949463,-0.017377624288201332,-0.26053402,-0.11636983,92.04063000000001,-74.29555500000002,12.450323,BSC
575712722944.0,0.19905780255794525,0.13303393125534058,7.308770179748535,0.44733715057373047,-0.01826481893658638,-0.28741209999999995,-0.106901415,92.14631999999999,-74.40255,12.386292,BSC
580909203456.0,0.20326179265975952,0.13611656427383423,7.374866962432861,0.4437054991722107,-0.019225021824240685,-0.30970868,-0.09743301,92.25216,-74.498795,12.324811,BSC
586003251200.0,0.2074906975030899,0.1393037885427475,7.439645767211914,0.43961432576179504,-0.02026355266571045,-0.35979962,-0.087659165,92.37066,-74.586105,12.269421000000001,BSC
590995324928.0,0.21174387633800507,0.14259864389896393,7.503110885620117,0.4350617527961731,-0.021386053413152695,-0.37659842,-0.07727446,92.482765,-74.65836,12.217025,BSC
595886080000.0,0.21602065861225128,0.14600396156311035,7.5652666091918945,0.43004730343818665,-0.022598478943109512,-0.4083634,-0.0693332,92.6107,-74.7296,12.17026,BSC
600676171776.0,0.2203204184770584,0.14952236413955688,7.62611722946167,0.42457208037376404,-0.023907078430056572,-0.4605924,-0.06719518,92.74672,-74.78416999999997,12.127013999999999,BSC
605366386688.0,0.2246425449848175,0.15315620601177216,7.685667991638184,0.4186389148235321,-0.025318384170532227,-0.50946164,-0.053145275,92.887535,-74.83356500000002,12.091092,BSC
609957445632.0,0.22898641228675842,0.15690761804580688,7.743923664093018,0.4122523367404938,-0.02683919295668602,-0.5549710999999999,-0.05161811400000002,93.04053,-74.87741,12.054818,BSC
614450200576.0,0.2333514243364334,0.1607784479856491,7.800889015197754,0.4054187834262848,-0.028476543724536896,-0.6038403,-0.04550946,93.20538,-74.90886,12.026468,BSC
618845634560.0,0.23773698508739471,0.16477026045322418,7.856569290161133,0.39814653992652893,-0.030237717553973198,-0.61941737,-0.039095376,93.37129,-74.93068000000002,11.999427,BSC
623144665088.0,0.24214252829551697,0.16888436675071716,7.9109697341918945,0.3904458284378052,-0.03213023021817207,-0.63438356,-0.043982297000000004,93.54907,-74.94574,11.973289,BSC
627348275200.0,0.2465674877166748,0.17312178015708923,7.964095115661621,0.3823288679122925,-0.03416184335947037,-0.64660084,-0.054061572999999995,93.72831,-74.94565,11.948300999999999,BSC
631457579008.0,0.25101131200790405,0.1774832308292389,8.015950202941895,0.3738097846508026,-0.03634057939052582,-0.6569856,-0.08368854,93.91035500000001,-74.94199,11.917295,BSC
635473625088.0,0.25547343492507935,0.18196915090084076,8.06653881072998,0.36490464210510254,-0.03867475315928459,-0.6264423000000001,-0.113926366,94.08261999999999,-74.92634,11.882363,BSC
639397593088.0,0.2599533498287201,0.18657970428466797,8.115865707397461,0.35563144087791443,-0.04117297753691673,-0.589485,-0.13041973,94.25488,-74.89924,11.843722999999999,BSC
643230597120.0,0.2644505202770233,0.19131475687026978,8.163934707641602,0.3460100591182709,-0.043844204396009445,-0.5879578000000001,-0.15393804,94.428566,-74.866,11.795632000000001,BSC
646973882368.0,0.2689644694328308,0.19617389142513275,8.210749626159668,0.33606216311454773,-0.046697743237018585,-0.6041456999999999,-0.16829337,94.5955,-74.82163,11.745666499999999,BSC
650628694016.0,0.2734946608543396,0.20115642249584198,8.25631332397461,0.32581114768981934,-0.04974326863884926,-0.6243043,-0.19975294,94.7637,-74.773445,11.685594,BSC
654196211712.0,0.27804064750671387,0.20626141130924225,8.300628662109375,0.3152821362018585,-0.05299081280827522,-0.6337727,-0.21777347,94.93226999999999,-74.71480600000002,11.626859,BSC
657677746176.0,0.282601922750473,0.21148763597011566,8.34369945526123,0.30450180172920227,-0.056450746953487396,-0.65270954,-0.24465153,95.11008000000001,-74.64901,11.559725,BSC
661074673664.0,0.28717803955078125,0.21683363616466522,8.385527610778809,0.29349830746650696,-0.06013375520706177,-0.64843345,-0.26267207,95.28317,-74.58044,11.490908000000001,BSC
664388239360.0,0.29176855087280273,0.22229772806167603,8.426115036010742,0.28230124711990356,-0.06405080854892731,-0.6270532,-0.28160888,95.45702,-74.50158,11.41606,BSC
667619753984.0,0.29637300968170166,0.22787797451019287,8.465463638305664,0.27094146609306335,-0.06821313500404358,-0.5879578000000001,-0.2843578,95.62353,-74.410904,11.341368,BSC
670770593792.0,0.3009909987449646,0.23357222974300385,8.503575325012207,0.2594510018825531,-0.07263220846652985,-0.5564981999999999,-0.2910773,95.78631,-74.30859,11.261453,BSC
673842135040.0,0.3056221008300781,0.23937813937664032,8.540452003479004,0.24786294996738434,-0.07731973379850388,-0.48472157,-0.29077184,95.92531,-74.19800000000002,11.180458,BSC
676835688448.0,0.3102658987045288,0.24529318511486053,8.576094627380371,0.236211359500885,-0.08228757977485657,-0.4175264,-0.28985557,96.05641999999999,-74.06441,11.098292,BSC
679752695808.0,0.3149220049381256,0.251314640045166,8.610504150390625,0.2245311290025711,-0.08754777163267136,-0.31581733,-0.28038713,96.15621,-73.927376,11.014676,BSC
682594467840.0,0.3195900022983551,0.25743961334228516,8.643682479858398,0.21285785734653473,-0.09311240166425705,-0.2660318,-0.25076020000000004,96.250336,-73.768394,10.938097,BSC
685362446336.0,0.324269562959671,0.2636650502681732,8.675629615783691,0.20122775435447693,-0.09899361431598663,-0.21563543,-0.19822577,96.313324,-73.59076999999998,10.86665,BSC
688058007552.0,0.32896026968955994,0.2699877917766571,8.706347465515137,0.18967749178409576,-0.1052035391330719,-0.16340645,-0.15118915,96.36035,-73.40023000000002,10.800644,BSC
690682462208.0,0.3336617946624756,0.2764045298099518,8.735836029052734,0.17824411392211914,-0.11175424605607986,-0.122478485,-0.10659598599999999,96.39362,-73.19034,10.747749,BSC
693237252096.0,0.3383737802505493,0.28291183710098267,8.7640962600708,0.16696494817733765,-0.118657685816288,-0.07727446,-0.05009095,96.40769,-72.96055,10.709049,BSC
695723753472.0,0.34309589862823486,0.289506196975708,8.791129112243652,0.15587742626667023,-0.12592561542987823,-0.044593163,0.0067195175,96.41152,-72.71803,10.682025999999999,BSC
698143342592.0,0.34782782196998596,0.2961840331554413,8.816935539245605,0.1450190544128418,-0.13356950879096985,-0.06597344599999999,0.09193522,96.41296,-72.461235,10.680006,BSC
700497330176.0,0.35256922245025635,0.3029416501522064,8.841516494750977,0.1344272643327713,-0.14160048961639404,-0.13744467,0.21624629,96.41346,-72.1781,10.706419,BSC
702787092480.0,0.35731980204582214,0.30977529287338257,8.864872932434082,0.12413930147886276,-0.1500292271375656,-0.14385876,0.28771752,96.40007,-71.8879,10.738799,BSC
705014005760.0,0.3620792329311371,0.3166811764240265,8.887005805969238,0.1141921654343605,-0.15886594355106354,-0.111177474,0.32559118,96.39020500000001,-71.574974,10.79777,BSC
707179446272.0,0.3668472468852997,0.3236554265022278,8.907917022705078,0.10462246090173721,-0.1681203842163086,-0.03726278,0.35613444,96.36674000000001,-71.24659,10.870705000000001,BSC
709284724736.0,0.37162357568740845,0.3306940793991089,8.927608489990234,0.09546633809804916,-0.17780177295207977,0.03940081,0.37568212,96.12983,-70.53544000000002,10.9545355,BSC
711331086336.0,0.3764079213142395,0.33779311180114746,8.94608211517334,0.08675935119390488,-0.18791884183883667,0.112399206,0.38362336,95.87657,-69.81375,11.035708,BSC
713319907328.0,0.38120001554489136,0.34494832158088684,8.963340759277344,0.07853639870882034,-0.1984798014163971,0.172264,0.36193767,95.61162,-69.084724,11.106365,BSC
715252498432.0,0.3859995901584625,0.3521554172039032,8.979387283325195,0.07083160430192947,-0.20949235558509827,0.22052236,0.3368922,95.3347,-68.35158,11.170414,BSC
717130104832.0,0.3908064067363739,0.359409898519516,8.994226455688477,0.06367824226617813,-0.22096364200115204,0.24648413,0.31031954,95.05526,-67.61591,11.222318,BSC
718953971712.0,0.3956202268600464,0.36670708656311035,9.00786304473877,0.057108644396066666,-0.2329002469778061,0.24251351,0.2843578,94.77905,-66.88446,11.263786,BSC
720725409792.0,0.4004408121109009,0.3740420639514923,9.020301818847656,0.05115414783358574,-0.24530811607837677,0.22418754,0.26542094,94.50761999999999,-66.16421,11.297062,BSC
722445598720.0,0.4052679240703583,0.3814097046852112,9.031550407409668,0.04584500566124916,-0.2581925392150879,0.15668693,0.24342979999999997,94.25968,-65.448044,11.326541,BSC
724115783680.0,0.41010135412216187,0.3888045847415924,9.041616439819336,0.041210345923900604,-0.27155810594558716,0.14110987,0.23273966,94.00927,-64.74408000000001,11.349202,BSC
725737144320.0,0.41494086384773254,0.3962210714817047,9.050508499145508,0.03727810084819794,-0.285408616065979,0.14141529999999994,0.22204952,93.780846,-64.04926999999999,11.370272,BSC
727310925824.0,0.4197862446308136,0.40365317463874817,9.058237075805664,0.03407496586441994,-0.2997470498085022,0.17501289,0.20769419,93.55475,-63.367397,11.384399,BSC
728838242304.0,0.4246373176574707,0.41109469532966614,9.064812660217285,0.03162635490298271,-0.3145754337310791,0.21135938,0.18509217,93.3355,-62.704136,11.392135000000001,BSC
730320273408.0,0.42949387431144714,0.4185391068458557,9.070247650146484,0.02995636686682701,-0.32989490032196045,0.26145032,0.16218472,93.11094,-62.050369999999994,11.389526,BSC
731758133248.0,0.4343557059764862,0.4259795844554901,9.074556350708008,0.029087761417031288,-0.345705509185791,0.30726522,0.13072516,92.887276,-61.4147,11.374267,BSC
733152935936.0,0.43922266364097595,0.43340906500816345,9.077753067016602,0.02904193289577961,-0.3620062470436096,0.36651915,0.09040806,92.65668000000001,-60.795612,11.342452999999999,BSC
734505795584.0,0.44409453868865967,0.4408201575279236,9.079854011535645,0.02983889728784561,-0.37879499793052673,0.42394048,0.054367005999999996,92.42397,-60.193645,11.297844,BSC
735817760768.0,0.4489711821079254,0.44820523262023926,9.080876350402832,0.0314972847700119,-0.3960684835910797,0.50640726,0.013439035,92.18146,-59.60904,11.230758999999999,BSC
737089945600.0,0.45385241508483887,0.45555636286735535,9.080839157104492,0.034034330397844315,-0.4138222336769104,0.5708536,-0.010995574,91.93762,-59.042137,11.153841,BSC
738323333120.0,0.4587380886077881,0.46286541223526,9.079761505126953,0.037465885281562805,-0.43205052614212036,0.64476824,-0.04062254,91.68296,-58.49638,11.053566,BSC
739518971904.0,0.46362805366516113,0.4701240062713623,9.077664375305176,0.041806407272815704,-0.4507463872432709,0.7150178,-0.031154128,91.41704,-57.96376400000001,10.94948,BSC
740677844992.0,0.4685221314430237,0.4773235619068146,9.074570655822754,0.04706898704171181,-0.46990156173706055,0.7473936,-0.016187929,91.15174,-57.458153,10.8356905,BSC
741800935424.0,0.4734201729297638,0.48445528745651245,9.070502281188965,0.05326536297798157,-0.48950642347335815,0.7067711,0.013439035,90.88963000000001,-56.96174,10.730025,BSC
742889226240.0,0.4783220589160919,0.4915102422237396,9.065483093261719,0.06040593609213829,-0.5095500946044922,0.65057147,0.043066,90.62685,-56.4868,10.627444,BSC
743943634944.0,0.4832276403903961,0.49847933650016785,9.059537887573242,0.06849979609251022,-0.5300202965736389,0.5757405,0.0720821,90.37973000000001,-56.02281600000001,10.542413,BSC
744965144576.0,0.48813679814338684,0.5053533315658569,9.052692413330078,0.07755473256111145,-0.5509034395217896,0.54275376,0.099571034,90.136696,-55.57514000000001,10.467655,BSC
745954607104.0,0.49304938316345215,0.5121228694915771,9.044974327087402,0.08757729083299637,-0.5721847414970398,0.5323690999999999,0.101098195,89.91053000000002,-55.137935999999996,10.402543,BSC
746912940032.0,0.4979653060436249,0.5187785029411316,9.036409378051758,0.09857276827096939,-0.5938480496406555,0.56321776,0.08979719,89.68434,-54.70945,10.340295,BSC
747840995328.0,0.5028843879699707,0.5253108143806458,9.027026176452637,0.11054527014493942,-0.6158761978149414,0.5934556,0.08857546,89.46304,-54.285346999999994,10.283108,BSC
748739559424.0,0.5078065991401672,0.5317103266716003,9.016853332519531,0.12349773943424225,-0.6382508277893066,0.6246096999999999,0.06872234,89.243,-53.86436,10.214471000000001,BSC
749609549824.0,0.5127317905426025,0.5379675030708313,9.005919456481934,0.13743197917938232,-0.6609528064727783,0.6114761,0.051923547,89.03013,-53.44204000000001,10.149466499999999,BSC
750451752960.0,0.5176598429679871,0.5440728664398193,8.994254112243652,0.15234872698783875,-0.6839622855186462,0.54641896,0.03970624,88.828804,-53.006847,10.08549,BSC
751266955264.0,0.5225906372070312,0.5500169992446899,8.981887817382812,0.16824764013290405,-0.7072587013244629,0.4392121,0.02321288,88.64801,-52.5664,10.027124,BSC
752055943168.0,0.5275240540504456,0.5557904839515686,8.968850135803223,0.185127392411232,-0.7308212518692017,0.3145956,0.018020526000000002,88.49045600000002,-52.11715,9.983655,BSC
752819503104.0,0.5324600338935852,0.5613840222358704,8.955171585083008,0.20298567414283752,-0.7546289563179016,0.17440203,-0.004276057,88.37082,-51.661232,9.954336,BSC
753558290432.0,0.5373985171318054,0.5667884945869446,8.940882682800293,0.22181923687458038,-0.7786607146263123,0.035124752999999995,-0.024740042,88.283485,-51.206070000000004,9.94632,BSC
754273091584.0,0.5423393249511719,0.5719947814941406,8.926013946533203,0.24162396788597107,-0.8028956055641174,-0.096516706,-0.053145275,88.2346,-50.764122,9.955001,BSC
754964627456.0,0.5472824573516846,0.576994001865387,8.91059684753418,0.26239490509033203,-0.827312707901001,-0.22724187,-0.06872234,88.220795,-50.338497,9.986539,BSC
755633553408.0,0.552227795124054,0.5817774534225464,8.894660949707031,0.28412631154060364,-0.8518913388252258,-0.34300083,-0.07666359,88.23874,-49.941425,10.034129,BSC
756280524800.0,0.5571752190589905,0.5863365530967712,8.8782377243042,0.3068116307258606,-0.8766108751296997,-0.38820487,-0.073303826,88.27205,-49.569912,10.091104,BSC
756906262528.0,0.5621246695518494,0.5906630158424377,8.861357688903809,0.33044368028640747,-0.9014508128166199,-0.3005457,-0.024129177,88.29514,-49.218734999999995,10.152325,BSC
757511356416.0,0.5670760869979858,0.5947489142417908,8.844050407409668,0.3550145626068115,-0.9263907074928284,-0.124311075,0.050701816,88.15831999999996,-48.6769,9.965978999999999,BSC
758096461824.0,0.5720294117927551,0.5985866785049438,8.82634449005127,0.38051581382751465,-0.9514102935791016,-0.022907447,0.09621128,88.02043,-48.144709999999996,9.787594,BSC
758662103040.0,0.5769845843315125,0.6021692156791687,8.808269500732422,0.40693843364715576,-0.9764894843101501,-0.05955936,0.10659598599999999,87.87214,-47.619064,9.617245,BSC
759208935424.0,0.5819414854049683,0.6054900884628296,8.7898530960083,0.4342729449272156,-1.0016084909439087,-0.15760323,0.12339478,87.710625,-47.077366,9.457013,BSC
759737548800.0,0.5869000554084778,0.6085433959960938,8.77112102508545,0.4625094532966614,-1.0267478227615356,-0.20311269,0.15271631,87.54641,-46.57154,9.304259,BSC
760248467456.0,0.591860294342041,0.6113240122795105,8.752099990844727,0.4916376769542694,-1.051888108253479,-0.29657507,0.1554652,87.42004399999998,-46.075309999999995,9.182423,BSC
760742281216.0,0.5968220829963684,0.6138277053833008,8.732812881469727,0.521647036075592,-1.0770103931427002,-0.31642818,0.16646078,87.2843,-45.60412,9.06749,BSC
761219514368.0,0.6017853617668152,0.6160510182380676,8.71328353881836,0.5525266528129578,-1.1020957231521606,-0.29229903,0.19761491,87.15793599999998,-45.184326,8.970697,BSC
761680625664.0,0.6067500710487366,0.6179913878440857,8.69353199005127,0.5842654705047607,-1.1271252632141113,-0.26450464,0.22082779,87.03744499999998,-44.775240000000004,8.88117,BSC
762126139392.0,0.6117161512374878,0.6196473836898804,8.673576354980469,0.6168522834777832,-1.1520799398422241,-0.24281894,0.2275473,86.91318000000004,-44.3797,8.794427,BSC
762556579840.0,0.6166836023330688,0.6210184693336487,8.653434753417969,0.650275707244873,-1.1769410371780396,-0.24373524,0.22999077,86.78681,-43.990109999999994,8.713792,BSC
762972405760.0,0.621652364730835,0.6221052408218384,8.633122444152832,0.6845242381095886,-1.2016898393630981,-0.24465153,0.22968534,86.65794,-43.5845,8.632752,BSC
763374075904.0,0.6266223192214966,0.6229093074798584,8.612651824951172,0.7195863723754883,-1.2263078689575195,-0.20463985,0.24220806,86.52056,-43.16191,8.549485,BSC
763762049024.0,0.6315934658050537,0.6234334707260132,8.592035293579102,0.7554506063461304,-1.2507773637771606,-0.1563815,0.25473082,86.3846,-42.70896,8.467239999999999,BSC
764136783872.0,0.6365657448768616,0.6236814856529236,8.571280479431152,0.7921053767204285,-1.2750810384750366,-0.10048734,0.27091873,86.23867,-42.23393,8.380865,BSC
764498673664.0,0.6415391564369202,0.623658299446106,8.550395011901855,0.8295391798019409,-1.299202561378479,-0.07299839999999999,0.28680122,86.08931,-41.729298,8.295237,BSC
764848111616.0,0.6465136408805847,0.6233699321746826,8.529383659362793,0.8677405714988708,-1.3231266736984253,-0.03848451,0.26145032,85.93621999999998,-41.19763,8.194077,BSC
765185556480.0,0.6514891386032104,0.6228234171867371,8.508249282836914,0.9066981673240662,-1.346839427947998,0.014049901000000002,0.23640485,85.77444,-40.65767,8.0887785,BSC
765511335936.0,0.6564655900001526,0.6220269203186035,8.486992835998535,0.9464007019996643,-1.3703280687332153,0.06719518,0.21410827,85.61449,-40.0926,7.9740963,BSC
765825908736.0,0.6614429950714111,0.6209895014762878,8.46561336517334,0.9868369698524475,-1.3935816287994385,0.124311075,0.20738874,85.44968399999998,-39.51721,7.8480797,BSC
766129602560.0,0.6664212942123413,0.6197212338447571,8.444107055664062,1.0279959440231323,-1.4165905714035034,0.11453723,0.20708331,85.29479,-38.93928,7.7250770000000015,BSC
766422745088.0,0.6714004874229431,0.6182332038879395,8.422469139099121,1.0698667764663696,-1.4393471479415894,0.14263703,0.21991149,85.12478,-38.35895,7.585512599999999,BSC
766705729536.0,0.6763805150985718,0.6165372729301453,8.400693893432617,1.112438678741455,-1.4618452787399292,0.09896017,0.27763826,84.963425,-37.784009999999995,7.474953,BSC
766978818048.0,0.6813613176345825,0.6146461367607117,8.378771781921387,1.155700922012329,-1.48408043384552,0.089186326,0.31887165,84.79524,-37.21992,7.35277,BSC
767242403840.0,0.6863428950309753,0.6125733256340027,8.356693267822266,1.1996431350708008,-1.5060497522354126,0.09162979,0.3707952000000001,84.62066999999998,-36.664898,7.251962,BSC
767496814592.0,0.6913252472877502,0.6103330850601196,8.33444595336914,1.2442550659179688,-1.5277515649795532,0.058643065,0.39858958,84.45336,-36.12209,7.1664324000000015,BSC
767742312448.0,0.6963083148002625,0.6079402565956116,8.312017440795898,1.2895264625549316,-1.5491856336593628,0.010995574,0.4166101,84.281494,-35.59648499999999,7.092846400000001,BSC
767979225088.0,0.701292097568512,0.6054103374481201,8.289393424987793,1.3354474306106567,-1.5703530311584473,-0.049480084,0.44776422,84.11084,-35.082954,7.038258,BSC
768207814656.0,0.706276535987854,0.6027594208717346,8.266558647155762,1.3820081949234009,-1.5912556648254395,-0.09101892,0.44990227,83.950264,-34.576115,6.9896364,BSC
768428343296.0,0.7112615704536438,0.6000040173530579,8.24349594116211,1.4291990995407104,-1.6118965148925781,-0.13408493,0.4578435,83.7939,-34.088516,6.9623623,BSC
768641138688.0,0.7162472605705261,0.5971611142158508,8.22018814086914,1.4770106077194214,-1.6322791576385498,-0.18234327,0.44623706,83.65163000000003,-33.607014,6.9437809999999995,BSC
768846397440.0,0.7212335467338562,0.5942479968070984,8.196616172790527,1.5254334211349487,-1.6524081230163574,-0.17043139999999998,0.42058071,83.51031,-33.138447,6.920489,BSC
769044447232.0,0.7262203693389893,0.591282308101654,8.172760963439941,1.574458360671997,-1.6722882986068726,-0.14660765,0.36468655,83.38714,-32.681872999999996,6.8992952999999995,BSC
769235484672.0,0.7312077879905701,0.5882819294929504,8.148602485656738,1.62407648563385,-1.6919249296188354,-0.12492194,0.33292156,83.264946,-32.228953999999995,6.875883,BSC
769419771904.0,0.7361956834793091,0.5852649807929993,8.124119758605957,1.674278974533081,-1.711323857307434,-0.0693332,0.26297748,83.158615,-31.786465000000003,6.8246546000000015,BSC
769597571072.0,0.7411841154098511,0.582249641418457,8.099291801452637,1.7250571250915527,-1.7304909229278564,-0.00580322,0.17104226,83.06308,-31.340023,6.759039,BSC
769769078784.0,0.7461730241775513,0.5792542099952698,8.0740966796875,1.7764023542404175,-1.7494324445724487,0.07086037,0.10476339,82.97017,-30.89815,6.6715837,BSC
769934491648.0,0.7511624693870544,0.5762969851493835,8.048513412475586,1.8283063173294067,-1.7681548595428467,0.14569137,0.029932396,82.89491,-30.44768,6.556175,BSC
770094006272.0,0.756152331829071,0.5733962059020996,8.0225191116333,1.880760669708252,-1.7866648435592651,0.20616703,-0.021991148999999998,82.82343,-29.997818,6.42192,BSC
770247884800.0,0.7611426711082458,0.5705699324607849,7.996090888977051,1.9337575435638428,-1.8049691915512085,0.24770586,-0.05375614,82.759636,-29.53634000000001,6.2693105000000005,BSC
770396258304.0,0.7661334276199341,0.567835807800293,7.969205856323242,1.987289309501648,-1.8230751752853394,0.28680122,-0.03176499,82.573975,-28.43549,6.1918507000000025,BSC
770539388928.0,0.7711246013641357,0.5652108788490295,7.941840171813965,2.041348934173584,-1.8409900665283203,0.3381139,0.010995574,82.39765,-27.349746999999997,6.1021220000000005,BSC
770677407744.0,0.7761161923408508,0.5627112984657288,7.913967609405518,2.095930337905884,-1.8587214946746826,0.38545597,0.063224554,82.22229,-26.279907,6.0103717,BSC
770810511360.0,0.7811081409454346,0.5603521466255188,7.885560512542725,2.1510281562805176,-1.876277208328247,0.43279803,0.12125675400000001,82.04096,-25.234232000000002,5.9142722999999995,BSC
770938896384.0,0.7861005067825317,0.5581470727920532,7.8565897941589355,2.2066380977630615,-1.8936649560928345,0.46120325,0.14996742,81.86289000000002,-24.218733,5.8160906,BSC
771062693888.0,0.7910932302474976,0.556108295917511,7.827022552490234,2.2627577781677246,-1.9108924865722656,0.5149594,0.19608775,81.668625,-23.224508,5.7102330000000014,BSC
771182034944.0,0.7960862517356873,0.5542461276054382,7.796823024749756,2.3193862438201904,-1.9279675483703613,0.5540548000000001,0.24831672,81.47523000000002,-22.275451999999998,5.606573,BSC
771297116160.0,0.8010796308517456,0.5525688529014587,7.765953063964844,2.376523971557617,-1.9448975324630737,0.5626069,0.27183503,81.28574,-21.367884,5.500743,BSC
771408134144.0,0.8060733079910278,0.5510826110839844,7.734369277954102,2.434173583984375,-1.9616894721984863,0.58551437,0.29199359999999996,81.08819,-20.477434,5.3879204000000005,BSC
771515154432.0,0.8110673427581787,0.549791157245636,7.702025413513184,2.492339849472046,-1.9783499240875244,0.61391956,0.31184670000000003,80.89305999999998,-19.645018,5.2754517,BSC
771618373632.0,0.8160616755485535,0.5486958622932434,7.668870449066162,2.551029682159424,-1.994884729385376,0.6462954000000001,0.31673363,80.70353,-18.843029,5.1579857,BSC
771717922816.0,0.8210562467575073,0.5477954745292664,7.634849548339844,2.6102519035339355,-2.0112991333007812,0.6805039,0.32711834,80.51345,-18.07767,5.0365787000000015,BSC
771813867520.0,0.8260511159896851,0.5470860600471497,7.599903106689453,2.670018196105957,-2.027597188949585,0.7348709,0.3286455,80.328476,-17.351767000000002,4.902494,BSC
771906404352.0,0.8310462236404419,0.5465611219406128,7.563966751098633,2.730341911315918,-2.0437819957733154,0.80756384,0.3191771,80.14763,-16.656494,4.756188400000001,BSC
771995664384.0,0.8360415697097778,0.5462112426757812,7.526971817016602,2.7912392616271973,-2.0598559379577637,0.87598073,0.312763,79.96961999999998,-15.980931,4.5990763,BSC
772081713152.0,0.8410372138023376,0.5460244417190552,7.488845348358154,2.8527286052703857,-2.075819969177246,0.91629785,0.3023783,79.79972,-15.320692000000001,4.43168,BSC
772164747264.0,0.8460330367088318,0.5459859371185303,7.449510097503662,2.914830446243286,-2.091674327850342,0.9465357,0.2761111,79.639404,-14.669876,4.2500434,BSC
772244766720.0,0.851029098033905,0.5460783243179321,7.408884048461914,2.9775679111480713,-2.1074180603027344,0.98471475,0.26389378,79.482475,-14.015070999999999,4.0590343,BSC
772321968128.0,0.8560253977775574,0.5462815165519714,7.366881370544434,3.040966033935547,-2.12304949760437,1.035722,0.24220806,79.34039,-13.365221,3.8573058,BSC
772396417024.0,0.861021876335144,0.5465729832649231,7.323412895202637,3.1050519943237305,-2.138566255569458,1.0748174,0.24190263,79.20192,-12.719136,3.6528404,BSC
772468244480.0,0.866018533706665,0.5469276905059814,7.278384685516357,3.1698548793792725,-2.153965711593628,1.1123856,0.24770586,79.072365,-12.081128999999999,3.4377253,BSC
772537516032.0,0.8710153698921204,0.5473182201385498,7.2316999435424805,3.235405683517456,-2.1692440509796143,1.1441506000000001,0.2742785,78.94259,-11.456675,3.2188747,BSC
772604297216.0,0.87601238489151,0.5477150082588196,7.183259010314941,3.3017375469207764,-2.1843974590301514,1.1734722,0.31795537,78.81165,-10.849501,2.9958751,BSC
772668719104.0,0.881009578704834,0.5480862855911255,7.132958889007568,3.368884801864624,-2.1994214057922363,1.1893546999999998,0.35918877,78.67995,-10.263164999999999,2.7734628,BSC
772730912768.0,0.8860069513320923,0.5483984351158142,7.080694198608398,3.4368834495544434,-2.214311122894287,1.2394456,0.39003745,78.54249,-9.683866499999999,2.5393054,BSC
772790878208.0,0.8910044431686401,0.5486159324645996,7.026357650756836,3.5057711601257324,-2.2290616035461426,1.3249667,0.4361577999999999,78.393394,-9.126371,2.2977047,BSC
772848746496.0,0.8960020542144775,0.5487015843391418,6.969840049743652,3.5755860805511475,-2.2436676025390625,1.4278975,0.48472157,78.23867,-8.583602,2.0428574,BSC
772904583168.0,0.9009998440742493,0.5486167669296265,6.911030292510986,3.6463680267333984,-2.2581233978271484,1.5305228000000002,0.52687126,78.075874,-8.05686,1.7703601999999998,BSC
772958453760.0,0.9059977531433105,0.5483214855194092,6.84981632232666,3.7181575298309326,-2.272423267364502,1.6172657,0.54458636,77.90961999999998,-7.5535955,1.4795284,BSC
773010423808.0,0.9109957814216614,0.5477744936943054,6.786085605621338,3.7909958362579346,-2.2865612506866455,1.53205,0.5366451,77.74798,-7.0836887000000015,1.2150725,BSC
773060558848.0,0.915993869304657,0.5469335317611694,6.719724655151367,3.864924907684326,-2.3005311489105225,1.294118,0.3472769,77.64102,-6.623728,0.97028816,BSC
773108989952.0,0.9209920763969421,0.5457555055618286,6.650619983673096,3.9399869441986084,-2.314326047897339,1.0186177,0.47403142,77.45518,-6.3289013,0.7772551999999999,BSC
773155717120.0,0.9259904026985168,0.5441965460777283,6.578658580780029,4.016224384307861,-2.3279383182525635,0.9239337,0.7901541999999999,77.275154,-6.0754757,0.6035651999999999,BSC
773200805888.0,0.9309887886047363,0.5422123074531555,6.503727436065674,4.093679904937744,-2.3413589000701904,0.7489208,0.8518515999999999,77.14494,-5.9867916,0.5292355,BSC
773244387328.0,0.9359872341156006,0.5397579073905945,6.42571496963501,4.172396183013916,-2.35457706451416,1.5720617000000001,0.7150178,76.955215,-6.112581,0.20320493,BSC
773286461440.0,0.9409857392311096,0.5367883443832397,6.344510555267334,4.252416133880615,-2.3675785064697266,3.0821207000000004,0.5910121,76.72601,-6.5098715,-0.26491964,BSC
773327093760.0,0.9459843635559082,0.5332583785057068,6.260004997253418,4.333781719207764,-2.380345106124878,4.043928,1.0280862,76.35979499999998,-7.182947599999999,-0.7875563,BSC
773366284288.0,0.9509830474853516,0.5291228890419006,6.17209005355835,4.416534900665283,-2.392853260040283,4.004222,1.6157386,75.95955,-8.051936999999999,-1.4283066999999998,BSC
773404164096.0,0.9559817314147949,0.5243364572525024,6.080660820007324,4.500716686248779,-2.405073642730713,3.1425962000000003,1.9037615,75.50448,-9.040548,-2.0697669999999997,BSC
773440733184.0,0.9609804749488831,0.5188522934913635,5.9856133460998535,4.586368083953857,-2.4169702529907227,2.0912971000000002,1.8930714,74.96613,-10.127819,-2.6002715,BSC
773476057088.0,0.965979278087616,0.512620747089386,5.886847019195557,4.673529148101807,-2.428501605987549,1.7489072,1.7599026999999998,75.11515,-8.557739999999999,-3.5050742999999995,BSC
773510201344.0,0.9709780812263489,0.5055873394012451,5.784264087677002,4.762238502502441,-2.4396209716796875,2.0903810000000003,1.5357152,75.17249,-7.158115,-4.3293037000000005,BSC
773543231488.0,0.9759769439697266,0.49769091606140137,5.677769184112549,4.852531909942627,-2.45027756690979,2.4394902999999997,1.1294898000000002,75.332886,-5.7001405,-5.5408907,BSC
773575147520.0,0.9809758067131042,0.4888618290424347,5.5672736167907715,4.944442272186279,-2.4604177474975586,2.5118777999999997,0.5681046999999999,75.53788,-4.2655234,-6.7156972999999995,BSC
773606014976.0,0.9859747290611267,0.4790203273296356,5.452695846557617,5.037996768951416,-2.4699866771698,2.4184155,0.2134974,75.836174,-2.8486667000000003,-8.312235000000001,BSC
773635833856.0,0.9909736514091492,0.46807584166526794,5.333965301513672,5.133213996887207,-2.4789295196533203,2.0812180000000002,-0.5751295999999999,76.40446999999998,-1.440379,-9.760937,BSC
773664669696.0,0.9959725737571716,0.4559275805950165,5.211026191711426,5.230104923248291,-2.487192153930664,1.7296648999999995,-1.2825116,77.04231,0.030261147999999998,-11.078057000000001,BSC
773692588032.0,1.0009715557098389,0.44246605038642883,5.083841323852539,5.328668117523193,-2.494722604751587,1.462106,-1.8365663,77.81831,1.0130953,-12.718214999999999,BSC
773719588864.0,1.0059704780578613,0.4275756776332855,4.952395439147949,5.428889751434326,-2.501472234725952,1.1261301000000001,-2.1700988,78.738365,2.0299122,-14.131096,BSC
773745737728.0,1.0109694004058838,0.41113796830177307,4.81669807434082,5.530741214752197,-2.5073955059051514,1.4318681,-2.3197607999999996,79.61476,2.6305068,-15.562009,BSC
773771034624.0,1.0159683227539062,0.3930358290672302,4.676785945892334,5.634175777435303,-2.512450933456421,2.1050417,-2.3994787,80.577156,3.2103333,-16.937904,BSC
773795479552.0,1.0209672451019287,0.37315821647644043,4.532724857330322,5.739128589630127,-2.5166008472442627,2.4397957000000003,-2.4480424,81.42298000000002,3.5177572,-18.124105,BSC
773819203584.0,1.0259662866592407,0.35140514373779297,4.384610176086426,5.845515251159668,-2.5198111534118652,2.48164,-2.4538457,82.292885,3.7645028,-19.391704999999998,BSC
773842141184.0,1.0309653282165527,0.32769182324409485,4.232567310333252,5.9532318115234375,-2.5220510959625244,2.4147502999999997,-2.3906212000000004,83.166954,3.935604,-20.696775,BSC
773864357888.0,1.0359643697738647,0.3019522726535797,4.076752662658691,6.062155723571777,-2.5232927799224854,2.3157902000000004,-2.1700988,83.83161,3.9183521,-21.308970000000002,BSC
773885919232.0,1.0409634113311768,0.27414190769195557,3.9173529148101807,6.172146320343018,-2.5235109329223633,2.1423044,-1.8289305,84.4358,3.8056483,-21.880297,BSC
773906825216.0,1.0459624528884888,0.24423928558826447,3.754584789276123,6.2830491065979,-2.5226824283599854,1.751656,-1.4853188999999998,84.961945,3.6180015,-22.362227999999998,BSC
773927075840.0,1.0509614944458008,0.21224652230739594,3.5886945724487305,6.39469575881958,-2.5207860469818115,1.1554517,-1.2110404,85.18936,3.1604981,-22.63948,BSC
773946736640.0,1.0559605360031128,0.1781889796257019,3.419956922531128,6.506907939910889,-2.5178020000457764,0.5543602,-1.0290025,85.32024399999997,2.6484777999999998,-22.803581,BSC
773965807616.0,1.0609595775604248,0.14211413264274597,3.2486724853515625,6.619499206542969,-2.513712167739868,0.17654006,-0.91965765,85.27596,1.8994493000000001,-22.857946,BSC
773984288768.0,1.0659586191177368,0.10408993810415268,3.0751655101776123,6.7322773933410645,-2.5084993839263916,0.12736541,-0.88025683,85.18329,1.1225281,-22.834220000000002,BSC
774002245632.0,1.0709576606750488,0.06420271843671799,2.8997812271118164,6.845046043395996,-2.502148151397705,0.41050145,-0.8918633,85.017715,0.3228178,-22.866455,BSC
774019678208.0,1.0759567022323608,0.022554734721779823,2.7228822708129883,6.957604885101318,-2.4946439266204834,0.8145888000000001,-0.93828905,84.841324,-0.47831264,-22.918077,BSC
774036586496.0,1.0809557437896729,-0.02073846571147442,2.5448455810546875,7.069752216339111,-2.485973358154297,0.99112886,-1.07665,84.69953000000002,-1.1994851999999998,-23.063644,BSC
774053036032.0,1.0859547853469849,-0.06555086374282837,2.3660590648651123,7.181285381317139,-2.4761245250701904,1.1948524999999999,-1.1566733,84.54077,-1.9050936,-23.327831,BSC
774069026816.0,1.0909538269042969,-0.11174874007701874,2.1869184970855713,7.2920026779174805,-2.465087413787842,1.1633928999999998,-1.3011428999999999,84.48635,-2.5496944999999998,-23.669819,BSC
774084558848.0,1.0959528684616089,-0.15919330716133118,2.007824659347534,7.401703834533691,-2.452852964401245,0.9947940999999999,-1.4517213,84.44769000000002,-3.1469134999999997,-24.026806,BSC
774099632128.0,1.1009520292282104,-0.20774312317371368,1.8291802406311035,7.510190963745117,-2.4394145011901855,0.77579886,-1.575116,84.48893000000002,-3.741993700000001,-24.440275,BSC
774114312192.0,1.105951189994812,-0.25725647807121277,1.651387333869934,7.617269515991211,-2.424767255783081,0.5290093000000001,-1.6383406,84.55421,-4.2937845999999995,-24.795545999999998,BSC
774128599040.0,1.1109503507614136,-0.30759385228157043,1.4748445749282837,7.722750663757324,-2.4089086055755615,0.22235495,-1.6505578999999997,84.64224,-4.813752,-25.069893,BSC
774142558208.0,1.1159495115280151,-0.3586200177669525,1.2999438047409058,7.826451301574707,-2.391838312149048,-0.034208454,-1.5454891000000002,84.7383,-5.3728967,-25.357616,BSC
774156124160.0,1.1209486722946167,-0.4102058410644531,1.1270673274993896,7.928195953369141,-2.373558521270752,0.03573562,-1.4795156999999999,84.84453,-5.9069853,-25.651072,BSC
774169362432.0,1.1259478330612183,-0.46222954988479614,0.9565848708152771,8.027817726135254,-2.354074239730835,0.15668693,-1.4370604999999999,84.93685,-6.2947955,-26.073526,BSC
774182207488.0,1.1309471130371094,-0.5145778059959412,0.788850724697113,8.12515926361084,-2.33339262008667,0.49449542,-1.3750577,84.98703,-6.6778345,-26.570557,BSC
774194790400.0,1.1359463930130005,-0.567146360874176,0.624200701713562,8.220074653625488,-2.311523914337158,0.9462303,-1.3045027,85.006096,-7.0866394,-27.127570000000002,BSC
774207045632.0,1.1409456729888916,-0.619840681552887,0.46294912695884705,8.312433242797852,-2.288480281829834,1.3570372,-1.2513573999999998,84.80775,-7.0823545,-27.882858000000002,BSC
774218973184.0,1.1459449529647827,-0.6725765466690063,0.3053860366344452,8.402118682861328,-2.2642762660980225,1.4043792,-1.1768318000000002,84.5805,-7.1153455,-28.64273,BSC
774230638592.0,1.1509443521499634,-0.7252805829048157,0.1517743468284607,8.489033699035645,-2.2389280796051025,1.0396926,-1.1117748,84.22179399999997,-6.720578,-29.436221999999997,BSC
774242041856.0,1.155943751335144,-0.7778903245925903,0.002347801346331835,8.573099136352539,-2.212454080581665,0.34941490000000003,-1.0931433000000002,83.8834,-6.3740287,-30.114634000000002,BSC
774253182976.0,1.1609431505203247,-0.8303545713424683,-0.14269092679023743,8.654256820678711,-2.1848740577697754,-0.22479841,-1.0677923999999999,84.01467,-5.9954042,-30.465629999999997,BSC
774264061952.0,1.1659425497055054,-0.8826329112052917,-0.2831719219684601,8.73246955871582,-2.1562089920043945,-0.73731434,-1.0894781,84.1736,-5.671832599999999,-30.618143,BSC
774274678784.0,1.1709420680999756,-0.9346949458122253,-0.4189594089984894,8.807722091674805,-2.126481294631958,-1.3655893,-1.196685,84.36665,-5.3200974,-30.561085,BSC
774285099008.0,1.1759415864944458,-0.9865191578865051,-0.5499531626701355,8.88001823425293,-2.0957143306732178,-1.9999727999999999,-1.3726143,84.79289,-4.8466153,-30.275097,BSC
774295257088.0,1.180941104888916,-1.0380916595458984,-0.6760890483856201,8.949379920959473,-2.0639328956604004,-2.2614229999999997,-1.5265521999999998,85.22688000000002,-4.356669999999999,-29.913286,BSC
774305218560.0,1.1859407424926758,-1.089404821395874,-0.7973397970199585,9.01584529876709,-2.031162977218628,-2.6163359,-1.5827518999999999,85.92744,-3.6702807,-29.258888,BSC
774314983424.0,1.1909403800964355,-1.140455722808838,-0.9137147068977356,9.079465866088867,-1.9974321126937866,-2.3096813999999997,-1.7281377,86.65722,-2.891924,-28.723442,BSC
774324551680.0,1.1959400177001953,-1.1912448406219482,-1.0252597332000732,9.140301704406738,-1.9627697467803955,-1.8643607,-1.8005253,87.346,-2.0604799,-28.127266,BSC
774333923328.0,1.2009397745132446,-1.2417739629745483,-1.132056474685669,9.198421478271484,-1.9272074699401855,-0.6270532,-1.9022343000000002,88.19206,-1.0621731,-27.851679999999998,BSC
774343098368.0,1.205939531326294,-1.292044758796692,-1.234220266342163,9.253897666931152,-1.8907793760299683,0.60231316,-1.8414533,88.98326,0.09243641,-27.691599,BSC
774352142336.0,1.2109392881393433,-1.3420559167861938,-1.3318973779678345,9.306802749633789,-1.8535226583480835,1.4376712999999999,-1.5815301000000002,89.82821,1.4323912,-27.807892,BSC
774360989696.0,1.2159391641616821,-1.3918015956878662,-1.4252612590789795,9.357209205627441,-1.8154780864715576,1.6801848000000001,-1.1481212,90.6162,2.8100426,-28.093693,BSC
774369705984.0,1.220939040184021,-1.4412704706192017,-1.5145082473754883,9.40518856048584,-1.7766902446746826,1.5012014,-0.59498274,91.31085999999999,4.185487,-28.488816999999997,BSC
774378225664.0,1.2259389162063599,-1.4904448986053467,-1.5998525619506836,9.450809478759766,-1.7372075319290161,1.0845913,-0.13072516,91.69667,5.383952,-28.623340000000002,BSC
774386614272.0,1.2309389114379883,-1.5393012762069702,-1.6815214157104492,9.49413776397705,-1.6970821619033813,0.49877146,0.12858713,91.978966,6.533042,-28.670624,BSC
774394871808.0,1.2359389066696167,-1.5878106355667114,-1.759749412536621,9.535239219665527,-1.6563698053359985,0.05772676700000001,0.17592919,92.03652,7.336966,-28.610221999999997,BSC
774402998272.0,1.2409389019012451,-1.6359399557113647,-1.8347736597061157,9.574176788330078,-1.6151292324066162,-0.16462818,0.07971791,92.043564,8.085688000000001,-28.453253000000004,BSC
774410993664.0,1.245939016342163,-1.683653473854065,-1.9068278074264526,9.611011505126953,-1.573421835899353,-0.13652839,-0.018325957,92.02767,8.785555,-28.248822999999998,BSC
774418857984.0,1.250939130783081,-1.7309138774871826,-1.9761371612548828,9.645803451538086,-1.531310796737671,0.10781772,-0.040317107000000005,91.84618,9.148409,-28.219804999999997,BSC
774426591232.0,1.255939245223999,-1.7776836156845093,-2.0429139137268066,9.678608894348145,-1.488860845565796,0.4343252,-0.035124752999999995,91.69154,9.513474,-28.22141,BSC
774434193408.0,1.260939359664917,-1.8239259719848633,-2.107353448867798,9.709481239318848,-1.446137547492981,0.63041294,-0.07299839999999999,90.9006,9.877968,-28.836322999999997,BSC
774441730048.0,1.265939474105835,-1.869605541229248,-2.1696314811706543,9.738471984863281,-1.4032073020935059,0.6224717,-0.15668693,90.13273000000001,10.231803999999999,-29.466347,BSC
774449135616.0,1.2709397077560425,-1.9146887063980103,-2.229903221130371,9.765628814697266,-1.3601365089416504,0.40194935,-0.20647246,89.77951,10.132942,-29.77075,BSC
774456475648.0,1.27593994140625,-1.9591435194015503,-2.288301944732666,9.790997505187988,-1.316991925239563,0.31673363,-0.18478674,89.42943000000002,10.079338,-30.108324,BSC
774463684608.0,1.2809401750564575,-2.0029401779174805,-2.344940662384033,9.814620018005371,-1.273840069770813,0.25289822,-0.15882497,89.01120999999998,10.041816,-30.331882,BSC
774470828032.0,1.285940408706665,-2.0460503101348877,-2.399914026260376,9.83653736114502,-1.2307469844818115,0.25595254,-0.14538592,88.58181,10.045909,-30.551385999999997,BSC
774477840384.0,1.290940761566162,-2.088447332382202,-2.453300952911377,9.856789588928223,-1.1877782344818115,0.3659083,-0.18295415,88.15689,10.074725,-30.782255,BSC
774484787200.0,1.2959411144256592,-2.130105972290039,-2.5051677227020264,9.875418663024902,-1.1449987888336182,0.49449542,-0.2855795,87.85608,10.475244,-30.919046,BSC
774491668480.0,1.3009414672851562,-2.1710026264190674,-2.555570363998413,9.892465591430664,-1.1024725437164307,0.5891795,-0.44959682,87.58946999999998,10.910447,-31.070565999999996,BSC
774498484224.0,1.3059419393539429,-2.211115837097168,-2.6045570373535156,9.907973289489746,-1.060262680053711,0.64873886,-0.66981375,87.57866,11.485443,-31.104664,BSC
774505234432.0,1.3109424114227295,-2.2504260540008545,-2.6521708965301514,9.921989440917969,-1.0184311866760254,0.68477994,-0.83169305,87.60419499999998,12.090458,-31.150247999999998,BSC
774511853568.0,1.3159428834915161,-2.2889161109924316,-2.6984517574310303,9.934561729431152,-0.9770388603210449,0.7162395,-0.9297369000000001,87.68141,12.735749,-31.19865,BSC
774518407168.0,1.3209434747695923,-2.326571226119995,-2.743438243865967,9.945741653442383,-0.9361453056335449,0.66920286,-1.0137309,87.92168000000002,13.509787,-31.198774,BSC
774524895232.0,1.3259440660476685,-2.363379716873169,-2.7871694564819336,9.955583572387695,-0.8958088159561157,0.51068336,-1.0305296,88.15835,14.278247,-31.170690000000004,BSC
774531317760.0,1.3309446573257446,-2.399332046508789,-2.8296854496002197,9.964142799377441,-0.856086015701294,0.37843102,-0.99296147,88.46800999999998,15.111726,-31.156121999999996,BSC
774537674752.0,1.3359453678131104,-2.4344213008880615,-2.8710293769836426,9.971477508544922,-0.8170319199562073,0.30451632,-0.93554014,88.75918,15.934825,-31.11032100000001,BSC
774544031744.0,1.340946078300476,-2.468641996383667,-2.911247491836548,9.977643966674805,-0.7786996960639954,0.25870144,-0.87689704,89.072525,16.756868,-31.05379000000001,BSC
774550323200.0,1.3459467887878418,-2.5019893646240234,-2.950390577316284,9.982698440551758,-0.7411403059959412,0.21197024,-0.8155051,89.35031,17.534615,-30.979218,BSC
774556549120.0,1.350947618484497,-2.534458875656128,-2.988513946533203,9.9866943359375,-0.7044023275375366,0.21380283,-0.7470882,89.59976,18.256708,-30.909275,BSC
774562709504.0,1.3559484481811523,-2.566045045852661,-3.0256776809692383,9.9896821975708,-0.6685315370559692,0.24587326,-0.6560693,89.951035,19.04972,-30.797172999999997,BSC
774568804352.0,1.3609493970870972,-2.59674072265625,-3.0619468688964844,9.991708755493164,-0.6335704922676086,0.2779437,-0.5290093000000001,90.26705,19.767359,-30.694473,BSC
774574899200.0,1.365950345993042,-2.6265361309051514,-3.09739089012146,9.992818832397461,-0.5995581150054932,0.32834008,-0.38026363,90.55651,20.448529999999998,-30.526790000000002,BSC
774580928512.0,1.3709512948989868,-2.6554176807403564,-3.132082462310791,9.993051528930664,-0.5665294528007507,0.38851030000000003,-0.20433442,90.80411,21.061056,-30.388040000000004,BSC
774586892288.0,1.3759522438049316,-2.683367967605591,-3.166095733642578,9.99244213104248,-0.5345151424407959,0.41844269999999995,-0.040317107000000005,90.943535,21.595254999999998,-30.170434999999998,BSC
774592856064.0,1.380953311920166,-2.71036434173584,-3.199505090713501,9.991021156311035,-0.5035415887832642,0.48258355,0.036651913,91.07144,22.09357,-29.990209999999998,BSC
774598754304.0,1.3859543800354004,-2.7363791465759277,-3.2323825359344482,9.988815307617188,-0.47363051772117615,0.5311473000000001,0.1777618,91.13584,22.5345,-29.844034000000004,BSC
774604587008.0,1.3909554481506348,-2.761380434036255,-3.264796257019043,9.985846519470215,-0.4447992742061615,0.5833763000000001,0.30390546,90.94572,22.753998,-29.702944,BSC
774610419712.0,1.3959566354751587,-2.7853314876556396,-3.296808958053589,9.982131004333496,-0.4170607328414917,0.63499445,0.4269948,90.72483000000001,22.951872,-29.593102000000002,BSC
774616186880.0,1.4009578227996826,-2.808192491531372,-3.3284761905670166,9.977679252624512,-0.390423446893692,0.68630713,0.5384777,90.392876,23.020298,-29.621328000000002,BSC
774621954048.0,1.4059590101242065,-2.8299217224121094,-3.35984468460083,9.972497940063477,-0.36489179730415344,0.7458665,0.6462954000000001,90.03522,23.075193,-29.679281,BSC
774627655680.0,1.4109601974487305,-2.850476026535034,-3.390951633453369,9.966588020324707,-0.3404662013053894,0.79045963,0.73975784,89.65482,23.108059,-29.757672999999997,BSC
774633357312.0,1.4159613847732544,-2.8698132038116455,-3.421823263168335,9.959943771362305,-0.3171432912349701,0.84207773,0.82863873,89.16810600000002,23.012772000000002,-30.056691999999998,BSC
774638993408.0,1.4209626913070679,-2.887892723083496,-3.452474594116211,9.952556610107422,-0.2949161231517792,0.88789266,0.8979719,88.662155,22.896564,-30.370929999999998,BSC
774644629504.0,1.4259639978408813,-2.904677152633667,-3.4829087257385254,9.944411277770996,-0.2737743556499481,0.91965765,0.94806284,87.81482,22.698689,-31.163626,BSC
774650265600.0,1.4309653043746948,-2.9201338291168213,-3.5131163597106934,9.9354887008667,-0.25370439887046814,0.91629785,0.96761054,86.96135,22.460754,-31.94125,BSC
774655836160.0,1.4359666109085083,-2.9342353343963623,-3.543076753616333,9.925765991210938,-0.2346896231174469,0.88606006,0.97158116,86.277084,22.069275,-32.58719,BSC
774661406720.0,1.4409679174423218,-2.9469611644744873,-3.5727579593658447,9.915217399597168,-0.21671044826507568,0.8405505999999999,0.95081174,85.58285500000002,21.648857,-33.21586,BSC
774666911744.0,1.4459692239761353,-2.958298683166504,-3.6021182537078857,9.903816223144531,-0.19974443316459656,0.8145888000000001,0.92087936,84.879745,21.192337,-33.828765999999995,BSC
774672416768.0,1.4509705305099487,-2.9682435989379883,-3.6311075687408447,9.891534805297852,-0.1837664097547531,0.8020661,0.8900306999999998,84.19095,20.66968,-34.445896000000005,BSC
774677921792.0,1.4559718370437622,-2.976801633834839,-3.6596691608428955,9.878347396850586,-0.16874852776527405,0.77824235,0.8579602,83.49675,20.121187,-35.036568,BSC
774683361280.0,1.4609731435775757,-2.983987808227539,-3.687741756439209,9.864229202270508,-0.15466037392616272,0.7287621999999999,0.84482664,82.53389,19.677076,-35.95336500000001,BSC
774688800768.0,1.4659744501113892,-2.9898273944854736,-3.7152609825134277,9.849161148071289,-0.1414690613746643,0.6414085,0.8436049000000001,81.57512,19.212713,-36.802597,BSC
774694240256.0,1.4709757566452026,-2.9943554401397705,-3.742161512374878,9.833127975463867,-0.12913937866687775,0.50823987,0.82344633,80.87395500000002,18.760258,-37.32638,BSC
774699614208.0,1.4759770631790161,-2.997617244720459,-3.768378257751465,9.816122055053711,-0.11763390898704529,0.43982297,0.79779,80.16843399999998,18.299276000000006,-37.821175,BSC
774704988160.0,1.4809783697128296,-2.9996676445007324,-3.793848752975464,9.798140525817871,-0.10691322386264801,0.3115413,0.7812967,79.43628000000002,17.833498000000006,-38.2434,BSC
774710362112.0,1.4859795570373535,-3.000570297241211,-3.8185136318206787,9.779190063476562,-0.09693608433008194,0.19853121,0.7257079000000001,78.83591,17.415770000000002,-38.531765,BSC
774715736064.0,1.4909807443618774,-3.0003979206085205,-3.8423190116882324,9.759284973144531,-0.08765967190265656,0.09773844,0.6737844,78.22261999999998,17.006335999999994,-38.775,BSC
774721044480.0,1.4959819316864014,-2.9992306232452393,-3.8652167320251465,9.738447189331055,-0.07903982698917389,0.01282817,0.61636305,77.704704,16.653913,-38.938244,BSC
774726352896.0,1.5009831190109253,-2.9971556663513184,-3.8871657848358154,9.716707229614258,-0.07103130966424942,-0.03145956,0.5732970000000001,77.191376,16.31805,-39.073082,BSC
774731661312.0,1.5059843063354492,-2.9942660331726074,-3.9081332683563232,9.69410228729248,-0.06358806043863297,-0.0571159,0.5540548000000001,76.79554,16.05573,-39.15112,BSC
774736969728.0,1.5109854936599731,-2.990659236907959,-3.9280951023101807,9.670676231384277,-0.056663498282432556,-0.086132,0.5543602,76.40063,15.804642000000001,-39.209126,BSC
774742278144.0,1.5159865617752075,-2.986435890197754,-3.9470362663269043,9.64648151397705,-0.05021076276898384,-0.13408493,0.58032197,76.10445,15.616101,-39.213642,BSC
774747521024.0,1.520987629890442,-2.9816982746124268,-3.9649503231048584,9.621573448181152,-0.04418298974633217,-0.18112154,0.6218608,75.79754,15.432179000000001,-39.209835,BSC
774752763904.0,1.5259886980056763,-2.976548910140991,-3.9818403720855713,9.596012115478516,-0.03853354975581169,-0.26236662,0.66828656,75.46825,15.239685,-39.184845,BSC
774758006784.0,1.5309897661209106,-2.9710898399353027,-3.9977176189422607,9.569863319396973,-0.03321627527475357,-0.29901853,0.7021896,75.20257600000002,15.100952,-39.085148,BSC
774763249664.0,1.5359907150268555,-2.965421676635742,-4.012600421905518,9.543191909790039,-0.02818567119538784,-0.3005457,0.7351763000000001,74.91479,14.948994,-38.977955,BSC
774768492544.0,1.5409916639328003,-2.9596424102783203,-4.026514053344727,9.516066551208496,-0.02339710108935833,-0.33658674,0.7519751,74.57502,14.753742,-38.889523,BSC
774773735424.0,1.5459926128387451,-2.9538466930389404,-4.039488792419434,9.488554954528809,-0.01880696974694729,-0.32834008,0.7489208,74.23678000000002,14.5600815,-38.81329,BSC
774778912768.0,1.5509934425354004,-2.9481256008148193,-4.051558494567871,9.460722923278809,-0.014372888021171093,-0.25534168,0.7501425,73.86205,14.313179000000002,-38.801525,BSC
774784090112.0,1.5559942722320557,-2.942565679550171,-4.062759876251221,9.432634353637695,-0.010053823702037334,-0.13103059,0.7476991,73.498,14.067836999999999,-38.803665,BSC
774789267456.0,1.560995101928711,-2.9372482299804688,-4.073129653930664,9.404349327087402,-0.005810208152979612,-0.018936822,0.75655663,73.07821,13.753329999999998,-38.897446,BSC
774794444800.0,1.5659958124160767,-2.932248592376709,-4.082705497741699,9.375923156738281,-0.0016040269983932376,0.079107046,0.75594574,72.67659,13.447757000000001,-39.016467999999996,BSC
774799622144.0,1.5709965229034424,-2.9276363849639893,-4.091522693634033,9.347407341003418,0.0026011185254901648,0.1518,0.74128497,72.18211,13.057819,-39.202059999999996,BSC
774804799488.0,1.5759971141815186,-2.9234745502471924,-4.099613189697266,9.318846702575684,0.0068399617448449135,0.18295415,0.7119634,71.70033000000002,12.676409,-39.39584,BSC
774809976832.0,1.5809977054595947,-2.9198195934295654,-4.107006072998047,9.290282249450684,0.011145530268549919,0.21135938,0.7110472,71.055595,12.204266,-39.627464,BSC
774815154176.0,1.5859981775283813,-2.9167211055755615,-4.113724708557129,9.261750221252441,0.015549100935459137,0.20372356,0.68569624,70.43025,11.752568,-39.84412800000001,BSC
774820265984.0,1.590998649597168,-2.914222240447998,-4.119787216186523,9.233281135559082,0.02008013427257538,0.2049453,0.65148777,69.81324000000001,11.313999,-40.061127,BSC
774825377792.0,1.595999002456665,-2.9123592376708984,-4.125204563140869,9.204902648925781,0.024766182526946068,0.21868975,0.6215554,68.9216,10.796478,-40.322342,BSC
774830489600.0,1.600999355316162,-2.9111626148223877,-4.129981517791748,9.17663860321045,0.029632767662405968,0.24923302,0.5729916,68.054855,10.3167,-40.56819,BSC
774835601408.0,1.6059995889663696,-2.9106571674346924,-4.1341142654418945,9.14851188659668,0.03470321744680405,0.26572640000000003,0.5332854,66.87605,9.763131,-40.885025,BSC
774840713216.0,1.6109998226165771,-2.910862445831299,-4.137590408325195,9.120543479919434,0.03999845311045647,0.27091873,0.50701815,65.72449499999999,9.256592,-41.176147,BSC
774845825024.0,1.6159999370574951,-2.9117939472198486,-4.140390396118164,9.092754364013672,0.04553676396608353,0.27000242,0.4914411,64.631546,8.668411,-41.289486,BSC
774850936832.0,1.621000051498413,-2.9134633541107178,-4.14248514175415,9.065166473388672,0.05133356153964996,0.26022860000000003,0.44929138,63.569366,8.143148,-41.385529999999996,BSC
774856048640.0,1.6260000467300415,-2.915879726409912,-4.143837928771973,9.037803649902344,0.05740111693739891,0.2134974,0.38087448,62.44684,7.580122,-41.393,BSC
774861160448.0,1.63100004196167,-2.919050693511963,-4.144405364990234,9.01069450378418,0.0637483298778534,0.13988814,0.27091873,61.373596,7.092120599999999,-41.379795,BSC
774866206720.0,1.6359999179840088,-2.922982692718506,-4.144136905670166,8.983870506286621,0.07038048654794693,0.059864793,0.17287487,60.23784300000001,6.6296687000000025,-41.354042,BSC
774871252992.0,1.6409997940063477,-2.9276821613311768,-4.142976760864258,8.957367897033691,0.0772990882396698,0.014660766,0.06841691,59.170030000000004,6.2441077000000025,-41.310078000000004,BSC
774876299264.0,1.645999550819397,-2.933156967163086,-4.140865802764893,8.93122673034668,0.0845017060637474,0.011301007,-0.033292156,58.077445999999995,5.944794,-41.35094,BSC
774881345536.0,1.6509993076324463,-2.9394161701202393,-4.137741565704346,8.905489921569824,0.0919819325208664,0.013133603,-0.12675454,57.04404,5.703344,-41.369170000000004,BSC
774886391808.0,1.655998945236206,-2.9464704990386963,-4.133541107177734,8.880204200744629,0.09972937405109406,0.021991148999999998,-0.20433442,56.142784,5.5767264,-41.6234,BSC
774891438080.0,1.6609985828399658,-2.9543323516845703,-4.128201007843018,8.855417251586914,0.10772977769374847,0.064751714,-0.27672195,55.294419999999995,5.4880548,-41.859806,BSC
774896484352.0,1.665998101234436,-2.963015556335449,-4.121658802032471,8.8311767578125,0.11596518754959106,0.08399397,-0.30848694,54.476753,5.4117737,-42.069218,BSC
774901530624.0,1.6709976196289062,-2.9725348949432373,-4.113855361938477,8.807530403137207,0.12441419064998627,0.07238753,-0.30390546,53.88307,5.4194384000000015,-42.301365000000004,BSC
774906576896.0,1.6759971380233765,-2.982905626296997,-4.104734897613525,8.78452205657959,0.13305221498012543,0.07544186,-0.29504790000000003,53.30951999999999,5.426711599999999,-42.52714,BSC
774911623168.0,1.6809965372085571,-2.9941420555114746,-4.0942463874816895,8.762192726135254,0.14185188710689545,0.06566802,-0.25350907,52.877373,5.479666,-42.721687,BSC
774916669440.0,1.6859959363937378,-3.0062570571899414,-4.082343101501465,8.740579605102539,0.15078340470790863,0.061391957000000004,-0.1872302,52.43551,5.5039663,-42.911068,BSC
774921715712.0,1.690995216369629,-3.0192606449127197,-4.068985462188721,8.719714164733887,0.1598150134086609,0.052839845,-0.09254608,52.069720000000004,5.540439,-43.05294,BSC
774926761984.0,1.69599449634552,-3.0331597328186035,-4.054139137268066,8.69962215423584,0.16891345381736755,0.050396382999999996,-0.09254608,51.84709846153849,5.51745387179487,-43.1276220121354,BSC
774931808256.0,1.7009936571121216,-3.047956705093384,-4.037777900695801,8.680322647094727,0.17804443836212158,0.049785517,0.095294975,51.642136,5.4962919999999995,-43.19638,BSC
774936854528.0,1.7059928178787231,-3.0636489391326904,-4.0198822021484375,8.66182804107666,0.18717315793037415,0.06291912,0.18081611,51.29310200000001,5.492374400000001,-43.272705,BSC
774941900800.0,1.7109919786453247,-3.080228567123413,-4.000439643859863,8.644144058227539,0.19626477360725403,0.077579886,0.26083946,50.93247,5.4313426,-43.299859999999995,BSC
774946947072.0,1.7159910202026367,-3.0976815223693848,-3.9794461727142334,8.627269744873047,0.20528481900691986,0.10018189999999999,0.33108896,50.542503,5.3352838,-43.333984,BSC
774951993344.0,1.7209900617599487,-3.1159884929656982,-3.956904649734497,8.611198425292969,0.21419966220855713,0.13561209,0.37843102,50.166985,5.2297373,-43.335453,BSC
774957039616.0,1.7259891033172607,-3.1351237297058105,-3.932825803756714,8.595917701721191,0.22297686338424683,0.13927728,0.41599923,49.767128,5.0982385,-43.334446,BSC
774962085888.0,1.7309880256652832,-3.1550564765930176,-3.9072275161743164,8.581408500671387,0.2315855175256729,0.12156218,0.4251622000000001,49.3916,4.9689917999999995,-43.308327,BSC
774967132160.0,1.7359869480133057,-3.175750732421875,-3.8801355361938477,8.567648887634277,0.2399965077638626,0.07574729,0.4071417,49.011204,4.8252,-43.273464000000004,BSC
774972178432.0,1.7409858703613281,-3.1971659660339355,-3.8515818119049072,8.55461311340332,0.24818271398544312,0.01985312,0.3717115,48.63341,4.679521599999998,-43.228287,BSC
774977224704.0,1.7459847927093506,-3.2192583084106445,-3.821605682373047,8.542272567749023,0.2561191916465759,-0.06047566,0.32162055,48.280434,4.5490375,-43.141697,BSC
774982270976.0,1.7509835958480835,-3.241981029510498,-3.790252447128296,8.530597686767578,0.26378318667411804,-0.1441642,0.26694809999999997,47.94165,4.424529,-43.035988,BSC
774987317248.0,1.7559823989868164,-3.2652857303619385,-3.757573366165161,8.51955795288086,0.2711543142795563,-0.21899518,0.20830505,47.631756,4.326842299999999,-42.89816,BSC
774992363520.0,1.7609812021255493,-3.289123058319092,-3.7236249446868896,8.509124755859375,0.2782144844532013,-0.28283059999999993,0.15515977,47.339275,4.2371870000000005,-42.73896,BSC
774997409792.0,1.7659800052642822,-3.313443899154663,-3.6884684562683105,8.499268531799316,0.28494793176651,-0.33353242,0.11362094,47.045963,4.1492023,-42.572975,BSC
775002456064.0,1.7709788084030151,-3.3381991386413574,-3.6521692276000977,8.489961624145508,0.2913411557674408,-0.38423425,0.07666359,46.770626,4.072183600000002,-42.389877,BSC
775007502336.0,1.775977611541748,-3.363340377807617,-3.6147964000701904,8.481178283691406,0.2973828613758087,-0.4166101,0.042455133,46.496320000000004,3.9924242,-42.213493,BSC
775012548608.0,1.780976414680481,-3.3888211250305176,-3.5764222145080566,8.472893714904785,0.3030639588832855,-0.42088616,0.02321288,46.23124,3.9135379999999995,-42.032897999999996,BSC
775017529344.0,1.7859752178192139,-3.41459584236145,-3.537121057510376,8.46508502960205,0.3083774447441101,-0.44868052,-0.006414085,46.00033,3.8494502999999995,-41.855746999999994,BSC
775022510080.0,1.7909740209579468,-3.4406208992004395,-3.496969699859619,8.457731246948242,0.31331831216812134,-0.47739118,-0.038789943,45.77863,3.7831967000000004,-41.679159999999996,BSC
775027556352.0,1.7959728240966797,-3.4668543338775635,-3.4560461044311523,8.450810432434082,0.31788355112075806,-0.4822781,-0.07391469,45.56998400000001,3.7164211000000003,-41.503407,BSC
775032537088.0,1.8009716272354126,-3.4932565689086914,-3.414429187774658,8.444304466247559,0.3220720887184143,-0.49021935,-0.09865474,45.388664,3.6493818999999994,-41.345985,BSC
775037583360.0,1.8059704303741455,-3.519789695739746,-3.3721985816955566,8.438192367553711,0.32588472962379456,-0.47067168,-0.12889257,45.223938000000004,3.5778513,-41.196490000000004,BSC
775042564096.0,1.8109692335128784,-3.546417713165283,-3.3294332027435303,8.432455062866211,0.3293241262435913,-0.44318274,-0.14477506,45.073153999999995,3.4947263999999993,-41.079754,BSC
775047544832.0,1.8159680366516113,-3.573106288909912,-3.2862114906311035,8.427072525024414,0.3323947489261627,-0.41691554,-0.15760323,44.933746,3.4004858000000002,-40.96942,BSC
775052525568.0,1.8209669589996338,-3.599822998046875,-3.2426109313964844,8.422024726867676,0.335102915763855,-0.37812558,-0.16493362,44.788585999999995,3.2795734,-40.893944,BSC
775057506304.0,1.8259658813476562,-3.6265368461608887,-3.198706865310669,8.417290687561035,0.33745673298835754,-0.33475417,-0.15913039999999998,44.645298,3.1432168,-40.828340000000004,BSC
775062487040.0,1.8309648036956787,-3.6532182693481445,-3.1545722484588623,8.412848472595215,0.3394660949707031,-0.29962940000000005,-0.15302174,44.463478,2.9681122,-40.776363,BSC
775067467776.0,1.8359637260437012,-3.6798388957977295,-3.1102774143218994,8.408676147460938,0.34114253520965576,-0.26145032,-0.15088372,44.284317,2.781669,-40.73789,BSC
775072448512.0,1.8409626483917236,-3.706371545791626,-3.0658891201019287,8.40475082397461,0.3424991965293884,-0.24068089999999998,-0.14477506,44.033405,2.5561805,-40.695847,BSC
775077494784.0,1.8459616899490356,-3.7327895164489746,-3.021470546722412,8.401049613952637,0.3435506820678711,-0.2312125,-0.13836098,43.785484000000004,2.328046,-40.66068,BSC
775082475520.0,1.8509607315063477,-3.7590672969818115,-2.9770801067352295,8.397550582885742,0.3443129062652588,-0.23335053,-0.13255776,43.458477,2.0730166000000003,-40.594409999999996,BSC
775087456256.0,1.8559597730636597,-3.785179615020752,-2.932772159576416,8.394232749938965,0.3448027968406677,-0.23854288,-0.118202426,43.130386,1.8284334,-40.528859999999995,BSC
775092436992.0,1.8609588146209717,-3.8111021518707275,-2.8885955810546875,8.39107608795166,0.3450380861759186,-0.24587326,-0.09712757,42.705073999999996,1.5484343999999999,-40.423462,BSC
775097417728.0,1.8659579753875732,-3.836811065673828,-2.8445935249328613,8.38806438446045,0.3450371026992798,-0.26450464,-0.09193522,42.286545000000004,1.295548,-40.311806,BSC
775102464000.0,1.8709571361541748,-3.862283229827881,-2.8008036613464355,8.38518238067627,0.3448183834552765,-0.28588495,-0.09132435,41.86802700000001,1.0647281000000002,-40.19611,BSC
775107510272.0,1.8759562969207764,-3.887495517730713,-2.7572576999664307,8.38241958618164,0.34440046548843384,-0.3051272,-0.08093964,41.24238,0.7392545,-40.017895,BSC
775112491008.0,1.880955457687378,-3.912425994873047,-2.7139809131622314,8.379767417907715,0.3438016176223755,-0.3109304,-0.08063421400000001,40.633694,0.44435173,-39.83563,BSC
775117471744.0,1.885954737663269,-3.9370529651641846,-2.6709930896759033,8.377222061157227,0.3430396318435669,-0.3136793,-0.076358154,39.959236,0.11950279,-39.644814000000004,BSC
775122452480.0,1.8909540176391602,-3.9613559246063232,-2.628308057785034,8.374781608581543,0.3421316146850586,-0.32589662,-0.062002823,39.297256,-0.17374066,-39.447556,BSC
775127498752.0,1.8959532976150513,-3.9853146076202393,-2.5859341621398926,8.372447967529297,0.3410938084125519,-0.32711834,-0.056505035999999995,38.652893,-0.4566773,-39.250988,BSC
775132545024.0,1.9009525775909424,-4.008910179138184,-2.543874740600586,8.370226860046387,0.33994144201278687,-0.3222314000000001,-0.05589417,37.987133,-0.7515651,-39.06278,BSC
775137525760.0,1.905951976776123,-4.032124042510986,-2.5021283626556396,8.368125915527344,0.33868858218193054,-0.34391713,-0.053145275,37.335644,-1.0300351,-38.864582,BSC
775142506496.0,1.9109513759613037,-4.054939270019531,-2.4606900215148926,8.366155624389648,0.3373481333255768,-0.364992,-0.03481932,36.694553000000006,-1.2934061000000001,-38.66622,BSC
775147552768.0,1.9159507751464844,-4.077339172363281,-2.419551372528076,8.364328384399414,0.3359316885471344,-0.38423425,-0.01985312,36.14589,-1.5077521999999999,-38.444145,BSC
775152599040.0,1.920950174331665,-4.099308490753174,-2.3787012100219727,8.36266040802002,0.33444949984550476,-0.398895,-0.009468411,35.604126,-1.7094946,-38.218666,BSC
775157579776.0,1.9259495735168457,-4.120832443237305,-2.3381271362304688,8.361166954040527,0.3329104781150818,-0.4071417,0.013133603,35.140705,-1.8636381999999998,-37.969609999999996,BSC
775162560512.0,1.930949091911316,-4.141896724700928,-2.2978148460388184,8.35986614227295,0.3313221335411072,-0.42027529999999996,0.021380282999999996,34.6867,-2.0082288,-37.71833400000001,BSC
775167541248.0,1.9359486103057861,-4.1624884605407715,-2.2577497959136963,8.358776092529297,0.3296906352043152,-0.42638394,0.023518313,34.30468,-2.1048079,-37.46011,BSC
775172521984.0,1.9409481287002563,-4.1825947761535645,-2.2179176807403564,8.357914924621582,0.328020840883255,-0.41233405,0.032070424,33.921966999999995,-2.1936014,-37.207664,BSC
775177568256.0,1.9459476470947266,-4.202203750610352,-2.178304433822632,8.3572998046875,0.32631629705429077,-0.38912117,0.033292156,33.54568,-2.2791417000000003,-36.960056,BSC
775182548992.0,1.9509472846984863,-4.221303462982178,-2.138896942138672,8.356948852539062,0.3245793282985687,-0.35063666,0.025045475,33.232777,-2.3242943,-36.72499000000001,BSC
775187529728.0,1.955946922302246,-4.239882469177246,-2.099684000015259,8.356876373291016,0.322811096906662,-0.3390302,0.03756821,32.914562,-2.372866,-36.49204,BSC
775192510464.0,1.9609465599060059,-4.257929801940918,-2.0606560707092285,8.357097625732422,0.3210117518901825,-0.29046643,0.038179077,32.652359999999994,-2.3939056,-36.294033,BSC
775197491200.0,1.9659463167190552,-4.275433540344238,-2.02180552482605,8.357622146606445,0.3191804587841034,-0.2611449,0.035430185,32.38824,-2.4187193,-36.096424,BSC
775202537472.0,1.9709460735321045,-4.29238224029541,-1.983127236366272,8.35845947265625,0.31731560826301575,-0.19486602,0.029626964,32.153620000000004,-2.4305115,-35.93095800000001,BSC
775207583744.0,1.9759458303451538,-4.30876350402832,-1.944618582725525,8.359614372253418,0.3154148757457733,-0.17318029999999998,0.0290161,31.91904000000001,-2.4501232999999996,-35.762962,BSC
775212564480.0,1.9809455871582031,-4.324564456939697,-1.906279444694519,8.361087799072266,0.31347545981407166,-0.1282817,0.03390302,31.7162,-2.4518782999999997,-35.61289,BSC
775217545216.0,1.985945463180542,-4.339771747589111,-1.868112325668335,8.362876892089844,0.3114940822124481,-0.08155051,0.027488936000000002,31.517126,-2.4658027000000002,-35.47085,BSC
775222525952.0,1.9909453392028809,-4.354371070861816,-1.8301222324371338,8.36497688293457,0.3094673156738281,-0.036651913,0.03176499,31.311932000000002,-2.4874308,-35.341797,BSC
775227572224.0,1.9959452152252197,-4.368347644805908,-1.7923165559768677,8.367378234863281,0.30739152431488037,-0.0036651915999999997,0.027488936000000002,31.117341999999997,-2.5123944,-35.211914,BSC
775232552960.0,2.0009450912475586,-4.381686210632324,-1.7547050714492798,8.370068550109863,0.30526310205459595,0.026572637000000003,0.03573562,30.91632700000001,-2.548092,-35.094284,BSC
775237533696.0,2.0059449672698975,-4.394370079040527,-1.7172996997833252,8.373031616210938,0.30307862162590027,0.05222898,0.03359759,30.718159000000004,-2.5873048,-34.968266,BSC
775242514432.0,2.0109448432922363,-4.406383037567139,-1.6801141500473022,8.376249313354492,0.30083489418029785,0.07696902,0.039095376,30.514242,-2.639022,-34.85069,BSC
775247495168.0,2.0159449577331543,-4.417708396911621,-1.643164038658142,8.3797025680542,0.2985290288925171,0.08643743400000001,0.03940081,30.309282,-2.6918185,-34.723873,BSC
775252541440.0,2.0209450721740723,-4.4283294677734375,-1.60646653175354,8.383368492126465,0.2961585819721222,0.077579886,0.048258353,30.09993,-2.7527627999999997,-34.598929999999996,BSC
775257587712.0,2.0259451866149902,-4.438230037689209,-1.5700401067733765,8.387225151062012,0.29372158646583557,0.077579886,0.05497787,29.891499,-2.8162937,-34.479473,BSC
775262568448.0,2.030945301055908,-4.447394847869873,-1.5339045524597168,8.39124870300293,0.29121655225753784,0.07086037,0.05497787,29.685565999999998,-2.879434,-34.347263,BSC
775267549184.0,2.035945415496826,-4.455809593200684,-1.4980806112289429,8.395416259765625,0.2886425256729126,0.070249505,0.04734206,29.480605999999998,-2.9396026,-34.217396,BSC
775272529920.0,2.040945529937744,-4.463461875915527,-1.4625898599624634,8.399704933166504,0.2859991192817688,0.05497787,0.055283304000000005,29.27935,-2.9951613,-34.084175,BSC
775277576192.0,2.045945644378662,-4.470340251922607,-1.4274547100067139,8.404092788696289,0.283286452293396,0.043676864,0.0580322,29.08332,-3.0443265,-33.953285,BSC
775282556928.0,2.05094575881958,-4.476435661315918,-1.3926979303359985,8.40855884552002,0.2805051803588867,0.02443461,0.06291912,28.896246,-3.0892408,-33.82442,BSC
775287537664.0,2.055945873260498,-4.481740951538086,-1.3583427667617798,8.413084030151367,0.2776564657688141,0.010079277,0.06597344599999999,28.709853999999996,-3.1364923,-33.695057,BSC
775292583936.0,2.060945987701416,-4.4862518310546875,-1.32441246509552,8.417651176452637,0.2747419774532318,0.008246681,0.06780604,28.529541,-3.178129,-33.569393,BSC
775297564672.0,2.065946102142334,-4.489965915679932,-1.2909303903579712,8.42224407196045,0.2717638313770294,0.0067195175,0.07269296,28.348335,-3.2166069999999998,-33.441174,BSC
775302610944.0,2.070946216583252,-4.492883682250977,-1.2579196691513062,8.426848411560059,0.26872456073760986,0.006414085,0.06780604,28.170816,-3.2595139,-33.314487,BSC
775307591680.0,2.07594633102417,-4.4950079917907715,-1.2254029512405396,8.431451797485352,0.2656271457672119,0.004886922,0.0720821,27.996986,-3.3011184,-33.19858,BSC
775312572416.0,2.080946445465088,-4.496344089508057,-1.1934025287628174,8.436043739318848,0.262474924325943,0.014355333500000001,0.074830994,27.826044,-3.3408983,-33.08723,BSC
775317553152.0,2.085946559906006,-4.4969000816345215,-1.1619396209716797,8.4406156539917,0.2592715919017792,0.01985312,0.076052725,27.656779999999998,-3.3860126000000004,-32.987576000000004,BSC
775322533888.0,2.090946674346924,-4.4966864585876465,-1.1310341358184814,8.445159912109375,0.256021112203598,0.02076942,0.08246681,27.485851,-3.4292345,-32.890217,BSC
775327580160.0,2.095946788787842,-4.495716571807861,-1.1007047891616821,8.449670791625977,0.2527276873588562,0.03481932,0.087659165,27.315662,-3.4774491999999997,-32.799183,BSC
775332560896.0,2.1009469032287598,-4.4940056800842285,-1.070968508720398,8.454144477844238,0.24939580261707306,0.036957346,0.08857546,27.109293,-3.5582895,-32.722042,BSC
775337541632.0,2.1059470176696777,-4.491572380065918,-1.0418400764465332,8.458577156066895,0.24603009223937988,0.04917465,0.09193522,26.902212,-3.6391782999999998,-32.651962,BSC
775342522368.0,2.110947370529175,-4.488436222076416,-1.0133322477340698,8.462966918945312,0.2426353245973587,0.053450707,0.090713486,26.669382000000002,-3.7430322,-32.59023,BSC
775347568640.0,2.115947723388672,-4.484619617462158,-0.9854555130004883,8.467313766479492,0.2392163723707199,0.061391957000000004,0.09132435,26.437895,-3.8390586000000004,-32.5327,BSC
775352614912.0,2.120948076248169,-4.480147361755371,-0.9582177996635437,8.471617698669434,0.23577813804149628,0.06078109,0.08460484,26.212845,-3.9316546999999997,-32.47396,BSC
775357595648.0,2.125948429107666,-4.4750447273254395,-0.9316243529319763,8.475879669189453,0.2323254942893982,0.063224554,0.095294975,25.95253,-4.0449777000000005,-32.42136,BSC
775362641920.0,2.130948781967163,-4.469339847564697,-0.905677855014801,8.4801025390625,0.2288632094860077,0.06383542,0.0842994,25.706219,-4.1447673,-32.36825,BSC
775367622656.0,2.13594913482666,-4.463061809539795,-0.8803781270980835,8.484289169311523,0.22539594769477844,0.06383542,0.07727446,25.435394,-4.2655660000000015,-32.31172,BSC
775372603392.0,2.1409494876861572,-4.456240177154541,-0.8557223677635193,8.488443374633789,0.22192813456058502,0.05681047,0.08674286,25.167826,-4.3733463,-32.252697,BSC
775377649664.0,2.1459498405456543,-4.448906421661377,-0.8317051529884338,8.492569923400879,0.2184639424085617,0.05467244,0.07452556,24.914513,-4.4738307,-32.195370000000004,BSC
775382630400.0,2.1509501934051514,-4.441092014312744,-0.8083184361457825,8.496673583984375,0.2150072604417801,0.05772676700000001,0.0720821,24.631565,-4.5862017,-32.130795,BSC
775387611136.0,2.1559505462646484,-4.432828903198242,-0.7855520248413086,8.500760078430176,0.21156160533428192,0.044898596,0.06597344599999999,24.360022,-4.692078599999999,-32.06114,BSC
775392591872.0,2.1609508991241455,-4.424149513244629,-0.7633934617042542,8.504834175109863,0.2081301212310791,0.045814894,0.06658431,24.101078,-4.7870584,-31.988194,BSC
775397572608.0,2.1659512519836426,-4.415085792541504,-0.7418285608291626,8.508902549743652,0.2047155648469925,0.043066,0.06078109,23.851329999999997,-4.874827,-31.911013,BSC
775402618880.0,2.1709516048431396,-4.405669689178467,-0.7208414673805237,8.512969970703125,0.20132024586200714,0.034208454,0.061391957000000004,23.603737,-4.9631968,-31.832309999999996,BSC
775407599616.0,2.1759519577026367,-4.395932197570801,-0.7004150152206421,8.517043113708496,0.19794607162475586,0.03604105,0.062002823,23.370653,-5.0355167000000005,-31.754751000000002,BSC
775412580352.0,2.180952310562134,-4.385904788970947,-0.6805310845375061,8.521126747131348,0.19459456205368042,0.03726278,0.050701816,23.14534,-5.1048064,-31.675209000000002,LYI
775417561088.0,2.185952663421631,-4.375617027282715,-0.6611708998680115,8.525225639343262,0.19126680493354797,0.043982297000000004,0.04917465,22.940401,-5.1620173,-31.601421000000002,LYI
775422541824.0,2.190953254699707,-4.365098476409912,-0.6423152685165405,8.529342651367188,0.1879635453224182,0.053145275,0.043066,22.743433,-5.2126529999999995,-31.529590000000002,LYI
775427588096.0,2.195953845977783,-4.354377269744873,-0.623944878578186,8.53348159790039,0.18468518555164337,0.064446285,0.044593163,22.54686400000001,-5.2707496,-31.460490999999998,LYI
775432634368.0,2.2009544372558594,-4.343480587005615,-0.6060407161712646,8.537644386291504,0.18143178522586823,0.07422013,0.037873644,22.390455,-5.297947,-31.408440000000002,LYI
775437615104.0,2.2059550285339355,-4.332434177398682,-0.5885840058326721,8.541831016540527,0.17820318043231964,0.087659165,0.033292156,22.234034,-5.329059,-31.360646999999997,LYI
775442595840.0,2.2109556198120117,-4.321263313293457,-0.5715566277503967,8.546042442321777,0.1749989539384842,0.09407325,0.027794369,22.093285,-5.3514886,-31.317749,LYI
775447576576.0,2.215956211090088,-4.309991836547852,-0.5549411773681641,8.550276756286621,0.17181852459907532,0.090713486,0.020463986,21.955965,-5.3761816,-31.27609600000001,LYI
775452622848.0,2.220956802368164,-4.298642158508301,-0.5387210845947266,8.554532051086426,0.1686611771583557,0.105374254,0.01740966,21.819584,-5.4050025999999995,-31.24142,LYI
775457669120.0,2.2259573936462402,-4.287236213684082,-0.5228807330131531,8.558805465698242,0.1655261218547821,0.10995574,0.012217305,21.685604,-5.4283532999999995,-31.203526,LYI
775462649856.0,2.2309579849243164,-4.275794506072998,-0.5074054598808289,8.563093185424805,0.16241249442100525,0.096516706,0.008857545999999999,21.553593,-5.4598837,-31.164628999999998,LYI
775467630592.0,2.2359585762023926,-4.264336585998535,-0.49228164553642273,8.567391395568848,0.1593194305896759,0.10262536,0.004581489,21.424120000000002,-5.4885839999999995,-31.132708,LYI
775472611328.0,2.2409591674804688,-4.2528815269470215,-0.477496862411499,8.571695327758789,0.15624608099460602,0.10354166,-0.004581489,21.32013,-5.5087366,-31.105558000000002,LYI
775477657600.0,2.245959758758545,-4.2414469718933105,-0.46303966641426086,8.576000213623047,0.1531916707754135,0.09315695,-0.005192355,21.21592,-5.5282645,-31.076742,LYI
775482638336.0,2.250960350036621,-4.230050563812256,-0.4488997459411621,8.580301284790039,0.15015551447868347,0.09162979,0.0009162978999999999,21.113138,-5.548026,-31.055681,LYI
775487619072.0,2.2559609413146973,-4.218708515167236,-0.4350678026676178,8.58459186553955,0.14713701605796814,0.07299839999999999,0.009773844,21.0117,-5.572891,-31.026674,LYI
775492665344.0,2.2609615325927734,-4.207437038421631,-0.4215356111526489,8.5888671875,0.1441357582807541,0.071776666,0.01160644,20.917381,-5.593515,-31.010489,LYI
775497646080.0,2.2659621238708496,-4.19625186920166,-0.4082958698272705,8.593121528625488,0.14115144312381744,0.06505715,0.007330383,20.824102,-5.6180400000000015,-30.987295,LYI
775502692352.0,2.270962715148926,-4.1851677894592285,-0.39534223079681396,8.597349166870117,0.13818395137786865,0.04642576,-0.00030543262000000003,20.7344,-5.6413226,-30.968132,LYI
775507673088.0,2.275963306427002,-4.174199104309082,-0.38266921043395996,8.601545333862305,0.1352333277463913,0.03359759,0.003970624,20.643223000000006,-5.6672892999999975,-30.94831,LYI
775512653824.0,2.280963897705078,-4.163360595703125,-0.37027207016944885,8.605705261230469,0.13229981064796448,0.03359759,0.0036651915999999997,20.557282999999998,-5.692097,-30.927233,LYI
775517634560.0,2.2859647274017334,-4.152665615081787,-0.3581468164920807,8.609824180603027,0.12938381731510162,0.022907447,0.002443461,20.472263,-5.713539,-30.902272999999997,LYI
775522615296.0,2.2909655570983887,-4.142127990722656,-0.3462899625301361,8.613898277282715,0.1264859288930893,0.013133603,0.002443461,20.43019608536461,-5.725842236691999,-30.8892186727524,LYI
775527596032.0,2.295966386795044,-4.131761074066162,-0.3346985876560211,8.61792278289795,0.12360689789056778,0.0076358155,0.004886922,20.387316000000002,-5.7383833,-30.875912,LYI
775532576768.0,2.300967216491699,-4.121577739715576,-0.323370099067688,8.621895790100098,0.1207476258277893,-0.005497787,0.00061086525,20.303713000000002,-5.7677435999999975,-30.863567,LYI
775537557504.0,2.3059680461883545,-4.111590385437012,-0.3123021721839905,8.625813484191895,0.11790917068719864,-0.010995574,0.00030543262000000003,20.206501,-5.803154,-30.833215999999997,LYI
775542538240.0,2.3109688758850098,-4.101810932159424,-0.30149272084236145,8.629673957824707,0.11509270966053009,-0.01160644,-0.0027488936,20.113174,-5.8362956,-30.800959000000002,LYI
775547584512.0,2.315969467163086,-4.092251300811768,-0.2909397482872009,8.633475303649902,0.11229953914880753,-0.02565634,-0.0033597588,20.021132,-5.8687634000000015,-30.763471999999997,LYI
775552630784.0,2.320970058441162,-4.082922458648682,-0.28064122796058655,8.637216567993164,0.10953105986118317,-0.030543262,-0.002443461,19.922949,-5.9030848,-30.724940000000004,LYI
775557611520.0,2.3259706497192383,-4.073834419250488,-0.2705950438976288,8.640897750854492,0.1067887470126152,-0.027488936000000002,-0.00061086525,19.826220000000006,-5.9356227,-30.685026,LYI
775562592256.0,2.3309712409973145,-4.06499719619751,-0.2607989013195038,8.644516944885254,0.10407412052154541,-0.030848695,0.004276057,19.71879,-5.9750805,-30.639599,LYI
775567572992.0,2.3359718322753906,-4.05642032623291,-0.2512502372264862,8.648076057434082,0.10138874500989914,-0.034208454,0.0030543262,19.614244,-6.0112404999999995,-30.595565999999998,LYI
775572553728.0,2.340972423553467,-4.048111438751221,-0.24194619059562683,8.651575088500977,0.09873418509960175,-0.025350908,0.011301007,19.506172,-6.0477767,-30.553942,LYI
775577534464.0,2.345973014831543,-4.040078639984131,-0.2328835278749466,8.655014038085938,0.09611199796199799,-0.03176499,0.005497787,19.393003,-6.088998999999999,-30.504663,LYI
775582580736.0,2.350973606109619,-4.0323286056518555,-0.2240586280822754,8.658395767211914,0.09352369606494904,-0.02687807,0.004276057,19.276595999999998,-6.1224074,-30.461015999999997,LYI
775587561472.0,2.3559741973876953,-4.024867057800293,-0.2154674381017685,8.661720275878906,0.0909707248210907,-0.014355333500000001,0.010690141499999998,19.152442999999998,-6.1657085,-30.415146000000004,LYI
775592542208.0,2.3609747886657715,-4.017698764801025,-0.20710550248622894,8.664990425109863,0.08845444023609161,-0.016187929,0.005497787,19.034815,-6.1990175,-30.367416,LYI
775597588480.0,2.3659753799438477,-4.010827541351318,-0.19896799325942993,8.668207168579102,0.08597610890865326,-0.014966198,0.004886922,18.907757,-6.232777,-30.316801,LYI
775602634752.0,2.370975971221924,-4.004256725311279,-0.1910497546195984,8.671372413635254,0.08353684842586517,-0.025045475,0.007330383,18.783909,-6.2629,-30.262954999999998,LYI
775607615488.0,2.3759765625,-3.997987985610962,-0.18334536254405975,8.674488067626953,0.08113764971494675,-0.01740966,0.0067195175,18.662909,-6.2885504,-30.215883,LYI
775612596224.0,2.380977153778076,-3.9920222759246826,-0.17584916949272156,8.677556037902832,0.07877934724092484,-0.0125227375,0.007330383,18.54296,-6.311995,-30.165490999999996,LYI
775617642496.0,2.3859777450561523,-3.9863595962524414,-0.1685553640127182,8.680578231811523,0.07646262645721436,-0.02107485,-0.00061086525,18.427967000000002,-6.3327394,-30.114193,LYI
775622623232.0,2.3909783363342285,-3.980998992919922,-0.16145803034305573,8.683555603027344,0.07418801635503769,-0.019242255,0.004581489,18.312578,-6.352074,-30.063303,LYI
775627669504.0,2.3959789276123047,-3.975938558578491,-0.1545512080192566,8.686490058898926,0.07195588201284409,-0.015882496,0.0012217305,18.204329,-6.3661103,-30.011549,LYI
775632650240.0,2.400979518890381,-3.971175193786621,-0.14782893657684326,8.68938159942627,0.06976643949747086,-0.010690141499999998,0.002443461,18.09773,-6.379461,-29.965365999999996,LYI
775637630976.0,2.405980110168457,-3.966705322265625,-0.14128535985946655,8.692231178283691,0.06761974841356277,-0.023518313,0.005497787,17.993624,-6.3939010000000005,-29.915476,LYI
775642611712.0,2.410980463027954,-3.9625244140625,-0.13491472601890564,8.695039749145508,0.06551574170589447,-0.021991148999999998,0.005192355,17.897533,-6.401742,-29.870866999999997,LYI
775647592448.0,2.415980815887451,-3.9586269855499268,-0.12871146202087402,8.697806358337402,0.06345421075820923,-0.025045475,0.008246681,17.801214,-6.413384400000001,-29.821562,LYI
775652638720.0,2.4209811687469482,-3.9550070762634277,-0.1226702332496643,8.700531005859375,0.06143484637141228,-0.023518313,0.0033597588,17.708475,-6.4280324,-29.77478,LYI
775657684992.0,2.4259815216064453,-3.951658248901367,-0.11678596585988998,8.703213691711426,0.059457238763570786,-0.028405233999999998,0.0021380284,17.619444,-6.430643,-29.723532000000002,LYI
775662665728.0,2.4309818744659424,-3.948572874069214,-0.11105385422706604,8.705853462219238,0.05752088874578476,-0.028099801,0.004886922,17.531416,-6.438174,-29.674757,LYI
775667646464.0,2.4359822273254395,-3.9457435607910156,-0.10546939820051193,8.708449363708496,0.055625226348638535,-0.029932396,0.0012217305,17.450388,-6.4406857,-29.624779999999998,LYI
775672627200.0,2.4409825801849365,-3.943161725997925,-0.100028395652771,8.710999488830566,0.05376962944865227,-0.021991148999999998,0.010079277,17.364843,-6.4483742999999984,-29.57767,LYI
775677607936.0,2.4459829330444336,-3.940819025039673,-0.09472696483135223,8.713502883911133,0.05195342376828194,-0.028099801,0.013133603,17.283941,-6.452481,-29.526971999999997,LYI
775682588672.0,2.4509832859039307,-3.938706636428833,-0.08956152945756912,8.715958595275879,0.05017591267824173,-0.015882496,0.006414085,17.204449,-6.457004,-29.483603999999996,LYI
775687569408.0,2.4559834003448486,-3.9368152618408203,-0.0845288336277008,8.718364715576172,0.048436377197504044,-0.028405233999999998,0.015271631,17.121115,-6.46589,-29.43135,LYI
775692550144.0,2.4609835147857666,-3.935135841369629,-0.0796259343624115,8.720720291137695,0.04673408716917038,-0.02687807,0.017104227,17.047956,-6.46946,-29.387308,LYI
775697530880.0,2.4659836292266846,-3.933659076690674,-0.07485021650791168,8.723023414611816,0.04506831243634224,-0.029321532999999997,0.011301007,16.975916,-6.4795427000000005,-29.339136,LYI
775702577152.0,2.4709837436676025,-3.932375431060791,-0.0701993927359581,8.725273132324219,0.04343832656741142,-0.03481932,0.0076358155,16.911192,-6.483288,-29.290740999999997,LYI
775707557888.0,2.4759838581085205,-3.9312756061553955,-0.06567148119211197,8.727468490600586,0.04184342175722122,-0.032986722999999996,0.010995574,16.846476000000006,-6.4874897,-29.244324,LYI
775712538624.0,2.4809839725494385,-3.9303500652313232,-0.061264801770448685,8.729607582092285,0.04028291255235672,-0.0290161,0.005192355,16.788507,-6.4897279999999995,-29.195818,LYI
775717519360.0,2.4859840869903564,-3.9295897483825684,-0.05697794258594513,8.731690406799316,0.03875613957643509,-0.03145956,0.013439035,16.725635999999998,-6.492895,-29.146065000000004,LYI
775722565632.0,2.4909842014312744,-3.928985357284546,-0.05280972272157669,8.733716011047363,0.03726247325539589,-0.038179077,0.009162978,16.668182,-6.4954734000000025,-29.099040999999996,LYI
775727546368.0,2.4959840774536133,-3.928527593612671,-0.04875914752483368,8.73568344116211,0.035801324993371964,-0.03970624,0.01282817,16.605936,-6.4987974,-29.052814,LYI
775732527104.0,2.500983953475952,-3.9282078742980957,-0.04482535272836685,8.737592697143555,0.03437213599681854,-0.03634648,0.008246681,16.546112,-6.5051417,-29.00272,LYI
775737507840.0,2.505983829498291,-3.9280173778533936,-0.04100755974650383,8.7394437789917,0.03297438472509384,-0.038179077,0.014660766,16.482439000000007,-6.515818,-28.950915999999996,LYI
775742488576.0,2.51098370552063,-3.927947521209717,-0.037305012345314026,8.741236686706543,0.03160758316516876,-0.0421497,0.014049901000000002,16.423092,-6.524079,-28.900609999999997,LYI
775747534848.0,2.5159835815429688,-3.927989959716797,-0.03371693566441536,8.742972373962402,0.03027128428220749,-0.037873644,0.013744468000000001,16.357275,-6.5377707,-28.851109,LYI
775752581120.0,2.5209834575653076,-3.9281368255615234,-0.03024248778820038,8.744650840759277,0.02896507829427719,-0.03634648,0.013744468000000001,16.292599,-6.5516190000000005,-28.800455,LYI
775757561856.0,2.5259833335876465,-3.9283804893493652,-0.02688072994351387,8.7462739944458,0.027688587084412575,-0.036957346,0.008246681,16.22997,-6.5704536,-28.749601000000002,LYI
775762542592.0,2.5309829711914062,-3.928713321685791,-0.023630596697330475,8.747842788696289,0.026441460475325584,-0.04276056599999999,0.00580322,16.167316,-6.585967999999999,-28.698318,LYI
775767523328.0,2.535982608795166,-3.9291281700134277,-0.020490873605012894,8.749359130859375,0.025223365053534508,-0.040317107000000005,0.013133603,16.103714,-6.603573299999999,-28.649763,LYI
775772504064.0,2.540982246398926,-3.9296185970306396,-0.017460167407989502,8.750824928283691,0.02403397485613823,-0.04734206,0.014355333500000001,16.047,-6.6160315999999995,-28.600288,LYI
775777484800.0,2.5459818840026855,-3.930177688598633,-0.014536903239786625,8.752242088317871,0.022872956469655037,-0.045814894,0.0125227375,15.989164,-6.6279544999999995,-28.554451,LYI
775782465536.0,2.5509815216064453,-3.930799722671509,-0.011719313450157642,8.753612518310547,0.021739961579442024,-0.04153884,0.016798794,15.927468,-6.6442647,-28.510637,LYI
775787446272.0,2.555981159210205,-3.93147873878479,-0.009005456231534481,8.754938125610352,0.020634610205888748,-0.03940081,0.015577064,15.868904,-6.652157000000001,-28.467543,LYI
775792427008.0,2.560980796813965,-3.9322094917297363,-0.006393239833414555,8.756221771240234,0.01955648697912693,-0.040011674,0.014049901000000002,15.807688,-6.6653714000000015,-28.42432800000001,LYI
775797407744.0,2.5659804344177246,-3.9329867362976074,-0.003880443051457405,8.757466316223145,0.01850513368844986,-0.0421497,0.015577064,15.746630999999999,-6.6730304,-28.381777000000003,LYI
775802454016.0,2.5709800720214844,-3.9338059425354004,-0.001464740140363574,8.758673667907715,0.017480041831731796,-0.052534412999999995,0.007941248,15.693791000000001,-6.6754727,-28.343441,LYI
775807434752.0,2.575979709625244,-3.9346628189086914,0.0008562775328755379,8.759845733642578,0.016480648890137672,-0.060170225999999986,0.014966198,15.636373999999998,-6.679914,-28.305121999999997,LYI
775812415488.0,2.580979347229004,-3.9355533123016357,0.003085078438743949,8.760985374450684,0.015506337396800518,-0.06750060599999999,0.018020526000000002,15.588773999999999,-6.680762,-28.267560999999997,LYI
775817396224.0,2.5859789848327637,-3.936474084854126,0.005224160850048065,8.76209545135498,0.01455643679946661,-0.062002823,0.018936822,15.539904,-6.682327000000001,-28.23181,LYI
775822376960.0,2.5909783840179443,-3.9374217987060547,0.007276021875441074,8.763176918029785,0.01363022904843092,-0.08063421400000001,0.021380282999999996,15.493544,-6.6829753,-28.190838,LYI
775827423232.0,2.595977783203125,-3.9383938312530518,0.009243129752576351,8.764232635498047,0.012726955115795135,-0.08979719,0.021380282999999996,15.4476,-6.6823106,-28.15462,LYI
775832403968.0,2.6009771823883057,-3.939387321472168,0.011127900332212448,8.765263557434082,0.011845824308693409,-0.08582657,0.025045475,15.401664000000002,-6.6837063,-28.116265999999996,LYI
775837384704.0,2.6059765815734863,-3.9404001235961914,0.01293268147855997,8.766271591186523,0.010986030101776123,-0.09315695,0.022602014,15.359014000000002,-6.6869190000000005,-28.07295,LYI
775842365440.0,2.610975980758667,-3.941429853439331,0.014659754931926727,8.767257690429688,0.010146754793822765,-0.09254608,0.03145956,15.313176,-6.6888804,-28.031765000000004,LYI
775847346176.0,2.6159753799438477,-3.942474603652954,0.016311336308717728,8.768223762512207,0.009327179752290249,-0.103847094,0.025350908,15.274151000000002,-6.694091,-27.986437,LYI
775852392448.0,2.6209747791290283,-3.9435324668884277,0.017889579758048058,8.769169807434082,0.008526500314474106,-0.113926366,0.027183502999999998,15.225064000000001,-6.7033434000000005,-27.941785999999997,LYI
775857373184.0,2.625974178314209,-3.944601535797119,0.019396590068936348,8.770097732543945,0.007743931841105223,-0.116675265,0.031154128,15.17789,-6.7086205,-27.89682800000001,LYI
775862353920.0,2.6309735774993896,-3.9456801414489746,0.020834418013691902,8.77100658416748,0.006978715304285288,-0.105374254,0.032986722999999996,15.124687,-6.718553999999999,-27.845951,LYI
775867334656.0,2.635972738265991,-3.9467666149139404,0.02220507711172104,8.77189826965332,0.006230124272406101,-0.105374254,0.033292156,15.071835,-6.7291694,-27.791846999999997,LYI
775872315392.0,2.6409718990325928,-3.947859048843384,0.023510539904236794,8.772771835327148,0.005497468635439873,-0.1142318,0.03604105,15.016307999999999,-6.736555,-27.736738,LYI
775877361664.0,2.6459710597991943,-3.948955774307251,0.024752739816904068,8.773628234863281,0.004780099727213383,-0.1160644,0.03634648,14.961757,-6.7478690000000014,-27.684504999999998,LYI
775882342400.0,2.650970220565796,-3.9500553607940674,0.02593357115983963,8.774467468261719,0.004077414982020855,-0.11728613,0.035430185,14.909245499999999,-6.7576447,-27.628415999999998,LYI
775887323136.0,2.6559693813323975,-3.951155662536621,0.02705487236380577,8.775289535522461,0.003388860495761037,-0.10995574,0.03756821,14.855916,-6.7718229999999995,-27.574990999999997,LYI
775892303872.0,2.660968542098999,-3.9522550106048584,0.028118422254920006,8.776095390319824,0.0027139338199049234,-0.118507855,0.040317107000000005,14.804720999999999,-6.7829466,-27.517494,LYI
775897350144.0,2.6659677028656006,-3.9533517360687256,0.029125923290848732,8.776884078979492,0.0020521837286651134,-0.12370021,0.03756821,14.754707999999999,-6.796061,-27.463987,LYI
775902396416.0,2.670966863632202,-3.95444393157959,0.030078990384936333,8.777655601501465,0.001403208589181304,-0.124005646,0.032986722999999996,14.702229,-6.8089867,-27.411076,LYI
775907442688.0,2.6759657859802246,-3.9555296897888184,0.030979136005043983,8.778410911560059,0.0007666564779356122,-0.1282817,0.032375857,14.6503315,-6.823329400000001,-27.356355999999998,LYI
775912423424.0,2.680964708328247,-3.9566073417663574,0.03182774782180786,8.779149055480957,0.0001422236964572221,-0.13439035,0.03268129,14.604369,-6.8290070000000025,-27.30306,LYI
775917404160.0,2.6859636306762695,-3.957674980163574,0.03262607008218765,8.779870986938477,-0.00047034560702741146,-0.13072516,0.028710667000000002,14.560135999999998,-6.836424000000001,-27.252357,LYI
775922384896.0,2.690962553024292,-3.958730697631836,0.033375199884176254,8.780576705932617,-0.0010712568182498217,-0.14477506,0.03481932,14.514000000000001,-6.845984,-27.195354,LYI
775927431168.0,2.6959614753723145,-3.959772825241089,0.03407607227563858,8.781266212463379,-0.0016606638673692942,-0.13469578,0.03481932,14.472444,-6.847641499999999,-27.145374,LYI
775932477440.0,2.700960397720337,-3.9607994556427,0.03472945839166641,8.781940460205078,-0.002238667104393244,-0.13591751,0.025045475,14.433491,-6.8520865,-27.089271999999998,LYI
775937458176.0,2.7059590816497803,-3.961808443069458,0.0353359654545784,8.782598495483398,-0.0028053182177245617,-0.14294247,0.02321288,14.391941000000001,-6.851711999999999,-27.031494,LYI
775942504448.0,2.7109577655792236,-3.9627981185913086,0.03589604049921036,8.783242225646973,-0.003360622562468052,-0.14630222,0.02443461,14.35273,-6.85652,-26.975588000000002,LYI
775947550720.0,2.715956449508667,-3.96376633644104,0.03640999272465706,8.7838716506958,-0.0039045396260917187,-0.14813483,0.022602014,14.318168,-6.8570470000000014,-26.913488,LYI
775952596992.0,2.7209551334381104,-3.9647109508514404,0.03687799349427223,8.784486770629883,-0.004436985123902559,-0.13958271,0.01985312,14.2834,-6.8573613,-26.85445,LYI
775957577728.0,2.7259538173675537,-3.9656295776367188,0.03730008006095886,8.785089492797852,-0.004957833793014288,-0.14752395,0.0125227375,14.252285,-6.8604574000000005,-26.78237,LYI
775962558464.0,2.730952501296997,-3.966519594192505,0.03767617419362068,8.785680770874023,-0.005466917064040899,-0.13927728,0.008857545999999999,14.219967,-6.8666525,-26.718475,LYI
775967539200.0,2.7359511852264404,-3.9673781394958496,0.03800608217716217,8.786262512207031,-0.005964022595435381,-0.1337795,0.0067195175,14.1900625,-6.8685365,-26.652991999999998,LYI
775972519936.0,2.740949869155884,-3.9682021141052246,0.038289520889520645,8.786835670471191,-0.006448894739151001,-0.12858713,-0.0076358155,14.162324,-6.871207000000001,-26.5738,LYI
775977566208.0,2.745948553085327,-3.9689877033233643,0.03852612152695656,8.78740119934082,-0.006921232677996159,-0.12583824,-0.014049901000000002,14.132673,-6.8759894,-26.49669,LYI
775982612480.0,2.7509472370147705,-3.969731092453003,0.03871545568108559,8.787961959838867,-0.007380692288279533,-0.109650314,-0.011911871999999999,14.096966,-6.87753,-26.415096000000002,LYI
775987593216.0,2.755945920944214,-3.9704277515411377,0.03885705769062042,8.788518905639648,-0.00782688707113266,-0.10567969,-0.02076942,14.067175,-6.8811946,-26.333025,LYI
775992573952.0,2.7609446048736572,-3.9710726737976074,0.03895043954253197,8.789074897766113,-0.008259391412138939,-0.103847094,-0.023823743999999997,14.030191,-6.887805999999999,-26.243631,LYI
775997554688.0,2.7659432888031006,-3.9716601371765137,0.03899512067437172,8.789630889892578,-0.008677744306623936,-0.09682214,-0.03023783,13.996723000000001,-6.8957960000000025,-26.158897,LYI
776002600960.0,2.770941972732544,-3.972184181213379,0.03899064660072327,8.790189743041992,-0.00908145122230053,-0.07147124,-0.036957346,13.963474,-6.9024835000000015,-26.08157000000001,LYI
776007647232.0,2.7759406566619873,-3.9726381301879883,0.03893662616610527,8.790753364562988,-0.009469987824559212,-0.073303826,-0.039095376,13.929634,-6.9088197000000005,-25.989335999999998,LYI
776012693504.0,2.7809393405914307,-3.9730148315429688,0.03883274272084236,8.7913236618042,-0.009842801839113235,-0.06261369,-0.045814894,13.892242999999999,-6.916407,-25.900864000000002,LYI
776017674240.0,2.785938262939453,-3.973306655883789,0.03867877274751663,8.791902542114258,-0.01019931212067604,-0.05009095,-0.058337633,13.857399,-6.925198599999999,-25.814301999999998,LYI
776022654976.0,2.7909371852874756,-3.9735054969787598,0.03847459703683853,8.79249095916748,-0.010538915172219276,-0.037873644,-0.05681047,13.819834,-6.9339685,-25.731932,LYI
776027701248.0,2.795936107635498,-3.973602533340454,0.03822021186351776,8.793091773986816,-0.010860979557037354,-0.02321288,-0.063224554,13.78798,-6.949235400000001,-25.648405,LYI
776032681984.0,2.8009350299835205,-3.973588705062866,0.037915732711553574,8.793705940246582,-0.011164849624037743,-0.015882496,-0.059864793,13.752409,-6.962239,-25.567312,LYI
776037662720.0,2.805933952331543,-3.9734549522399902,0.03756139427423477,8.79433536529541,-0.011449847370386124,-0.006414085,-0.064446285,13.719161999999999,-6.978919500000001,-25.485834,LYI
776042643456.0,2.8109328746795654,-3.973191261291504,0.0371575728058815,8.794981002807617,-0.011715268716216087,0.021991148999999998,-0.070249505,13.684187,-6.9971179999999995,-25.413142999999998,LYI
776047624192.0,2.815932035446167,-3.972787380218506,0.03670472651720047,8.795644760131836,-0.011960386298596859,0.031154128,-0.07299839999999999,13.6476345,-7.014735000000001,-25.334242,LYI
776052670464.0,2.8209311962127686,-3.9722328186035156,0.03620297834277153,8.796326637268066,-0.012184456922113895,-0.006414085,-0.060170225999999986,13.608932999999999,-7.034742999999999,-25.250973000000002,LYI
776057716736.0,2.82593035697937,-3.971515417098999,0.035651396960020065,8.797027587890625,-0.012386731803417206,-0.36865717,0.0125227375,13.557049,-7.066575500000001,-25.062935,LYI
776062763008.0,2.830929756164551,-3.9706223011016846,0.035047564655542374,8.797749519348145,-0.012566500343382359,-0.63713247,0.07299839999999999,13.502776999999998,-7.078214599999999,-24.89235,LYI
776067743744.0,2.8359291553497314,-3.9695394039154053,0.03438738361001015,8.798494338989258,-0.01272313017398119,-0.41599923,-0.027183502999999998,13.498344,-6.946683999999999,-24.625301,LYI
776072724480.0,2.840928554534912,-3.968252182006836,0.03366513550281525,8.799264907836914,-0.01285605039447546,-0.8240572,-0.113926366,13.505166000000001,-6.8397837,-24.10601,LYI
776077770752.0,2.8459279537200928,-3.9667458534240723,0.03287382796406746,8.800065994262695,-0.012964876368641853,-0.43860126,0.024740042,13.428372,-6.6343309999999995,-23.874939,LYI
776082817024.0,2.8509275913238525,-3.965006113052368,0.032005805522203445,8.8009033203125,-0.013049417175352573,-0.19364429,0.03970624,13.463745999999999,-6.59025,-23.589235000000002,LYI
776087797760.0,2.8559272289276123,-3.9630188941955566,0.03105347417294979,8.801783561706543,-0.013109767809510231,0.12492194,-0.07513642,13.476123000000001,-6.3635019999999995,-23.438986,LYI
776092778496.0,2.860926866531372,-3.960771322250366,0.030010245740413666,8.802714347839355,-0.013146440498530865,0.30573806,-0.08796459400000001,13.394008,-6.3400087,-23.357622,LYI
776097759232.0,2.865926742553711,-3.958252191543579,0.028871381655335426,8.803703308105469,-0.013160412199795246,0.41141775,-0.12492194,13.346143,-6.311743,-23.351065,LYI
776102805504.0,2.87092661857605,-3.955451250076294,0.02763458527624607,8.804758071899414,-0.013152900151908398,0.64751714,-0.11698069400000001,13.277129,-6.3752455999999995,-23.431524,LYI
776107786240.0,2.8759267330169678,-3.9523606300354004,0.026300380006432533,8.805885314941406,-0.013125061988830566,0.68783426,-0.11575896,13.140053,-6.606393,-23.586344,LYI
