timestamp,rel_time,acc_x,acc_y,acc_z,gyro_x,gyro_y,gyro_z,azimuth,pitch,roll,label
0.0,0.0,0.0,0.0,0.0,0.0,0.03573562,0.015271631,163.5109,-8.190866,-43.447018,STD
81376.703125,1.3574563695328834e-10,-1.830266427305105e-08,2.611668037388881e-07,-2.7858995110818796e-08,-2.451871372599612e-09,0.033292156,0.009773844,162.96487,-8.627477,-43.53137,STD
1204974.25,3.055117048234024e-09,-2.714641595957801e-07,3.866988208756084e-06,-4.1256794247601647e-07,-3.5402550224716833e-08,0.03848451,0.014660766,162.41488999999999,-9.061867,-43.613483,STD
7101443.5,2.368253859685865e-08,-1.6023025182221318e-06,2.2788757632952183e-05,-2.43171439251455e-06,-2.0910700015974726e-07,0.030543262,0.016493361,161.87103000000005,-9.486742,-43.68938,STD
26991934.0,1.1111139741615261e-07,-6.09928838457563e-06,8.66138725541532e-05,-9.243724889529403e-06,-8.00220107066707e-07,0.020158553,0.01282817,161.32872,-9.907008,-43.763832,STD
78761272.0,3.847109724119946e-07,-1.7823502275859937e-05,0.00025272363563999534,-2.6975654691341333e-05,-2.3492821128456853e-06,0.022602014,0.015882496,160.78423999999995,-10.322969,-43.836918,STD
192147424.0,1.0846390523511218e-06,-4.354544580564834e-05,0.0006165207014419138,-6.581723573617637e-05,-5.775440058641834e-06,0.007330383,0.0067195175,160.25032,-10.729119,-43.901344,STD
411516032.0,2.6442089620104525e-06,-9.339824464404956e-05,0.0013203202979639173,-0.0001409739488735795,-1.2652992154471576e-05,0.054367005999999996,-0.022602014,159.71782,-11.121829,-43.983143,STD
797852480.0,5.740730557590723e-06,-0.00018134614219889045,0.0025597342755645514,-0.0002733512665145099,-2.5585914045223035e-05,0.10934488,-0.05467244,159.19197,-11.504371,-44.06215,STD
1429710720.0,1.1371089385647792e-05,-0.0003254297480452806,0.0045867012813687325,-0.0004898829502053559,-4.827398151974194e-05,0.13927728,-0.06841691,158.66875,-11.878789999999999,-44.14637800000001,STD
2402988544.0,2.0914227206958458e-05,-0.0005477425875142217,0.007708754390478134,-0.0008234572014771402,-8.522662392351776e-05,0.14477506,-0.06963864,158.14973,-12.242092,-44.238865000000004,STD
3829532416.0,3.618227856350131e-05,-0.0008741403580643237,0.012284533120691776,-0.001312441541813314,-0.0001413327845511958,0.13561209,-0.061086524,157.6303,-12.599495,-44.334137,STD
5834694144.0,5.945191878709011e-05,-0.0013337066629901528,0.018715932965278625,-0.001999847823753953,-0.00022156871273182333,0.10445796,-0.055283304000000005,157.11423,-12.952784,-44.423557,STD
8554048000.0,9.347913874080405e-05,-0.0019579653162509203,0.02743760496377945,-0.0029321606270968914,-0.00033026630990207195,0.049785517,-0.044593163,156.59726,-13.309981,-44.501278000000006,STD
12129533952.0,0.00014149141497910023,-0.0027799271047115326,0.03890463337302208,-0.004157944582402706,-0.00047110283048823476,0.014660766,-0.028099801,156.07785,-13.665602,-44.57325,STD
16705310720.0,0.0002071594208246097,-0.0038331090472638607,0.05357925966382027,-0.0057263909839093685,-0.0006476126727648079,-0.02565634,-0.008246681,155.51038,-14.093770999999998,-44.61711,STD
22423590912.0,0.0002945501764770597,-0.005150549579411745,0.07191754132509232,-0.007685863878577948,-0.0008628806681372225,-0.036957346,0.009468411,154.94031999999999,-14.52338,-44.655743,STD
29420701696.0,0.0004080659127794206,-0.006763878744095564,0.0943567231297493,-0.010082530789077282,-0.0011201311135664582,-0.05467244,0.027183502999999998,154.3719,-14.948920999999999,-44.67791,STD
37823545344.0,0.0005523746367543936,-0.008702483028173447,0.12130392342805862,-0.012959139421582222,-0.0014226976782083511,-0.07422013,0.029321532999999997,153.80745,-15.370061999999999,-44.69463,STD
47746617344.0,0.0007323296740651131,-0.01099280547350645,0.1531265377998352,-0.016353996470570564,-0.0017739555332809687,-0.07696902,0.044593163,153.23473,-15.790501,-44.706306,STD
59289632768.0,0.0009528877562843263,-0.013657788746058941,0.19014467298984528,-0.020300155505537987,-0.002176672453060746,-0.074830994,0.049785517,152.6705,-16.203653,-44.71366,STD
72535810048.0,0.0012190785491839051,-0.01671646721661091,0.23262563347816467,-0.024824827909469604,-0.002634102012962103,-0.06169739,0.054367005999999996,152.10289,-16.610174,-44.72044,STD
87550795776.0,0.0015358347445726395,-0.020183732733130455,0.2807804346084595,-0.029949067160487175,-0.0031500915065407753,-0.057421334000000004,0.05161811400000002,151.5405,-17.010622,-44.7247,STD
104382160896.0,0.0019079716876149178,-0.024070216342806816,0.33476218581199646,-0.03568760305643082,-0.003728503594174981,-0.03970624,0.048563786,150.97527,-17.405070000000002,-44.734535,STD
123059453952.0,0.002340123988687992,-0.028382306918501854,0.39466631412506104,-0.04204887896776199,-0.004373150411993265,-0.030848695,0.038789943,150.41722,-17.789381,-44.743576000000004,STD
143594684416.0,0.002836693776771426,-0.033122263848781586,0.46053197979927063,-0.049035247415304184,-0.005086047574877739,-0.014660766,0.035430185,149.85631,-18.170643,-44.758,STD
165983125504.0,0.003401805879548192,-0.0382884256541729,0.5323448181152344,-0.056643277406692505,-0.005867025349289179,-0.022602014,0.033292156,149.30371,-18.544006,-44.768932,STD
190204510208.0,0.004039278253912926,-0.04387548565864563,0.6100406050682068,-0.06486417353153229,-0.006715920753777027,-0.015577064,0.030848695,148.74908,-18.909372,-44.7877,STD
216224284672.0,0.004752600099891424,-0.049874790012836456,0.6935092806816101,-0.07368423789739609,-0.0076310476288199425,-0.014355333500000001,0.028710667000000002,148.19986,-19.274017,-44.802624,STD
243995099136.0,0.00554491113871336,-0.05627470463514328,0.7825998663902283,-0.08308541029691696,-0.008610646240413189,-0.013439035,0.027488936000000002,147.65202,-19.629723000000002,-44.81897,STD
273458315264.0,0.006418994162231684,-0.06306096166372299,0.877125084400177,-0.09304579347372055,-0.009651652537286282,-0.01160644,0.018936822,147.10912,-19.9815,-44.83672,STD
304545562624.0,0.007377281319350004,-0.07021703571081161,0.9768664836883545,-0.10354019701480865,-0.010751198045909405,-0.02076942,0.01038471,146.57048,-20.324972,-44.851784,STD
337180196864.0,0.008421842008829117,-0.07772449404001236,1.0815790891647339,-0.11454068124294281,-0.011907479725778103,-0.028405233999999998,0.009162978,146.03342,-20.662982999999997,-44.867558,STD
371278872576.0,0.009554395452141762,-0.08556334674358368,1.1909962892532349,-0.12601706385612488,-0.013118340633809566,-0.02107485,0.01038471,145.49898000000005,-20.995707,-44.88541,STD
406752788480.0,0.010776328854262829,-0.09371237456798553,1.304834246635437,-0.13793741166591644,-0.014381401240825653,-0.03023783,0.008857545999999999,144.97243999999995,-21.320354000000002,-44.8978,STD
443509112832.0,0.012088792398571968,-0.10214941203594208,1.4227957725524902,-0.15026843547821045,-0.01569231040775776,-0.03481932,0.004886922,144.44539,-21.642149,-44.913307,STD
481452032000.0,0.013492533005774021,-0.11085166037082672,1.5445743799209595,-0.1629759967327118,-0.017047956585884094,-0.04184427,0.008857545999999999,143.92,-21.956097,-44.925076000000004,STD
520483897344.0,0.014988007955253124,-0.11979592591524124,1.6698575019836426,-0.17602543532848358,-0.018446404486894608,-0.036651913,0.007941248,143.3974,-22.265457,-44.940125,STD
560506208256.0,0.016575412824749947,-0.12895885109901428,1.7983298301696777,-0.18938188254833221,-0.019884906709194183,-0.049480084,0.008246681,142.87978,-22.571806,-44.948544,STD
601420398592.0,0.01825469359755516,-0.1383170783519745,1.929675817489624,-0.20301057398319244,-0.021361006423830986,-0.050396382999999996,0.0033597588,142.36168,-22.86894,-44.96233,STD
643128623104.0,0.02002556435763836,-0.1478474885225296,2.063582181930542,-0.21687708795070648,-0.022873414680361748,-0.05375614,0.007330383,141.845,-23.162868,-44.971385999999995,STD
685534412800.0,0.02188754454255104,-0.15752728283405304,2.199740171432495,-0.2309475839138031,-0.024420836940407753,-0.043066,0.004886922,141.33018,-23.450409,-44.98576,STD
728543199232.0,0.02383994869887829,-0.1673341542482376,2.337846517562866,-0.24518896639347076,-0.02600197121500969,-0.043066,0.01282817,140.81468,-23.734780999999998,-44.994976,STD
772062707712.0,0.025881925597786903,-0.17724639177322388,2.4776060581207275,-0.25956907868385315,-0.02761504240334034,-0.04642576,0.01740966,140.30019,-24.013597,-45.007343,STD
816003547136.0,0.02801247499883175,-0.18724294006824493,2.61873197555542,-0.2740567624568939,-0.029256543144583702,-0.05100725,0.014966198,139.78632,-24.28943,-45.019847999999996,STD
860279275520.0,0.030230455100536346,-0.19730350375175476,2.7609477043151855,-0.28862202167510986,-0.030924199149012566,-0.061391957000000004,0.020463986,139.27107,-24.5605,-45.028736,STD
904806793216.0,0.03253460302948952,-0.2074085921049118,2.903986930847168,-0.30323606729507446,-0.03261374682188034,-0.05681047,0.021685716,138.75609,-24.831377,-45.04175,STD
949506539520.0,0.03492354974150658,-0.21753954887390137,3.0475945472717285,-0.31787145137786865,-0.03431972488760948,-0.05497787,0.021380282999999996,138.24342,-25.096745000000002,-45.051773,STD
994302558208.0,0.037395838648080826,-0.22767861187458038,3.1915273666381836,-0.33250197768211365,-0.036035917699337006,-0.043982297000000004,0.025350908,137.72598,-25.361094,-45.064663,STD
1039122628608.0,0.039949946105480194,-0.23780889809131622,3.3355538845062256,-0.3471028506755829,-0.03775757551193237,-0.047036625,0.01863139,137.21536,-25.617939,-45.077328,STD
1083898396672.0,0.042584262788295746,-0.24791446328163147,3.479454517364502,-0.36165064573287964,-0.039479032158851624,-0.040317107000000005,0.014660766,136.6975,-25.876184,-45.094153999999996,STD
1128565178368.0,0.04529712721705437,-0.25798025727272034,3.6230225563049316,-0.376123309135437,-0.041196826845407486,-0.021991148999999998,0.01282817,136.17885,-26.124748,-45.114323,STD
1173062287360.0,0.048086825758218765,-0.26799213886260986,3.7660629749298096,-0.39050012826919556,-0.04290774092078209,-0.021380282999999996,0.0070249503,135.66527,-26.371073,-45.134026,STD
1217332772864.0,0.05095160752534866,-0.2779368758201599,3.9083926677703857,-0.40476179122924805,-0.04460778832435608,-0.007941248,-0.004886922,135.14571999999998,-26.610994,-45.162647,STD
1261323157504.0,0.053889695554971695,-0.287802129983902,4.049840927124023,-0.4188902676105499,-0.04629473015666008,0.0009162978999999999,-0.013744468000000001,134.62733,-26.843816999999998,-45.19141,STD
1304984027136.0,0.0568992905318737,-0.2975764274597168,4.190248966217041,-0.4328688681125641,-0.04796678200364113,0.018020526000000002,-0.01160644,134.07622,-27.144059999999996,-45.191573999999996,STD
1348269244416.0,0.05997857823967934,-0.30724915862083435,4.329468727111816,-0.4466821551322937,-0.04962463304400444,0.025350908,-0.023823743999999997,133.53284,-27.430615999999997,-45.196087,STD
1391136210944.0,0.06312573701143265,-0.3168105185031891,4.467363357543945,-0.46031591296195984,-0.05126841366291046,0.022296581,-0.028405233999999998,132.98483000000002,-27.717731,-45.20049,STD
1433545867264.0,0.06633895635604858,-0.3262515366077423,4.60380744934082,-0.47375714778900146,-0.05289921164512634,0.03145956,-0.029321532999999997,132.43402,-27.994343,-45.210926,STD
1475462168576.0,0.0696164146065712,-0.3355639576911926,4.738685131072998,-0.4869939982891083,-0.05451735109090805,0.03573562,-0.0290161,131.88615,-28.268134999999997,-45.22053,STD
1516852346880.0,0.07295630127191544,-0.3447403311729431,4.871891498565674,-0.5000156760215759,-0.056124668568372726,0.035124752999999995,-0.031154128,131.33766,-28.533398,-45.231937,STD
1557686648832.0,0.07635682821273804,-0.35377389192581177,5.003330707550049,-0.5128125548362732,-0.057721011340618134,0.034513887,-0.026572637000000003,130.78538999999998,-28.80043,-45.243109999999994,STD
1597938204672.0,0.07981621474027634,-0.3626585602760315,5.1329169273376465,-0.5253759026527405,-0.05930560082197189,0.021991148999999998,-0.028710667000000002,130.23856999999998,-29.058391999999998,-45.253693,STD
1637582897152.0,0.08333270996809006,-0.3713889420032501,5.2605719566345215,-0.5376980304718018,-0.06087767705321312,0.013744468000000001,-0.02687807,129.68752,-29.315561,-45.26365300000001,STD
1676599230464.0,0.08690458536148071,-0.37996020913124084,5.386227130889893,-0.5497720837593079,-0.062436413019895554,0.014049901000000002,-0.023823743999999997,129.1371,-29.569315000000003,-45.2733,STD
1714968199168.0,0.09053012728691101,-0.388368159532547,5.50982141494751,-0.5615922212600708,-0.06398218125104904,0.016187929,-0.021380282999999996,128.58742,-29.818129,-45.28175,STD
1752673419264.0,0.09420764446258545,-0.3966091573238373,5.631300926208496,-0.5731533765792847,-0.06551484763622284,0.020463986,-0.02443461,128.03682,-30.064315999999998,-45.291595,STD
1789700472832.0,0.09793547540903091,-0.4046801030635834,5.750620365142822,-0.5844512581825256,-0.06703399121761322,0.025350908,-0.021685716,127.48211,-30.30730800000001,-45.30073,STD
1826037170176.0,0.10171198844909668,-0.41257837414741516,5.867739677429199,-0.5954822897911072,-0.06854037940502167,0.009162978,-0.025045475,126.933846,-30.543362,-45.3088,STD
1861673418752.0,0.105535589158535,-0.4203018546104431,5.982626914978027,-0.6062436699867249,-0.07003265619277954,0.00030543262000000003,-0.024129177,126.37883000000001,-30.781096,-45.31825300000001,STD
1896601092096.0,0.10940472036600113,-0.42784884572029114,6.095254898071289,-0.616733193397522,-0.07150748372077942,0.0012217305,-0.019242255,125.82429499999999,-31.014381,-45.32675,STD
1930813636608.0,0.11331785470247269,-0.43521809577941895,6.205602645874023,-0.6269492506980896,-0.07296167314052582,-0.010079277,-0.014966198,125.27473,-31.244408,-45.331542999999996,STD
1964306333696.0,0.1172734946012497,-0.4424087107181549,6.313654899597168,-0.6368908882141113,-0.07439153641462326,-0.014660766,-0.009773844,124.72001999999999,-31.475255999999998,-45.33703,STD
1997075906560.0,0.12127018719911575,-0.4494202136993408,6.419401168823242,-0.6465576887130737,-0.07579504698514938,-0.023518313,-0.015271631,124.1705,-31.699343,-45.341390000000004,STD
2029120782336.0,0.12530651688575745,-0.45625242590904236,6.5228352546691895,-0.6559496521949768,-0.07717084884643555,-0.038179077,-0.009162978,123.61833999999999,-31.92581400000001,-45.340709999999994,STD
2060440567808.0,0.12938109040260315,-0.46290552616119385,6.623956203460693,-0.6650673151016235,-0.07851767539978027,-0.043066,-0.0076358155,123.06723999999998,-32.145990000000005,-45.34291500000001,STD
2091036180480.0,0.13349255919456482,-0.4693799614906311,6.722766876220703,-0.6739116907119751,-0.07983586937189102,-0.046731193,-0.011301007,122.51865,-32.361206,-45.34304,STD
2120909717504.0,0.1376396119594574,-0.47567644715309143,6.819273471832275,-0.6824840307235718,-0.0811266377568245,-0.04886922,-0.014049901000000002,121.96901000000001,-32.57452,-45.342663,STD
2150064324608.0,0.1418209671974182,-0.481795996427536,6.913486003875732,-0.6907861232757568,-0.0823889970779419,-0.05497787,-0.018325957,121.42156999999999,-32.785057,-45.342686,STD
2178504327168.0,0.14603537321090698,-0.48773983120918274,7.005417823791504,-0.6988200545310974,-0.08362391591072083,-0.056505035999999995,-0.02107485,120.871994,-32.987633,-45.34409,STD
2206234836992.0,0.1502816379070282,-0.4935093820095062,7.095085144042969,-0.7065882086753845,-0.0848325788974762,-0.04734206,-0.028710667000000002,120.321556,-33.188576,-45.34894600000001,STD
2233261883392.0,0.15455858409404755,-0.4991062581539154,7.182507038116455,-0.7140932083129883,-0.08601749688386917,-0.058337633,-0.038179077,119.77731999999999,-33.3827,-45.35155,STD
2259592413184.0,0.1588650941848755,-0.5045323371887207,7.267704963684082,-0.7213380336761475,-0.08718151599168777,-0.062308256,-0.035124752999999995,119.22468,-33.57582,-45.35649,STD
2285233766400.0,0.16320005059242249,-0.5097895264625549,7.350703239440918,-0.7283258438110352,-0.08832722902297974,-0.07086037,-0.03634648,118.67835,-33.762108000000005,-45.362293,STD
2310194069504.0,0.16756239533424377,-0.5148800015449524,7.431527137756348,-0.7350599765777588,-0.0894569456577301,-0.08063421400000001,-0.03573562,118.13029499999999,-33.946487,-45.366646,STD
2334482235392.0,0.1719510853290558,-0.5198059678077698,7.510204792022705,-0.7415440678596497,-0.09057191014289856,-0.08704830000000001,-0.03756821,117.582596,-34.128197,-45.3715,STD
2358107439104.0,0.17636524140834808,-0.5245698094367981,7.586765289306641,-0.7477817535400391,-0.09167491644620895,-0.1020145,-0.032986722999999996,117.03686,-34.30676,-45.372173,STD
2381079379968.0,0.18080385029315948,-0.5291740298271179,7.6612396240234375,-0.7537769675254822,-0.09276952594518661,-0.10048734,-0.03573562,116.48778,-34.481987,-45.37724,STD
2403408019456.0,0.18526597321033478,-0.5336211919784546,7.733660697937012,-0.7595337629318237,-0.09385828673839569,-0.09865474,-0.03481932,115.93915,-34.656845000000004,-45.378544,STD
2425104367616.0,0.18975068628787994,-0.537913978099823,7.804061412811279,-0.7650562524795532,-0.09494680166244507,-0.10140363,-0.04276056599999999,115.39182,-34.82182,-45.382633,STD
2446178910208.0,0.19425709545612335,-0.5420551300048828,7.872476577758789,-0.7703487277030945,-0.09604290872812271,-0.08979719,-0.0421497,114.83438000000001,-34.987784999999995,-45.387764000000004,STD
2466642919424.0,0.19878436625003815,-0.5460473895072937,7.938941478729248,-0.7754154801368713,-0.09715491533279419,-0.09437868,-0.05009095,114.28438,-35.14571,-45.394165,BSC
2486507667456.0,0.20333164930343628,-0.5498936176300049,8.00349235534668,-0.7802609205245972,-0.09829336404800415,-0.09285152,-0.064751714,113.72694399999999,-35.295635,-45.405434,BSC
2505784688640.0,0.20789815485477448,-0.5535971522331238,8.066162109375,-0.7848895788192749,-0.09946899116039276,-0.08857546,-0.07574729,113.16808999999999,-35.44266500000001,-45.417896,BSC
2524485779456.0,0.21248310804367065,-0.5571621656417847,8.126975059509277,-0.7893062233924866,-0.10069341212511063,-0.08216137400000001,-0.08277224,112.60718999999999,-35.581425,-45.433895,BSC
2542622736384.0,0.21708577871322632,-0.5605936646461487,8.18594741821289,-0.7935156226158142,-0.10197822749614716,-0.08735373,-0.10293079,112.08056,-35.79562,-45.385056,BSC
2560207618048.0,0.22170546650886536,-0.5638971924781799,8.243091583251953,-0.7975228428840637,-0.10333359241485596,-0.09254608,-0.10751228,111.54867,-36.00749000000001,-45.33651,BSC
2577252483072.0,0.22634147107601166,-0.5670788288116455,8.298413276672363,-0.801332950592041,-0.10476738959550858,-0.093767814,-0.12889257,111.02408,-36.20609,-45.29786,BSC
2593769127936.0,0.2309931367635727,-0.5701450109481812,8.351914405822754,-0.8049510717391968,-0.10628821700811386,-0.10415252,-0.14141529999999994,110.501884,-36.39978,-45.257175,BSC
2609769873408.0,0.23565982282161713,-0.5731025338172913,8.403595924377441,-0.8083824515342712,-0.10790201276540756,-0.10048734,-0.15332718,109.978096,-36.588547,-45.224579999999996,BSC
2625266515968.0,0.24034102261066437,-0.5759584903717041,8.453453063964844,-0.8116322159767151,-0.10961548984050751,-0.08735373,-0.16646078,109.455666,-36.766304,-45.19622800000001,BSC
2640271376384.0,0.24503612518310547,-0.578719973564148,8.501482009887695,-0.8147056102752686,-0.11143363267183304,-0.08277224,-0.16829337,108.93296000000001,-36.944096,-45.168232,BSC
2654796251136.0,0.24974456429481506,-0.5813941955566406,8.547677040100098,-0.8176078200340271,-0.1133582815527916,-0.07147124,-0.17531833,108.405,-37.114265,-45.14848,BSC
2668852936704.0,0.254465788602829,-0.5839883089065552,8.592032432556152,-0.820344090461731,-0.11539086699485779,-0.06414085,-0.17715092,107.87369,-37.281055,-45.12872700000001,BSC
2682453491712.0,0.25919923186302185,-0.5865094661712646,8.634542465209961,-0.822919487953186,-0.1175306960940361,-0.058337633,-0.18845193,107.33981000000001,-37.444332,-45.115047,BSC
2695609450496.0,0.2639444172382355,-0.5889647603034973,8.675200462341309,-0.825339138507843,-0.1197778731584549,-0.044898596,-0.18325958,106.79504399999999,-37.606506,-45.100395,BSC
2708332609536.0,0.26870080828666687,-0.5913612246513367,8.71400260925293,-0.827608048915863,-0.12213007360696793,-0.048258353,-0.18081611,106.25421999999999,-37.766647,-45.087975,BSC
2720634503168.0,0.2734679579734802,-0.5937055945396423,8.750943183898926,-0.8297311663627625,-0.12458488345146179,-0.055588737,-0.17440203,105.70538,-37.924294,-45.07492,BSC
2732526403584.0,0.27824538946151733,-0.5960046052932739,8.786018371582031,-0.8317133784294128,-0.1271401047706604,-0.0693332,-0.17440203,105.15791999999999,-38.080147,-45.061737,BSC
2744019320832.0,0.2830326557159424,-0.5982646942138672,8.819226264953613,-0.8335594534873962,-0.12979215383529663,-0.096516706,-0.16737708,104.61232,-38.238583,-45.0426,BSC
2755124527104.0,0.28782936930656433,-0.6004921197891235,8.850564956665039,-0.8352741003036499,-0.1325376182794571,-0.11484267,-0.17379116,104.06823,-38.390083000000004,-45.02649,BSC
2765852770304.0,0.29263511300086975,-0.6026929020881653,8.880035400390625,-0.8368619084358215,-0.1353723406791687,-0.13164146,-0.18020524,103.52909,-38.543053,-45.00555,BSC
2776214798336.0,0.2974494993686676,-0.6048728823661804,8.907637596130371,-0.8383273482322693,-0.1382923126220703,-0.15118915,-0.20311269,102.99899,-38.687313,-44.988026,BSC
2786221096960.0,0.30227217078208923,-0.6070376038551331,8.933375358581543,-0.8396748304367065,-0.14129336178302765,-0.17745635,-0.23793201,102.477905,-38.82574,-44.9725,BSC
2795881889792.0,0.30710282921791077,-0.609192430973053,8.95725154876709,-0.8409086465835571,-0.1443716585636139,-0.21288654,-0.2593123,101.965935,-38.959522,-44.956047,BSC
2805207662592.0,0.31194114685058594,-0.6113423705101013,8.979272842407227,-0.8420329093933105,-0.14752253890037537,-0.22327125,-0.27977628,101.4576,-39.08402,-44.948406,BSC
2814208114688.0,0.3167867660522461,-0.6134922504425049,8.999446868896484,-0.8430517315864563,-0.1507435142993927,-0.23640485,-0.28283059999999993,100.96069,-39.203617,-44.93716,BSC
2822892945408.0,0.3216393291950226,-0.6156465411186218,9.017783164978027,-0.8439690470695496,-0.15403282642364502,-0.2312125,-0.29565877,100.46319,-39.315624,-44.934914,BSC
2831271854080.0,0.3264985680580139,-0.617809534072876,9.03429126739502,-0.8447887301445007,-0.15739107131958008,-0.25045475,-0.31581733,99.97795,-39.42087,-44.930817,BSC
2839354277888.0,0.33136415481567383,-0.6199852228164673,9.04898452758789,-0.8455145359039307,-0.16081783175468445,-0.25717425,-0.33383787,99.48479499999999,-39.52391400000001,-44.93192,BSC
2847149129728.0,0.33623582124710083,-0.6221773624420166,9.061875343322754,-0.8461500406265259,-0.16431425511837006,-0.25992316,-0.34972036,98.9969,-39.617535,-44.93588,BSC
2854665584640.0,0.34111329913139343,-0.6243894696235657,9.072978973388672,-0.8466987609863281,-0.16788242757320404,-0.25778514,-0.3680463,98.50972,-39.705653999999996,-44.94492,BSC
2861912293376.0,0.34599632024765015,-0.6266248822212219,9.082311630249023,-0.8471641540527344,-0.17152822017669678,-0.267559,-0.38942659999999996,98.02752,-39.78447,-44.957005,BSC
2868897644544.0,0.35088464617729187,-0.6288865804672241,9.089890480041504,-0.8475494980812073,-0.1752578318119049,-0.28252518,-0.39278635,97.542725,-39.86369000000001,-44.96864,BSC
2875630288896.0,0.3557780086994171,-0.6311773657798767,9.095733642578125,-0.8478579521179199,-0.1790795624256134,-0.30329459999999997,-0.4120286,97.06614,-39.928074,-44.987858,BSC
2882118090752.0,0.36067622900009155,-0.6334998607635498,9.099861145019531,-0.8480926156044006,-0.18299970030784607,-0.32406402,-0.42363504,96.59038000000001,-39.994859999999996,-45.00399,BSC
2888369176576.0,0.3655790686607361,-0.6358564496040344,9.102293968200684,-0.8482564687728882,-0.18702711164951324,-0.344528,-0.43676865,96.12164,-40.05037,-45.022923,BSC
2894391148544.0,0.3704862892627716,-0.6382493376731873,9.103053092956543,-0.8483524322509766,-0.1911732256412506,-0.36713,-0.43768495,95.65725,-40.105816,-45.038803,BSC
2900191608832.0,0.3753977417945862,-0.6406804919242859,9.102161407470703,-0.8483832478523254,-0.1954520046710968,-0.38484509999999994,-0.45662177,95.19971,-40.14984000000001,-45.060837,BSC
2905777897472.0,0.3803132474422455,-0.6431517004966736,9.099641799926758,-0.8483515977859497,-0.19987952709197998,-0.4098906,-0.47464229999999996,94.7491,-40.190704,-45.079346,BSC
2911157092352.0,0.3852325975894928,-0.6456645727157593,9.095518112182617,-0.8482600450515747,-0.20447327196598053,-0.42760566,-0.49846604,94.30213,-40.22195,-45.103092,BSC
2916336009216.0,0.3901556432247162,-0.6482205390930176,9.089815139770508,-0.8481111526489258,-0.20925265550613403,-0.44440445,-0.54305923,93.8661,-40.239113,-45.134205,BSC
2921321725952.0,0.39508217573165894,-0.6508208513259888,9.082559585571289,-0.847907304763794,-0.2142389416694641,-0.44440445,-0.5900958000000001,93.43015,-40.246320000000004,-45.172047,BSC
2926120534016.0,0.4000120460987091,-0.6534665822982788,9.073776245117188,-0.8476508259773254,-0.2194531410932541,-0.4334089,-0.64476824,93.00014,-40.23771,-45.22272,BSC
2930738987008.0,0.40494510531425476,-0.6561586856842041,9.063491821289062,-0.847343921661377,-0.2249182015657425,-0.43218717,-0.70249504,92.57694000000001,-40.211193,-45.28498,BSC
2935183114240.0,0.4098811745643616,-0.6589013338088989,9.051729202270508,-0.8469878435134888,-0.23065613210201263,-0.4474588,-0.73639804,92.238365,-40.339325,-45.193714,BSC
2939458945024.0,0.4148201644420624,-0.6617082953453064,9.038498878479004,-0.8465811610221863,-0.23668499290943146,-0.4288274,-0.79320854,91.89822,-40.44228,-45.128777,BSC
2943572508672.0,0.41976189613342285,-0.6646014451980591,9.023789405822754,-0.8461094498634338,-0.24302029609680176,-0.3744604,-0.8072583999999999,91.70385,-40.457786999999996,-45.124638,BSC
2947529310208.0,0.42470625042915344,-0.6676100492477417,9.007547378540039,-0.8455258011817932,-0.24967540800571442,-0.33750305,-0.8136725,91.51307,-40.46181,-45.131912,BSC
2951335116800.0,0.4296531081199646,-0.6707656383514404,8.989704132080078,-0.8447592258453369,-0.2566666305065155,-0.31642818,-0.8176431,91.3468,-40.480971999999994,-45.12112,BSC
2954994909184.0,0.4346023499965668,-0.6740911602973938,8.97022533416748,-0.843725323677063,-0.26401224732398987,-0.31795537,-0.83291477,91.17487,-40.496895,-45.114494,BSC
2958514192384.0,0.4395539164543152,-0.6776009798049927,8.949117660522461,-0.8423302173614502,-0.2717321813106537,-0.33169982,-0.8481864,91.119675,-40.47446,-45.109776000000004,BSC
2961897684992.0,0.4445076882839203,-0.6812999248504639,8.926448822021484,-0.8404746651649475,-0.27984753251075745,-0.37048978,-0.8781188,91.07633,-40.44259,-45.107506,BSC
2965150367744.0,0.44946354627609253,-0.6851847767829895,8.902334213256836,-0.8380571007728577,-0.28838202357292175,-0.43066000000000004,-0.8961393,91.10927,-40.43234,-45.05905,BSC
2968276959232.0,0.45442143082618713,-0.6892443895339966,8.87694263458252,-0.8349780440330505,-0.2973618507385254,-0.48899764,-0.89858276,91.15634,-40.416016,-45.0077,BSC
2971281915904.0,0.4593813121318817,-0.6934608221054077,8.850484848022461,-0.8311415910720825,-0.3068183362483978,-0.54275376,-0.8915578000000002,91.26845,-40.4553,-44.878387,BSC
2974169694208.0,0.4643430709838867,-0.6978116631507874,8.8231782913208,-0.8264875411987305,-0.3167891204357147,-0.55833083,-0.8717046999999999,91.38579,-40.49078,-44.74219,BSC
2976944750592.0,0.469306617975235,-0.7022706866264343,8.795247077941895,-0.8209875226020813,-0.32731756567955017,-0.5320636,-0.84238315,91.54186,-40.601196,-44.52317,BSC
2979611017216.0,0.47427183389663696,-0.7068137526512146,8.766905784606934,-0.8146480321884155,-0.33845004439353943,-0.46609017,-0.8151997,91.687775,-40.70585,-44.302096999999996,BSC
2982172426240.0,0.4792386591434479,-0.7114219665527344,8.738348960876465,-0.807510256767273,-0.3502328395843506,-0.3979787,-0.79168135,91.82073000000001,-40.80652,-44.07757,BSC
2984632909824.0,0.48420700430870056,-0.7160818576812744,8.709754943847656,-0.7996304035186768,-0.36270636320114136,-0.34208453,-0.7696901999999999,91.92073,-40.996777,-43.801716,BSC
2986996400128.0,0.4891769289970398,-0.7207857966423035,8.681282997131348,-0.7910715937614441,-0.3758961856365204,-0.2846632,-0.7315111,91.99431,-41.19247,-43.525375,BSC
2989266305024.0,0.49414873123168945,-0.7255322933197021,8.65307903289795,-0.7819018959999084,-0.3898089528083801,-0.24373524,-0.66706485,92.052666,-41.477528,-43.217293,BSC
2991446032384.0,0.4991223216056824,-0.7303235530853271,8.625277519226074,-0.7721777558326721,-0.40443292260169983,-0.22937989,-0.64599,92.10978,-41.759327,-42.917343,BSC
2993538990080.0,0.5040975213050842,-0.7351689338684082,8.598004341125488,-0.7619382739067078,-0.4197452664375305,-0.21471913,-0.61544675,92.2218,-42.17236,-42.550036999999996,BSC
2995548585984.0,0.5090765357017517,-0.7402325868606567,8.57138729095459,-0.7511318325996399,-0.4356796443462372,-0.14935656,-0.5842925999999999,93.16498,-44.251774,-40.870155,BSC
2997477965824.0,0.5140610933303833,-0.7456807494163513,8.545530319213867,-0.73968505859375,-0.45216235518455505,-0.116675265,-0.60903263,93.87741,-45.201115,-40.21609,BSC
2999330013184.0,0.5190526843070984,-0.7516722083091736,8.520515441894531,-0.7274999618530273,-0.46911153197288513,-0.08796459400000001,-0.6374379,94.57454,-46.087437,-39.608658,BSC
3001107873792.0,0.5240525007247925,-0.7583523392677307,8.496403694152832,-0.714473307132721,-0.486447274684906,-0.070249505,-0.6719518,95.32441999999999,-46.86189,-39.10196,BSC
3002814169088.0,0.529061496257782,-0.765846312046051,8.473235130310059,-0.7005178332328796,-0.5040926337242126,-0.087659165,-0.743423,96.0672,-47.563786,-38.6483,BSC
3004451782656.0,0.5340803861618042,-0.7742605805397034,8.45102596282959,-0.6855666041374207,-0.5219739675521851,-0.12614368,-0.8246681,96.84636,-48.13229000000001,-38.27832,BSC
3006023335936.0,0.5391097068786621,-0.7836844325065613,8.429769515991211,-0.6695755124092102,-0.5400190949440002,-0.14660765,-0.9071349,97.61407,-48.63842,-37.954285,BSC
3007531188224.0,0.5441499352455139,-0.7941833734512329,8.409439086914062,-0.6524872779846191,-0.5581555962562561,-0.14385876,-0.98440933,98.36624,-49.037729999999996,-37.718754,BSC
3008977960960.0,0.549201250076294,-0.8057968616485596,8.389999389648438,-0.6342238783836365,-0.5763142108917236,-0.15149458,-1.0531317,99.11731999999999,-49.38472700000001,-37.51793,BSC
3010366013440.0,0.5542637705802917,-0.8185391426086426,8.371406555175781,-0.6146934032440186,-0.5944298505783081,-0.17928895,-1.1258247,99.83605,-49.633465,-37.40351,BSC
3011697704960.0,0.5593373775482178,-0.8324010372161865,8.353610038757324,-0.5938000082969666,-0.6124461889266968,-0.19914207,-1.1795808,100.54086,-49.844738,-37.312656,BSC
3012975132672.0,0.5644219517707825,-0.8473530411720276,8.336552619934082,-0.5714496970176697,-0.630315899848938,-0.24190263,-1.2333368999999998,101.31703,-49.98785,-37.242832,BSC
3014200393728.0,0.5695173144340515,-0.8633431196212769,8.320137977600098,-0.5476008653640747,-0.6479989290237427,-0.31581733,-1.2825116,102.09735,-50.101820000000004,-37.18871,BSC
3015375585280.0,0.574623167514801,-0.8803008794784546,8.304237365722656,-0.5222572684288025,-0.6654613614082336,-0.32895094,-1.2638801000000002,102.90345,-50.171616,-37.14363,BSC
3016502542336.0,0.5797391533851624,-0.898148775100708,8.288707733154297,-0.4954604208469391,-0.6826726794242859,-0.35216382,-1.2305881,103.72525999999999,-50.22383,-37.103607000000004,BSC
3017583362048.0,0.5848648548126221,-0.9168040156364441,8.273393630981445,-0.46728330850601196,-0.6996025443077087,-0.43890667,-1.2257011,104.519646,-50.227936,-37.111670000000004,BSC
3018619617280.0,0.5899998545646667,-0.9361886382102966,8.258162498474121,-0.4378068447113037,-0.7162204384803772,-0.56046885,-1.2370021,105.318306,-50.23272,-37.109703,BSC
3019613405184.0,0.5951436758041382,-0.956230878829956,8.24290943145752,-0.4071141183376312,-0.7324913740158081,-0.6075055,-1.2547172,106.10761000000001,-50.238147999999995,-37.10622,BSC
3020566036480.0,0.6002958416938782,-0.9768874049186707,8.227553367614746,-0.37527889013290405,-0.7483839988708496,-0.6740898,-1.2831223999999999,106.884445,-50.19289000000001,-37.14456,BSC
3021479346176.0,0.6054558157920837,-0.9981449842453003,8.2120361328125,-0.34236380457878113,-0.7638685703277588,-0.6985244,-1.3182472,107.65316000000001,-50.146545,-37.185875,BSC
3022354907136.0,0.6106230616569519,-1.0200295448303223,8.196311950683594,-0.30840757489204407,-0.7789172530174255,-0.6988298000000001,-1.3497068,108.41386999999999,-50.066536,-37.25229,BSC
3023194292224.0,0.6157971024513245,-1.0426092147827148,8.180346488952637,-0.2734196186065674,-0.7935072779655457,-0.7293731,-1.3942999,109.18793500000001,-49.974884,-37.322433000000004,BSC
3023998812160.0,0.6209774017333984,-1.0659581422805786,8.16411304473877,-0.23740197718143463,-0.8076224327087402,-0.79809546,-1.4422529,109.96345,-49.832146,-37.435109999999995,BSC
3024769777664.0,0.6261634826660156,-1.090152621269226,8.147594451904297,-0.20035190880298615,-0.821252167224884,-0.86742866,-1.4691309,110.74303,-49.686954,-37.543953,BSC
3025508761600.0,0.6313547492027283,-1.1152653694152832,8.130777359008789,-0.16225942969322205,-0.8343884944915771,-0.9202684999999999,-1.4770721000000002,111.5476,-49.477942999999996,-37.699013,BSC
3026217074688.0,0.6365507245063782,-1.1413626670837402,8.113651275634766,-0.12310616672039032,-0.8470231294631958,-0.9492845999999999,-1.4801265,112.36164,-49.27086,-37.845591999999996,BSC
3026895765504.0,0.6417508721351624,-1.168493628501892,8.096222877502441,-0.08285204321146011,-0.8591535687446594,-0.9837985,-1.4709635,113.19288,-49.01972,-38.01384,BSC
3027546144768.0,0.6469547152519226,-1.1966700553894043,8.078543663024902,-0.04141117259860039,-0.8707854151725769,-1.0323622,-1.4358387,114.02901000000001,-48.783623,-38.159737,BSC
3028169261056.0,0.6521617770195007,-1.2258697748184204,8.060702323913574,0.0013289740309119225,-0.8819382786750793,-1.0451905000000001,-1.3839152,114.87937,-48.508441999999995,-38.320570000000004,BSC
3028766425088.0,0.6573715806007385,-1.256038784980774,8.042817115783691,0.04548618569970131,-0.8926458358764648,-1.0247264,-1.3326025,115.72373,-48.24697000000001,-38.457096,BSC
3029338423296.0,0.6625836491584778,-1.2870880365371704,8.025019645690918,0.09116342663764954,-0.9029536843299866,-0.97219205,-1.2525792,116.65626,-48.01392,-38.501213,BSC
3029886566400.0,0.6677975654602051,-1.3188852071762085,8.007429122924805,0.13842205703258514,-0.9129149913787842,-0.89552844,-1.1426234,117.55357,-47.80104,-38.516234999999995,BSC
3030411640832.0,0.673012912273407,-1.3512622117996216,7.990141868591309,0.18727143108844757,-0.922582745552063,-0.8155051,-1.0308351999999998,118.48912,-47.621704,-38.45901,BSC
3030914695168.0,0.6782293319702148,-1.3840181827545166,7.97321081161499,0.23765075206756592,-0.9320015907287598,-0.77457714,-0.93554014,119.38746,-47.46743,-38.37274,BSC
3031396515840.0,0.6834464073181152,-1.4169402122497559,7.956660747528076,0.2894539535045624,-0.9412050247192383,-0.7666359,-0.84391034,120.261734,-47.34464000000001,-38.24307,BSC
3031857889280.0,0.6886638402938843,-1.4498265981674194,7.940508842468262,0.34255850315093994,-0.9502196907997131,-0.7415904000000001,-0.7254025,121.088844,-47.25417,-38.081856,BSC
3032299864064.0,0.6938812732696533,-1.4825048446655273,7.924777984619141,0.39683201909065247,-0.959072470664978,-0.7519751,-0.6218608,121.86278,-47.17262,-37.92119,BSC
3032723226624.0,0.6990983486175537,-1.5148626565933228,7.909520626068115,0.4521375894546509,-0.9677941799163818,-0.75655663,-0.5839871999999999,122.611305,-47.10388,-37.746117,BSC
3033128763392.0,0.7043147683143616,-1.5468389987945557,7.894810199737549,0.5083322525024414,-0.9764162302017212,-0.72601336,-0.5491679,123.32066999999999,-47.033524,-37.572666,BSC
3033516998656.0,0.7095302939414978,-1.5784202814102173,7.880710124969482,0.5652498602867126,-0.9849737882614136,-0.6407976,-0.5635232,124.00825,-46.951233,-37.40463,BSC
3033888980992.0,0.7147446274757385,-1.6096317768096924,7.867272853851318,0.6227065324783325,-0.9935075640678406,-0.53786683,-0.6044512,124.63009,-46.833397,-37.285194,BSC
3034245234688.0,0.7199575304985046,-1.6405268907546997,7.854526519775391,0.6805074214935303,-1.0020592212677002,-0.46089783,-0.6722571999999999,125.23313,-46.7025,-37.179961999999996,BSC
3034586284032.0,0.725168764591217,-1.6711825132369995,7.842476844787598,0.7384541034698486,-1.0106604099273682,-0.39431350000000004,-0.73639804,125.72748600000001,-46.51311,-37.167988,BSC
3034912915456.0,0.7303781509399414,-1.7016881704330444,7.831108570098877,0.7964039444923401,-1.0193302631378174,-0.3381139,-0.81092364,126.20828999999999,-46.306422999999995,-37.178505,BSC
3035225653248.0,0.7355855107307434,-1.7321441173553467,7.8203864097595215,0.8542646765708923,-1.0280802249908447,-0.33505958,-0.8900306999999998,126.62903999999999,-46.06282,-37.26141,BSC
3035525021696.0,0.7407906651496887,-1.762650489807129,7.810242176055908,0.9119946956634521,-1.0369153022766113,-0.3436117,-0.96791595,127.04423999999999,-45.8144,-37.36084,BSC
3035811807232.0,0.745993435382843,-1.7933080196380615,7.8005781173706055,0.969598114490509,-1.0458422899246216,-0.34574974,-1.0375546,127.504395,-45.47071500000001,-37.541443,BSC
3036086272000.0,0.751193642616272,-1.824220061302185,7.791274547576904,1.0271155834197998,-1.0548717975616455,-0.36987892,-1.0870347,127.98118999999998,-45.125434999999996,-37.72027,BSC
3036349202432.0,0.756391167640686,-1.8554916381835938,7.782194137573242,1.0846166610717773,-1.0640199184417725,-0.43676865,-1.1215485,128.47856000000002,-44.772459999999995,-37.89433,BSC
3036600860672.0,0.76158607006073,-1.8872319459915161,7.773168087005615,1.1421637535095215,-1.073305368423462,-0.52198434,-1.1481212,129.05296,-44.34592,-38.0906,BSC
3036841771008.0,0.7667781710624695,-1.9195382595062256,7.764028072357178,1.1998010873794556,-1.0827510356903076,-0.61666846,-1.1859948999999999,129.65533,-43.912704,-38.273422,BSC
3037072457728.0,0.7719674110412598,-1.952491283416748,7.754607200622559,1.2575727701187134,-1.0923799276351929,-0.7089091,-1.2137892,130.33215,-43.417595,-38.468509999999995,BSC
3037293445120.0,0.7771536111831665,-1.986152172088623,7.744749069213867,1.315528154373169,-1.1022119522094727,-0.8170323,-1.2247848999999995,131.04147,-42.928593,-38.636932,BSC
3037504995328.0,0.7823366522789001,-2.0205538272857666,7.734327793121338,1.3737188577651978,-1.1122641563415527,-0.92485,-1.2125676,131.76225,-42.41444,-38.817013,BSC
3037707632640.0,0.7875164747238159,-2.0557003021240234,7.7232537269592285,1.4321974515914917,-1.1225502490997314,-1.0390818000000002,-1.1731668,132.5079,-41.91966,-38.95978,BSC
3037901619200.0,0.792693018913269,-2.0915799140930176,7.711475372314453,1.4909989833831787,-1.1330811977386475,-1.1368201999999998,-1.1288790000000002,133.29085,-41.414307,-39.046406,BSC
3038087217152.0,0.79786616563797,-2.1281704902648926,7.698976039886475,1.5501357316970825,-1.1438668966293335,-1.1716396,-1.1071932,134.07555,-40.923206,-39.108387,BSC
3038264950784.0,0.8030359148979187,-2.1654412746429443,7.6857805252075195,1.6096028089523315,-1.1549136638641357,-1.2257011,-1.102001,134.93171999999998,-40.39984000000001,-39.172688,BSC
3038435082240.0,0.8082021474838257,-2.2033541202545166,7.671955585479736,1.6693816184997559,-1.1662240028381348,-1.2754866000000002,-1.1139128,135.78372,-39.890522,-39.21481,BSC
3038598135808.0,0.8133649230003357,-2.2418532371520996,7.657595157623291,1.7294349670410156,-1.1777997016906738,-1.3023646999999998,-1.1108584,136.62192,-39.384879999999995,-39.24305,BSC
3038754111488.0,0.8185241222381592,-2.2808563709259033,7.642808437347412,1.7897026538848877,-1.1896440982818604,-1.3200798,-1.1337659,137.46725,-38.883247,-39.25842700000001,BSC
3038903533568.0,0.8236798048019409,-2.3202643394470215,7.627703666687012,1.8501135110855103,-1.2017567157745361,-1.3139712,-1.1316278999999998,138.28795,-38.402943,-39.248979999999996,BSC
3039046402048.0,0.8288319110870361,-2.35996675491333,7.612380504608154,1.9105923175811768,-1.2141320705413818,-1.2727377,-1.135293,139.0963,-37.92762000000001,-39.235508,BSC
3039183241216.0,0.8339804410934448,-2.3998444080352783,7.596930503845215,1.9710607528686523,-1.2267569303512573,-1.2302825000000002,-1.1429288,139.88837,-37.47013,-39.206897999999995,BSC
3039314313216.0,0.839125394821167,-2.439772129058838,7.581437110900879,2.0314385890960693,-1.2396130561828613,-1.1817188,-1.1572843000000002,140.65652,-37.024902000000004,-39.176716,BSC
3039439880192.0,0.8442668318748474,-2.4796202182769775,7.565979957580566,2.091663122177124,-1.2526811361312866,-1.1438452,-1.1725558,141.41061000000005,-36.56862,-39.15593300000001,BSC
3039560204288.0,0.8494047522544861,-2.519256591796875,7.5506367683410645,2.151698112487793,-1.2659451961517334,-1.1105530000000001,-1.1838568,142.14293,-36.123894,-39.133537,BSC
3039675285504.0,0.854539155960083,-2.5585522651672363,7.5354790687561035,2.211526870727539,-1.2793909311294556,-1.1004738,-1.1826351000000002,142.87067,-35.71095,-39.064144,BSC
3039785648128.0,0.859670102596283,-2.5973856449127197,7.520572185516357,2.271145820617676,-1.29300856590271,-1.1007791999999998,-1.1878275,143.58461,-35.299296999999996,-38.993324,BSC
3039891292160.0,0.8647976517677307,-2.6356606483459473,7.505965709686279,2.330549716949463,-1.3067896366119385,-1.0989466,-1.1948524999999999,144.33213999999995,-34.84480300000001,-38.882884999999995,BSC
3039992479744.0,0.8699218034744263,-2.6733152866363525,7.491690158843994,2.389723062515259,-1.32072913646698,-1.0549643,-1.2128729999999999,145.05946,-34.39052,-38.775997,BSC
3040089210880.0,0.8750426173210144,-2.7103118896484375,7.477753639221191,2.4486544132232666,-1.3348249197006226,-1.03786,-1.2345587,145.8141,-33.914986,-38.643333,BSC
3040182009856.0,0.8801602721214294,-2.746633291244507,7.464138984680176,2.5073482990264893,-1.3490766286849976,-1.0054842,-1.2507466,146.54277,-33.443974,-38.5176,BSC
3040270876672.0,0.8852747678756714,-2.7822701930999756,7.450810432434082,2.565816879272461,-1.363480567932129,-1.003957,-1.2709051000000002,147.25383,-32.966335,-38.423775,BSC
3040356073472.0,0.890386164188385,-2.817218542098999,7.437709331512451,2.6240832805633545,-1.3780291080474854,-1.0067059,-1.3078625,147.95367,-32.491165,-38.33409,BSC
3040437600256.0,0.8954945206642151,-2.8514833450317383,7.424770355224609,2.6821742057800293,-1.3927096128463745,-1.0100657,-1.3414601000000002,148.67538000000005,-31.950567,-38.268375,BSC
3040515719168.0,0.9005998373031616,-2.885082721710205,7.411933898925781,2.740114450454712,-1.4075034856796265,-1.0201449,-1.3698653,149.39487,-31.422646000000004,-38.19741,BSC
3040590692352.0,0.9057021737098694,-2.9180455207824707,7.399145126342773,2.797927141189575,-1.422389268875122,-1.0427469999999999,-1.3826935,150.14993,-30.860142,-38.145615,BSC
3040662519808.0,0.9108015894889832,-2.9504096508026123,7.386354923248291,2.8556339740753174,-1.4373446702957153,-1.0858128999999999,-1.3756685,150.90065,-30.318037,-38.0774,BSC
3040731201536.0,0.9158980846405029,-2.9822182655334473,7.3735175132751465,2.913255453109741,-1.4523470401763916,-1.1523973,-1.3720033,151.6592,-29.760744,-37.99585,BSC
3040796999680.0,0.9209917187690735,-3.0135161876678467,7.360592365264893,2.970811605453491,-1.467370629310608,-1.2116512,-1.3674218999999999,152.40941999999995,-29.227686,-37.894886,BSC
3040860176384.0,0.9260825514793396,-3.0443460941314697,7.347546100616455,3.0283257961273193,-1.4823904037475586,-1.2388347,-1.3674218999999999,153.16887,-28.66072,-37.816006,BSC
3040920731648.0,0.931170642375946,-3.07474422454834,7.334358215332031,3.085829019546509,-1.4973870515823364,-1.2822062,-1.3710871,153.92958000000004,-28.110594,-37.709545,BSC
3040978927616.0,0.9362560510635376,-3.104738473892212,7.321019649505615,3.1433591842651367,-1.5123482942581177,-1.3326025,-1.3713925,154.69738999999996,-27.541797999999996,-37.601273,BSC
3041034764288.0,0.9413387775421143,-3.1343460083007812,7.307533264160156,3.2009594440460205,-1.5272690057754517,-1.3756685,-1.3729197,155.45803999999995,-26.983946000000003,-37.475456,BSC
3041088241664.0,0.9464189410209656,-3.1635732650756836,7.293910026550293,3.2586798667907715,-1.542150616645813,-1.4147638999999999,-1.3738358999999998,156.23686,-26.400158,-37.319317,BSC
3041139621888.0,0.9514966607093811,-3.1924116611480713,7.28016471862793,3.316586971282959,-1.5570001602172852,-1.4837917,-1.3903292,157.01776,-25.821995,-37.140038,BSC
3041188904960.0,0.9565719366073608,-3.220841407775879,7.26630973815918,3.3747379779815674,-1.571831464767456,-1.5555683,-1.3787228999999999,157.80753,-25.227415,-36.91903,BSC
3041236090880.0,0.9616448879241943,-3.248828887939453,7.252346038818359,3.433154582977295,-1.5866607427597046,-1.6084082,-1.3677273,158.59245,-24.64181,-36.681746999999994,BSC
3041281441792.0,0.9667154550552368,-3.27632999420166,7.2382683753967285,3.491834878921509,-1.6015042066574097,-1.6194037000000001,-1.3662001,159.40528999999995,-24.031832,-36.39998,BSC
3041324957696.0,0.9717837572097778,-3.3032937049865723,7.2240753173828125,3.5507726669311523,-1.616377353668213,-1.6447546000000002,-1.352761,160.20181000000005,-23.436354,-36.0936,BSC
3041366638592.0,0.9768497943878174,-3.329665184020996,7.209770679473877,3.609956979751587,-1.6312965154647827,-1.6652186999999998,-1.3310753,160.98605,-22.819952,-35.780727,BSC
3041406746624.0,0.981913685798645,-3.355409622192383,7.195359230041504,3.669368028640747,-1.6462786197662354,-1.6881261000000003,-1.2962561000000001,161.74585,-22.219526000000002,-35.453392,BSC
3041445281792.0,0.9869754314422607,-3.3805148601531982,7.180847644805908,3.7289774417877197,-1.6613390445709229,-1.7000380000000002,-1.2913691,162.48938,-21.630829000000002,-35.121727,BSC
3041482244096.0,0.9920350909233093,-3.4049923419952393,7.166223526000977,3.788747549057007,-1.6764905452728271,-1.6804903000000002,-1.2974777,163.22826,-21.030293,-34.76449,BSC
3041517633536.0,0.9970927238464355,-3.4288737773895264,7.151454448699951,3.848633050918579,-1.6917446851730347,-1.6719381999999998,-1.3252722,163.95609,-20.437376,-34.401943,BSC
3041551712256.0,1.0021483898162842,-3.4521968364715576,7.136481285095215,3.9085912704467773,-1.7071090936660767,-1.6212363,-1.3472633,164.65132,-19.827070000000006,-34.07618,BSC
3041584480256.0,1.0072021484375,-3.4749977588653564,7.121219158172607,3.9685871601104736,-1.722589373588562,-1.5940528999999999,-1.3707817,165.33965,-19.221516,-33.74824,BSC
3041615937536.0,1.012253999710083,-3.4973244667053223,7.105559349060059,4.02859354019165,-1.738187313079834,-1.591304,-1.3726143,166.01148999999995,-18.584220000000002,-33.47748,BSC
3041646346240.0,1.0173040628433228,-3.519239664077759,7.08937406539917,4.088590145111084,-1.753902554512024,-1.6065756000000002,-1.3472633,166.66328000000001,-17.960854,-33.204997999999996,BSC
3041675444224.0,1.0223523378372192,-3.540809154510498,7.072532653808594,4.148565769195557,-1.7697298526763916,-1.6316211,-1.3478742,167.3426,-17.303616,-32.959126,BSC
3041703493632.0,1.027398943901062,-3.5620944499969482,7.0549116134643555,4.208517551422119,-1.7856600284576416,-1.6484199000000002,-1.3490959999999999,167.99706,-16.668318,-32.703987,BSC
3041730494464.0,1.032443881034851,-3.583143711090088,7.036393642425537,4.268446445465088,-1.801681637763977,-1.6462818,-1.3158038,168.6502,-15.995607000000001,-32.49573,BSC
3041756446720.0,1.037487268447876,-3.6039881706237793,7.0168681144714355,4.328354358673096,-1.8177794218063354,-1.6679675999999999,-1.2883148000000002,169.29169,-15.349006,-32.270763,BSC
3041781612544.0,1.0425291061401367,-3.624631404876709,6.996230125427246,4.388240814208984,-1.8339320421218872,-1.6560557,-1.2470814,169.92700000000005,-14.68769,-32.068909999999995,BSC
3041805729792.0,1.0475695133209229,-3.6450469493865967,6.974381446838379,4.4481000900268555,-1.8501116037368774,-1.625207,-1.2247848999999995,170.54166999999995,-14.055957000000001,-31.859127,BSC
3041829060608.0,1.0526084899902344,-3.6651740074157715,6.951216697692871,4.507908821105957,-1.8662878274917603,-1.5995506000000002,-1.2189816,171.15503,-13.405764999999999,-31.627948999999997,BSC
3041851604992.0,1.0576460361480713,-3.6849191188812256,6.9266180992126465,4.567618370056152,-1.8824269771575928,-1.5457945,-1.2183707000000001,171.7403,-12.792923,-31.40703,BSC
3041873362944.0,1.0626821517944336,-3.7041594982147217,6.900454998016357,4.627182483673096,-1.8984925746917725,-1.4666874,-1.2211196000000002,172.34207,-12.162921,-31.166237,BSC
3041894334464.0,1.0677169561386108,-3.7227470874786377,6.872585773468018,4.6865715980529785,-1.9144500494003296,-1.4245378,-1.1994339,172.91786000000005,-11.5605755,-30.924540000000004,BSC
3041914519552.0,1.0727505683898926,-3.740516185760498,6.8428497314453125,4.745761871337891,-1.9302630424499512,-1.3817772,-1.1869112,173.51859,-10.93324,-30.678682000000002,BSC
3041933918208.0,1.0777828693389893,-3.757288694381714,6.8110527992248535,4.804723739624023,-1.9458928108215332,-1.3460416000000002,-1.1976013,174.10097,-10.33217,-30.438833000000002,BSC
3041952792576.0,1.0828139781951904,-3.772890090942383,6.777000427246094,4.863435745239258,-1.9612988233566284,-1.2651019,-1.1972958999999999,174.71675,-9.698711999999999,-30.151443,BSC
3041970880512.0,1.087843894958496,-3.7871642112731934,6.74052619934082,4.921900749206543,-1.9764420986175537,-1.1749994,-1.1600331,175.30469,-9.098237,-29.872916999999998,BSC
3041988444160.0,1.0928727388381958,-3.7999777793884277,6.701487064361572,4.980138778686523,-1.991284728050232,-1.0769554,-1.1123856,175.92188000000004,-8.447428,-29.581296999999996,BSC
3042005483520.0,1.0979005098342896,-3.8112475872039795,6.659753799438477,5.038167476654053,-2.005791425704956,-1.0021244,-1.1136073,176.52257,-7.822091,-29.30668,BSC
3042021998592.0,1.1029272079467773,-3.8209292888641357,6.615214824676514,5.096009254455566,-2.019929885864258,-0.8038987,-1.0925325000000001,177.11307,-7.175375,-29.04465900000001,BSC
3042037989376.0,1.1079528331756592,-3.8289880752563477,6.5677995681762695,5.153704643249512,-2.0336740016937256,-0.65393126,-1.0308351999999998,177.67453,-6.5567164,-28.787243,BSC
3042053455872.0,1.1129775047302246,-3.8354008197784424,6.51747465133667,5.211305141448975,-2.0470025539398193,-0.54336464,-0.95203346,178.21167,-5.9032745,-28.596871999999998,BSC
3042068398080.0,1.1180012226104736,-3.840167999267578,6.464247703552246,5.268843173980713,-2.059896945953369,-0.43585235,-0.8872818000000001,178.71393,-5.283428,-28.442904,BSC
3042082816000.0,1.1230239868164062,-3.843313217163086,6.408153057098389,5.326364994049072,-2.0723447799682617,-0.34116822,-0.8155051,179.18005,-4.680283,-28.261159999999997,BSC
3042096971776.0,1.128045916557312,-3.84489107131958,6.34919548034668,5.384100914001465,-2.0843493938446045,-0.34788775,-0.77732605,179.62438999999995,-4.0900172999999995,-28.07907100000001,BSC
3042110603264.0,1.1330668926239014,-3.8449618816375732,6.287363529205322,5.442454814910889,-2.095930576324463,-0.34819320000000004,-0.83291477,180.0771,-3.446389,-27.943232000000002,BSC
3042123710464.0,1.1380870342254639,-3.8434813022613525,6.222665309906006,5.502072334289551,-2.1071267127990723,-0.26267207,-0.91996306,180.51476,-2.799124,-27.826878000000004,BSC
3042136555520.0,1.1431063413619995,-3.8403191566467285,6.155119895935059,5.563776016235352,-2.118001937866211,-0.25870144,-1.0693196000000005,181.02643,-2.0334325,-27.542583,BSC
3042149138432.0,1.1481249332427979,-3.8352787494659424,6.084699630737305,5.628392696380615,-2.1286306381225586,-0.36071593,-1.2174544,181.55035,-1.2644525,-27.256346,BSC
3042161197056.0,1.1531426906585693,-3.8281099796295166,6.011324405670166,5.696741104125977,-2.1390841007232666,-0.35033122,-1.1398746000000002,182.13832,-0.5046952,-26.615274,BSC
3042172993536.0,1.1581597328186035,-3.8185462951660156,5.934719085693359,5.7695488929748535,-2.1494195461273193,-0.20311269,-0.8081746999999999,182.66486,0.23894493,-26.01747,BSC
3042184527872.0,1.1631760597229004,-3.806309938430786,5.854444980621338,5.847461223602295,-2.159679412841797,-0.025350908,-0.4175264,183.20862,1.0418044,-25.229055,BSC
3042195800064.0,1.168191909790039,-3.7911410331726074,5.769820690155029,5.93101692199707,-2.16988468170166,0.13836098,-0.12950343,183.64844,1.7846255000000002,-24.529757,BSC
3042206810112.0,1.17320716381073,-3.772810220718384,5.680044174194336,6.020647048950195,-2.1800408363342285,0.28130344,-0.039095376,184.00366,2.4854121,-23.92073,BSC
3042217558016.0,1.1782218217849731,-3.751228094100952,5.584349155426025,6.116620063781738,-2.190157413482666,0.24068089999999998,-0.11026118,184.38521,3.3799930000000002,-23.229115,BSC
3042227781632.0,1.1832358837127686,-3.726447820663452,5.48205041885376,6.219048023223877,-2.2002575397491455,-0.093462385,-0.25076020000000004,184.7251,4.2557397,-22.53639200000001,BSC
3042238005248.0,1.1882494688034058,-3.6987392902374268,5.3726067543029785,6.327726364135742,-2.210362434387207,-0.59315014,-0.35155296,185.12392,5.3666177,-21.789015,BSC
3042247966720.0,1.1932625770568848,-3.6685640811920166,5.255623817443848,6.442156791687012,-2.2204654216766357,-1.0827586999999999,-0.39553526,185.49747,6.4462470000000005,-20.984076,BSC
3042257666048.0,1.1982752084732056,-3.6363749504089355,5.1309590339660645,6.561635494232178,-2.2305123805999756,-1.2809844,-0.32986724,185.83588,7.5586076,-20.279529999999998,BSC
3042267103232.0,1.2032873630523682,-3.602534770965576,4.9987473487854,6.685305118560791,-2.2403981685638428,-1.5531249,-0.25411993,186.1262,8.58743,-19.442474,BSC
3042276278272.0,1.208299160003662,-3.5672950744628906,4.85940408706665,6.812175750732422,-2.2500057220458984,-1.6792686000000001,-0.11575896,186.3327,9.612478,-18.914995,BSC
3042285191168.0,1.2133104801177979,-3.5308165550231934,4.713540554046631,6.941208839416504,-2.259195566177368,-1.6893479,-0.01038471,186.49767,10.487511999999999,-18.355885,BSC
3042294104064.0,1.218321442604065,-3.4931998252868652,4.561933517456055,7.071346759796143,-2.267831563949585,-1.5635096000000002,0.007330383,186.5994,11.239137,-17.832731,BSC
3042302754816.0,1.2233320474624634,-3.4545085430145264,4.405484199523926,7.201542377471924,-2.2757937908172607,-1.3487904,-0.06352998,186.68986999999998,11.930581,-17.341717000000006,BSC
3042311143424.0,1.2283422946929932,-3.4148027896881104,4.24517297744751,7.330734729766846,-2.2829933166503906,-1.2098186000000002,-0.16126843,186.7474,12.492776,-16.852116,BSC
3042319532032.0,1.2333521842956543,-3.3741555213928223,4.082028865814209,7.457845687866211,-2.289383888244629,-1.1264355,-0.2779437,186.83618,13.074908,-16.407967000000006,BSC
3042327658496.0,1.2383617162704468,-3.3326046466827393,3.9171035289764404,7.581846237182617,-2.294973611831665,-1.029308,-0.44837508,186.96448,13.598445000000002,-16.021452,BSC
3042335784960.0,1.2433708906173706,-3.290130138397217,3.751452922821045,7.701797008514404,-2.2998158931732178,-0.8542950999999999,-0.63804877,187.14081000000002,14.167907999999999,-15.674923000000001,BSC
3042343649280.0,1.2483798265457153,-3.2466728687286377,3.5861237049102783,7.816919326782227,-2.3039937019348145,-0.6087272,-0.82772243,187.4373,14.718955,-15.50419,BSC
3042351251456.0,1.2533884048461914,-3.2021453380584717,3.422149419784546,7.926631450653076,-2.3076040744781494,-0.42149702,-0.93187493,187.76442,15.313873000000001,-15.357356,BSC
3042358853632.0,1.2583966255187988,-3.1564555168151855,3.2605326175689697,8.030506134033203,-2.3107454776763916,-0.31764993,-0.9615019,188.09488000000002,15.904738,-15.169741,BSC
3042366193664.0,1.2634046077728271,-3.109550714492798,3.1022236347198486,8.12821102142334,-2.313527822494507,-0.22388211,-0.91538155,188.44052,16.537903,-15.026238000000001,BSC
3042373533696.0,1.2684122323989868,-3.0614254474639893,2.948077440261841,8.21948528289795,-2.3160808086395264,-0.059864793,-0.8524625,188.7488,17.109161,-14.810751000000002,BSC
3042380873728.0,1.2734194993972778,-3.0121335983276367,2.798804998397827,8.304116249084473,-2.318535566329956,0.21899518,-0.8045095,189.06483,17.679113,-14.6534815,BSC
3042387951616.0,1.2784265279769897,-2.9617936611175537,2.6549618244171143,8.381973266601562,-2.320997714996338,0.5018258,-0.7620544,189.34653,18.204016,-14.531320000000001,BSC
3042395029504.0,1.2834333181381226,-2.910581350326538,2.5169425010681152,8.453044891357422,-2.3235344886779785,0.766025,-0.73364913,189.6411,18.72091,-14.480267999999999,BSC
3042401845248.0,1.2884398698806763,-2.858725070953369,2.384998321533203,8.517488479614258,-2.326179265975952,0.9737191999999999,-0.72265357,189.93352,19.245655,-14.526051,BSC
3042408660992.0,1.2934461832046509,-2.8064982891082764,2.2592592239379883,8.575699806213379,-2.3289434909820557,1.0262536,-0.76174897,190.23897,19.73264,-14.594577,BSC
3042415476736.0,1.2984522581100464,-2.7542076110839844,2.1397435665130615,8.628223419189453,-2.3318512439727783,1.0027353,-0.799928,190.53784,20.255434,-14.735407999999998,BSC
3042422030336.0,1.3034580945968628,-2.7021868228912354,2.026310682296753,8.675460815429688,-2.3349387645721436,1.0088439,-0.8881981,190.8656,20.746195,-14.883907999999998,BSC
3042428583936.0,1.3084636926651,-2.650773525238037,1.9186773300170898,8.717690467834473,-2.338261604309082,1.176221,-0.98746365,191.21718,21.286089999999998,-15.056526999999999,BSC
3042435137536.0,1.3134690523147583,-2.60024356842041,1.8163843154907227,8.755084991455078,-2.3418571949005127,1.4679091999999998,-1.03786,191.5906,21.786144,-15.252908999999999,BSC
3042441691136.0,1.3184741735458374,-2.5508127212524414,1.7188340425491333,8.787768363952637,-2.345712184906006,1.7537941000000004,-1.0372492,192.01355,22.410156,-15.574060000000001,BSC
3042447982592.0,1.3234790563583374,-2.502617359161377,1.6253401041030884,8.8159818649292,-2.349759101867676,1.883603,-0.96974856,192.44197,22.983044,-15.920952999999999,BSC
3042454274048.0,1.3284837007522583,-2.455728530883789,1.535150170326233,8.840076446533203,-2.353898286819458,1.8005253,-0.8527679,192.95093,23.723179000000002,-16.300222,BSC
3042460565504.0,1.3334882259368896,-2.410175323486328,1.4474890232086182,8.860542297363281,-2.3580307960510254,1.5372424,-0.7370089,193.42096999999998,24.386694,-16.654003,BSC
3042466856960.0,1.338492512702942,-2.365953207015991,1.3615641593933105,8.877927780151367,-2.362093448638916,1.2202033,-0.6783658,193.91217,25.16749200000001,-16.841185,BSC
3042473148416.0,1.343496561050415,-2.323035717010498,1.2765690088272095,8.89264965057373,-2.366074562072754,1.022283,-0.68569624,194.35515,25.927975,-16.982129999999998,BSC
3042479177728.0,1.3485004901885986,-2.2813775539398193,1.1916954517364502,8.905010223388672,-2.369992971420288,0.91996306,-0.7495316,194.79411000000002,26.760766999999998,-16.938488,BSC
3042485207040.0,1.3535041809082031,-2.240962266921997,1.1060583591461182,8.915220260620117,-2.3738677501678467,0.9584476000000001,-0.82863873,195.21677,27.587367999999998,-16.874832,BSC
3042491236352.0,1.358507752418518,-2.201803207397461,1.0187156200408936,8.92341423034668,-2.3777143955230713,1.0754282,-0.85062987,195.62411,28.422726,-16.803354000000002,BSC
3042497265664.0,1.363511085510254,-2.1639487743377686,0.9287654161453247,8.929654121398926,-2.3815505504608154,1.1563678999999998,-0.78038037,196.07573,29.407326,-16.723116,BSC
3042503032832.0,1.3685142993927002,-2.1274759769439697,0.8353480696678162,8.933941841125488,-2.3853838443756104,1.0445796,-0.7098253999999999,196.55946,30.526388,-16.647898,BSC
3042508800000.0,1.3735172748565674,-2.0924839973449707,0.7376843690872192,8.936193466186523,-2.389183282852173,0.75625116,-0.6301074999999999,196.99629,31.561987,-16.553577,BSC
3042514567168.0,1.378520131111145,-2.0590877532958984,0.6351010203361511,8.936233520507812,-2.3928592205047607,0.6960809,-0.49968776,197.41096000000002,32.502720000000004,-16.500137,BSC
3042520334336.0,1.383522868156433,-2.0273873805999756,0.5270570516586304,8.933816909790039,-2.396279811859131,1.1817188,-0.30482176,197.86833000000001,33.512028,-16.588898,BSC
3042526101504.0,1.3885254859924316,-1.9974498748779297,0.4131554365158081,8.928643226623535,-2.3993020057678223,1.9566013999999998,-0.14905111,198.33992,34.418186,-16.737713,BSC
3042531868672.0,1.3935279846191406,-1.9692585468292236,0.29314613342285156,8.920587539672852,-2.4017770290374756,2.7088818999999997,-0.0061086523,198.88055,35.293987,-17.081757,BSC
3042537373696.0,1.3985302448272705,-1.942705512046814,0.16691412031650543,8.909749031066895,-2.4035401344299316,2.9605584,0.061086524,199.45567,36.062233,-17.482129999999998,BSC
3042542878720.0,1.4035325050354004,-1.9176077842712402,0.0344938263297081,8.89649486541748,-2.4044315814971924,2.9471195,0.18234327,200.10323,36.823387,-18.025639,BSC
3042548383744.0,1.4085346460342407,-1.8937231302261353,-0.10394246131181717,8.88143539428711,-2.4042582511901855,2.3457223999999997,0.2501493,200.6912,37.425556,-18.472813000000002,BSC
3042553888768.0,1.4135366678237915,-1.8708220720291138,-0.2480698972940445,8.865253448486328,-2.4027857780456543,1.6019941999999998,0.21991149,201.20908,37.863228,-18.716663,BSC
3042559393792.0,1.4185385704040527,-1.84872567653656,-0.3974147439002991,8.848607063293457,-2.3997480869293213,1.1166617,0.15118915,201.64917,38.17655,-18.880233999999998,BSC
3042564898816.0,1.4235403537750244,-1.8272664546966553,-0.5512641668319702,8.83203125,-2.3948686122894287,0.9474520000000001,0.112399206,201.89778,38.21649,-18.74558,BSC
3042570403840.0,1.4285420179367065,-1.8062694072723389,-0.7086407542228699,8.815898895263672,-2.387903928756714,0.92087936,0.12980886,202.07953,38.18378,-18.551119,BSC
3042575908864.0,1.4335435628890991,-1.7856332063674927,-0.8683021664619446,8.800368309020996,-2.3786838054656982,0.8744536,0.17470746,202.1661,38.037262,-18.308125,BSC
3042581413888.0,1.4385449886322021,-1.7653599977493286,-1.0287591218948364,8.785375595092773,-2.367142915725708,0.8365799999999999,0.19272798,202.26079,37.924686,-18.078678,BSC
3042586918912.0,1.4435464143753052,-1.7455179691314697,-1.1884922981262207,8.770734786987305,-2.353332996368408,0.883922,0.14569137,202.34837,37.777603000000006,-17.907383,BSC
3042592161792.0,1.4485477209091187,-1.7262064218521118,-1.346159815788269,8.756237030029297,-2.337416410446167,0.99173975,0.037873644,202.46124,37.765246999999995,-17.742008,BSC
3042597404672.0,1.4535490274429321,-1.7075315713882446,-1.5006510019302368,8.741673469543457,-2.3196537494659424,1.0045679,-0.093462385,202.53635,37.692467,-17.825285,BSC
3042602647552.0,1.4585503339767456,-1.6895896196365356,-1.6511067152023315,8.726850509643555,-2.300370454788208,0.9560040999999999,-0.22540927,202.64462,37.772724,-17.895218,BSC
3042607890432.0,1.4635515213012695,-1.6724706888198853,-1.79692804813385,8.711589813232422,-2.2799253463745117,0.9086620999999999,-0.30543262,202.77843000000001,38.00284,-18.013548,BSC
3042613133312.0,1.4685527086257935,-1.6562625169754028,-1.9377763271331787,8.695719718933105,-2.258676052093506,0.8518515999999999,-0.34605515,202.9187,38.339847999999996,-18.099239999999998,BSC
3042618376192.0,1.4735537767410278,-1.641065001487732,-2.0735437870025635,8.67908763885498,-2.2369439601898193,0.7883216,-0.35613444,203.0767,38.79659,-18.157934,BSC
3042623619072.0,1.4785547256469727,-1.6270016431808472,-2.20432710647583,8.66156005859375,-2.2149851322174072,0.7104363,-0.37995818,203.22772,39.262962,-18.189188,BSC
3042628861952.0,1.4835556745529175,-1.6142328977584839,-2.330395460128784,8.643022537231445,-2.1929783821105957,0.6001751000000001,-0.44929138,203.39586,39.831505,-18.158936999999998,BSC
3042634104832.0,1.4885565042495728,-1.6029695272445679,-2.4521608352661133,8.623376846313477,-2.171031951904297,0.5296202,-0.5476406999999999,203.56013000000002,40.342403000000004,-18.110796,BSC
3042639347712.0,1.493557333946228,-1.5934574604034424,-2.5701403617858887,8.60255241394043,-2.1491944789886475,0.5186246,-0.657291,203.82066,40.974909999999994,-18.028519,BSC
3042644590592.0,1.4985580444335938,-1.5859651565551758,-2.6849236488342285,8.580521583557129,-2.1274778842926025,0.47922380000000003,-0.7174611999999999,204.05637,41.52867,-17.920128,BSC
3042649833472.0,1.50355863571167,-1.5807602405548096,-2.797145128250122,8.557289123535156,-2.105882406234741,0.398895,-0.8136725,204.30417335478802,42.0745006636301,-17.827539305673803,BSC
3042655076352.0,1.508559226989746,-1.5780891180038452,-2.907461166381836,8.532886505126953,-2.084397792816162,0.31612277,-0.895223,204.55848999999998,42.634678,-17.732517,BSC
3042660319232.0,1.5135598182678223,-1.578163504600525,-3.0165369510650635,8.507377624511719,-2.0630111694335938,0.21746802,-0.9569204,204.8382,43.208275,-17.657028,BSC
3042665562112.0,1.5185602903366089,-1.5811325311660767,-3.125044822692871,8.480890274047852,-2.041707754135132,0.12370021,-1.0122037,205.09799999999998,43.74321,-17.552410000000002,BSC
3042670804992.0,1.5235607624053955,-1.5870646238327026,-3.2336411476135254,8.453601837158203,-2.020472764968872,0.00061086525,-1.0537425,205.35676999999998,44.311607,-17.438185,BSC
3042676047872.0,1.5285611152648926,-1.5959179401397705,-3.342947483062744,8.425736427307129,-1.9992924928665161,-0.19975294,-1.0943651,205.57272,44.852917,-17.281218,BSC
3042681290752.0,1.5335614681243896,-1.607501745223999,-3.453528881072998,8.397496223449707,-1.9781512022018433,-0.4529566,-1.1246029,205.77052,45.402363,-17.050966,BSC
3042686533632.0,1.5385619401931763,-1.6214944124221802,-3.5658581256866455,8.36900520324707,-1.957035779953003,-0.6627888000000001,-1.1533136,205.9271,45.934788,-16.788841,BSC
3042691776512.0,1.543562412261963,-1.6374268531799316,-3.680311918258667,8.340282440185547,-1.9359372854232788,-0.8390234000000001,-1.1808025,206.0713,46.47634,-16.397152,BSC
3042696757248.0,1.5485628843307495,-1.6546733379364014,-3.797153949737549,8.311205863952637,-1.9148422479629517,-0.73731434,-1.131017,206.21078,46.971354999999996,-16.042297,BSC
3042701737984.0,1.5535633563995361,-1.6724853515625,-3.9165451526641846,8.281559944152832,-1.8937101364135742,-0.36010507,-0.9987647,206.39693,47.474841999999995,-15.600439999999999,BSC
3042706718720.0,1.5585638284683228,-1.6900171041488647,-4.038542747497559,8.25112533569336,-1.8724617958068848,-0.07971791,-0.7761043000000001,206.5488,47.90054,-15.204654999999999,BSC
3042711699456.0,1.5635643005371094,-1.706382393836975,-4.163118839263916,8.219707489013672,-1.850974202156067,0.16035213,-0.5027421,206.77701000000002,48.32067,-14.760860000000001,BSC
3042716942336.0,1.5685648918151855,-1.7207214832305908,-4.2901692390441895,8.187214851379395,-1.8290841579437256,0.37812558,-0.22815818,207.01495,48.616436,-14.421992000000001,BSC
3042721923072.0,1.5735654830932617,-1.732255220413208,-4.4195237159729,8.153617858886719,-1.8065932989120483,0.27916542,0.03634648,207.21206999999998,48.810806,-13.970339000000001,BSC
3042726903808.0,1.5785661935806274,-1.7403355836868286,-4.550913333892822,8.118929862976074,-1.783281922340393,-0.12034045,0.28130344,207.33656000000002,48.87362,-13.567333999999999,BSC
3042731884544.0,1.5835669040679932,-1.7444404363632202,-4.683988094329834,8.083182334899902,-1.758933186531067,-0.5225952,0.5119051,207.39465,48.799118,-13.111011499999998,BSC
3042736865280.0,1.5885676145553589,-1.7441827058792114,-4.818332195281982,8.046369552612305,-1.7333649396896362,-0.68936145,0.73364913,207.36592,48.647890000000004,-12.686449,BSC
3042741846016.0,1.5935683250427246,-1.7392927408218384,-4.953478813171387,8.008460998535156,-1.7064547538757324,-0.7165449,0.93401295,207.2307,48.408264,-12.264161,BSC
3042746826752.0,1.5985689163208008,-1.729652762413025,-5.08890438079834,7.969420909881592,-1.6781303882598877,-0.7351763000000001,1.0317514,207.035,48.13967,-11.846034,BSC
3042751807488.0,1.603569507598877,-1.7152864933013916,-5.2240424156188965,7.929214000701904,-1.6483917236328125,-0.7715228,1.1859948999999999,206.77907,47.9387,-11.481987,BSC
3042756788224.0,1.6085700988769531,-1.6963568925857544,-5.358328342437744,7.887805938720703,-1.6173055171966553,-0.8717046999999999,1.2620476,206.497,47.75863,-11.150139999999999,BSC
3042761768960.0,1.6135706901550293,-1.6731452941894531,-5.491201877593994,7.845162868499756,-1.5849992036819458,-0.93218035,1.2495247999999999,206.19884,47.627613000000004,-10.907642999999998,BSC
3042766749696.0,1.6185712814331055,-1.6460254192352295,-5.622098922729492,7.801222801208496,-1.5516481399536133,-0.91965765,1.144456,205.90001,47.59089,-10.657743,BSC
3042771730432.0,1.623571753501892,-1.6154512166976929,-5.750452518463135,7.755903720855713,-1.517458438873291,-0.8185594,0.9783006999999999,205.62434,47.615803,-10.510325,BSC
3042776711168.0,1.6285722255706787,-1.5819296836853027,-5.875701904296875,7.709166526794434,-1.482648253440857,-0.68875057,0.82527894,205.37852,47.72316,-10.352903999999999,BSC
3042781691904.0,1.6335726976394653,-1.5460129976272583,-5.997291564941406,7.661007404327393,-1.4474347829818726,-0.6383542,0.6976081000000001,205.17373999999998,47.888332,-10.286513000000001,BSC
3042786934784.0,1.6385732889175415,-1.5083198547363281,-6.1146626472473145,7.611447811126709,-1.412017822265625,-0.6542366999999999,0.60903263,205.00641000000002,48.092,-10.209506,BSC
3042791915520.0,1.6435738801956177,-1.4694850444793701,-6.2272868156433105,7.560525894165039,-1.3765616416931152,-0.677755,0.5390885999999999,204.87053,48.305,-10.119141,BSC
3042796896256.0,1.6485745906829834,-1.4301029443740845,-6.334683418273926,7.508290767669678,-1.3411815166473389,-0.6160576,0.5109888,204.83122,48.462959999999995,-10.183143,BSC
3042802139136.0,1.6535754203796387,-1.3907334804534912,-6.436411380767822,7.4548020362854,-1.3059443235397339,-0.49785519999999994,0.48838675,204.87193,48.56093,-10.381356,BSC
3042807119872.0,1.6585763692855835,-1.3518640995025635,-6.532118797302246,7.400136947631836,-1.2708749771118164,-0.32162055,0.4728097,204.9308,48.599136,-10.58985,BSC
3042812100608.0,1.6635773181915283,-1.3139170408248901,-6.621530532836914,7.344390392303467,-1.2359671592712402,-0.1255328,0.45173484,204.91893000000002,48.516617,-10.810627,BSC
3042817081344.0,1.6685782670974731,-1.2772279977798462,-6.70448112487793,7.287696838378906,-1.2011955976486206,0.07360926,0.42271876,204.94789,48.386272,-11.054943,BSC
3042822062080.0,1.673579216003418,-1.242052674293518,-6.780905246734619,7.230225086212158,-1.1665250062942505,0.23273966,0.3933972,205.01173,48.214085,-11.317756,BSC
3042827042816.0,1.6785801649093628,-1.2085872888565063,-6.850852012634277,7.172186374664307,-1.1319173574447632,0.32895094,0.35827246,205.09198,47.994953,-11.591314,BSC
3042832023552.0,1.6835811138153076,-1.1769773960113525,-6.9144721031188965,7.113828659057617,-1.0973403453826904,0.3371976,0.31184670000000003,205.19203000000002,47.766247,-11.862424,BSC
3042837004288.0,1.688581943511963,-1.1473194360733032,-6.972015380859375,7.055441856384277,-1.0627690553665161,0.27916542,0.28924468,205.29997,47.526184,-12.089589,BSC
3042841985024.0,1.6935827732086182,-1.1196649074554443,-7.023820877075195,6.997354507446289,-1.028189778327942,0.23396139,0.2959642,205.41238,47.2943,-12.309675,BSC
3042846965760.0,1.6985836029052734,-1.0940039157867432,-7.070298194885254,6.939876556396484,-0.9935982823371887,0.13591751,0.30665436,205.52298000000002,47.080456,-12.468983999999999,BSC
3042851946496.0,1.7035843133926392,-1.0702667236328125,-7.11191463470459,6.883282661437988,-0.9590055346488953,0.059864793,0.36713,205.61415,46.88418,-12.628505,BSC
3042856927232.0,1.7085850238800049,-1.048302173614502,-7.149208068847656,6.827797889709473,-0.9244357347488403,0.03023783,0.46303585,205.70055,46.70412,-12.745785,BSC
3042861907968.0,1.7135857343673706,-1.027889370918274,-7.182767391204834,6.773596286773682,-0.8899229168891907,0.052534412999999995,0.59895337,205.7594,46.534496000000004,-12.873781,BSC
3042866888704.0,1.7185863256454468,-1.0087082386016846,-7.213244438171387,6.720853328704834,-0.8555083870887756,0.08399397,0.77091193,205.80629,46.421833,-12.963907,BSC
3042871869440.0,1.723586916923523,-0.9903396368026733,-7.241347789764404,6.669765472412109,-0.8212389945983887,0.10934488,0.9718866,205.82202,46.310516,-13.088028999999999,BSC
3042876850176.0,1.7285873889923096,-0.9723547101020813,-7.267776012420654,6.620528697967529,-0.7871652245521545,0.1020145,1.171945,205.76758,46.220848,-13.148334,BSC
3042881830912.0,1.7335878610610962,-0.9543820023536682,-7.293168544769287,6.573322772979736,-0.7533435821533203,0.04795292,1.3536774,205.67354,46.135788,-13.241848000000001,BSC
3042886811648.0,1.7385882139205933,-0.9361183643341064,-7.3180952072143555,6.528292655944824,-0.7198310494422913,-0.03176499,1.5149458999999998,205.55678,46.085392,-13.196249,BSC
3042891792384.0,1.7435885667800903,-0.9173359870910645,-7.343049049377441,6.485535144805908,-0.6866821050643921,-0.10293079,1.6291776000000002,205.40364,46.03859,-13.17293,BSC
3042896773120.0,1.7485888004302979,-0.8978798389434814,-7.368435382843018,6.445102214813232,-0.6539450287818909,-0.13958271,1.6896533,205.21669,45.989959999999996,-13.1521015,BSC
3042901753856.0,1.7535890340805054,-0.8776662945747375,-7.3945631980896,6.407005310058594,-0.6216652989387512,-0.15943582,1.6783522000000002,205.01018,45.951446999999995,-13.132554999999998,BSC
3042906734592.0,1.7585891485214233,-0.8566746711730957,-7.421646595001221,6.371216297149658,-0.5898876190185547,-0.17073683,1.6282613000000001,204.7878,45.923491999999996,-13.140363,BSC
3042911715328.0,1.7635892629623413,-0.834941029548645,-7.44980001449585,6.337667465209961,-0.55865877866745,-0.15057829,1.5201381,204.58301,45.914726,-13.137575,BSC
3042916696064.0,1.7685892581939697,-0.8125445246696472,-7.479045867919922,6.30625581741333,-0.5280313491821289,-0.14874569,1.3637567,204.37923999999998,45.91554,-13.155403,BSC
3042921676800.0,1.7735891342163086,-0.7895911335945129,-7.5093092918396,6.276845932006836,-0.4980625808238983,-0.14019357,1.1588113000000002,204.21408,45.947277,-13.146057999999998,BSC
3042926657536.0,1.7785890102386475,-0.7661932706832886,-7.540441513061523,6.249279499053955,-0.46881458163261414,-0.12308934,0.9425650999999999,204.0781,46.000355,-13.158859,BSC
3042931638272.0,1.7835887670516968,-0.742449164390564,-7.572238922119141,6.22338342666626,-0.44035404920578003,-0.099265605,0.7244862,203.98783999999998,46.097527,-13.131378,BSC
3042936619008.0,1.788588523864746,-0.7184423804283142,-7.604454040527344,6.198974132537842,-0.4127495288848877,-0.016798794,0.52839845,203.93811000000002,46.1963,-13.119872,BSC
3042941599744.0,1.7935881614685059,-0.694233238697052,-7.636812210083008,6.175868034362793,-0.3860681653022766,0.02565634,0.36682457,203.9218,46.334334999999996,-13.066888,BSC
3042946580480.0,1.7985877990722656,-0.6698617339134216,-7.6690192222595215,6.1538825035095215,-0.3603699207305908,0.15241088,0.2929099,203.95892,46.47167,-13.033403,BSC
3042951561216.0,1.8035873174667358,-0.6453814506530762,-7.700785160064697,6.132844924926758,-0.33571070432662964,0.30482176,0.17623462,204.05095,46.651176,-12.969864,BSC
3042956541952.0,1.808586835861206,-0.6208624243736267,-7.731828689575195,6.112594127655029,-0.3121395409107208,0.4718934,0.09468412,204.18077,46.837715,-12.924978999999999,BSC
3042961522688.0,1.8135862350463867,-0.5964045524597168,-7.761886119842529,6.092999458312988,-0.28969696164131165,0.63194007,0.04642576,204.34578,47.005759999999995,-12.884582,BSC
3042966503424.0,1.8185856342315674,-0.5721428394317627,-7.790714740753174,6.073971748352051,-0.26841074228286743,0.79412484,0.021380282999999996,204.55783,47.178482,-12.862368,BSC
3042971484160.0,1.8235849142074585,-0.5482511520385742,-7.818106174468994,6.055473327636719,-0.24829179048538208,0.9294315000000001,0.024129177,204.7969,47.326134,-12.890513,BSC
3042976727040.0,1.8285841941833496,-0.524940550327301,-7.843890190124512,6.037520408630371,-0.22932934761047363,1.0262536,0.03023783,205.0645,47.45827,-12.934161999999999,BSC
3042981707776.0,1.8335834741592407,-0.5024425387382507,-7.867938995361328,6.020173072814941,-0.2114918977022171,1.0635164,0.05009095,205.33777,47.526109999999996,-13.04624,BSC
3042986688512.0,1.8385826349258423,-0.48100122809410095,-7.890164375305176,6.003527641296387,-0.19472458958625793,1.0699303999999998,0.0720821,205.61844,47.556187,-13.167171,BSC
3042991669248.0,1.8435817956924438,-0.4608617424964905,-7.910516738891602,5.987705707550049,-0.17895321547985077,1.0042624,0.1255328,205.86987,47.492813,-13.355789999999999,BSC
3042996649984.0,1.8485809564590454,-0.442264586687088,-7.928981304168701,5.972849369049072,-0.16408419609069824,0.93401295,0.15913039999999998,206.11266,47.386818,-13.536297,BSC
3043001630720.0,1.853580117225647,-0.42544928193092346,-7.945580959320068,5.9591064453125,-0.15001176297664642,0.8872818000000001,0.17287487,206.29433999999998,47.15363,-13.771282999999999,BSC
3043006611456.0,1.8585792779922485,-0.41065913438796997,-7.960376262664795,5.946622371673584,-0.1366252899169922,0.8017605999999999,0.19058995,206.4388,46.89229,-13.983143,BSC
3043011592192.0,1.86357843875885,-0.39812666177749634,-7.973451614379883,5.9355292320251465,-0.123810313642025,0.70738196,0.19517145,206.55756,46.57241,-14.209801,BSC
3043016572928.0,1.8685775995254517,-0.3880675435066223,-7.984902858734131,5.92594051361084,-0.11145932972431183,0.5934556,0.22296582,206.64206000000001,46.250285999999996,-14.414589000000001,BSC
3043021553664.0,1.8735766410827637,-0.38067880272865295,-7.9948272705078125,5.917952060699463,-0.09947576373815536,0.5140431,0.25625798,206.69897,45.913395,-14.637953,BSC
3043026534400.0,1.8785756826400757,-0.3761359453201294,-8.003312110900879,5.911640644073486,-0.08777396380901337,0.43371433,0.29718593,206.7229,45.576164,-14.83699,BSC
3043031515136.0,1.8835747241973877,-0.37459009885787964,-8.010424613952637,5.907065391540527,-0.07628057152032852,0.34513888,0.34910949999999996,206.71173000000002,45.22847700000001,-15.059907999999998,BSC
3043036758016.0,1.8885737657546997,-0.37616753578186035,-8.016205787658691,5.904269218444824,-0.06493531912565231,0.29168814,0.41630468,206.67993,44.889153,-15.276129999999998,BSC
3043042000896.0,1.8935729265213013,-0.3809657096862793,-8.020661354064941,5.903274059295654,-0.05368572100996971,0.22113322,0.45112398,206.6141,44.532852,-15.499082000000001,BSC
3043046981632.0,1.8985722064971924,-0.3890480399131775,-8.023765563964844,5.904079914093018,-0.04248829185962677,0.19486602,0.5332854,206.52463999999998,44.18589,-15.73458,BSC
3043051962368.0,1.9035714864730835,-0.4004362225532532,-8.02545166015625,5.906670570373535,-0.031303662806749344,0.17592919,0.63346726,206.40257,43.816715,-15.982384,BSC
3043056943104.0,1.9085708856582642,-0.41509753465652466,-8.025609016418457,5.911019325256348,-0.02009733021259308,0.14080444,0.74189585,206.255,43.454209999999996,-16.231045,BSC
3043061923840.0,1.9135702848434448,-0.4329504668712616,-8.024106979370117,5.917081356048584,-0.008837134577333927,0.095294975,0.81000733,206.0868,43.05263,-16.502174,BSC
3043066904576.0,1.9185696840286255,-0.4538697898387909,-8.020817756652832,5.924784183502197,0.0025086291134357452,0.08032878,0.8191703,205.90996,42.652096,-16.772966,BSC
3043071885312.0,1.9235690832138062,-0.47769173979759216,-8.015625,5.934037208557129,0.013970406726002693,0.112704635,0.7797695,205.73317,42.224144,-17.027573,BSC
3043076866048.0,1.9285686016082764,-0.5042186975479126,-8.008432388305664,5.944738388061523,0.025574808940291405,0.13805555,0.7309003000000001,205.55461,41.801987,-17.270103,BSC
3043081846784.0,1.9335681200027466,-0.5332322716712952,-7.99916410446167,5.956779479980469,0.03734134882688522,0.16432275,0.6627888000000001,205.40932,41.38243,-17.492748000000002,BSC
3043086827520.0,1.9385676383972168,-0.5645024180412292,-7.987767696380615,5.970050811767578,0.04928083345293999,0.18295415,0.60048056,205.2795,40.978558,-17.703457,BSC
3043091808256.0,1.943567156791687,-0.5977969169616699,-7.974210739135742,5.984441757202148,0.06139402836561203,0.21258110000000002,0.54550266,205.18105,40.599922,-17.880404000000006,BSC
3043096788992.0,1.9485666751861572,-0.6328961849212646,-7.958478927612305,5.999842643737793,0.07367017865180969,0.23090707,0.49174652,205.09972,40.249294,-18.04107,BSC
3043101769728.0,1.9535661935806274,-0.6695953607559204,-7.940572261810303,6.016149044036865,0.0860871747136116,0.25595254,0.44837508,205.04413,39.928104,-18.177856,BSC
3043106750464.0,1.9585657119750977,-0.7077071666717529,-7.920502185821533,6.033267974853516,0.09861146658658981,0.26267207,0.42180246,204.99851999999998,39.638264,-18.302599,BSC
3043111993344.0,1.9635653495788574,-0.7470657229423523,-7.898283958435059,6.051115989685059,0.11120095103979111,0.2773328,0.43799037,204.96097,39.352016,-18.44256,BSC
3043117236224.0,1.9685651063919067,-0.7875283360481262,-7.873930931091309,6.069616794586182,0.12381172180175781,0.29077184,0.43768495,204.93524,39.090595,-18.570724,BSC
3043122216960.0,1.9735649824142456,-0.8289670348167419,-7.84746789932251,6.088706970214844,0.1363983452320099,0.32375857,0.4370741,204.90964,38.844936,-18.709211,BSC
3043127197696.0,1.978564977645874,-0.8712618350982666,-7.8189496994018555,6.108346462249756,0.14891603589057922,0.3368922,0.44073927,204.88261,38.613136,-18.842697,BSC
3043132178432.0,1.9835649728775024,-0.9143011569976807,-7.788454055786133,6.1285080909729,0.1613253355026245,0.34483343,0.43127087,204.86508,38.361183000000004,-19.003529999999998,BSC
3043137159168.0,1.9885650873184204,-0.957982063293457,-7.756077766418457,6.149165153503418,0.17359411716461182,0.34819320000000004,0.42241332,204.84848,38.119064,-19.162115,BSC
3043142139904.0,1.9935652017593384,-1.0022099018096924,-7.721932411193848,6.170291423797607,0.18569867312908173,0.3475823,0.41722095,204.83562,37.878204,-19.310266,BSC
3043147120640.0,1.9985653162002563,-1.0468976497650146,-7.686142444610596,6.191860198974609,0.19761919975280762,0.3744604,0.41844269999999995,204.82973,37.646313,-19.459965,BSC
3043152101376.0,2.003565549850464,-1.0919657945632935,-7.6488423347473145,6.213846683502197,0.20934359729290009,0.41080686,0.4092797,204.83308,37.391605,-19.61598,BSC
3043157082112.0,2.008565664291382,-1.1373430490493774,-7.6101765632629395,6.236226558685303,0.22086739540100098,0.4166101,0.40194935,204.83514,37.141132,-19.766447,BSC
3043162062848.0,2.0135657787323,-1.18296480178833,-7.570295333862305,6.258975982666016,0.23219247162342072,0.39706242,0.3979787,204.84598,36.891308,-19.923357,BSC
3043167043584.0,2.0185658931732178,-1.2287626266479492,-7.529351234436035,6.282065391540527,0.24332654476165771,0.39095375,0.39828414,204.86101000000002,36.63906,-20.078004999999997,BSC
3043172024320.0,2.0235660076141357,-1.274665355682373,-7.4874958992004395,6.3054609298706055,0.2542860805988312,0.4297437,0.4083634,204.88269,36.37429,-20.243263,BSC
3043177005056.0,2.0285661220550537,-1.3206003904342651,-7.44488000869751,6.329124450683594,0.26509740948677063,0.50701815,0.4343252,204.90662,36.101307,-20.412679999999998,BSC
3043182247936.0,2.0335662364959717,-1.3664945363998413,-7.401654243469238,6.353016376495361,0.2757968604564667,0.54825157,0.4605924,204.92087,35.798626,-20.58541,BSC
3043187228672.0,2.0385663509368896,-1.4122806787490845,-7.357977390289307,6.377102375030518,0.28642886877059937,0.5717699,0.48533243,204.94026000000002,35.482155,-20.768614000000003,BSC
3043192209408.0,2.0435664653778076,-1.4578979015350342,-7.3140153884887695,6.40135383605957,0.2970418632030487,0.59589905,0.49754974,204.97206,35.17048,-20.946737,BSC
3043197190144.0,2.0485668182373047,-1.503296971321106,-7.269933223724365,6.425746917724609,0.30768510699272156,0.6160576,0.49754974,205.00409,34.84803,-21.123997,BSC
3043202170880.0,2.0535669326782227,-1.5484405755996704,-7.225893497467041,6.450263023376465,0.31840628385543823,0.61361414,0.4877759,205.03546,34.519787,-21.294485,BSC
3043207151616.0,2.0585670471191406,-1.5932989120483398,-7.182048320770264,6.47489070892334,0.32924750447273254,0.6267477,0.45998153,205.08209,34.184498,-21.47334,BSC
3043212132352.0,2.0635671615600586,-1.6378474235534668,-7.138537406921387,6.49962854385376,0.34024375677108765,0.5830709,0.4279111,205.12083,33.853252000000005,-21.628586,BSC
3043217113088.0,2.0685672760009766,-1.6820642948150635,-7.0954694747924805,6.524469375610352,0.3514223098754883,0.50579643,0.4071417,205.15201000000002,33.520621999999996,-21.78161,BSC
3043222093824.0,2.0735673904418945,-1.7259290218353271,-7.052918910980225,6.549395561218262,0.36280107498168945,0.42210788,0.37965274,205.18361000000002,33.205467,-21.909353,BSC
3043227074560.0,2.0785675048828125,-1.7694206237792969,-7.010921001434326,6.574366092681885,0.3743915855884552,0.34941490000000003,0.35033122,205.20757,32.88973,-22.016170000000002,BSC
3043232055296.0,2.0835676193237305,-1.8125171661376953,-6.969474792480469,6.599315166473389,0.3861994445323944,0.2883284,0.3295618,205.22432,32.591120000000004,-22.097729,BSC
3043237036032.0,2.0885677337646484,-1.855203628540039,-6.928542137145996,6.624152183532715,0.3982250690460205,0.25870144,0.3191771,205.23466000000002,32.295456,-22.169043,BSC
3043242016768.0,2.0935676097869873,-1.8974741697311401,-6.888054370880127,6.6487650871276855,0.4104641079902649,0.23518312,0.31673363,205.24033,32.013054,-22.221355,BSC
3043246997504.0,2.098567485809326,-1.9393314123153687,-6.847920894622803,6.673035621643066,0.4229053854942322,0.24190263,0.30604348,205.23077,31.706112,-22.293892,BSC
3043251978240.0,2.103567361831665,-1.980785608291626,-6.808035373687744,6.696847438812256,0.43553298711776733,0.27519479999999996,0.28741209999999995,205.22697,31.411133000000003,-22.361317,BSC
3043256958976.0,2.108567237854004,-2.021855592727661,-6.768280982971191,6.72009801864624,0.44832274317741394,0.32070425,0.26878070000000004,205.22432,31.118462,-22.46181,BSC
3043261939712.0,2.1135671138763428,-2.0625691413879395,-6.728534698486328,6.742705345153809,0.461243599653244,0.36163223,0.24587326,205.23422,30.843640999999998,-22.560616,BSC
3043266920448.0,2.1185669898986816,-2.102957010269165,-6.6886773109436035,6.764608383178711,0.4742587208747864,0.38515055,0.22876903,205.23615,30.55307,-22.691212,BSC
3043271901184.0,2.1235666275024414,-2.143048048019409,-6.648598670959473,6.785768032073975,0.48732638359069824,0.3753767,0.21960606,205.24402,30.286635999999998,-22.815887,BSC
3043276881920.0,2.128566265106201,-2.182870864868164,-6.60820198059082,6.806154727935791,0.5004031658172607,0.37690386,0.22143865,205.24542,30.010288,-22.961288,BSC
3043281862656.0,2.133565902709961,-2.2224535942077637,-6.567406177520752,6.825743675231934,0.5134444832801819,0.4269948,0.23273966,205.25385,29.755096,-23.11131,BSC
3043286843392.0,2.1385655403137207,-2.261823892593384,-6.526148319244385,6.8445305824279785,0.5264086127281189,0.46761733,0.2452624,205.24678,29.469365999999997,-23.272879999999997,BSC
3043291824128.0,2.1435651779174805,-2.3010079860687256,-6.484387397766113,6.862546920776367,0.5392592549324036,0.48166725,0.25961772,205.24053999999998,29.195422999999998,-23.436987,BSC
3043296804864.0,2.1485648155212402,-2.34002685546875,-6.4420976638793945,6.8798394203186035,0.5519652962684631,0.47922380000000003,0.28710666,205.2254,28.921771999999997,-23.616827,BSC
3043301785600.0,2.153564453125,-2.3788955211639404,-6.399267673492432,6.896460056304932,0.5645040273666382,0.52656585,0.312763,205.21759,28.647709999999996,-23.808722,BSC
3043306766336.0,2.1585640907287598,-2.4176218509674072,-6.355903625488281,6.912472724914551,0.5768590569496155,0.5332854,0.33078352,205.1969,28.346502,-23.99611,BSC
3043311747072.0,2.1635637283325195,-2.4562063217163086,-6.3120341300964355,6.927962303161621,0.5890189409255981,0.50426924,0.35002577,205.1712,28.044341999999997,-24.184166,BSC
3043316989952.0,2.1685633659362793,-2.494647741317749,-6.26771354675293,6.943020820617676,0.6009728312492371,0.47861293,0.3576616,205.14551,27.746258,-24.367811,BSC
3043321970688.0,2.173563003540039,-2.532945394515991,-6.22301721572876,6.957736015319824,0.6127148866653442,0.47158796,0.35277468,205.11706999999998,27.444008,-24.544022000000002,BSC
3043326951424.0,2.178562641143799,-2.571099042892456,-6.178038597106934,6.972194194793701,0.624238133430481,0.42760566,0.34116822,205.072,27.136597,-24.695895999999998,BSC
3043331932160.0,2.1835622787475586,-2.609107255935669,-6.1328816413879395,6.986479759216309,0.6355350017547607,0.398895,0.32620203,205.03201,26.83415,-24.842733,BSC
3043336912896.0,2.1885621547698975,-2.6469671726226807,-6.087656021118164,7.000672817230225,0.6465997099876404,0.32162055,0.32559118,204.98256,26.54324,-24.965104999999998,BSC
3043341893632.0,2.1935620307922363,-2.6846673488616943,-6.042455196380615,7.01481819152832,0.6574277281761169,0.24617869,0.32711834,204.9344,26.267649,-25.073439999999998,BSC
3043346874368.0,2.198561906814575,-2.7221908569335938,-5.9973530769348145,7.028930187225342,0.6680161356925964,0.17989981,0.33353242,204.8824,25.992033,-25.166117,BSC
3043351855104.0,2.203561782836914,-2.7595252990722656,-5.952376842498779,7.0430073738098145,0.6783612370491028,0.13836098,0.34147367,204.82474,25.729256,-25.241989999999998,BSC
3043356835840.0,2.208561658859253,-2.7966606616973877,-5.907514572143555,7.057033061981201,0.6884598135948181,0.12370021,0.34880406,204.76077,25.474434,-25.310886,BSC
3043361816576.0,2.213561534881592,-2.833571434020996,-5.862735271453857,7.070979118347168,0.698310136795044,0.14019357,0.35796702,204.69592,25.228525,-25.375122,BSC
3043367059456.0,2.2185614109039307,-2.8702192306518555,-5.817986011505127,7.084807872772217,0.7079096436500549,0.099265605,0.34238997,204.60327,24.932543,-25.45169,BSC
3043372040192.0,2.2235615253448486,-2.9065706729888916,-5.773197174072266,7.098489284515381,0.7172597050666809,-0.10445796,0.34574974,204.48503,24.634610000000002,-25.490560000000002,BSC
3043377020928.0,2.2285616397857666,-2.9425971508026123,-5.728280067443848,7.111999034881592,0.726370096206665,-0.25992316,0.35369098,204.37358,24.316214000000002,-25.52908,BSC
3043382001664.0,2.2335617542266846,-2.978311538696289,-5.68312931060791,7.125322341918945,0.7352468967437744,-0.3005457,0.34910949999999996,204.25703000000001,24.021938000000002,-25.5411,BSC
3043386982400.0,2.2385618686676025,-3.0137696266174316,-5.637624740600586,7.138454437255859,0.7438758611679077,-0.17898351,0.2724459,204.16579,23.760448,-25.545002,BSC
3043391963136.0,2.2435619831085205,-3.0490667819976807,-5.591605186462402,7.151397705078125,0.7522108554840088,0.0033597588,0.15699236,204.07893,23.4951,-25.561903,BSC
3043396943872.0,2.2485620975494385,-3.084334135055542,-5.544862747192383,7.164161205291748,0.7601750493049622,0.1777618,0.04520403,204.03339,23.287628,-25.597166,BSC
3043401924608.0,2.2535622119903564,-3.1197328567504883,-5.4971394538879395,7.176774501800537,0.767678439617157,0.27885997,-0.029321532999999997,203.99048,23.081266,-25.7027,BSC
3043406905344.0,2.2585623264312744,-3.155442237854004,-5.448126316070557,7.189307689666748,0.7746360301971436,0.29657507,-0.07086037,203.9832,22.929285,-25.81917,BSC
3043411886080.0,2.2635624408721924,-3.191648483276367,-5.397497177124023,7.201855182647705,0.7809777855873108,0.23640485,-0.05497787,203.92903,22.72379500000001,-26.004026,BSC
3043416866816.0,2.2685625553131104,-3.2285237312316895,-5.344974040985107,7.214507102966309,0.7866533398628235,0.11789699,-0.016187929,203.8738,22.532276,-26.17309,BSC
3043421847552.0,2.2735626697540283,-3.266216516494751,-5.29034423828125,7.227343559265137,0.7916364073753357,0.00030543262000000003,0.03176499,203.7584,22.225445,-26.366846000000002,BSC
3043426828288.0,2.2785627841949463,-3.3048272132873535,-5.233506679534912,7.240418434143066,0.7959238290786743,-0.08674286,0.062308256,203.62524,21.907465,-26.537262,BSC
3043431809024.0,2.2835628986358643,-3.344409942626953,-5.1744585037231445,7.253761291503906,0.7995298504829407,-0.11911872,0.081855945,203.45946999999998,21.551382,-26.711354999999998,BSC
3043437051904.0,2.2885630130767822,-3.3849592208862305,-5.113296031951904,7.267369747161865,0.8024759292602539,-0.1386664,0.06383542,203.28816,21.190634,-26.862001,BSC
3043442032640.0,2.2935631275177,-3.4264237880706787,-5.050181865692139,7.281222820281982,0.8047882914543152,-0.14202617,0.053145275,203.1292,20.860433999999998,-26.995855,BSC
3043447013376.0,2.298563241958618,-3.46870756149292,-4.985320091247559,7.295294284820557,0.8064912557601929,-0.15943582,0.025045475,202.97925,20.543688,-27.113863000000002,BSC
3043451994112.0,2.303563356399536,-3.51168155670166,-4.918946266174316,7.3095502853393555,0.807602047920227,-0.19730948,-0.005192355,202.86444,20.286875,-27.200134000000002,BSC
3043456974848.0,2.308563470840454,-3.5552031993865967,-4.851306438446045,7.323940277099609,0.8081291317939758,-0.19853121,-0.04153884,202.76512,20.049606,-27.285278,BSC
3043461955584.0,2.313563346862793,-3.5991201400756836,-4.782653331756592,7.3384013175964355,0.8080734610557556,-0.1881465,-0.06750060599999999,202.69937,19.866531,-27.322484999999997,BSC
3043466936320.0,2.318563222885132,-3.643275499343872,-4.713228702545166,7.352870464324951,0.8074302673339844,-0.19883664,-0.07971791,202.63997,19.708143,-27.350116999999997,BSC
3043471917056.0,2.3235628604888916,-3.6875112056732178,-4.6432600021362305,7.367284774780273,0.8061938881874084,-0.20433442,-0.09285152,202.60343999999998,19.593231,-27.36477,BSC
3043476897792.0,2.3285624980926514,-3.731675386428833,-4.572946071624756,7.381580829620361,0.8043584227561951,-0.20983220000000002,-0.092240654,202.56665,19.497598999999997,-27.376225,BSC
3043481878528.0,2.333562135696411,-3.7756223678588867,-4.502457618713379,7.395695209503174,0.8019232153892517,-0.19975294,-0.093462385,202.55467,19.417127999999998,-27.378513,BSC
3043486859264.0,2.338561773300171,-3.819218158721924,-4.431929588317871,7.409565448760986,0.7988917827606201,-0.20158553,-0.105068825,202.54443,19.350586,-27.374934999999997,BSC
3043491840000.0,2.3435611724853516,-3.8623392581939697,-4.361464023590088,7.423129081726074,0.795275866985321,-0.18173242,-0.12186762,202.5413,19.275446,-27.373137,BSC
3043496820736.0,2.3485605716705322,-3.9048824310302734,-4.291128635406494,7.436330795288086,0.7910953164100647,-0.15668693,-0.13988814,202.54321000000002,19.204060000000002,-27.370790000000003,BSC
3043501801472.0,2.353559970855713,-3.9467625617980957,-4.220959663391113,7.449121952056885,0.7863776683807373,-0.15210545,-0.16249016,202.54512,19.10414,-27.37098,BSC
3043507044352.0,2.3585593700408936,-3.987910032272339,-4.150965690612793,7.461459636688232,0.7811533808708191,-0.16096300000000002,-0.18875736,202.55571,19.007599,-27.371453999999996,BSC
3043512025088.0,2.363558769226074,-4.028270721435547,-4.081133842468262,7.473306655883789,0.7754532694816589,-0.12767084,-0.22082779,202.58105,18.912186,-27.380857000000002,BSC
3043517005824.0,2.368558406829834,-4.067827224731445,-4.0114240646362305,7.484631538391113,0.7693049311637878,-0.11209377,-0.26816985,202.61636000000001,18.826970000000006,-27.378390999999997,BSC
3043521986560.0,2.3735580444335938,-4.106588363647461,-3.9417786598205566,7.495408058166504,0.7627342343330383,-0.087659165,-0.312763,202.63597,18.688816,-27.40032,BSC
3043526967296.0,2.3785576820373535,-4.144598007202148,-3.8721275329589844,7.50562047958374,0.755761981010437,-0.073303826,-0.33383787,202.66396,18.567495,-27.420532,BSC
3043531948032.0,2.3835575580596924,-4.181931018829346,-3.802391290664673,7.515263080596924,0.7484065890312195,-0.070554934,-0.3390302,202.7023,18.453413,-27.440437,BSC
3043536928768.0,2.3885574340820312,-4.21867561340332,-3.7324976921081543,7.524338245391846,0.7406813502311707,-0.0693332,-0.33139440000000003,202.71605,18.319765,-27.495144,BSC
3043541909504.0,2.39355731010437,-4.254927635192871,-3.6623857021331787,7.5328569412231445,0.7325983047485352,-0.070249505,-0.31123585,202.72773999999998,18.188898000000002,-27.549671000000004,BSC
3043546890240.0,2.398557186126709,-4.290765762329102,-3.592034101486206,7.540842056274414,0.7241668105125427,-0.06780604,-0.26450464,202.70189,18.038654,-27.646340000000002,BSC
3043551870976.0,2.403557062149048,-4.3262457847595215,-3.521463394165039,7.548328399658203,0.7153943777084351,-0.084910266,-0.21227567,202.66608,17.89282,-27.73848,BSC
3043556851712.0,2.4085569381713867,-4.361386299133301,-3.4507360458374023,7.555366039276123,0.7062881588935852,-0.12858713,-0.15332718,202.5992,17.730079999999994,-27.852608,BSC
3043561832448.0,2.4135568141937256,-4.396157741546631,-3.3799543380737305,7.562020778656006,0.6968568563461304,-0.12125675400000001,-0.15760323,202.53992,17.576658,-27.972754,BSC
3043566813184.0,2.4185566902160645,-4.4305009841918945,-3.3092517852783203,7.56835412979126,0.6871182918548584,-0.14874569,-0.16340645,202.47235,17.433714000000002,-28.055887,BSC
3043571793920.0,2.4235565662384033,-4.464338302612305,-3.238786458969116,7.574416637420654,0.6770961284637451,-0.17501289,-0.14263703,202.39963999999998,17.295694,-28.14183400000001,BSC
3043576774656.0,2.4285566806793213,-4.497578144073486,-3.1687347888946533,7.580244541168213,0.6668204069137573,-0.18936823,-0.13103059,202.36874,17.178804,-28.16433300000001,BSC
3043581755392.0,2.4335567951202393,-4.530121803283691,-3.0992839336395264,7.585862159729004,0.6563247442245483,-0.19150625,-0.112704635,202.3292,17.055827999999998,-28.184958,BSC
3043586736128.0,2.4385569095611572,-4.561863422393799,-3.0306289196014404,7.591286659240723,0.6456447839736938,-0.18753563,-0.09560041,202.31412,16.963728,-28.17428,BSC
3043591716864.0,2.443557024002075,-4.592690467834473,-2.962968349456787,7.596530914306641,0.6348184943199158,-0.16218472,-0.08979719,202.30023,16.864601,-28.169302000000002,BSC
3043596697600.0,2.448557138442993,-4.622488498687744,-2.896500587463379,7.601606845855713,0.6238815188407898,-0.13591751,-0.076052725,202.3048,16.801985000000002,-28.145317,BSC
3043601678336.0,2.453557252883911,-4.651144981384277,-2.8314201831817627,7.606525897979736,0.6128641366958618,-0.11728613,-0.07574729,202.31444,16.740044,-28.125453999999998,BSC
3043606659072.0,2.45855712890625,-4.678552150726318,-2.767915725708008,7.611300468444824,0.6017931699752808,-0.08155051,-0.076052725,202.35178,16.708326,-28.09065,BSC
3043611639808.0,2.463557004928589,-4.7046098709106445,-2.706169843673706,7.615945339202881,0.5906913876533508,-0.025350908,-0.08796459400000001,202.39674,16.684483,-28.065766999999997,BSC
3043616620544.0,2.4685568809509277,-4.729226589202881,-2.6463539600372314,7.620481014251709,0.5795758366584778,0.014966198,-0.10079276599999999,202.45758,16.690714,-28.021815999999998,BSC
3043621601280.0,2.4735567569732666,-4.752322673797607,-2.5886247158050537,7.624938011169434,0.5684606432914734,0.051923547,-0.11911872,202.5284,16.698708,-27.990982000000002,BSC
3043626582016.0,2.4785566329956055,-4.773831844329834,-2.5331225395202637,7.629354953765869,0.5573592782020569,0.08979719,-0.14080444,202.62958,16.742239,-27.947964000000002,BSC
3043631562752.0,2.4835565090179443,-4.793702125549316,-2.4799718856811523,7.633780002593994,0.546283483505249,0.101098195,-0.14782938,202.73048,16.789254999999994,-27.907995,BSC
3043636543488.0,2.488556385040283,-4.811896324157715,-2.429276943206787,7.638267993927002,0.5352442860603333,0.12125675400000001,-0.15760323,202.8669,16.85892,-27.857481,BSC
3043641524224.0,2.493556261062622,-4.828393459320068,-2.3811168670654297,7.642879962921143,0.5242524147033691,0.12217305,-0.18570304,203.00635,16.930001999999998,-27.80322,BSC
3043646504960.0,2.498556137084961,-4.843184947967529,-2.3355441093444824,7.647678375244141,0.513320803642273,0.11698069400000001,-0.20341812,203.15526,17.004227,-27.7379,BSC
3043651747840.0,2.5035560131073,-4.856274127960205,-2.2925808429718018,7.652723789215088,0.5024644136428833,0.112704635,-0.21380283,203.30633999999998,17.076635,-27.672209000000002,BSC
3043656728576.0,2.5085556507110596,-4.86767578125,-2.2522239685058594,7.658075332641602,0.4917013645172119,0.103847094,-0.22999077,203.46219,17.133965,-27.594706,BSC
3043661709312.0,2.5135552883148193,-4.87741756439209,-2.2144482135772705,7.663787841796875,0.4810538589954376,0.09254608,-0.23671028,203.61368000000002,17.18038,-27.516579999999998,BSC
3043666690048.0,2.518554925918579,-4.885536193847656,-2.1792097091674805,7.669910430908203,0.4705457091331482,0.083383106,-0.22571471,203.7623,17.21005,-27.430086,BSC
3043671670784.0,2.523554563522339,-4.89207124710083,-2.146449565887451,7.676481246948242,0.460200697183609,0.062002823,-0.22479841,203.91025,17.231562,-27.33706500000001,BSC
3043676651520.0,2.5285542011260986,-4.897065162658691,-2.116096258163452,7.683526039123535,0.4500410556793213,0.038179077,-0.21655174,204.0482,17.237942,-27.241014,BSC
3043681632256.0,2.5335538387298584,-4.900561332702637,-2.0880677700042725,7.691053867340088,0.44008904695510864,0.028710667000000002,-0.20280726,204.18115,17.234423,-27.145239,BSC
3043686612992.0,2.538553476333618,-4.902604579925537,-2.0622756481170654,7.69905948638916,0.43036144971847534,0.017715093,-0.1908954,204.30783,17.228142000000002,-27.041072999999997,BSC
3043691593728.0,2.543552875518799,-4.903238773345947,-2.0386312007904053,7.707527160644531,0.4208703935146332,0.02565634,-0.18203785,204.43063,17.213985,-26.9422,BSC
3043696574464.0,2.5485522747039795,-4.902506351470947,-2.0170464515686035,7.716431617736816,0.4116208255290985,0.03481932,-0.17318029999999998,204.5459,17.202901999999998,-26.844578000000002,BSC
3043701555200.0,2.55355167388916,-4.900446891784668,-1.997436761856079,7.725740432739258,0.4026124179363251,0.04886922,-0.17623462,204.6621,17.193185999999994,-26.751675,BSC
3043706535936.0,2.558551073074341,-4.897097110748291,-1.9797204732894897,7.735416412353516,0.39384040236473083,0.064751714,-0.16982053,204.78172,17.195047,-26.662740000000003,BSC
3043711516672.0,2.5635502338409424,-4.892496585845947,-1.9638177156448364,7.74542760848999,0.3852948546409607,0.09132435,-0.17592919,204.90689,17.20694,-26.580371999999997,BSC
3043716497408.0,2.568549394607544,-4.886684894561768,-1.9496506452560425,7.7557454109191895,0.3769611716270447,0.105068825,-0.17012598,205.02979,17.228672,-26.49634600000001,BSC
3043721740288.0,2.5735485553741455,-4.879697322845459,-1.9371455907821655,7.766351699829102,0.3688221573829651,0.095294975,-0.16218472,205.15196,17.256075,-26.413953999999997,BSC
3043726721024.0,2.578547716140747,-4.871566295623779,-1.926232933998108,7.777238845825195,0.3608606159687042,0.08368854,-0.16035213,205.27316000000002,17.287561,-26.335842,BSC
3043731701760.0,2.5835468769073486,-4.862327575683594,-1.916847825050354,7.788400650024414,0.35305869579315186,0.076358154,-0.14446963,205.38843,17.32041,-26.25409,BSC
3043736944640.0,2.58854603767395,-4.852021217346191,-1.9089308977127075,7.799832820892334,0.34539994597435,0.05497787,-0.13194689,205.50812,17.35292,-26.151262,BSC
3043741925376.0,2.593545436859131,-4.8406901359558105,-1.9024343490600586,7.811527729034424,0.3378748297691345,0.049480084,-0.11453723,205.62024,17.376043,-26.054655,BSC
3043746906112.0,2.5985448360443115,-4.828381061553955,-1.897322416305542,7.823476314544678,0.33047592639923096,0.032986722999999996,-0.10659598599999999,205.71896,17.399504,-25.94932,BSC
3043751886848.0,2.6035444736480713,-4.815144062042236,-1.8935720920562744,7.835665225982666,0.32319918274879456,0.03268129,-0.09437868,205.81087,17.408901,-25.851046,BSC
3043756867584.0,2.608544111251831,-4.801033020019531,-1.8911716938018799,7.84807825088501,0.31604310870170593,0.025350908,-0.084910266,205.89983999999998,17.425566,-25.748568,BSC
3043762110464.0,2.61354398727417,-4.786096572875977,-1.8901124000549316,7.860703945159912,0.3090026080608368,-0.004581489,-0.073303826,205.9807,17.445301,-25.643463,BSC
3043767091200.0,2.618544101715088,-4.770380020141602,-1.8903831243515015,7.873534202575684,0.30207160115242004,-0.049785517,-0.08032878,206.06073,17.458464000000006,-25.533548,BSC
3043772071936.0,2.623544216156006,-4.753922939300537,-1.8919657468795776,7.886551380157471,0.2952418923377991,-0.0983493,-0.07086037,206.1341,17.48997,-25.425528,BSC
3043777052672.0,2.628544330596924,-4.736762523651123,-1.8948345184326172,7.899725437164307,0.28850212693214417,-0.11056661,-0.049785517,206.20377,17.524775,-25.318222,BSC
3043782033408.0,2.633544683456421,-4.718934059143066,-1.8989676237106323,7.913011074066162,0.28184184432029724,-0.09193522,-0.052534412999999995,206.28101999999998,17.56294,-25.197912,BSC
3043787014144.0,2.638545036315918,-4.700473308563232,-1.904348373413086,7.926349639892578,0.27525031566619873,-0.055283304000000005,-0.040927973,206.34715,17.604134,-25.085917000000002,BSC
3043791994880.0,2.643545389175415,-4.681414604187012,-1.910960078239441,7.9396796226501465,0.2687200903892517,-0.0061086523,-0.04917465,206.42322,17.645266,-24.9823,BSC
3043796975616.0,2.648545980453491,-4.66179084777832,-1.9187839031219482,7.95294189453125,0.2622475326061249,0.032070424,-0.04734206,206.49419,17.683712,-24.890376999999997,BSC
3043801956352.0,2.6535465717315674,-4.641629219055176,-1.9277970790863037,7.966086387634277,0.255829781293869,0.056505035999999995,-0.05375614,206.58278,17.749538,-24.814909,BSC
3043806937088.0,2.6585471630096436,-4.620949745178223,-1.9379723072052002,7.979073524475098,0.24946549534797668,0.08002335,-0.045814894,206.6683,17.805607000000006,-24.752728,BSC
3043811917824.0,2.6635477542877197,-4.599778175354004,-1.9492790699005127,7.991868495941162,0.24315619468688965,0.12095132,-0.038789943,206.76111,17.863728,-24.701696,BSC
3043816898560.0,2.668548345565796,-4.578154563903809,-1.961684226989746,8.004436492919922,0.23690436780452728,0.13041973,-0.04062254,206.851,17.920773999999994,-24.649647,BSC
3043821879296.0,2.673548936843872,-4.55613374710083,-1.9751477241516113,8.016749382019043,0.23071174323558807,0.1685988,-0.03940081,206.95592,17.977139,-24.605547,BSC
3043826860032.0,2.6785495281219482,-4.533784866333008,-1.9896212816238403,8.028786659240723,0.22457927465438843,0.21013765,-0.04276056599999999,207.0616,18.031015,-24.565251999999997,BSC
3043832102912.0,2.6835501194000244,-4.511190891265869,-2.005048990249634,8.040534019470215,0.21850800514221191,0.2321288,-0.031154128,207.15585,18.085403,-24.54516,BSC
3043837083648.0,2.6885509490966797,-4.488440036773682,-2.021369218826294,8.051982879638672,0.21249733865261078,0.24312437,-0.025350908,207.25342,18.143320000000006,-24.532398,BSC
3043842064384.0,2.693551778793335,-4.465625762939453,-2.0385167598724365,8.063124656677246,0.2065461277961731,0.25076020000000004,-0.008857545999999999,207.33989,18.192830999999998,-24.543077,BSC
3043847045120.0,2.6985526084899902,-4.442841529846191,-2.0564239025115967,8.073951721191406,0.20065149664878845,0.24312437,0.01038471,207.42084,18.24474,-24.552773000000002,BSC
3043852025856.0,2.7035534381866455,-4.420180320739746,-2.075021982192993,8.084453582763672,0.1948128640651703,0.22937989,0.029932396,207.48605,18.285408,-24.578896,BSC
3043857006592.0,2.70855450630188,-4.397733211517334,-2.094243049621582,8.094616889953613,0.1890312135219574,0.21471913,0.043676864,207.5443,18.327347,-24.603073000000002,BSC
3043861987328.0,2.7135555744171143,-4.375585556030273,-2.114022970199585,8.104424476623535,0.18331117928028107,0.19486602,0.04642576,207.59438,18.355885,-24.639523,BSC
3043866968064.0,2.7185566425323486,-4.35381555557251,-2.134303331375122,8.11385440826416,0.17765747010707855,0.18997909,0.052534412999999995,207.63783,18.384491,-24.67653,BSC
3043871948800.0,2.723557710647583,-4.332492351531982,-2.15503191947937,8.122881889343262,0.17207618057727814,0.17256944,0.06505715,207.67542,18.408337,-24.718454,BSC
3043876929536.0,2.7285585403442383,-4.311676025390625,-2.1761624813079834,8.131484985351562,0.1665731966495514,0.17043139999999998,0.06688975,207.71402,18.433477,-24.761356,BSC
3043881910272.0,2.7335593700408936,-4.291418552398682,-2.197650671005249,8.139642715454102,0.1611543595790863,0.15790866,0.076052725,207.73831,18.45727,-24.807476,BSC
3043886891008.0,2.738560199737549,-4.271764278411865,-2.2194511890411377,8.147336959838867,0.15582574903964996,0.14752395,0.08124508,207.76203999999998,18.479174,-24.852032,BSC
3043891871744.0,2.743561029434204,-4.252752304077148,-2.2415215969085693,8.154553413391113,0.150594100356102,0.14355333,0.09437868,207.77774,18.501392000000006,-24.899807,BSC
3043896852480.0,2.7485618591308594,-4.23441743850708,-2.263824462890625,8.16127872467041,0.1454651951789856,0.13103059,0.105374254,207.7895,18.523169,-24.941623999999997,BSC
3043901833216.0,2.7535626888275146,-4.216791152954102,-2.2863237857818604,8.167500495910645,0.14044339954853058,0.13225232,0.11484267,207.8033,18.552198,-24.984679999999997,BSC
3043906813952.0,2.75856351852417,-4.199899673461914,-2.308983087539673,8.173210144042969,0.13553421199321747,0.13805555,0.12339478,207.8124,18.574972,-25.025661,BSC
3043911794688.0,2.763564348220825,-4.183767795562744,-2.3317630290985107,8.178401947021484,0.13074152171611786,0.14263703,0.119729586,207.82971,18.603699,-25.07969,BSC
3043917037568.0,2.7685651779174805,-4.168420314788818,-2.354619026184082,8.183075904846191,0.12607045471668243,0.15882497,0.11942416,207.84451,18.622529999999998,-25.13814,BSC
3043922018304.0,2.773566246032715,-4.1538825035095215,-2.3775010108947754,8.187240600585938,0.12152285128831863,0.1563815,0.11484267,207.86665,18.654486,-25.197697,BSC
3043926999040.0,2.778567314147949,-4.140183925628662,-2.4003500938415527,8.190912246704102,0.11709977686405182,0.14844026,0.113926366,207.88782,18.67839,-25.258685999999997,BSC
3043931979776.0,2.7835683822631836,-4.1273579597473145,-2.423100709915161,8.194114685058594,0.11280042678117752,0.15332718,0.112399206,207.9054,18.696941,-25.331137,BSC
3043936960512.0,2.788569450378418,-4.11544132232666,-2.4456825256347656,8.196870803833008,0.10862353444099426,0.15515977,0.10629055,207.92235,18.71425,-25.398212,BSC
3043941941248.0,2.7935705184936523,-4.104474067687988,-2.4680206775665283,8.199204444885254,0.10456699132919312,0.15118915,0.105374254,207.93405,18.720982,-25.474846,BSC
3043946921984.0,2.7985715866088867,-4.094496726989746,-2.4900360107421875,8.201143264770508,0.1006290540099144,0.15577064,0.11362094,207.94505,18.725832,-25.552406,BSC
3043951902720.0,2.803572654724121,-4.085550308227539,-2.5116465091705322,8.202714920043945,0.0968102216720581,0.15057829,0.11911872,207.94326999999998,18.712234,-25.64176,BSC
3043956883456.0,2.8085737228393555,-4.077673435211182,-2.5327677726745605,8.203944206237793,0.09311006218194962,0.1337795,0.12003502,207.93900000000002,18.702747,-25.727041,BSC
3043961864192.0,2.81357479095459,-4.070903301239014,-2.553314447402954,8.204854011535645,0.08953097462654114,0.12522738,0.12797627,207.92285,18.67191,-25.823593,BSC
3043966844928.0,2.818575620651245,-4.065278053283691,-2.573200225830078,8.205466270446777,0.08607514202594757,0.10751228,0.122478485,207.90726,18.648834,-25.909317,BSC
3043971825664.0,2.8235764503479004,-4.0608344078063965,-2.5923399925231934,8.205801010131836,0.08274513483047485,0.09285152,0.12767084,207.88708,18.607803,-26.009605,BSC
3043976806400.0,2.8285772800445557,-4.057603359222412,-2.610652208328247,8.20588207244873,0.07954412698745728,0.08521569999999999,0.12858713,207.86852,18.567978,-26.103193,BSC
3043981787136.0,2.833578109741211,-4.055607318878174,-2.628060817718506,8.205733299255371,0.07647478580474854,0.07574729,0.13561209,207.83327,18.516993,-26.204666,BSC
3043986767872.0,2.838578701019287,-4.0548553466796875,-2.644498825073242,8.205377578735352,0.07353918254375458,0.06597344599999999,0.12736541,207.80178999999998,18.467373000000002,-26.299815999999996,BSC
3043991748608.0,2.8435792922973633,-4.055345058441162,-2.659907817840576,8.204835891723633,0.07073888182640076,0.060170225999999986,0.13775012,207.75461,18.404405999999998,-26.400644,BSC
3043996729344.0,2.8485798835754395,-4.057067394256592,-2.674238920211792,8.204132080078125,0.06807681918144226,0.040011674,0.12980886,207.71331999999998,18.343104999999998,-26.489797999999997,BSC
3044001710080.0,2.8535804748535156,-4.060007572174072,-2.687452554702759,8.203290939331055,0.06555505096912384,0.026572637000000003,0.12858713,207.65697,18.27297,-26.575909999999997,BSC
3044006690816.0,2.8585808277130127,-4.064141273498535,-2.6995184421539307,8.202338218688965,0.06317643076181412,0.02565634,0.13439035,207.60103,18.198501999999998,-26.65783900000001,BSC
3044011671552.0,2.8635811805725098,-4.069437026977539,-2.7104153633117676,8.201300621032715,0.06094469875097275,0.01160644,0.13927728,207.54141,18.12085,-26.732466,BSC
3044016652288.0,2.868581533432007,-4.075852870941162,-2.7201297283172607,8.200197219848633,0.05886289104819298,0.0012217305,0.13164146,207.48526,18.045485,-26.805248,BSC
3044021633024.0,2.873581886291504,-4.083339214324951,-2.728654384613037,8.199040412902832,0.056934475898742676,-0.00030543262000000003,0.12950343,207.42708000000002,17.961637,-26.872751,BSC
3044026613760.0,2.878582000732422,-4.091841220855713,-2.7359848022460938,8.197839736938477,0.05516364797949791,-0.0015271631,0.12583824,207.3718,17.879442,-26.935001,BSC
3044031594496.0,2.88358211517334,-4.10129976272583,-2.7421183586120605,8.196603775024414,0.05354951322078705,-0.0061086523,0.1255328,207.31094,17.802578,-26.990461,BSC
3044036837376.0,2.888582229614258,-4.1116533279418945,-2.7470529079437256,8.195340156555176,0.05209003761410713,-0.0070249503,0.124005646,207.25314,17.719759,-27.044695,BSC
3044041818112.0,2.893582344055176,-4.122837543487549,-2.7507877349853516,8.194056510925293,0.050781991332769394,-0.012217305,0.12767084,207.1937,17.639039999999994,-27.0937,BSC
3044046798848.0,2.8985824584960938,-4.134787082672119,-2.7533230781555176,8.192760467529297,0.04961986839771271,-0.019242255,0.1160644,207.14023999999998,17.565197,-27.139165999999996,BSC
3044051779584.0,2.9035825729370117,-4.147435665130615,-2.754659652709961,8.191459655761719,0.04859473928809166,-0.02565634,0.1133155,207.08372,17.49501,-27.18352,LYI
3044056760320.0,2.9085824489593506,-4.160717487335205,-2.7547996044158936,8.190160751342773,0.04769875481724739,-0.025961772999999997,0.10140363,207.03455,17.425895999999998,-27.224632,LYI
3044061741056.0,2.9135823249816895,-4.174566268920898,-2.7537460327148438,8.188870429992676,0.04692048951983452,-0.032070424,0.099571034,206.98291,17.370379999999994,-27.262281,LYI
3044066721792.0,2.9185822010040283,-4.188918113708496,-2.7515053749084473,8.187594413757324,0.04624898359179497,-0.043066,0.10170906,206.93524,17.308996,-27.298677,LYI
3044071702528.0,2.923582077026367,-4.203710556030273,-2.7480874061584473,8.186335563659668,0.04567582160234451,-0.044593163,0.08796459400000001,206.89427,17.254456,-27.333479999999998,LYI
3044076683264.0,2.928581953048706,-4.218882083892822,-2.7435059547424316,8.185094833374023,0.04519291967153549,-0.05100725,0.079107046,206.84303,17.182413,-27.351685999999997,LYI
3044081664000.0,2.933581829071045,-4.234372615814209,-2.737778425216675,8.183871269226074,0.04479445517063141,-0.057421334000000004,0.06688975,206.79803,17.108627,-27.367376,LYI
3044086906880.0,2.938581705093384,-4.250122547149658,-2.730924367904663,8.18266773223877,0.0444747619330883,-0.061086524,0.06078109,206.75372,17.03584,-27.380903000000004,LYI
3044091887616.0,2.9435815811157227,-4.266073226928711,-2.722966432571411,8.18149471282959,0.044227875769138336,-0.07086037,0.054061572999999995,206.71318,16.964628,-27.389458,LYI
3044096868352.0,2.9485814571380615,-4.282166957855225,-2.713930368423462,8.180355072021484,0.04404887557029724,-0.0693332,0.041233405,206.67271000000002,16.888222,-27.396896,LYI
3044101849088.0,2.9535813331604004,-4.298347473144531,-2.7038445472717285,8.179242134094238,0.04393249377608299,-0.06536258,0.026572637000000003,206.6353,16.817848,-27.401356,LYI
3044106829824.0,2.9585814476013184,-4.314558982849121,-2.6927433013916016,8.178143501281738,0.043872982263565063,-0.064446285,0.016493361,206.60368,16.743378,-27.396784000000004,LYI
3044111810560.0,2.9635815620422363,-4.330747604370117,-2.680668830871582,8.177047729492188,0.04386269301176071,-0.06872234,0.0076358155,206.57715,16.675998999999994,-27.390564,LYI
3044117053440.0,2.9685816764831543,-4.346860885620117,-2.667670488357544,8.175941467285156,0.0438937172293663,-0.049480084,-0.0015271631,206.55727,16.609798,-27.392673,LYI
3044122034176.0,2.9735817909240723,-4.362850189208984,-2.6538031101226807,8.174813270568848,0.04395691677927971,-0.040317107000000005,-0.021685716,206.54285,16.553448,-27.389006,LYI
3044127014912.0,2.9785821437835693,-4.378669738769531,-2.639125347137451,8.173653602600098,0.044041309505701065,-0.03573562,-0.03481932,206.5339,16.50522,-27.385586,LYI
3044131995648.0,2.9835824966430664,-4.394278049468994,-2.62369966506958,8.172456741333008,0.04413743317127228,-0.029626964,-0.03940081,206.53015,16.458231,-27.383865000000004,LYI
3044136976384.0,2.9885828495025635,-4.4096360206604,-2.6075899600982666,8.171220779418945,0.04423372820019722,-0.016187929,-0.05100725,206.53635,16.429407,-27.381090000000004,LYI
3044141957120.0,2.9935832023620605,-4.424709320068359,-2.59086012840271,8.16994857788086,0.044320326298475266,-0.010079277,-0.046731193,206.53925,16.394203,-27.37890800000001,LYI
3044146937856.0,2.9985837936401367,-4.439466953277588,-2.5735740661621094,8.168644905090332,0.0443875752389431,-0.0067195175,-0.047647487,206.55138,16.37283,-27.37392800000001,LYI
3044151918592.0,3.003584384918213,-4.453881740570068,-2.555795907974243,8.16731071472168,0.04442628473043442,-0.009468411,-0.049785517,206.56265,16.35138,-27.369112,LYI
3044157161472.0,3.008584976196289,-4.467931270599365,-2.537592649459839,8.165946006774902,0.044431332498788834,-0.005497787,-0.04153884,206.57259,16.323002,-27.364677,LYI
3044162142208.0,3.0135858058929443,-4.481596946716309,-2.519033670425415,8.16455078125,0.04439827427268028,-0.01740966,-0.03970624,206.58327,16.302887,-27.354346999999997,LYI
3044167122944.0,3.0185866355895996,-4.494864463806152,-2.5001907348632812,8.163125991821289,0.044324588030576706,-0.014966198,-0.048258353,206.59471000000002,16.282734,-27.346320000000002,LYI
3044172103680.0,3.023587465286255,-4.507723808288574,-2.481137275695801,8.161673545837402,0.04420884698629379,-0.025045475,-0.04184427,206.5987,16.262285000000002,-27.333253999999997,LYI
3044177084416.0,3.02858829498291,-4.520167827606201,-2.461945056915283,8.160192489624023,0.0440484955906868,-0.028405233999999998,-0.054367005999999996,206.6101,16.246107000000002,-27.320631,LYI
3044182065152.0,3.0335891246795654,-4.532190322875977,-2.442681312561035,8.158682823181152,0.043843090534210205,-0.018325957,-0.058337633,206.61751999999998,16.222754000000002,-27.310404,LYI
3044187045888.0,3.0385899543762207,-4.54378604888916,-2.423410177230835,8.157142639160156,0.04359238222241402,-0.016493361,-0.05681047,206.6298,16.22115,-27.296103999999996,LYI
3044192026624.0,3.043590784072876,-4.5549468994140625,-2.404193639755249,8.155572891235352,0.04329569637775421,-0.015882496,-0.06841691,206.64807,16.220670000000002,-27.28284600000001,LYI
3044197007360.0,3.048591375350952,-4.565662860870361,-2.38509202003479,8.153976440429688,0.04294903948903084,-0.025045475,-0.07269296,206.66315,16.227089000000007,-27.268738,LYI
3044201988096.0,3.0535919666290283,-4.575922012329102,-2.3661632537841797,8.152361869812012,0.04254994913935661,-0.025350908,-0.061086524,206.6776,16.227073999999998,-27.257761,LYI
3044206968832.0,3.0585925579071045,-4.58571195602417,-2.3474626541137695,8.150740623474121,0.042096275836229324,-0.025961772999999997,-0.0693332,206.6951,16.236248,-27.236788,LYI
3044211949568.0,3.0635931491851807,-4.595024108886719,-2.329043388366699,8.149127006530762,0.041586849838495255,-0.023823743999999997,-0.06536258,206.70547,16.240007000000002,-27.219051,LYI
3044216930304.0,3.0685935020446777,-4.603851318359375,-2.3109567165374756,8.147536277770996,0.04102056846022606,-0.020158553,-0.069027774,206.72603999999998,16.251652,-27.191519,LYI
3044221911040.0,3.073593854904175,-4.612183570861816,-2.2932541370391846,8.145986557006836,0.04039565846323967,-0.019547688,-0.0693332,206.7441,16.262852,-27.165012,LYI
