acc_x,acc_y,acc_z,gyro_x,gyro_y,gyro_z,label
1.016121153,-0.390815828,0.332193454,0.754230238,-0.40800873,-1.236809755,0
1.027845628,-0.402540303,0.300928188,0.517734316,-0.128368282,-1.031207444,0
1.047386419,-0.449438202,0.214948705,0.26525894,0.152337463,-0.560878842,0
0.984855887,-0.398632145,0.222765022,-0.210928795,0.238626516,-0.099072616,0
1.020029311,-0.34000977,0.168050806,-0.425053482,0.092680834,0.214124686,0
0.965315095,-0.25012213,0.164142648,-0.251410079,-0.200808474,0.345156211,0
0.980947728,-0.207132389,0.234489497,-0.086289053,-0.353145938,0.397888409,0
0.984855887,-0.265754763,0.242305813,0.344623562,-0.388300737,0.590174508,0
0.957498779,-0.281387396,0.285295554,0.345688859,-0.38031101,0.61414369,0
0.949682462,-0.285295554,0.289203713,0.143815088,-0.293489309,0.482046868,0
0.894968246,-0.289203713,0.261846605,-0.059656629,-0.155000706,0.266324237,0
0.894968246,-0.257938447,0.281387396,-0.212526741,-0.023436533,0.104399101,0
0.894968246,-0.242305813,0.285295554,-0.096942022,0.026632424,0.095344077,0
0.922325354,-0.222765022,0.308744504,0.062319871,0.087886998,0.048471011,0
0.902784563,-0.25012213,0.269662921,0.24075711,0.137423306,-0.066048411,0
0.910600879,-0.25012213,0.289203713,0.230636789,0.158729245,-0.21625528,0
0.97703957,-0.242305813,0.304836346,0.26845483,0.159261893,-0.286564879,0
0.996580362,-0.308744504,0.222765022,0.86874966,0.018110048,0.022903884,0
0.988764045,-0.367366878,0.199316072,1.07808051,-0.204004365,0.185361669,0
0.941866146,-0.265754763,0.242305813,0.76754645,-0.115584719,0.02450183,0
0.945774304,-0.300928188,0.257938447,0.715879548,-0.044209823,-0.133694767,0
0.930141671,-0.27357108,0.285295554,0.268987479,-0.104399101,-0.441565584,0
0.910600879,-0.246213972,0.289203713,0.24768154,-0.050601605,-0.564074733,0
0.965315095,-0.320468979,0.277479238,0.385104846,-0.097474671,-0.508146643,0
0.984855887,-0.27357108,0.300928188,0.38723544,-0.134760064,-0.295619903,0
0.973131412,-0.269662921,0.297020029,0.486840704,-0.208265553,-0.02450183,0
0.894968246,-0.22667318,0.308744504,0.498026322,-0.291891363,0.180567832,0
0.867611138,-0.179775281,0.343917929,0.755828183,-0.289760769,0.405878137,0
0.902784563,-0.211040547,0.34000977,0.818680703,-0.291891363,0.262595697,0
0.898876404,-0.277479238,0.27357108,0.764350559,-0.327046163,-0.088419647,0
0.918417196,-0.406448461,0.242305813,0.311599357,-0.426651427,-0.433043209,0
0.945774304,-0.496336102,0.13678554,-0.085223756,-0.381908955,-0.255671267,0
1.129457743,-0.570591109,0.152418173,-0.281771042,-0.36646215,0.104931749,0
0.961406937,-0.312652662,0.054714216,-0.137955955,-0.687649179,1.478632161,0
0.801172447,-0.238397655,0.125061065,0.254073322,-0.812288922,0.417063754,0
0.801172447,-0.238397655,0.125061065,0.254073322,-0.812288922,0.417063754,0
0.95359062,-0.179775281,0.269662921,0.450620608,-0.779797365,-0.601892775,0
0.95359062,-0.179775281,0.269662921,0.450620608,-0.779797365,-0.601892775,0
0.832437714,-0.289203713,0.175867123,0.699900094,-0.656222919,-1.472773028,0
0.832437714,-0.289203713,0.175867123,0.699900094,-0.656222919,-1.472773028,0
1.031753786,-0.156326331,0.175867123,0.131031524,-0.00692443,-1.442944714,0
1.031753786,-0.156326331,0.175867123,0.131031524,-0.00692443,-1.442944714,0
1.215437225,-0.343917929,0.527601368,-1.716726029,-0.484177462,1.595282177,0
0.922325354,-0.234489497,0.422081094,-1.098321152,-0.058591332,2.111418548,0
0.777723498,-0.050806058,0.328285296,-0.505483401,0.112921476,1.273029851,0
0.930141671,-0.125061065,0.187591597,0.616274283,0.134227415,-0.566205327,0
1.274059599,-0.062530532,0.27357108,-0.141684494,0.629057847,-1.413649048,0
1.207620909,-0.277479238,0.234489497,2.231797103,0.051134253,-0.40481284,0
1.207620909,-0.277479238,0.234489497,2.231797103,0.051134253,-0.40481284,0
0.898876404,-0.472887152,0.078163166,2.162020153,-0.039948635,-0.129966227,0
0.898876404,-0.472887152,0.078163166,2.162020153,-0.039948635,-0.129966227,0
0.910600879,-0.375183195,-0.019540791,-0.243953001,0.0175774,-0.696704203,0
0.879335613,-0.22667318,0.031265266,0.319589084,-0.302011684,-0.288695472,0
0.879335613,-0.22667318,0.031265266,0.319589084,-0.302011684,-0.288695472,0
0.891060088,-0.594040059,-0.027357108,1.032805389,-0.471393899,0.218385874,0
0.891060088,-0.594040059,-0.027357108,1.032805389,-0.471393899,0.218385874,0
1.09037616,-0.52369321,0.11333659,-1.296466384,-0.403747543,-0.206134959,0
1.09037616,-0.52369321,0.11333659,-1.296466384,-0.403747543,-0.206134959,0
1.254518808,-0.543234001,0.238397655,-1.891434728,-0.4010843,-0.302544333,0
1.211529067,-0.402540303,0.371275037,-2.689874789,-0.645569949,0.873543496,0
1.391304348,-0.316560821,0.6370298,-2.628620215,-0.665810591,1.276225742,0
1.391304348,-0.316560821,0.6370298,-2.628620215,-0.665810591,1.276225742,0
1.055202736,-0.027357108,0.332193454,0.678061506,0.846378424,-0.495895729,0
1.102100635,-0.175867123,-0.117244748,0.581652133,0.596033641,-0.69084507,0
0.891060088,-0.50024426,-0.039081583,1.30818465,-0.124639743,-0.070309598,0
0.891060088,-0.50024426,-0.039081583,1.30818465,-0.124639743,-0.070309598,0
0.859794822,-0.242305813,0.062530532,0.674332967,-0.002663242,-0.676463561,0
0.859794822,-0.242305813,0.062530532,0.674332967,-0.002663242,-0.676463561,0
0.891060088,-0.281387396,0.097703957,0.427716724,-0.048471011,-0.81282157,0
0.891060088,-0.281387396,0.097703957,0.427716724,-0.048471011,-0.81282157,0
1.13727406,-0.511968735,0.222765022,-2.392656941,-0.302011684,0.556617654,0
1.277967758,-0.343917929,0.492427943,-1.870128789,-0.606153962,1.366243334,0
1.277967758,-0.343917929,0.492427943,-1.870128789,-0.606153962,1.366243334,0
1.20371275,-0.351734245,0.351734245,-0.809093031,-0.644504653,2.255766284,0
1.098192477,-0.297020029,0.422081094,-0.783525904,-0.374984525,2.760184388,0
1.098192477,-0.297020029,0.422081094,-0.783525904,-0.374984525,2.760184388,0
1.004396678,-0.293111871,0.293111871,-1.170228696,-0.213059389,2.615304003,0
0.941866146,-0.160234489,0.179775281,-0.878337332,-0.162457784,1.614457522,0
0.785539814,-0.042989741,0.277479238,-0.466067414,-0.183763723,1.097788503,0
0.84025403,-0.066438691,0.125061065,0.162990433,0.035687448,0.378180416,0
0.84025403,-0.066438691,0.125061065,0.162990433,0.035687448,0.378180416,0
0.805080606,-0.070346849,0.152418173,0.620002823,0.232767383,-0.67326767,0
1.063019052,-0.08988764,0.214948705,0.820811297,0.326513514,-2.063480185,0
1.184171959,-0.281387396,0.214948705,1.071688728,0.444228827,-3.547438831,0
1.539814362,-0.531509526,-0.031265266,-0.161925136,0.80589714,-3.747714657,0
1.00048852,-0.265754763,0.121152907,1.360916849,0.410671973,-0.764350559,0
0.922325354,-0.312652662,0.109428432,1.846159608,0.473524493,-0.090017592,0
0.95359062,-0.402540303,0.054714216,1.582498614,0.423988185,-0.229571492,0
0.945774304,-0.347826087,0.058622374,0.893784138,0.291358715,-0.489503947,0
0.97703957,-0.371275037,0.003908158,0.49536308,0.271650721,-0.517201667,0
0.95359062,-0.38690767,-0.062530532,0.074038138,0.235963274,-0.356874477,0
1.262335125,-0.414264778,0.074255007,-0.049536308,-0.324915569,-0.140619197,0
1.262335125,-0.414264778,0.074255007,-0.049536308,-0.324915569,-0.140619197,0
1.156814851,-0.574499267,0.132877382,-0.624796659,-0.765415856,-0.196547287,0
1.156814851,-0.574499267,0.132877382,-0.624796659,-0.765415856,-0.196547287,0
1.070835369,-0.433805569,0.254030288,-1.412583751,-0.793646225,0.533181122,0
1.133365901,-0.351734245,0.371275037,-1.284748117,-0.757958777,1.510058421,0
1.133365901,-0.351734245,0.371275037,-1.284748117,-0.757958777,1.510058421,0
1.446018564,-0.293111871,0.47679531,-0.916155374,-0.705226578,2.146573347,0
1.121641426,-0.343917929,0.34000977,-0.613078393,-0.205602311,2.882693537,0
1.121641426,-0.343917929,0.34000977,-0.613078393,-0.205602311,2.882693537,0
1.121641426,-0.343917929,0.34000977,-0.613078393,-0.205602311,2.882693537,0
0.934049829,-0.285295554,0.117244748,-1.39181046,0.019707994,2.531145544,0
0.691744016,-0.152418173,0.019540791,0.515603722,-0.30360963,-0.345156211,0
0.801172447,-0.179775281,0.109428432,0.841051939,-0.072972841,-1.494078967,0
0.801172447,-0.179775281,0.109428432,0.841051939,-0.072972841,-1.494078967,0
1.563263312,-0.410356619,0.254030288,-0.955038712,0.767013801,-3.510153438,0
1.078651685,-0.156326331,0.289203713,0.12570504,0.498026322,-1.693289496,0
0.988764045,-0.257938447,0.11333659,1.258648342,0.780330013,-0.475122438,0
0.945774304,-0.355642404,0.070346849,1.749217586,0.786189146,-0.228506195,0
0.945774304,-0.355642404,0.070346849,1.749217586,0.786189146,-0.228506195,0
0.930141671,-0.297020029,0.015632633,1.145726866,0.496428377,-0.539040255,0
0.992672203,-0.429897411,-0.148510015,1.177153126,0.267389534,-0.715879548,0
0.957498779,-0.441621886,-0.13678554,0.86182523,0.019707994,-0.65941881,0
1.098192477,-0.480703468,-0.187591597,0.42558613,-0.17790459,-0.517201667,0
1.094284319,-0.429897411,0.027357108,0.538507606,-0.53371377,-0.184296372,0
1.2271617,-0.586223742,0.050806058,0.393094573,-0.622666065,0.111323531,0
1.129457743,-0.554958476,0.222765022,-0.619470174,-0.712683657,0.660484107,0
1.207620909,-0.394723986,0.445530044,-0.741446675,-0.602425423,2.038445707,0
1.160723009,-0.371275037,0.324377137,-1.057307219,-0.214657335,2.371351002,0
1.043478261,-0.105520274,0.171958964,1.128682115,0.096409374,-1.442944714,0
1.020029311,-0.261846605,0.160234489,1.947895466,0.215722632,-2.43846471,0
0.969223254,-0.289203713,0.066438691,1.758805258,0.593370399,-0.760089371,0
0.996580362,-0.382999511,0.042989741,1.725781053,0.37338658,-0.856498745,0
1.047386419,-0.425989253,-0.046897899,1.102582339,0.135825361,-1.198459065,0
1.043478261,-0.406448461,0,1.007238263,-0.021838587,-1.110039418,0
1.043478261,-0.406448461,0,1.007238263,-0.021838587,-1.110039418,0
1.008304836,-0.519785051,-0.121152907,0.887925005,-0.116117367,-0.705226578,0
1.008304836,-0.519785051,-0.121152907,0.887925005,-0.116117367,-0.705226578,0
1.008304836,-0.519785051,-0.121152907,0.887925005,-0.116117367,-0.705226578,0
1.016121153,-0.50024426,-0.050806058,0.459675632,-0.197612584,-0.289760769,0
1.176355642,-0.52369321,0.039081583,0.172045457,-0.296152551,-0.00692443,0
1.176355642,-0.52369321,0.039081583,0.172045457,-0.296152551,-0.00692443,0
1.242794333,-0.617489008,0.109428432,-0.444761475,-0.480981571,0.161392487,0
1.242794333,-0.617489008,0.109428432,-0.444761475,-0.480981571,0.161392487,0
1.141182218,-0.531509526,0.257938447,-1.188338744,-0.527321988,0.906567701,0
1.141182218,-0.531509526,0.257938447,-1.188338744,-0.527321988,0.906567701,0
1.285784074,-0.336101612,0.406448461,-1.607533092,-0.297750496,2.187054631,0
1.360039082,-0.324377137,0.175867123,0.699367445,0.531583176,-2.828896041,0
1.043478261,-0.324377137,0.128969223,0.834127509,0.550225873,-2.041641598,0
1.043478261,-0.324377137,0.128969223,0.834127509,0.550225873,-2.041641598,0
1.039570103,-0.320468979,0.11333659,0.998715887,0.651429083,-1.533494954,0
0.973131412,-0.367366878,0.050806058,1.274627796,0.364864204,-0.906567701,0
0.902784563,-0.457254519,-0.058622374,0.899643271,0.325448217,-0.658353513,0
0.898876404,-0.425989253,-0.066438691,0.438369693,0.193351396,-0.385637495,0
0.898876404,-0.425989253,-0.066438691,0.438369693,0.193351396,-0.385637495,0
0.926233512,-0.410356619,0.019540791,0.77447088,0.026099775,0.263128346,0
0.926233512,-0.410356619,0.019540791,0.77447088,0.026099775,0.263128346,0
1.379579873,-0.437713727,0.070346849,0.190688153,-0.239691813,0.455414445,0
1.379579873,-0.437713727,0.070346849,0.190688153,-0.239691813,0.455414445,0
1.473375672,-0.199316072,0.355642404,1.467446544,-0.782993256,2.625424324,0
1.465559355,-0.234489497,0.297020029,1.455728277,-0.434641154,3.496304578,0
1.465559355,-0.234489497,0.297020029,1.455728277,-0.434641154,3.496304578,0
1.285784074,-0.144601856,0.222765022,0.197079935,-0.010120321,3.388709586,0
1.285784074,-0.144601856,0.222765022,0.197079935,-0.010120321,3.388709586,0
1.11382511,-0.085979482,0.11333659,-0.65941881,0.057526035,2.646730263,0
1.215437225,-0.293111871,0.281387396,1.991039993,-1.357720958,-3.357283326,0
1.508549096,-0.332193454,0.343917929,1.603804553,-0.881000575,-3.820687498,0
1.508549096,-0.332193454,0.343917929,1.603804553,-0.881000575,-3.820687498,0
1.399120664,-0.375183195,0.425989253,1.834441342,-0.816550109,-3.311475558,0
0.984855887,-0.52369321,0.25012213,1.934046606,-0.50921194,-2.012345932,0
0.906692721,-0.375183195,0.234489497,1.631502273,0.010120321,-0.776068825,0
0.824621397,-0.382999511,0.234489497,2.049098676,0.234897977,-0.02077329,0
0.789447973,-0.437713727,0.148510015,1.789166221,0.409074027,0.173110754,0
0.789447973,-0.437713727,0.148510015,1.789166221,0.409074027,0.173110754,0
0.812896922,-0.425989253,0.070346849,1.086602885,0.741446675,0.11878061,0
0.812896922,-0.425989253,0.070346849,1.086602885,0.741446675,0.11878061,0
0.945774304,-0.398632145,-0.046897899,0.451153257,1.031740093,0.28603223,0
1.13727406,-0.441621886,-0.320468979,0.128368282,1.128149466,0.703628633,0
1.172447484,-0.121152907,-0.347826087,-0.343558265,0.768611747,1.080211104,0
1.168539326,-0.171958964,0.125061065,1.108441473,-0.494297783,0.623198714,0
0.906692721,-0.285295554,0.203224231,0.378180416,-0.656222919,0.168316918,0
0.992672203,-0.36345872,0.218856864,0.159794542,0.100670561,1.322566159,0
0.988764045,-0.336101612,0.160234489,0.453816499,0.10812764,1.359318903,0
0.961406937,-0.418172936,-0.054714216,0.532648473,0.069244302,1.227754731,0
0.961406937,-0.418172936,-0.054714216,0.532648473,0.069244302,1.227754731,0
0.898876404,-0.437713727,-0.13678554,0.730261057,-0.046340417,1.057307219,0
0.855886663,-0.508060576,-0.238397655,0.526256691,-0.256736564,0.585380672,0
0.738641915,-0.472887152,-0.140693698,0.420792294,-0.506016049,0.036752745,0
0.738641915,-0.472887152,-0.140693698,0.420792294,-0.506016049,0.036752745,0
0.672203224,-0.492427943,-0.11333659,0.434108506,-0.635449628,-0.453816499,0
0.672203224,-0.492427943,-0.11333659,0.434108506,-0.635449628,-0.453816499,0
0.648754275,-0.449438202,0.003908158,0.646102598,-0.640243465,-0.972083464,0
0.648754275,-0.449438202,0.003908158,0.646102598,-0.640243465,-0.972083464,0
0.762090865,-0.402540303,0.117244748,0.715346899,-0.61733958,-1.546278518,0
0.762090865,-0.402540303,0.117244748,0.715346899,-0.61733958,-1.546278518,0
0.988764045,-0.375183195,0.199316072,0.929471586,-0.545432037,-2.253103041,0
1.199804592,-0.449438202,0.22667318,0.930536883,-0.445826772,-2.818243071,0
1.281875916,-0.551050318,0.105520274,-0.063385168,-0.144880385,-2.725029589,0
1.281875916,-0.551050318,0.105520274,-0.063385168,-0.144880385,-2.725029589,0
1.109916952,-0.300928188,0.261846605,-0.726532517,-0.022371236,-1.512189015,0
1.109916952,-0.300928188,0.261846605,-0.726532517,-0.022371236,-1.512189015,0
1.055202736,-0.242305813,0.183683439,0.285499582,0.079364623,0.158196597,0
1.055202736,-0.242305813,0.183683439,0.285499582,0.079364623,0.158196597,0
0.871519297,-0.218856864,0.105520274,0.557682951,0.235430625,0.814952164,0
0.871519297,-0.218856864,0.105520274,0.557682951,0.235430625,0.814952164,0
0.828529555,-0.254030288,-0.007816317,0.085756404,0.41173727,0.459142984,0
0.859794822,-0.238397655,0.02344895,-0.508679292,0.490569244,-0.335568538,0
0.875427455,-0.328285296,-0.027357108,-1.036533929,0.612545744,-0.616806932,0
0.875427455,-0.328285296,-0.027357108,-1.036533929,0.612545744,-0.616806932,0
0.926233512,-0.359550562,-0.050806058,-1.81047216,0.727597814,-0.69084507,0
1.109916952,-0.332193454,-0.031265266,-2.338859446,0.668473834,-0.72919576,0
1.360039082,-0.257938447,0.13678554,-2.383601917,0.251942728,-0.951310173,0
1.098192477,-0.297020029,0.11333659,-1.971331999,-0.531050528,-0.821343946,0
1.098192477,-0.297020029,0.11333659,-1.971331999,-0.531050528,-0.821343946,0
1.098192477,-0.297020029,0.11333659,-1.971331999,-0.531050528,-0.821343946,0
1.11382511,-0.265754763,0.22667318,-1.896761213,-1.077015213,-0.629590495,0
1.11382511,-0.265754763,0.22667318,-1.896761213,-1.077015213,-0.629590495,0
1.106008793,-0.277479238,0.422081094,-0.48843865,-1.588357747,0.123574446,0
1.106008793,-0.277479238,0.422081094,-0.48843865,-1.588357747,0.123574446,0
1.004396678,-0.347826087,0.457254519,-0.371788634,-1.328957941,0.661016755,0
1.004396678,-0.347826087,0.457254519,-0.371788634,-1.328957941,0.661016755,0
0.992672203,-0.316560821,0.504152418,-0.743577269,-0.881533223,0.946516337,0
0.992672203,-0.316560821,0.504152418,-0.743577269,-0.881533223,0.946516337,0
0.934049829,-0.285295554,0.515876893,-0.903904459,-0.40800873,1.010966802,0
0.934049829,-0.285295554,0.515876893,-0.903904459,-0.40800873,1.010966802,0
0.922325354,-0.277479238,0.488519785,-1.088733479,0.064450465,0.899110623,0
0.97703957,-0.218856864,0.414264778,-1.20698144,0.712151009,0.829333673,0
1.043478261,-0.207132389,0.398632145,-0.818148055,0.950244876,0.862890527,0
1.043478261,-0.207132389,0.398632145,-0.818148055,0.950244876,0.862890527,0
0.984855887,-0.222765022,0.320468979,-0.78139531,1.342806801,0.768079098,0
0.984855887,-0.222765022,0.320468979,-0.78139531,1.342806801,0.768079098,0
1.207620909,-0.324377137,0.144601856,-1.626708437,1.63629611,0.52678934,0
1.234978017,-0.242305813,0.13678554,-2.092243203,1.459989465,0.746240511,0
1.262335125,-0.183683439,-0.238397655,-1.340676207,1.114833254,1.498340155,0
1.106008793,-0.117244748,-0.257938447,-1.18620815,0.907632998,0.917220671,0
0.945774304,-0.152418173,0.070346849,0.732924299,-0.329176756,-1.563855917,0
1.066927211,-0.261846605,0.152418173,1.191534634,-0.422390239,-1.959081084,0
0.984855887,-0.422081094,0.140693698,0.041013932,0.1219765,-1.846159608,0
1.129457743,-0.355642404,0.199316072,-0.145413033,0.366994798,-1.291672547,0
1.023937469,-0.465070835,0.101612115,-0.415998458,0.37338658,-0.862357878,0
1.023937469,-0.465070835,0.101612115,-0.415998458,0.37338658,-0.862357878,0
0.914509038,-0.38690767,0.093795799,-0.867684363,0.360070368,-0.318523787,0
0.914509038,-0.38690767,0.093795799,-0.867684363,0.360070368,-0.318523787,0
1.051294577,-0.359550562,0.101612115,-1.144661569,0.217853226,0.255138619,0
1.051294577,-0.359550562,0.101612115,-1.144661569,0.217853226,0.255138619,0
1.207620909,-0.218856864,0.293111871,-1.06050311,-0.197079935,0.796842116,0
1.242794333,-0.144601856,0.38690767,0.03835069,-0.472459196,2.100765578,0
1.231069858,-0.121152907,0.382999511,0.316925842,-0.241822407,2.984429395,0
1.231069858,-0.121152907,0.382999511,0.316925842,-0.241822407,2.984429395,0
1.106008793,-0.050806058,0.312652662,0.077766677,0.063385168,3.077642878,0
0.973131412,0.035173425,0.285295554,-0.166718972,0.088952295,2.408103747,0
0.234489497,-0.84025403,0.347826087,0.211994092,-0.272716018,-0.274846612,0
0.168050806,-0.851978505,0.496336102,-0.014914157,-0.029295666,-0.05592809,0
0.164142648,-0.848070347,0.50024426,-0.006391782,-0.031958908,-0.05219955,0
0.164142648,-0.855886663,0.484611627,-0.00692443,-0.027697721,-0.051134253,0
0.175867123,-0.86370298,0.492427943,0.001597945,-0.020240642,-0.054862793,0
0.168050806,-0.855886663,0.492427943,-0.005326485,-0.026632424,-0.051134253,0
0.171958964,-0.855886663,0.492427943,-0.003728539,-0.043677175,-0.044742472,0
0.175867123,-0.848070347,0.492427943,-0.017044751,-0.031958908,-0.050068956,0
0.175867123,-0.844162189,0.504152418,0.012250915,-0.056993387,-0.036752745,0
0.199316072,-0.836345872,0.52369321,0.040481284,-0.056993387,-0.050601605,0
0.218856864,-0.871519297,0.551050318,0.093213483,-0.135825361,-0.002130594,0
0.211040547,-0.824621397,0.511968735,0.091615537,-0.196547287,0.037818042,0
0.269662921,-0.824621397,0.418172936,0.007989727,-0.403747543,0.04900366,0
0.25012213,-0.824621397,0.441621886,0.052732199,-0.689247124,0.23010414,0
0.27357108,-0.734733757,0.406448461,0.144347736,-0.842649885,0.222114413,0
0.27357108,-0.769907181,0.515876893,0.268987479,-0.951842822,0.026099775,0
0.246213972,-0.738641915,0.527601368,0.102268507,-0.86502112,-0.265791588,0
0.281387396,-0.808988764,0.594040059,0.025567127,-0.626927253,-0.444761475,0
0.269662921,-0.785539814,0.6370298,0.05219955,-0.368060095,-0.284434285,0
0.27357108,-0.777723498,0.609672692,0.188557559,-0.224245007,-0.070309598,0
0.316560821,-0.797264289,0.586223742,0.269520127,-0.198145232,0.085223756,0
0.359550562,-0.879335613,0.472887152,0.403747543,-0.167251621,0.227973547,0
0.347826087,-0.851978505,0.465070835,0.251942728,-0.323850272,0.37338658,0
0.332193454,-0.769907181,0.492427943,-0.013316212,-0.484710111,0.391496628,0
0.293111871,-0.676111383,0.508060576,-0.004261188,-0.480448923,0.357939774,0
0.304836346,-0.695652174,0.535417684,0.128368282,-0.413867864,0.264726291,0
0.304836346,-0.695652174,0.515876893,0.186959614,-0.434108506,0.205069662,0
0.355642404,-0.812896922,0.570591109,0.232234734,-0.478850977,0.167784269,0
0.336101612,-0.754274548,0.511968735,0.047405714,-0.563542085,0.201341123,0
0.332193454,-0.715192965,0.496336102,0.28603223,-0.743577269,0.250877431,0
0.27357108,-0.594040059,0.38690767,0.499624268,-0.921481859,0.298815793,0
0.281387396,-0.527601368,0.433805569,0.720673384,-1.165434859,0.09427878,0
0.359550562,-0.547142159,0.468978994,0.811756273,-1.404594024,-0.211994092,0
0.461162677,-0.472887152,0.508060576,0.82667043,-1.664526479,-0.567803272,0
0.699560332,-0.50024426,0.656570591,1.205383495,-1.926589527,-1.010966802,0
0.812896922,-0.382999511,0.640937958,1.361982146,-2.263223362,-1.359318903,0
1.039570103,-0.347826087,0.676111383,1.695952739,-2.46989097,-1.798221245,0
1.211529067,-0.316560821,0.719101124,1.67784269,-2.603053088,-2.237656236,0
1.238886175,-0.359550562,0.680019541,1.298064329,-2.281333411,-2.409169044,0
1.148998534,-0.308744504,0.691744016,0.710553063,-1.550539705,-2.02353155,0
0.97703957,-0.222765022,0.609672692,0.475122438,-0.711085712,-1.07435197,0
0.926233512,-0.164142648,0.551050318,0.614676338,-0.077766677,-0.243953001,0
0.855886663,-0.13678554,0.496336102,0.877272035,0.131564173,0.225310304,0
0.805080606,-0.140693698,0.465070835,0.915090077,0.182165778,0.428782021,0
0.824621397,-0.125061065,0.453346361,0.759556723,0.226375601,0.500156916,0
0.914509038,-0.093795799,0.465070835,0.549693224,0.361135665,0.576858296,0
1.109916952,-0.050806058,0.472887152,0.400019003,0.534246419,0.731859002,0
1.191988276,-0.164142648,0.289203713,0.078831974,0.613611041,0.623731362,0
1.563263312,-0.300928188,-0.47679531,-1.934046606,0.156598651,0.351015344,0
1.13727406,0.179775281,-0.187591597,1.376896303,-0.604556017,-0.272716018,0
1.231069858,-0.433805569,0.125061065,1.092462018,-0.188557559,-0.322784975,0
0.961406937,-0.183683439,0.375183195,0.018642697,-0.766481153,-0.65569027,0
0.844162189,-0.101612115,0.308744504,0.168316918,-0.806962437,-0.49536308,0
0.812896922,-0.168050806,0.22667318,0.708955118,-0.663147349,0.046340417,0
0.832437714,-0.175867123,0.187591597,0.872478199,-0.459142984,0.239159164,0
0.910600879,-0.238397655,0.144601856,0.439967639,-0.27218337,-0.119313258,0
0.910600879,-0.316560821,0.117244748,-0.346754156,-0.079897271,-0.433575857,0
0.980947728,-0.332193454,0.121152907,-0.970485518,0.126770337,-0.476187735,0
0.937957987,-0.347826087,0.109428432,-1.309782595,0.242355055,-0.241822407,0
1.012212995,-0.13678554,0.187591597,-0.6977695,0.210396147,1.548409111,0
0.891060088,0.015632633,0.269662921,0.490569244,0.140086548,1.063166352,0
0.984855887,-0.031265266,0.25012213,0.9592999,0.010652969,0.499091619,0
0.984855887,-0.031265266,0.25012213,0.9592999,0.010652969,0.499091619,0
1.102100635,-0.078163166,0.281387396,1.084472291,-0.129433579,-0.442630881,0
1.160723009,-0.015632633,0.039081583,-1.010966802,0.230636789,1.601673959,0
0.797264289,-0.085979482,0.019540791,1.100451746,-0.746240511,-0.574727703,0
0.86370298,-0.171958964,0.062530532,1.146792163,-0.995519996,-1.620849304,0
1.258426966,-0.22667318,0.492427943,0.187492263,-0.137423306,1.989442047,0
1.106008793,-0.218856864,0.375183195,-0.16032719,0.465534766,2.166813989,0
0.828529555,-0.25012213,0.007816317,-0.434108506,0.759556723,1.339078262,0
0.765999023,-0.257938447,-0.058622374,-0.255671267,0.366994798,0.74304462,0
0.765999023,-0.257938447,-0.058622374,-0.255671267,0.366994798,0.74304462,0
0.715192965,-0.191499756,-0.015632633,0.148608924,-0.110790882,0.079364623,0
0.715192965,-0.191499756,-0.015632633,0.148608924,-0.110790882,0.079364623,0
0.730825598,-0.187591597,0.062530532,0.810158328,-0.423988185,-0.677528858,0
0.683927699,-0.265754763,0.351734245,1.790231518,-0.167784269,-0.403214894,0
0.88715193,-0.38690767,0.269662921,0.386702792,0.397888409,-0.986464972,0
1.094284319,-0.011724475,0.13678554,-0.560346194,-0.816017461,-1.046121601,0
0.898876404,-0.293111871,0.179775281,0.071374895,-1.333751777,-0.167251621,0
1.195896434,-0.02344895,0.328285296,0.614676338,0.731326354,2.011813283,0
1.293600391,0.195407914,0.25012213,0.566205327,1.125486224,1.591553638,0
0.883243771,-0.168050806,-0.508060576,-0.965159033,1.734303429,-0.670071779,0
0.97703957,-0.34000977,0.039081583,0.476187735,-0.211994092,-1.19313258,0
0.949682462,-0.394723986,0.039081583,0.227973547,-0.298815793,-0.905502404,0
1.047386419,-0.402540303,0.054714216,0.128368282,-0.31745849,-0.61041515,0
1.168539326,-0.445530044,0.101612115,-0.03142626,-0.235430625,-0.338764429,0
1.410845139,-0.531509526,0.144601856,-0.957701955,-0.22317971,-0.318523787,0
1.410845139,-0.531509526,0.144601856,-0.957701955,-0.22317971,-0.318523787,0
0.777723498,-0.293111871,0.144601856,-2.764445576,-0.069244302,0.904437107,0
1.684416219,-0.218856864,0.52369321,-2.97217848,-1.245864779,-0.054862793,0
1.145090376,-0.13678554,0.320468979,0.647167895,-0.961963143,2.933295142,0
1.145090376,-0.13678554,0.320468979,0.647167895,-0.961963143,2.933295142,0
1.305324866,-0.214948705,0.437713727,-1.055176625,1.113767957,3.147952476,0
1.305324866,-0.214948705,0.437713727,-1.055176625,1.113767957,3.147952476,0
1.027845628,-0.011724475,0.218856864,-1.708736302,0.681257397,2.133257135,0
0.77381534,-0.058622374,-0.074255007,-0.460740929,0.708422469,0.810690976,0
0.894968246,-0.039081583,-0.101612115,-0.075103435,0.605621314,-0.207200256,0
0.894968246,-0.039081583,-0.101612115,-0.075103435,0.605621314,-0.207200256,0
0.910600879,-0.093795799,0.082071324,1.083939643,0.464469469,-1.497274858,0
0.910600879,-0.093795799,0.082071324,1.083939643,0.464469469,-1.497274858,0
0.836345872,-0.351734245,-0.050806058,1.694354793,0.684985936,-2.409169044,0
0.836345872,-0.351734245,-0.050806058,1.694354793,0.684985936,-2.409169044,0
1.063019052,-0.418172936,-0.078163166,0.098539968,1.074884619,-3.017986249,0
1.336590132,-0.203224231,0.164142648,-1.395539,1.025348311,-3.199619378,0
1.336590132,-0.203224231,0.164142648,-1.395539,1.025348311,-3.199619378,0
1.188080117,-0.468978994,-0.031265266,0.623731362,0.773405583,-1.814733348,0
1.188080117,-0.468978994,-0.031265266,0.623731362,0.773405583,-1.814733348,0
0.97703957,-0.312652662,-0.019540791,0.564607382,0.272716018,-0.522528152,0
0.918417196,-0.375183195,-0.046897899,0.72919576,0.056993387,-0.105997046,0
1.520273571,-0.379091353,0.211040547,-0.379778361,-0.793646225,-0.004261188,0
1.324865657,-0.031265266,0.554958476,-0.922547156,-1.328957941,1.722052514,0
1.129457743,-0.128969223,0.441621886,0.794178873,-1.080743752,2.533808787,0
0.785539814,-0.08988764,0.054714216,-0.276444558,0.493765135,0.242355055,0
0.891060088,-0.093795799,0.02344895,0.131031524,0.365396853,-0.498026322,0
0.891060088,-0.093795799,0.02344895,0.131031524,0.365396853,-0.498026322,0
1.313141182,-0.031265266,0.222765022,0.722803978,0.174708699,-1.540419384,0
1.313141182,-0.031265266,0.222765022,0.722803978,0.174708699,-1.540419384,0
1.152906693,-0.304836346,-0.015632633,1.307119353,0.219451171,-2.503447824,0
1.25061065,-0.195407914,0.125061065,-0.653027028,0.297217848,-2.328206476,0
0.992672203,-0.214948705,0.117244748,2.13858362,0.041546581,-0.656222919,0
0.97703957,-0.343917929,0.097703957,0.849574315,-0.058591332,-1.238940349,0
0.996580362,-0.328285296,0.082071324,0.531583176,-0.021838587,-1.173957235,0
0.902784563,-0.375183195,0.050806058,0.688714476,0.080962568,-0.698302148,0
0.930141671,-0.422081094,0.015632633,0.31053406,0.135825361,-0.274313964,0
1.031753786,-0.375183195,0.050806058,-0.030360963,0.101735858,-0.040481284,0
1.246702491,-0.422081094,0.027357108,0.927340992,0.357407125,-1.999562368,0
1.125549585,-0.50024426,-0.02344895,-0.34888475,0.455414445,-2.123669462,0
0.97703957,-0.527601368,-0.132877382,-1.30126022,0.211461444,-1.281552226,0
1.164631168,-0.543234001,-0.02344895,-2.374546893,-0.10120321,-1.261844233,0
1.164631168,-0.543234001,-0.02344895,-2.374546893,-0.10120321,-1.261844233,0
1.098192477,-0.488519785,0.078163166,-2.990288528,-0.621600768,-1.192067283,0
1.043478261,-0.418172936,0.144601856,-3.343434466,-1.116963848,-0.813886867,0
1.246702491,-0.289203713,0.332193454,-3.032367758,-1.714595435,-0.417063754,0
1.031753786,-0.050806058,0.574499267,-1.391277812,-0.276444558,1.809406863,0
1.008304836,-0.050806058,0.297020029,-0.963028439,1.571312996,0.650896434,0
1.008304836,-0.050806058,0.297020029,-0.963028439,1.571312996,0.650896434,0
1.059110894,-0.070346849,0.254030288,-0.40800873,1.753478774,0.071907544,0
1.117733268,-0.269662921,0.003908158,-0.752632293,2.057621052,-0.311066708,0
1.406936981,-0.36345872,-0.234489497,-1.901022401,2.146040698,-0.281238394,0
1.442110405,-0.164142648,-0.218856864,-1.819527184,1.424302017,0.176306645,0
1.043478261,-0.148510015,-0.320468979,-0.933200125,0.860759933,0.05592809,0
0.930141671,-0.039081583,-0.105520274,-1.079678455,0.532115825,-0.418129051,0
0.930141671,-0.039081583,-0.105520274,-1.079678455,0.532115825,-0.418129051,0
0.934049829,-0.066438691,0.011724475,-0.531583176,0.250877431,-0.826137782,0
0.934049829,-0.066438691,0.011724475,-0.531583176,0.250877431,-0.826137782,0
0.894968246,-0.11333659,0.082071324,-0.030360963,0.061254574,-1.181946962,0
0.894968246,-0.11333659,0.082071324,-0.030360963,0.061254574,-1.181946962,0
0.934049829,-0.164142648,0.132877382,0.417596403,-0.084158459,-1.449336495,0
0.934049829,-0.164142648,0.132877382,0.417596403,-0.084158459,-1.449336495,0
0.945774304,-0.211040547,0.152418173,0.558748248,-0.19867788,-1.675712097,0
0.945774304,-0.211040547,0.152418173,0.558748248,-0.19867788,-1.675712097,0
0.996580362,-0.289203713,0.109428432,0.626927253,-0.166718972,-1.788633573,0
0.996580362,-0.289203713,0.109428432,0.626927253,-0.166718972,-1.788633573,0
1.094284319,-0.316560821,0.148510015,0.395225167,-0.152870112,-1.649612321,0
1.094284319,-0.316560821,0.148510015,0.395225167,-0.152870112,-1.649612321,0
1.20371275,-0.320468979,0.179775281,0.395225167,-0.152870112,-1.649612321,0
1.20371275,-0.320468979,0.179775281,0.451685905,-0.122509149,-1.187806095,0
1.20371275,-0.320468979,0.179775281,0.451685905,-0.122509149,-1.187806095,0
1.274059599,-0.425989253,0.187591597,0.384572198,-0.087886998,-0.770209692,0
0.980947728,-0.422081094,0.175867123,-0.180567832,-0.038883339,-0.153935409,0
0.980947728,-0.422081094,0.175867123,-0.180567832,-0.038883339,-0.153935409,0
0.820713239,-0.332193454,0.132877382,-0.615741635,0.156598651,0.704161282,0
1.004396678,-0.289203713,0.164142648,-0.937461313,0.169914863,1.02215242,0
1.195896434,-0.222765022,0.265754763,-1.129214763,-0.159794542,0.928938937,0
1.195896434,-0.222765022,0.265754763,-1.129214763,-0.159794542,0.928938937,0
1.207620909,-0.105520274,0.38690767,-0.913492131,-0.346221508,1.111637363,0
1.207620909,-0.105520274,0.38690767,-0.913492131,-0.346221508,1.111637363,0
1.207620909,-0.183683439,0.168050806,-0.157663948,-0.075103435,1.805145676,0
1.207620909,-0.183683439,0.168050806,-0.157663948,-0.075103435,1.805145676,0
1.051294577,-0.191499756,0.261846605,0.199210529,0.05592809,2.276539574,0
1.051294577,-0.191499756,0.261846605,0.199210529,0.05592809,2.276539574,0
1.078651685,-0.222765022,0.121152907,-0.617872229,0.133162118,2.076796397,0
1.078651685,-0.222765022,0.121152907,-0.617872229,0.133162118,2.076796397,0
0.808988764,-0.164142648,0.179775281,-0.172045457,-0.219451171,0.518799613,0
0.808988764,-0.164142648,0.179775281,-0.172045457,-0.219451171,0.518799613,0
0.812896922,-0.183683439,0.132877382,0.113454125,-0.231702086,-0.284966933,0
0.812896922,-0.183683439,0.132877382,0.113454125,-0.231702086,-0.284966933,0
0.883243771,-0.207132389,0.183683439,0.480981571,-0.26525894,-0.829333673,0
0.883243771,-0.207132389,0.183683439,0.480981571,-0.26525894,-0.829333673,0
1.035661944,-0.218856864,0.242305813,0.654092325,-0.196547287,-1.567051808,0
1.035661944,-0.218856864,0.242305813,0.654092325,-0.196547287,-1.567051808,0
0.918417196,-0.402540303,0.070346849,0.635982277,0.085756404,-2.356436845,0
0.918417196,-0.402540303,0.070346849,0.635982277,0.085756404,-2.356436845,0
1.039570103,-0.425989253,0.039081583,-0.387768088,0.276977206,-2.692005383,0
1.039570103,-0.425989253,0.039081583,-0.387768088,0.276977206,-2.692005383,0
1.184171959,-0.289203713,0.156326331,-0.678594155,0.030360963,-2.27440898,0
1.184171959,-0.289203713,0.156326331,-0.678594155,0.030360963,-2.27440898,0
1.125549585,-0.234489497,0.140693698,0.482046868,-0.057526035,-1.099386449,0
1.125549585,-0.234489497,0.140693698,0.482046868,-0.057526035,-1.099386449,0
1.059110894,-0.332193454,0.070346849,0.900708568,0.144347736,-0.19867788,0
1.059110894,-0.332193454,0.070346849,0.900708568,0.144347736,-0.19867788,0
0.945774304,-0.289203713,0.062530532,0.538507606,0.189090208,0.112388828,0
0.945774304,-0.289203713,0.062530532,0.538507606,0.189090208,0.112388828,0
0.902784563,-0.218856864,0.066438691,0.341427671,0.134227415,0.208265553,0
0.902784563,-0.218856864,0.066438691,0.341427671,0.134227415,0.208265553,0
0.894968246,-0.22667318,0.058622374,0.43251056,0.122509149,0.177371942,0
0.894968246,-0.22667318,0.058622374,0.43251056,0.122509149,0.177371942,0
0.906692721,-0.246213972,0.035173425,0.22690825,0.162990433,0.040481284,0
0.906692721,-0.246213972,0.035173425,0.22690825,0.162990433,0.040481284,0
0.934049829,-0.230581339,0.027357108,-0.058591332,0.200275826,-0.09427878,0
0.957498779,-0.230581339,0.035173425,-0.137955955,0.176839293,-0.151272166,0
1.00048852,-0.242305813,0.042989741,-0.23383268,0.113986773,-0.213592038,0
1.00048852,-0.242305813,0.042989741,-0.23383268,0.113986773,-0.213592038,0
1.012212995,-0.234489497,0.074255007,-0.260997752,0.034089502,-0.213592038,0
1.012212995,-0.234489497,0.074255007,-0.260997752,0.034089502,-0.213592038,0
1.125549585,-0.218856864,0.125061065,-0.238093868,-0.087886998,-0.224245007,0
1.125549585,-0.218856864,0.125061065,-0.238093868,-0.087886998,-0.224245007,0
1.293600391,-0.25012213,0.191499756,-0.133162118,-0.284434285,-0.327046163,0
1.293600391,-0.25012213,0.191499756,-0.133162118,-0.284434285,-0.327046163,0
0.867611138,-0.355642404,0.152418173,-0.43943499,-0.391496628,-0.144880385,0
0.867611138,-0.355642404,0.152418173,-0.43943499,-0.391496628,-0.144880385,0
0.855886663,-0.34000977,0.175867123,-1.110039418,-0.211994092,0.353145938,0
0.855886663,-0.34000977,0.175867123,-1.110039418,-0.211994092,0.353145938,0
1.188080117,-0.265754763,0.297020029,-1.415246993,-0.282303691,0.660484107,0
1.188080117,-0.265754763,0.297020029,-1.415246993,-0.282303691,0.660484107,0
1.36394724,-0.152418173,0.445530044,-1.070623431,-0.492167189,0.869282308,0
0.969223254,-0.218856864,0.22667318,0.029295666,0.217853226,1.908479479,0
0.926233512,-0.164142648,0.195407914,-0.804831843,0.346754156,1.676244745,0
1.148998534,-0.156326331,0.320468979,2.013943877,-0.395757816,-1.63256757,0
1.199804592,-0.261846605,0.078163166,1.41631229,-0.108660289,-1.571312996,0
1.199804592,-0.261846605,0.078163166,1.41631229,-0.108660289,-1.571312996,0
1.066927211,-0.093795799,0.359550562,3.26513514,-0.879935278,0.065515762,0
1.020029311,-0.093795799,0.379091353,3.050477806,-1.310847892,0.340895023,0
1.059110894,-0.078163166,0.402540303,2.954068432,-1.418975532,0.025567127,0
1.020029311,-0.179775281,0.398632145,2.891215912,-1.453597683,-0.462871523,0
1.023937469,-0.222765022,0.332193454,2.452846219,-1.187806095,-0.663147349,0
0.922325354,-0.230581339,0.242305813,1.898359158,-0.833062212,-0.648233192,0
0.922325354,-0.230581339,0.242305813,1.898359158,-0.833062212,-0.648233192,0
0.848070347,-0.238397655,0.187591597,1.512189015,-0.646635246,-0.616274283,0
0.848070347,-0.238397655,0.187591597,1.512189015,-0.646635246,-0.616274283,0
0.973131412,-0.34000977,0.031265266,2.231797103,-0.339829726,-0.586445969,0
0.973131412,-0.34000977,0.031265266,2.231797103,-0.339829726,-0.586445969,0
0.851978505,-0.668295066,-0.414264778,1.209112034,0.122509149,-0.853302854,0
0.805080606,-0.418172936,-0.195407914,0.153935409,0.084158459,-0.621600768,0
0.879335613,-0.457254519,-0.156326331,0.952908118,-0.178437239,0.014914157,0
0.910600879,-0.38690767,-0.066438691,0.376049822,0.204004365,0.597098938,0
0.824621397,-0.355642404,-0.093795799,-0.152337463,0.514538425,0.68392064,0
0.824621397,-0.355642404,-0.093795799,-0.152337463,0.514538425,0.68392064,0
0.836345872,-0.277479238,-0.019540791,-0.478850977,0.601892775,0.707889821,0
0.836345872,-0.277479238,-0.019540791,-0.478850977,0.601892775,0.707889821,0
0.922325354,-0.218856864,0.070346849,-0.480981571,0.557682951,0.539040255,0
0.922325354,-0.218856864,0.070346849,-0.480981571,0.557682951,0.539040255,0
1.117733268,-0.261846605,0.144601856,-0.413335215,0.557150303,0.145945682,0
1.117733268,-0.261846605,0.144601856,-0.413335215,0.557150303,0.145945682,0
1.313141182,-0.25012213,0.211040547,-0.967822276,0.507613995,-0.058058684,0
1.313141182,-0.25012213,0.211040547,-0.967822276,0.507613995,-0.058058684,0
1.31704934,-0.179775281,0.222765022,-0.982203785,0.416531106,0.36646215,0
1.31704934,-0.179775281,0.222765022,-0.982203785,0.416531106,0.36646215,0
1.195896434,-0.13678554,0.191499756,-0.763285262,0.506548698,1.019489178,0
1.195896434,-0.13678554,0.191499756,-0.763285262,0.506548698,1.019489178,0
1.129457743,-0.093795799,0.097703957,-0.357407125,0.624264011,1.571845644,0
1.129457743,-0.093795799,0.097703957,-0.357407125,0.624264011,1.571845644,0
0.965315095,-0.035173425,0.128969223,0.370723337,0.361135665,1.575574184,0
0.965315095,-0.035173425,0.128969223,0.370723337,0.361135665,1.575574184,0
0.836345872,-0.082071324,0.078163166,0.988595566,0.00692443,1.034403335,0
0.836345872,-0.082071324,0.078163166,0.988595566,0.00692443,1.034403335,0
0.801172447,-0.117244748,0.082071324,1.070090783,-0.344623562,0.176839293,0
0.801172447,-0.117244748,0.082071324,1.070090783,-0.344623562,0.176839293,0
0.871519297,-0.109428432,0.168050806,1.253854506,-0.643439356,-0.604023369,0
0.871519297,-0.109428432,0.168050806,1.253854506,-0.643439356,-0.604023369,0
1.004396678,-0.132877382,0.254030288,1.665591776,-0.893251489,-1.259713639,0
1.004396678,-0.132877382,0.254030288,1.665591776,-0.893251489,-1.259713639,0
1.106008793,-0.168050806,0.304836346,2.035249816,-0.999781184,-1.545213221,0
1.129457743,-0.211040547,0.343917929,2.20463203,-1.008836208,-1.589955692,0
1.133365901,-0.261846605,0.343917929,2.100765578,-0.877272035,-1.40938786,0
1.133365901,-0.261846605,0.343917929,2.100765578,-0.877272035,-1.40938786,0
1.098192477,-0.242305813,0.379091353,1.888238837,-0.716944845,-1.082341697,0
1.051294577,-0.25012213,0.34000977,1.867465547,-0.498558971,-0.66634324,0
1.051294577,-0.25012213,0.34000977,1.867465547,-0.498558971,-0.66634324,0
1.051294577,-0.25012213,0.34000977,1.867465547,-0.498558971,-0.66634324,0
1.016121153,-0.22667318,0.355642404,1.844561663,-0.386702792,-0.429847318,0
1.117733268,-0.246213972,0.382999511,1.608598389,-0.20240642,-0.329176756,0
0.95359062,-0.289203713,0.054714216,-0.127302985,0.643439356,0.966756979,0
1.031753786,0.027357108,-0.019540791,-0.03142626,0.629057847,1.814733348,0
0.898876404,0.050806058,-0.070346849,0.91402478,0.334503241,1.787035627,0
1.086468002,-0.324377137,0.08988764,0.525724043,-0.231702086,-1.009901505,0
1.234978017,-0.554958476,0.152418173,-0.912959483,-0.422390239,-1.267170718,0
1.234978017,-0.554958476,0.152418173,-0.912959483,-0.422390239,-1.267170718,0
0.805080606,-0.355642404,0.140693698,-1.508993124,-0.282836339,-0.028230369,0
1.141182218,-0.211040547,0.343917929,-0.561411491,-0.179502535,1.803015082,0
1.012212995,-0.195407914,0.293111871,-0.886327059,0.238093868,2.012345932,0
0.937957987,-0.171958964,0.218856864,-1.021087123,0.309468763,1.875987922,0
0.918417196,-0.13678554,0.140693698,-0.972616112,0.221581765,1.502068694,0
0.828529555,-0.093795799,0.117244748,-0.50228751,0.066048411,0.973681409,0
0.828529555,-0.093795799,0.117244748,-0.50228751,0.066048411,0.973681409,0
1.094284319,-0.121152907,0.11333659,0.474057141,0.039415987,-1.730042241,0
0.902784563,-0.242305813,0.101612115,1.079678455,-0.063917817,-0.508679292,0
0.965315095,-0.379091353,-0.007816317,0.116117367,0.068179005,-0.380843658,0
0.965315095,-0.379091353,-0.007816317,0.116117367,0.068179005,-0.380843658,0
1.008304836,-0.332193454,0.046897899,-0.11878061,-0.00692443,-0.224777656,0
1.008304836,-0.332193454,0.046897899,-0.11878061,-0.00692443,-0.224777656,0
1.184171959,-0.336101612,0.128969223,-0.148608924,-0.088419647,-0.147543627,0
1.184171959,-0.336101612,0.128969223,-0.148608924,-0.088419647,-0.147543627,0
1.223253542,-0.410356619,0.168050806,-0.492167189,-0.245018298,-0.200275826,0
1.223253542,-0.410356619,0.168050806,-0.492167189,-0.245018298,-0.200275826,0
0.980947728,-0.394723986,0.218856864,-1.159575726,-0.250344782,0.175241348,0
1.180263801,-0.320468979,0.27357108,-1.575041535,-0.1571313,0.909230944,0
1.13727406,-0.08988764,0.25012213,0.176306645,0.050068956,-1.508460476,0
1.086468002,-0.211040547,0.171958964,1.445075308,0.036220096,-0.648233192,0
0.957498779,-0.265754763,0.097703957,0.626927253,0.043677175,-0.623731362,0
0.988764045,-0.320468979,0.031265266,0.585380672,0.041546581,-0.4010843,0
0.937957987,-0.316560821,0.027357108,0.544899388,0.014914157,-0.094811428,0
0.937957987,-0.316560821,0.027357108,0.544899388,0.014914157,-0.094811428,0
0.926233512,-0.304836346,0.015632633,0.122509149,-0.001065297,0.102801155,0
0.926233512,-0.304836346,0.015632633,0.122509149,-0.001065297,0.102801155,0
0.945774304,-0.277479238,0.058622374,-0.086821701,-0.053797496,0.15340276,0
0.945774304,-0.277479238,0.058622374,-0.086821701,-0.053797496,0.15340276,0
0.992672203,-0.332193454,0.203224231,-1.102049691,-0.281238394,-0.186959614,0
1.176355642,-0.308744504,0.27357108,-1.421106126,-0.264193643,0.205069662,0
1.285784074,-0.22667318,0.38690767,-1.439748823,-0.334503241,0.811756273,0
1.285784074,-0.22667318,0.38690767,-1.439748823,-0.334503241,0.811756273,0
0.992672203,-0.093795799,0.140693698,0.836790751,-0.242355055,-1.610196334,0
1.270151441,-0.168050806,0.246213972,1.590488341,-0.51986491,-2.574822719,0
1.270151441,-0.441621886,0.027357108,1.356655661,-0.393094573,-2.872040567,0
1.309233024,-0.234489497,0.281387396,0.280705745,-0.377115119,-2.281866059,0
1.195896434,-0.144601856,0.297020029,1.07808051,-0.385637495,-1.065296946,0
1.004396678,-0.238397655,0.242305813,1.735901374,-0.223712359,-0.239159164,0
0.941866146,-0.265754763,0.199316072,1.611261631,-0.063917817,-0.123574446,0
0.902784563,-0.269662921,0.156326331,1.076482564,-0.019175345,-0.38723544,0
0.88715193,-0.230581339,0.160234489,0.638112871,-0.073505489,-0.626927253,0
0.906692721,-0.332193454,0.109428432,0.549693224,-0.021305939,-0.669539131,0
0.871519297,-0.36345872,0.070346849,0.044209823,0.148608924,-0.567270624,0
0.871519297,-0.36345872,0.070346849,0.044209823,0.148608924,-0.567270624,0
0.86370298,-0.36345872,0.058622374,-0.476187735,0.320121732,-0.275379261,0
1.160723009,-0.191499756,0.281387396,-1.134008599,-0.172045457,0.638112871,0
1.360039082,-0.211040547,0.285295554,-0.880467926,-0.082560513,1.375298358,0
0.836345872,-0.121152907,0.164142648,0.247148892,0.029295666,-0.778199419,0
1.156814851,-0.050806058,0.238397655,0.423988185,-0.040481284,-1.206448792,0
1.164631168,-0.093795799,0.293111871,1.178218423,-0.301479036,-1.696485387,0
0.992672203,-0.297020029,0.109428432,1.570780347,-0.129433579,-1.692224199,0
0.992672203,-0.297020029,0.109428432,1.570780347,-0.129433579,-1.692224199,0
1.063019052,-0.285295554,0.132877382,0.686051233,0.013316212,-1.483958646,0
1.063019052,-0.285295554,0.132877382,0.686051233,0.013316212,-1.483958646,0
0.996580362,-0.097703957,0.230581339,0.950244876,-0.150206869,-0.933200125,0
0.996580362,-0.097703957,0.230581339,0.950244876,-0.150206869,-0.933200125,0
1.016121153,-0.234489497,0.191499756,1.606467795,-0.159794542,-0.579521539,0
1.016121153,-0.234489497,0.191499756,1.606467795,-0.159794542,-0.579521539,0
0.992672203,-0.300928188,0.175867123,1.176087829,-0.16032719,-0.703628633,0
0.992672203,-0.300928188,0.175867123,1.176087829,-0.16032719,-0.703628633,0
0.937957987,-0.22667318,0.211040547,0.709487766,-0.086821701,-0.636514925,0
0.88715193,-0.214948705,0.144601856,0.482046868,0.117715313,-0.30360963,0
0.855886663,-0.066438691,0.093795799,0.304142278,0.19867788,-0.036220096,0
0.855886663,-0.066438691,0.093795799,0.304142278,0.19867788,-0.036220096,0
0.742550073,0.156326331,0.035173425,0.71161836,0.105997046,0.150206869,0
0.785539814,0.019540791,0.007816317,1.183012259,-0.115584719,0.082027865,0
0.922325354,-0.191499756,-0.488519785,1.352927122,-0.365929501,0.329176756,0
1.199804592,-0.640937958,-0.836345872,-0.056460738,-0.794178873,-0.379245713,0
1.199804592,-0.640937958,-0.836345872,-0.056460738,-0.794178873,-0.379245713,0
1.199804592,-0.640937958,-0.836345872,-0.056460738,-0.794178873,-0.379245713,0
2.020517831,-0.996580362,0.77381534,0.032491557,-0.796309467,-5.818119272,0
1.375671715,-0.6370298,0.621397167,-1.556398839,0.588043914,-3.952251671,0
1.254518808,-0.36345872,0.261846605,-1.127616818,1.806743621,-1.518580797,0
1.109916952,-0.418172936,0.207132389,1.104712933,1.787568276,0.041546581,0
1.016121153,-0.543234001,0.132877382,1.633632867,1.174489883,0.452751202,0
0.992672203,-0.496336102,0.148510015,0.608817205,0.514005777,0.398421058,0
1.023937469,-0.34000977,0.222765022,0.160859839,0.188024911,0.714281603,0
1.13727406,-0.27357108,0.289203713,0.318523787,0.19548199,1.295933735,0
0.980947728,1.270151441,0.269662921,-4.729385793,-0.479916274,-0.753164941,0
0.922325354,0.492427943,0.414264778,0.330774702,-0.250877431,-0.689247124,0
0.980947728,0.066438691,0.347826087,2.0933085,0.452218554,0.618937526,0
0.945774304,-0.187591597,0.347826087,2.708517486,0.450620608,1.419508181,0
1.129457743,-0.168050806,0.324377137,1.245864779,-0.064450465,0.893784138,0
0.949682462,0.058622374,0.359550562,0.246616243,-0.612545744,0.453283851,0
1.055202736,0.007816317,0.269662921,0.879402629,-0.601360126,0.857564042,0
1.098192477,0.007816317,0.304836346,0.999248536,-0.647167895,1.019489178,0
0.949682462,-0.011724475,0.324377137,1.537223494,-0.673800319,1.326294698,0
0.894968246,-0.11333659,0.343917929,1.694354793,-0.598696884,1.460522113,0
1.082559844,-0.265754763,0.38690767,0.86874966,-0.681790046,0.977942597,0
0.922325354,-0.179775281,0.394723986,0.274313964,-0.657288216,0.525724043,0
0.879335613,-0.128969223,0.328285296,-0.171512808,-0.275911909,0.418129051,0
0.855886663,-0.148510015,0.328285296,-0.254073322,-0.058058684,0.373919228,0
0.851978505,-0.078163166,0.347826087,-0.165653675,-0.071907544,0.365929501,0
0.851978505,-0.074255007,0.347826087,0.24768154,-0.077234029,0.419194348,0
0.898876404,-0.101612115,0.332193454,0.470328602,0.00692443,0.343558265,0
0.914509038,-0.08988764,0.289203713,0.490569244,0.124107094,0.1571313,0
1.012212995,-0.148510015,0.160234489,-0.762752614,-0.121443852,-0.075636083,0
1.004396678,0.039081583,0.343917929,0.764883207,-0.399486355,1.103114988,0
0.793356131,-0.304836346,0.160234489,1.292737844,-0.333970593,1.32576205,0
0.793356131,-0.304836346,0.160234489,1.292737844,-0.333970593,1.32576205,0
0.851978505,-0.164142648,0.140693698,-0.341427671,0.386702792,-0.555552358,0
0.969223254,-0.175867123,0.082071324,-0.465534766,0.336101187,-1.005640317,0
1.027845628,-0.144601856,0.062530532,-0.511875183,0.168316918,-1.25225656,0
1.094284319,-0.160234489,0.109428432,-0.186426966,-0.112921476,-1.267170718,0
0.898876404,-0.351734245,0.152418173,-0.371788634,-0.434641154,-0.869814957,0
1.086468002,-0.007816317,0.621397167,-1.099386449,0.263128346,2.493327503,0
0.789447973,-0.144601856,-0.019540791,-0.207200256,1.192599931,1.02907685,0
0.789447973,-0.128969223,-0.140693698,-0.602425423,1.072221376,0.150739518,0
1.270151441,0.152418173,0.242305813,1.589955692,0.350482695,-2.333000312,0
1.426477772,-0.425989253,0.050806058,3.205478511,-0.361135665,-3.256612765,0
1.426477772,-0.425989253,0.050806058,3.205478511,-0.361135665,-3.256612765,0
1.496824621,-0.594040059,0.08988764,1.515384906,-0.748903753,-3.774347081,0
0.945774304,-0.461162677,0.152418173,-0.407476082,0.258867158,-0.764883207,0
0.957498779,-0.355642404,0.160234489,-0.802168601,0.35580918,-0.127302985,0
1.047386419,-0.320468979,0.140693698,-0.844780478,0.31053406,0.451685905,0
1.207620909,-0.27357108,0.238397655,-1.08500494,0.171512808,0.600827478,0
1.207620909,-0.27357108,0.238397655,-1.08500494,0.171512808,0.600827478,0
1.289692233,-0.312652662,0.277479238,-1.570780347,-0.143282439,0.302544333,0
0.992672203,-0.289203713,0.277479238,-2.045370137,-0.269520127,0.221581765,0
0.898876404,-0.230581339,0.36345872,-2.559908562,-0.416531106,0.27218337,0
0.871519297,-0.117244748,0.504152418,-1.113235309,-0.054862793,1.30126022,0
0.88715193,-0.117244748,0.47679531,-1.281552226,0.205069662,1.248528021,0
0.88715193,-0.117244748,0.47679531,-1.281552226,0.205069662,1.248528021,0
0.844162189,-0.046897899,0.50024426,-1.233613864,0.289228121,0.911894186,0
0.848070347,-0.02344895,0.453346361,-0.568868569,0.486840704,0.698834797,0
0.906692721,-0.062530532,0.406448461,-0.052732199,0.694573609,0.539572903,0
0.992672203,-0.121152907,0.214948705,0.287097527,0.902839162,0.280705745,0
1.289692233,0.007816317,0.281387396,0.649298489,0.960365197,0.10120321,0
1.289692233,0.007816317,0.281387396,0.649298489,0.960365197,0.10120321,0
1.102100635,-0.414264778,-0.195407914,1.033338038,0.706824524,-0.732391651,0
1.102100635,-0.414264778,-0.195407914,1.033338038,0.706824524,-0.732391651,0
1.008304836,-0.457254519,-0.254030288,-0.417596403,0.72546722,-1.605935147,0
1.008304836,-0.457254519,-0.254030288,-0.417596403,0.72546722,-1.605935147,0
1.199804592,-0.164142648,0.117244748,0.177371942,-0.235963274,-1.148390108,0
1.199804592,-0.164142648,0.117244748,0.177371942,-0.235963274,-1.148390108,0
0.95359062,-0.269662921,0.109428432,0.967822276,-0.508679292,-0.575260351,0
1.160723009,-0.328285296,0.316560821,-0.736652838,-0.06977695,-0.148608924,0
1.035661944,-0.457254519,0.261846605,-1.549474408,-0.169914863,-0.213592038,0
1.035661944,-0.457254519,0.261846605,-1.549474408,-0.169914863,-0.213592038,0
1.027845628,-0.277479238,0.410356619,-2.393722238,-0.193351396,0.070309598,0
1.106008793,-0.125061065,0.488519785,-0.829866321,-0.063385168,2.128995947,0
1.027845628,-0.082071324,0.347826087,-1.052513383,0.552889115,2.586008337,0
1.027845628,-0.082071324,0.347826087,-1.052513383,0.552889115,2.586008337,0
1.00048852,-0.140693698,0.08988764,-1.232015918,0.397888409,2.198772897,0
0.746458232,-0.003908158,0,0.19867788,-0.275379261,1.058905165,0
0.765999023,-0.093795799,-0.02344895,0.873543496,-0.359005071,0.068179005,0
0.765999023,-0.093795799,-0.02344895,0.873543496,-0.359005071,0.068179005,0
0.918417196,-0.085979482,0.105520274,1.031740093,-0.429314669,-1.237342403,0
0.918417196,-0.085979482,0.105520274,1.031740093,-0.429314669,-1.237342403,0
1.360039082,-0.011724475,0.461162677,1.789166221,-0.522528152,-2.813981884,0
1.168539326,-0.484611627,0.160234489,1.755609368,-0.527321988,-3.435582652,0
1.13727406,-0.425989253,0.293111871,-0.547029982,-0.19175345,-3.322661176,0
1.066927211,0.027357108,0.539325843,-0.662082052,0.059123981,-2.136985674,0
1.148998534,-0.066438691,0.38690767,1.065296946,0.33823178,-0.6801921,0
0.988764045,-0.25012213,0.320468979,1.979854375,0.520930207,-0.150206869,0
0.988764045,-0.25012213,0.320468979,1.979854375,0.520930207,-0.150206869,0
0.988764045,-0.25012213,0.320468979,1.979854375,0.520930207,-0.150206869,0
0.969223254,-0.375183195,0.175867123,1.556398839,0.597631587,-0.455947093,0
0.965315095,-0.312652662,0.132877382,0.373919228,0.329709405,-0.629590495,0
0.965315095,-0.312652662,0.132877382,0.373919228,0.329709405,-0.629590495,0
0.973131412,-0.379091353,0.078163166,0.158196597,0.214657335,0.155533354,0
1.070835369,-0.297020029,0.148510015,-0.395225167,0.031958908,0.13262947,0
0.926233512,-0.269662921,0.308744504,-1.322566159,-0.480448923,0.569401218,0
1.191988276,-0.168050806,0.453346361,-1.274095148,-0.444228827,1.081809049,0
1.191988276,-0.168050806,0.453346361,-1.274095148,-0.444228827,1.081809049,0
1.289692233,-0.121152907,0.586223742,-0.878337332,-0.500689565,1.4999381,0
1.180263801,-0.117244748,0.488519785,-0.50228751,-0.248746837,1.926056879,0
0.973131412,-0.168050806,0.379091353,-0.727597814,0.340895023,2.073067858,0
0.973131412,-0.168050806,0.379091353,-0.727597814,0.340895023,2.073067858,0
0.906692721,-0.125061065,0.336101612,-1.219232355,0.453283851,1.732705483,0
0.906692721,-0.125061065,0.336101612,-1.219232355,0.453283851,1.732705483,0
0.828529555,-0.046897899,0.265754763,-1.250658615,0.204537014,1.263974827,0
0.797264289,-0.050806058,0.191499756,-0.467132711,-0.042079229,0.867151714,0
0.805080606,-0.02344895,0.238397655,0.234365328,-0.232767383,0.405878137,0
0.805080606,-0.02344895,0.238397655,0.234365328,-0.232767383,0.405878137,0
0.848070347,-0.082071324,0.195407914,0.646635246,-0.292424012,-0.253540673,0
0.848070347,-0.082071324,0.195407914,0.646635246,-0.292424012,-0.253540673,0
1.070835369,-0.062530532,0.281387396,0.853835502,-0.224777656,-1.051980734,0
1.070835369,-0.062530532,0.281387396,0.853835502,-0.224777656,-1.051980734,0
1.274059599,-0.125061065,0.355642404,1.11270266,-0.304142278,-2.169477231,0
1.274059599,-0.125061065,0.355642404,1.11270266,-0.304142278,-2.169477231,0
1.043478261,-0.36345872,0.148510015,0.877272035,-0.151272166,-2.733551964,0
1.043478261,-0.36345872,0.148510015,0.877272035,-0.151272166,-2.733551964,0
1.160723009,-0.054714216,0.359550562,-0.093746131,0.126770337,-1.476501568,0
1.066927211,-0.140693698,0.261846605,1.050382789,0.231169437,-0.390963979,0
1.066927211,-0.140693698,0.261846605,1.050382789,0.231169437,-0.390963979,0
0.883243771,-0.297020029,0.140693698,1.082341697,0.316925842,-0.166718972,0
0.910600879,-0.254030288,0.132877382,0.664745295,0.197079935,-0.367527446,0
0.910600879,-0.254030288,0.132877382,0.664745295,0.197079935,-0.367527446,0
0.945774304,-0.27357108,0.132877382,0.665277943,0.131564173,-0.274313964,0
0.969223254,-0.304836346,0.109428432,0.490569244,0.131031524,-0.117182664,0
0.926233512,-0.300928188,0.08988764,0.085223756,0.159794542,0.036752745,0
0.926233512,-0.300928188,0.08988764,0.085223756,0.159794542,0.036752745,0
1.039570103,-0.218856864,0.211040547,-0.169382214,-0.052732199,0.1219765,0
1.039570103,-0.218856864,0.211040547,-0.169382214,-0.052732199,0.1219765,0
1.027845628,-0.355642404,0.27357108,-0.468730656,-0.430912615,-0.166186324,0
0.937957987,-0.297020029,0.289203713,-1.169163399,-0.332372647,0.107594992,0
1.156814851,-0.214948705,0.390815828,-1.295401087,-0.349417398,0.622666065,0
1.156814851,-0.214948705,0.390815828,-1.295401087,-0.349417398,0.622666065,0
1.285784074,-0.074255007,0.570591109,-1.085537588,-0.486308056,1.194730525,0
1.285784074,-0.074255007,0.570591109,-1.085537588,-0.486308056,1.194730525,0
1.199804592,-0.097703957,0.429897411,-0.244485649,-0.219451171,1.865867601,0
1.012212995,-0.13678554,0.371275037,-0.127835634,0.314262599,2.209958515,0
0.980947728,-0.152418173,0.203224231,-0.127835634,0.314262599,2.209958515,0
0.824621397,-0.054714216,0.082071324,-0.58271743,-0.194949341,1.038131874,0
0.754274548,-0.011724475,0.125061065,0.159261893,-0.47086125,0.382974252,0
0.914509038,-0.13678554,0.171958964,1.090864073,-0.612013096,-1.33961091,0
1.082559844,-0.410356619,0.312652662,1.502601343,-0.747838456,-2.462433891,0
0.992672203,-0.359550562,0.254030288,0.372853931,-0.082027865,-1.612859577,0
0.992672203,-0.359550562,0.254030288,0.372853931,-0.082027865,-1.612859577,0
1.031753786,-0.109428432,0.379091353,0.479383626,0.182698426,-0.577390945,0
1.031753786,-0.109428432,0.379091353,0.479383626,0.182698426,-0.577390945,0
0.957498779,-0.128969223,0.343917929,1.402996078,0.205602311,0.221581765,0
0.957498779,-0.128969223,0.343917929,1.402996078,0.205602311,0.221581765,0
0.875427455,-0.328285296,0.211040547,1.572910941,0.311066708,0.278042503,0
0.816805081,-0.312652662,0.168050806,0.768611747,0.414933161,-0.059656629,0
0.934049829,-0.293111871,0.121152907,-0.007989727,0.478850977,-0.319056435,0
1.00048852,-0.242305813,0.144601856,-0.066581059,0.421324942,-0.205602311,0
1.00048852,-0.242305813,0.144601856,-0.066581059,0.421324942,-0.205602311,0
0.984855887,-0.281387396,0.078163166,-0.025567127,0.36965804,0.159794542,0
0.984855887,-0.281387396,0.078163166,-0.025567127,0.36965804,0.159794542,0
0.988764045,-0.257938447,0.082071324,-0.116117367,0.2615304,0.389898682,0
0.988764045,-0.257938447,0.082071324,-0.116117367,0.2615304,0.389898682,0
0.984855887,-0.242305813,0.101612115,-0.205069662,0.079364623,0.415465809,0
0.984855887,-0.242305813,0.101612115,-0.205069662,0.079364623,0.415465809,0
0.949682462,-0.207132389,0.144601856,-0.455947093,-0.023436533,0.278042503,0
0.949682462,-0.207132389,0.144601856,-0.455947093,-0.023436533,0.278042503,0
1.133365901,-0.152418173,0.246213972,-0.403747543,-0.107062343,0.120378555,0
1.047386419,-0.183683439,0.324377137,-0.217320577,-0.375517174,-0.069244302,0
0.934049829,-0.265754763,0.27357108,-0.434641154,-0.361135665,-0.143282439,0
0.934049829,-0.265754763,0.27357108,-0.434641154,-0.361135665,-0.143282439,0
0.836345872,-0.25012213,0.336101612,-0.871945551,-0.262595697,-0.014914157,0
0.836345872,-0.25012213,0.336101612,-0.871945551,-0.262595697,-0.014914157,0
0.918417196,-0.218856864,0.324377137,-0.898045326,-0.007989727,0.499091619,0
1.254518808,-0.183683439,0.496336102,-0.906567701,-0.099605264,0.682855343,0
1.254518808,-0.183683439,0.496336102,-0.906567701,-0.099605264,0.682855343,0
1.297508549,-0.187591597,0.621397167,-0.434108506,-0.174708699,1.030674796,0
1.297508549,-0.187591597,0.621397167,-0.434108506,-0.174708699,1.030674796,0
0.957498779,-0.289203713,0.351734245,-0.676463561,0.886859708,2.156693668,0
0.84025403,-0.22667318,0.277479238,-1.123888278,0.916688022,1.96760346,0
1.195896434,-0.269662921,0.277479238,0.565672678,-0.375517174,-3.000408849,0
1.473375672,-0.218856864,0.422081094,0.586978617,-0.553421764,-2.999876201,0
1.473375672,-0.218856864,0.422081094,0.586978617,-0.553421764,-2.999876201,0
1.008304836,-0.754274548,0.101612115,1.304456111,-0.453816499,-1.341741504,0
0.859794822,-0.379091353,0.171958964,-0.493232486,-0.011185618,-0.47778568,0
0.859794822,-0.379091353,0.171958964,-0.493232486,-0.011185618,-0.47778568,0
0.859794822,-0.379091353,0.171958964,-0.493232486,-0.011185618,-0.47778568,0
0.914509038,-0.101612115,0.351734245,1.379026897,-0.150206869,1.482893349,0
0.855886663,-0.343917929,0.211040547,1.240005646,0.069244302,1.627241085,0
0.910600879,-0.144601856,0.22667318,-0.841584588,0.531583176,0.445294124,0
0.937957987,-0.132877382,0.074255007,-0.732391651,0.29988109,-0.005859133,0
1.133365901,-0.238397655,0.254030288,-0.022371236,-0.322252326,-1.22455884,0
1.461651197,-0.269662921,0.449438202,-0.02077329,-0.590174508,-1.487154537,0
1.461651197,-0.269662921,0.449438202,-0.02077329,-0.590174508,-1.487154537,0
1.020029311,-0.535417684,0.347826087,-0.517734316,-0.71161836,-1.187273447,0
0.707376649,-0.308744504,0.320468979,-1.593684232,-0.182698426,0.028230369,0
1.106008793,-0.183683439,0.445530044,-1.77585001,0.135825361,1.056241922,0
1.106008793,-0.183683439,0.445530044,-1.77585001,0.135825361,1.056241922,0
1.242794333,-0.054714216,0.551050318,-0.924677749,-0.014914157,1.737499319,0
1.180263801,-0.105520274,0.468978994,-0.47778568,0.090017592,1.931916012,0
0.992672203,-0.156326331,0.422081094,-0.567270624,0.40481284,1.836571935,0
0.816805081,-0.191499756,0.164142648,0.626394604,-0.019175345,-1.488752482,0
0.715192965,-0.27357108,0.179775281,0.806429788,0.005859133,0.011718266,0
0.859794822,-0.277479238,0.168050806,0.096942022,0.149674221,-0.349950047,0
1.098192477,-0.191499756,0.351734245,0.632786386,-0.304142278,0.335568538,0
1.098192477,-0.191499756,0.351734245,0.632786386,-0.304142278,0.335568538,0
1.309233024,-0.13678554,0.36345872,0.500689565,-0.096942022,1.241603591,0
1.176355642,-0.039081583,0.316560821,0.866086417,0.065515762,2.306367889,0
0.965315095,-0.11333659,0.195407914,0.597098938,0.104931749,1.939905739,0
0.918417196,-0.027357108,0.199316072,0.374451877,-0.230636789,1.355057716,0
0.879335613,0.02344895,0.183683439,0.857564042,-0.779264716,0.995519996,0
1.223253542,0.13678554,0.558866634,2.358567439,-2.253103041,0.022371236,0
0.941866146,-0.035173425,0.554958476,3.028639218,-2.503980472,-0.459142984,0
0.95359062,-0.304836346,0.207132389,2.754325255,-1.807808918,-1.13720449,0
1.008304836,-0.242305813,0.285295554,1.404594024,-0.865553769,-2.20143614,0
0.945774304,-0.293111871,0.320468979,1.307119353,0.974746706,-0.160859839,0
1.066927211,-0.398632145,0.074255007,1.47916481,1.24906067,0.278042503,0
1.539814362,-0.496336102,-0.211040547,0.882065872,0.180035184,0.363266259,0
1.141182218,-0.300928188,0.425989253,-0.381908955,-0.222114413,1.542549978,0
1.074743527,-0.132877382,0.38690767,0.004261188,-0.189622856,2.163085449,0
1.074743527,-0.132877382,0.38690767,0.004261188,-0.189622856,2.163085449,0
1.074743527,-0.109428432,0.25012213,-0.431445263,-0.095344077,1.993703235,0
0.875427455,-0.144601856,0.101612115,0.19548199,-0.340362374,1.243734185,0
0.75036639,-0.156326331,0.105520274,0.421324942,-0.64184141,0.423455536,0
0.75036639,-0.156326331,0.105520274,0.421324942,-0.64184141,0.423455536,0
0.777723498,-0.179775281,0.121152907,0.799505358,-0.942255149,-0.586978617,0
1.102100635,-0.359550562,0.492427943,-0.246616243,-0.51986491,-2.370818354,0
0.961406937,-0.031265266,0.422081094,0.250344782,0.131031524,-0.609349853,0
0.965315095,-0.34000977,0.070346849,0.317991138,0.501754862,-0.529985231,0
1.074743527,-0.394723986,0.007816317,-0.389366034,0.483644814,-0.525191395,0
1.13727406,-0.246213972,0.13678554,-0.615208986,0.272716018,-0.325980866,0
1.13727406,-0.246213972,0.13678554,-0.615208986,0.272716018,-0.325980866,0
1.297508549,-0.25012213,0.257938447,-0.23010414,-0.119313258,-0.013316212,0
1.297508549,-0.25012213,0.257938447,-0.23010414,-0.119313258,-0.013316212,0
1.219345383,-0.297020029,0.316560821,-0.787787092,-0.526256691,-0.075103435,0
1.047386419,-0.230581339,0.402540303,-1.244266833,-0.367527446,0.786189146,0
1.09037616,-0.234489497,0.457254519,-1.755076719,-0.521995504,0.678061506,0
1.09037616,-0.234489497,0.457254519,-1.755076719,-0.521995504,0.678061506,0
1.074743527,-0.218856864,0.468978994,-1.963342272,-0.682855343,0.5406382,0
1.074743527,-0.218856864,0.468978994,-1.963342272,-0.682855343,0.5406382,0
1.020029311,-0.160234489,0.472887152,-1.787035627,-0.637580222,0.731326354,0
0.949682462,-0.105520274,0.445530044,-1.395539,-0.454881796,1.103114988,0
0.848070347,-0.031265266,0.394723986,-0.2966852,-0.023969181,1.012032099,0
0.797264289,-0.035173425,0.308744504,-0.010120321,0.322784975,0.557150303,0
0.797264289,-0.035173425,0.308744504,-0.010120321,0.322784975,0.557150303,0
0.879335613,-0.058622374,0.222765022,0.236495922,0.556085006,0.125172391,0
0.879335613,-0.058622374,0.222765022,0.236495922,0.556085006,0.125172391,0
1.078651685,-0.058622374,0.269662921,0.399486355,0.47458979,-0.569933866,0
1.078651685,-0.058622374,0.269662921,0.399486355,0.47458979,-0.569933866,0
0.910600879,-0.160234489,0.085979482,0.957701955,0.453283851,-1.009901505,0
0.910600879,-0.160234489,0.085979482,0.957701955,0.453283851,-1.009901505,0
1.121641426,-0.246213972,0.039081583,0.642374059,0.586978617,-1.492481022,0
1.297508549,-0.261846605,0.148510015,-0.122509149,0.339297077,-2.363361275,0
1.297508549,-0.261846605,0.148510015,-0.122509149,0.339297077,-2.363361275,0
1.238886175,-0.355642404,0.070346849,-0.375517174,0.101735858,-2.792675945,0
1.172447484,-0.390815828,0.066438691,-0.810690976,0.042079229,-2.751662012,0
1.172447484,-0.390815828,0.066438691,-0.810690976,0.042079229,-2.751662012,0
1.156814851,-0.406448461,0.062530532,-0.994987348,-0.114519422,-2.194511709,0
1.156814851,-0.406448461,0.062530532,-0.994987348,-0.114519422,-2.194511709,0
1.070835369,-0.398632145,0.101612115,-0.699900094,-0.399486355,-1.390212515,0
1.070835369,-0.398632145,0.101612115,-0.699900094,-0.399486355,-1.390212515,0
0.969223254,-0.359550562,0.175867123,-1.503133991,-0.65941881,-0.251410079,0
0.969223254,-0.359550562,0.175867123,-1.503133991,-0.65941881,-0.251410079,0
1.059110894,-0.27357108,0.300928188,-1.743358453,-0.776601474,0.02077329,0
1.027845628,-0.22667318,0.371275037,-1.702877169,-0.864488472,0.306272872,0
1.059110894,-0.211040547,0.398632145,-1.727911647,-0.868217011,0.570999163,0
1.059110894,-0.211040547,0.398632145,-1.727911647,-0.868217011,0.570999163,0
1.020029311,-0.13678554,0.484611627,-1.668787666,-0.869282308,0.832529564,0
1.020029311,-0.13678554,0.484611627,-1.668787666,-0.869282308,0.832529564,0
1.086468002,-0.058622374,0.582315584,-1.423769369,-0.85117226,1.201122307,0
1.086468002,-0.058622374,0.582315584,-1.423769369,-0.85117226,1.201122307,0
1.102100635,-0.042989741,0.6370298,-0.963561088,-0.715879548,1.552670299,0
1.102100635,-0.042989741,0.6370298,-0.963561088,-0.715879548,1.552670299,0
1.125549585,-0.035173425,0.625305325,-1.059970462,-0.392029276,1.516982852,0
1.125549585,-0.035173425,0.625305325,-1.059970462,-0.392029276,1.516982852,0
1.082559844,-0.074255007,0.605764533,-1.092462018,0.1219765,1.331088534,0
1.039570103,-0.042989741,0.605764533,-1.501536046,0.48843865,1.066362243,0
1.039570103,-0.042989741,0.605764533,-1.501536046,0.48843865,1.066362243,0
0.996580362,-0.035173425,0.554958476,-1.501536046,0.48843865,1.066362243,0
0.996580362,-0.035173425,0.554958476,-1.552670299,0.763817911,0.891120896,0
0.996580362,-0.035173425,0.554958476,-1.552670299,0.763817911,0.891120896,0
0.930141671,-0.054714216,0.511968735,-1.446673253,1.014162693,0.65941881,0
0.930141671,-0.054714216,0.511968735,-1.446673253,1.014162693,0.65941881,0
0.934049829,-0.105520274,0.453346361,-1.448271199,1.24533213,0.389898682,0
0.934049829,-0.105520274,0.453346361,-1.448271199,1.24533213,0.389898682,0
0.961406937,-0.109428432,0.418172936,-1.723650459,1.432824393,0.166718972,0
0.961406937,-0.109428432,0.418172936,-1.723650459,1.432824393,0.166718972,0
0.984855887,-0.093795799,0.351734245,-1.837104584,1.529233766,0.092680834,0
1.129457743,-0.039081583,0.293111871,-1.328957941,1.507395179,0.161925136,0
1.023937469,0.042989741,0.300928188,-0.149141572,1.28741136,0.232234734,0
1.152906693,-0.269662921,0.019540791,0.346221508,1.194730525,-0.395225167,0
1.156814851,-0.422081094,-0.105520274,-0.790450334,1.005107669,-1.32203351,0
1.156814851,-0.422081094,-0.105520274,-0.790450334,1.005107669,-1.32203351,0
1.121641426,-0.242305813,-0.039081583,-1.637894055,0.946516337,-1.610728983,0
1.121641426,-0.242305813,-0.039081583,-1.637894055,0.946516337,-1.610728983,0
1.109916952,-0.078163166,0.011724475,-0.800038007,0.458610335,-0.964626385,0
1.109916952,-0.078163166,0.011724475,-0.800038007,0.458610335,-0.964626385,0
1.164631168,-0.168050806,0.035173425,-0.194949341,-0.075636083,-0.659951458,0
1.098192477,-0.211040547,0.101612115,-0.058058684,-0.376582471,-0.640243465,0
1.098192477,-0.211040547,0.101612115,-0.058058684,-0.376582471,-0.640243465,0
0.95359062,-0.144601856,0.187591597,-0.035154799,-0.433043209,-0.710020415,0
0.95359062,-0.156326331,0.22667318,0.215722632,-0.473524493,-0.698302148,0
0.934049829,-0.171958964,0.257938447,0.423455536,-0.502820159,-0.687649179,0
0.934049829,-0.171958964,0.257938447,0.423455536,-0.502820159,-0.687649179,0
0.910600879,-0.218856864,0.238397655,0.368592743,-0.417596403,-0.703095985,0
0.910600879,-0.218856864,0.238397655,0.368592743,-0.417596403,-0.703095985,0
0.934049829,-0.265754763,0.199316072,0.105997046,-0.260465103,-0.777134122,0
0.934049829,-0.265754763,0.199316072,0.105997046,-0.260465103,-0.777134122,0
0.871519297,-0.265754763,0.199316072,-0.119845906,-0.152870112,-0.737718135,0
0.871519297,-0.265754763,0.199316072,-0.119845906,-0.152870112,-0.737718135,0
0.906692721,-0.312652662,0.179775281,-0.434641154,-0.047405714,-0.68392064,0
1.082559844,-0.254030288,0.254030288,-0.587511266,0.011718266,-0.584315375,0
1.074743527,-0.332193454,0.25012213,-0.78139531,-0.058591332,-0.55129117,0
1.074743527,-0.332193454,0.25012213,-0.78139531,-0.058591332,-0.55129117,0
0.867611138,-0.300928188,0.25012213,-1.516982852,-0.01384886,-0.199743177,0
0.867611138,-0.300928188,0.25012213,-1.516982852,-0.01384886,-0.199743177,0
1.008304836,-0.195407914,0.300928188,-1.724715756,-0.031958908,0.300946387,0
1.145090376,-0.168050806,0.390815828,-1.438683526,-0.327578811,0.605621314,0
1.168539326,-0.046897899,0.558866634,-0.888457653,-0.525724043,1.043991007,0
0.973131412,-0.128969223,0.36345872,-0.980605839,0.58271743,1.501003397,0
1.043478261,-0.277479238,0.097703957,0.39415987,-0.104399101,-1.582498614,0
1.13727406,-0.121152907,0.25012213,0.370190689,-0.18482902,-1.404061375,0
1.082559844,-0.179775281,0.242305813,0.972083464,-0.321719678,-0.9768773,0
0.973131412,-0.238397655,0.218856864,1.034935983,-0.341427671,-0.802701249,0
0.926233512,-0.22667318,0.254030288,1.089266128,-0.22690825,-0.566205327,0
0.926233512,-0.22667318,0.254030288,1.089266128,-0.22690825,-0.566205327,0
0.926233512,-0.22667318,0.254030288,1.089266128,-0.22690825,-0.566205327,0
0.894968246,-0.222765022,0.246213972,0.619470174,-0.023969181,-0.196014638,0
0.894968246,-0.222765022,0.246213972,0.619470174,-0.023969181,-0.196014638,0
0.844162189,-0.22667318,0.218856864,0.357939774,0.237028571,0.012250915,0
0.844162189,-0.164142648,0.203224231,-0.018110048,0.367527446,0.155533354,0
0.941866146,-0.035173425,0.254030288,0.144347736,0.368592743,0.327578811,0
0.941866146,-0.035173425,0.254030288,0.144347736,0.368592743,0.327578811,0
0.222765022,-1.012212995,0.461162677,0.721738681,-0.752099644,0.85809669,0
0.144601856,-0.910600879,0.519785051,0.606153962,-0.499091619,0.826137782,0
0.191499756,-0.945774304,0.480703468,0.654092325,-0.135825361,0.841584588,0
0.085979482,-0.762090865,0.566682951,0.338764429,-0.212526741,0.653559677,0
0.035173425,-0.824621397,0.535417684,0.750501699,-0.190688153,0.806962437,0
-0.003908158,-0.805080606,0.480703468,0.142749791,-0.312132005,0.560878842,0
-0.039081583,-0.789447973,0.453346361,-0.131031524,-0.354211235,0.393094573,0
-0.168050806,-0.738641915,0.504152418,-0.136358009,-0.234365328,0.23383268,0
-0.175867123,-0.805080606,0.484611627,0.351015344,0.217853226,0.221581765,0
-0.140693698,-0.894968246,0.511968735,0.271118073,0.431977912,0.115584719,0
-0.117244748,-0.898876404,0.508060576,0.405345488,0.564607382,0.167251621,0
-0.132877382,-0.891060088,0.640937958,0.437837045,0.477253032,0.135825361,0
-0.085979482,-0.937957987,0.617489008,0.517201667,0.45008796,0.213592038,0
-0.082071324,-0.785539814,0.52369321,0.244485649,0.317991138,0.006391782,0
-0.121152907,-0.820713239,0.558866634,0.225310304,0.203471717,-0.130498876,0
-0.070346849,-0.762090865,0.52369321,0.077234029,0.05219955,-0.201341123,0
-0.132877382,-0.930141671,0.687835857,0.049536308,-0.107594992,-0.102268507,0
-0.152418173,-0.746458232,0.605764533,-0.15340276,-0.166186324,-0.037818042,0
-0.207132389,-0.805080606,0.61358085,-0.211461444,-0.287630176,-0.074038138,0
-0.179775281,-0.836345872,0.617489008,-0.210396147,-0.329176756,-0.062319871,0
-0.152418173,-0.855886663,0.676111383,-0.086821701,-0.35580918,0.100670561,0
-0.082071324,-0.824621397,0.672203224,0.029828314,-0.207200256,0.212526741,0
0.050806058,-0.699560332,0.398632145,-0.23383268,-0.118247961,-0.083093162,0
0.050806058,-0.723009282,0.504152418,-0.348352101,-0.194949341,-0.395757816,0
0.007816317,-1.012212995,0.605764533,-0.014381509,-0.440500287,-0.190688153,0
0.015632633,-0.848070347,0.629213483,-0.332372647,-0.610947799,-0.022371236,0
0.058622374,-0.828529555,0.52369321,-0.280173097,-0.555552358,-0.073505489,0
0.070346849,-0.730825598,0.480703468,-0.528387285,-0.51986491,-0.288695472,0
0.097703957,-0.984855887,0.449438202,0.119313258,-0.523060801,0.001065297,0
0.035173425,-0.851978505,0.488519785,-0.201341123,-0.613611041,-0.025567127,0
0.132877382,-0.867611138,0.437713727,0.030360963,-0.428249372,0.058591332,0
0.168050806,-0.851978505,0.449438202,-0.080429919,-0.449022663,0.021838587,0
0.117244748,-0.762090865,0.511968735,0.204004365,-0.429314669,0.063917817,0
0.082071324,-0.75036639,0.492427943,0.383506901,-0.381376307,0.103333804,0
0.117244748,-0.824621397,0.414264778,0.679126803,-0.426651427,0.307870817,0
0.160234489,-1.039570103,0.379091353,0.74996905,-0.497493674,0.525191395,0
0.058622374,-0.961406937,0.453346361,0.172578105,-0.588576563,0.550758521,0
0.031265266,-0.898876404,0.441621886,0.124107094,-0.519332261,0.386702792,0
-0.039081583,-0.875427455,0.50024426,0.168849566,-0.111856179,0.283368988,0
-0.062530532,-0.84025403,0.535417684,0.143815088,0.08362581,0.046340417,0
-0.039081583,-0.883243771,0.625305325,0.101735858,0.104399101,-0.181100481,0
-0.082071324,-0.805080606,0.672203224,-0.222114413,0.266324237,-0.270585424,0
0.011724475,-0.910600879,0.683927699,-0.113986773,0.499624268,-0.218385874,0
0.050806058,-0.793356131,0.597948217,-0.32438292,0.531050528,-0.140086548,0
0.035173425,-0.72691744,0.488519785,-0.059656629,0.647700543,-0.054862793,0
-0.039081583,-0.824621397,0.609672692,-0.225310304,0.426118779,-0.250877431,0
-0.035173425,-0.934049829,0.746458232,-0.149674221,0.345156211,-0.185894317,0
-0.015632633,-0.781631656,0.566682951,-0.016512103,0.294021957,0.001065297,0
-0.062530532,-0.691744016,0.441621886,0.141684494,0.15340276,-0.035154799,0
-0.109428432,-0.801172447,0.480703468,0.110790882,0.16032719,-0.156066003,0
-0.109428432,-0.742550073,0.508060576,0.021838587,0.207732905,-0.259399806,0
-0.074255007,-0.808988764,0.511968735,0.135825361,0.105464398,-0.21625528,0
-0.015632633,-0.801172447,0.558866634,0.099072616,-0.068711653,-0.162457784,0
0,-0.945774304,0.640937958,0.032491557,-0.339297077,-0.061787223,0
0.058622374,-1.074743527,0.961406937,0.078831974,-0.739316081,0.123041797,0
0.058622374,-0.941866146,0.672203224,0.183763723,-0.622133417,0.372321283,0
0.187591597,-0.695652174,0.445530044,-0.419194348,-0.594435696,0.025034478,0
0.171958964,-0.554958476,0.453346361,-0.462871523,-0.768611747,0.011718266,0
0.074255007,-0.668295066,0.660478749,-0.116650016,-0.802701249,0.126770337,0
0.078163166,-0.754274548,0.734733757,0.149141572,-0.653559677,0.1571313,0
0.035173425,-0.730825598,0.570591109,0.494297783,-0.413867864,0.278575151,0
0.132877382,-0.84025403,0.433805569,0.386702792,-0.313729951,0.244485649,0
0.148510015,-0.883243771,0.445530044,0.2791078,-0.498558971,0.496961025,0
0.093795799,-0.832437714,0.488519785,0.1571313,-0.60349072,0.599762181,0
0.011724475,-0.777723498,0.496336102,0.138488603,-0.447424717,0.482579517,0
-0.019540791,-0.848070347,0.441621886,0.192286099,-0.237561219,0.221581765,0
-0.082071324,-0.918417196,0.433805569,0.211461444,-0.100670561,0.180567832,0
-0.007816317,-1.012212995,0.453346361,0.102268507,0.00692443,0.166186324,0
-0.08988764,-0.918417196,0.644846116,0.156066003,-0.120378555,0.24075711,0
-0.085979482,-1.047386419,0.871519297,0.397355761,0.027697721,-0.021838587,0
0.050806058,-0.883243771,0.762090865,-0.260997752,0.135292712,-0.641308762,0
0.437713727,-0.695652174,0.328285296,-0.829866321,-0.320654381,0.811756273,0
0.52369321,-0.574499267,0.191499756,-0.494830432,-0.90017592,0.458077687,0
0.50024426,-0.52369321,0.175867123,0.403214894,-1.199524362,0.149674221,0
0.50024426,-0.52369321,0.175867123,0.403214894,-1.199524362,0.149674221,0
0.480703468,-0.422081094,0.074255007,0.387768088,-1.518580797,-0.698834797,0
0.539325843,-0.203224231,0.191499756,0.485242759,-1.980387023,-1.816331293,0
1.449926722,-0.394723986,0.511968735,2.011813283,-2.819308368,-4.254796004,0
1.449926722,-0.394723986,0.511968735,2.011813283,-2.819308368,-4.254796004,0
0.910600879,-0.207132389,0.390815828,1.168098102,0.61041515,-0.003728539,0
0.88715193,-0.281387396,0.304836346,1.541484681,0.606686611,-0.056993387,0
0.88715193,-0.281387396,0.304836346,1.541484681,0.606686611,-0.056993387,0
0.824621397,-0.285295554,0.277479238,1.111104715,0.317991138,-0.560878842,0
0.824621397,-0.285295554,0.277479238,1.111104715,0.317991138,-0.560878842,0
0.922325354,-0.328285296,0.242305813,0.626394604,0.182698426,-0.772872935,0
1.141182218,-0.410356619,0.074255007,-0.728130463,0.45008796,0.001597945,0
1.391304348,-0.359550562,0.222765022,-0.84424783,0.050601605,0.084691107,0
1.152906693,-0.332193454,0.254030288,-1.229885325,-0.411204621,0.184296372,0
1.008304836,-0.046897899,0.390815828,-0.300413739,0.85809669,0.918285968,0
1.11382511,-0.109428432,0.265754763,-0.093213483,1.051448086,0.78139531,0
1.11382511,-0.109428432,0.265754763,-0.093213483,1.051448086,0.78139531,0
1.231069858,0.003908158,0.324377137,0.108660289,1.14093303,0.504950753,0
0.715192965,-0.343917929,-0.265754763,-0.221049116,0.944918391,-0.500689565,0
0.988764045,-0.195407914,0.22667318,-1.173424586,-0.176306645,-1.592618935,0
0.883243771,-0.308744504,0.128969223,-0.2615304,-0.03142626,-0.525724043,0
0.918417196,-0.336101612,0.101612115,-0.500689565,-0.125172391,-0.451685905,0
0.945774304,-0.347826087,0.109428432,-0.746240511,-0.190688153,-0.2615304,0
0.988764045,-0.269662921,0.211040547,-0.720140736,-0.210928795,0.015446806,0
1.180263801,-0.281387396,0.293111871,-0.79897271,-0.264193643,-0.005326485,0
1.180263801,-0.281387396,0.293111871,-0.79897271,-0.264193643,-0.005326485,0
1.078651685,-0.371275037,0.320468979,-1.197393768,-0.459675632,-0.074038138,0
1.106008793,-0.128969223,0.519785051,-1.201654955,0.436771748,1.931383364,0
1.051294577,-0.128969223,0.422081094,-1.495144264,0.917220671,2.210491164,0
1.051294577,-0.128969223,0.422081094,-1.495144264,0.917220671,2.210491164,0
0.996580362,-0.070346849,0.367366878,-1.483958646,0.994987348,2.199838194,0
0.805080606,-0.035173425,0.238397655,-0.623731362,0.758491426,1.432824393,0
0.765999023,-0.078163166,0.046897899,-0.012783563,0.664212646,0.749436402,0
0.765999023,-0.078163166,0.046897899,-0.012783563,0.664212646,0.749436402,0
0.762090865,-0.08988764,-0.011724475,0.405878137,0.483112165,-0.1219765,0
1.430385931,-0.312652662,0.328285296,-0.876739387,-0.145945682,-3.880876775,0
1.074743527,-0.152418173,0.359550562,1.961211678,-0.094811428,-0.341427671,0
0.937957987,-0.222765022,0.394723986,2.583877743,0.072972841,0.256736564,0
0.906692721,-0.261846605,0.289203713,1.334284425,0.112921476,-0.407476082,0
0.906692721,-0.261846605,0.289203713,1.334284425,0.112921476,-0.407476082,0
0.88715193,-0.398632145,0.105520274,1.164902211,0.31053406,-0.275379261,0
1.438202247,-0.379091353,0.207132389,0,0.283901636,-0.201341123,0
1.367855398,-0.488519785,0.269662921,-1.09192937,-0.371788634,-0.405345488,0
0.848070347,-0.293111871,0.175867123,-1.749750234,-0.329709405,0.475122438,0
0.961406937,-0.211040547,0.191499756,-1.846159608,-0.086289053,1.315641729,0
0.984855887,-0.222765022,0.355642404,0.239159164,0.286564879,2.702125704,0
0.793356131,-0.039081583,0.293111871,-1.492481022,0.392561925,1.260246287,0
0.793356131,-0.093795799,0.168050806,0.411204621,-0.115584719,-0.82347454,0
0.918417196,-0.097703957,0.261846605,0.869814957,-0.359005071,-1.724715756,0
0.918417196,-0.097703957,0.261846605,0.869814957,-0.359005071,-1.724715756,0
1.234978017,-0.109428432,0.382999511,1.226689434,-0.4186617,-2.718637807,0
1.36394724,-0.316560821,0.320468979,1.148922757,-0.431977912,-3.564483582,0
1.36394724,-0.316560821,0.320468979,1.148922757,-0.431977912,-3.564483582,0
1.188080117,-0.5901319,0.144601856,-0.552889115,-0.070309598,-3.584724224,0
1.074743527,-0.199316072,0.312652662,-1.663461182,0.369125392,-2.588138931,0
1.074743527,-0.199316072,0.312652662,-1.663461182,0.369125392,-2.588138931,0
1.152906693,0,0.277479238,0.480981571,0.564607382,-0.428782021,0
1.094284319,-0.242305813,0.207132389,1.741227859,0.594968345,0.624264011,0
1.094284319,-0.242305813,0.207132389,1.741227859,0.594968345,0.624264011,0
0.957498779,-0.441621886,0.082071324,1.338012965,0.503352807,0.563009436,0
0.957498779,-0.441621886,0.082071324,1.338012965,0.503352807,0.563009436,0
0.914509038,-0.328285296,0.066438691,0.133162118,0.372853931,0.180035184,0
0.914509038,-0.328285296,0.066438691,0.133162118,0.372853931,0.180035184,0
0.95359062,-0.22667318,0.101612115,-0.183231075,0.259932455,0.248746837,0
0.95359062,-0.22667318,0.101612115,-0.183231075,0.259932455,0.248746837,0
0.965315095,-0.238397655,0.093795799,-0.074570786,0.17790459,0.529985231,0
0.961406937,-0.22667318,0.093795799,-0.362200962,0.070842247,0.599762181,0
0.961406937,-0.22667318,0.093795799,-0.362200962,0.070842247,0.599762181,0
0.922325354,-0.175867123,0.117244748,-0.398953706,-0.019707994,0.583250078,0
0.922325354,-0.175867123,0.117244748,-0.398953706,-0.019707994,0.583250078,0
1.031753786,-0.132877382,0.164142648,-0.352613289,-0.128368282,0.447957366,0
1.031753786,-0.132877382,0.164142648,-0.352613289,-0.128368282,0.447957366,0
1.094284319,-0.097703957,0.234489497,-0.057526035,-0.357407125,0.25460597,0
1.094284319,-0.097703957,0.234489497,-0.057526035,-0.357407125,0.25460597,0
1.148998534,-0.13678554,0.300928188,0.20933085,-0.543301443,-0.028763018,0
1.148998534,-0.13678554,0.300928188,0.20933085,-0.543301443,-0.028763018,0
1.148998534,-0.13678554,0.300928188,0.20933085,-0.543301443,-0.028763018,0
1.023937469,-0.211040547,0.316560821,0.158729245,-0.628525198,-0.299348442,0
1.023937469,-0.211040547,0.316560821,0.158729245,-0.628525198,-0.299348442,0
0.808988764,-0.300928188,0.195407914,-0.35580918,-0.433043209,-0.376049822,0
0.808988764,-0.300928188,0.195407914,-0.35580918,-0.433043209,-0.376049822,0
0.828529555,-0.324377137,0.281387396,-0.953973415,-0.296152551,-0.271650721,0
1.215437225,-0.277479238,0.594040059,-1.129747412,-0.287630176,0.482046868,0
1.027845628,-0.234489497,0.441621886,-0.762752614,0.169914863,1.235211809,0
1.027845628,-0.234489497,0.441621886,-0.762752614,0.169914863,1.235211809,0
0.926233512,-0.234489497,0.347826087,-0.942787797,0.766481153,1.504731937,0
0.934049829,-0.042989741,0.171958964,-0.75369759,0.091082889,0.97314876,0
1.00048852,0.054714216,0.390815828,0.997117942,-0.174708699,-0.72919576,0
0.965315095,-0.164142648,0.379091353,2.447519734,-0.213592038,0.320121732,0
0.965315095,-0.164142648,0.379091353,2.447519734,-0.213592038,0.320121732,0
0.844162189,-0.343917929,0.285295554,2.408103747,-0.110790882,0.637047574,0
0.84025403,-0.336101612,0.195407914,1.160108375,0.174708699,0.068179005,0
0.937957987,-0.254030288,0.195407914,0.039415987,0.400019003,-0.498558971,0
0.973131412,-0.308744504,0.093795799,0.043144526,0.509744589,-0.267922182,0
1.00048852,-0.316560821,0.042989741,-0.229038843,0.544899388,-0.030893611,0
1.00048852,-0.316560821,0.042989741,-0.229038843,0.544899388,-0.030893611,0
1.070835369,-0.316560821,0.042989741,-0.452218554,0.395225167,0.064450465,0
1.109916952,-0.34000977,0.242305813,-1.171826641,-0.528387285,-0.260465103,0
0.855886663,-0.25012213,0.257938447,-1.67091826,-0.424520833,0.097474671,0
0.855886663,-0.25012213,0.257938447,-1.67091826,-0.424520833,0.097474671,0
1.082559844,-0.164142648,0.324377137,-1.583031262,-0.339829726,0.61733958,0
0.988764045,-0.128969223,0.429897411,-0.24075711,-0.419726997,1.269301312,0
0.851978505,-0.164142648,0.343917929,-0.700432742,0.142217142,1.246397427,0
0.851978505,-0.238397655,0.042989741,-0.204537014,0.178437239,-1.181414313,0
1.047386419,-0.019540791,0.179775281,0.129433579,-0.202939068,-0.75689348,0
0.883243771,-0.207132389,0.125061065,0.430379966,0.058591332,-0.726532517,0
1.047386419,-0.257938447,0.070346849,-0.078299326,0.209863498,-0.705759227,0
1.160723009,-0.191499756,0.175867123,-0.444761475,0.211461444,-0.541170849,0
1.160723009,-0.191499756,0.175867123,-0.444761475,0.211461444,-0.541170849,0
1.481191988,-0.214948705,0.289203713,-0.391496628,0.071907544,-0.201341123,0
1.481191988,-0.214948705,0.289203713,-0.391496628,0.071907544,-0.201341123,0
1.13727406,-0.265754763,0.297020029,-0.763285262,-0.186426966,0.297750496,0
0.820713239,-0.261846605,0.195407914,-1.161173671,0.091615537,1.050915438,0
0.867611138,-0.199316072,0.203224231,-1.665059127,0.265791588,1.413649048,0
0.867611138,-0.199316072,0.203224231,-1.665059127,0.265791588,1.413649048,0
1.274059599,-0.13678554,0.515876893,-1.00830356,-0.588043914,0.767013801,0
0.844162189,-0.140693698,0.304836346,-1.219232355,0.604023369,1.114833254,0
1.457743039,-0.031265266,0.308744504,0.657820864,-0.140619197,-1.485556592,0
1.055202736,-0.027357108,0.269662921,-0.156066003,-0.018642697,-1.236809755,0
0.906692721,-0.328285296,0.191499756,1.110572067,-0.190688153,-0.629057847,0
0.937957987,-0.222765022,0.168050806,0.264726291,0.02450183,-0.700432742,0
0.937957987,-0.222765022,0.168050806,0.264726291,0.02450183,-0.700432742,0
0.902784563,-0.11333659,0.125061065,0.169914863,0.084158459,-0.42558613,0
0.902784563,-0.11333659,0.125061065,0.169914863,0.084158459,-0.42558613,0
0.902784563,-0.085979482,0.070346849,0.562476788,0.068711653,0.012250915,0
0.902784563,-0.085979482,0.070346849,0.562476788,0.068711653,0.012250915,0
1.004396678,-0.117244748,0.058622374,0.235963274,0.059123981,-0.033024205,0
1.234978017,-0.203224231,0.304836346,0.221581765,-0.070842247,0.386170143,0
0.851978505,-0.293111871,0.199316072,-0.196547287,0.072440192,0.649298489,0
0.777723498,-0.25012213,0.168050806,-1.009368857,0.330242053,0.950244876,0
1.102100635,-0.078163166,0.343917929,-0.888457653,0.117182664,1.105245582,0
0.941866146,-0.175867123,0.187591597,-1.284748117,0.735587541,1.149455405,0
0.894968246,-0.078163166,0.171958964,-0.97314876,0.409606676,1.092462018,0
0.758182706,-0.117244748,0.160234489,0.826137782,-0.340362374,0.31053406,0
1.156814851,-0.093795799,0.347826087,0.904969756,-0.772872935,-1.779578549,0
0.898876404,-0.211040547,0.316560821,2.043239543,-0.196014638,0.664745295,0
0.765999023,-0.254030288,0.257938447,1.570780347,-0.125172391,0.322784975,0
0.765999023,-0.254030288,0.257938447,1.570780347,-0.125172391,0.322784975,0
0.789447973,-0.199316072,0.218856864,0.948646931,0.026632424,-0.10120321,0
0.875427455,-0.22667318,0.211040547,0.902306514,0.105997046,-0.192818747,0
0.918417196,-0.261846605,0.148510015,0.674332967,0.198145232,-0.117715313,0
0.918417196,-0.328285296,0.058622374,0.446892069,0.365396853,-0.009587673,0
0.918417196,-0.328285296,0.058622374,0.446892069,0.365396853,-0.009587673,0
1.485100147,-0.289203713,0.168050806,-0.505483401,0.145945682,-0.472991844,0
0.941866146,-0.152418173,0.125061065,-1.341208855,-0.352080641,0.258334509,0
0.961406937,-0.085979482,0.168050806,-0.803766546,-0.105997046,1.04665425,0
1.11382511,-0.082071324,0.27357108,-0.09427878,-0.327046163,1.168098102,0
1.109916952,-0.035173425,0.38690767,0.133694767,-0.717477493,1.044523656,0
0.945774304,-0.097703957,0.336101612,0.533181122,-0.465534766,1.20698144,0
0.84025403,-0.140693698,0.25012213,-0.014381509,0.084158459,1.132410654,0
0.754274548,-0.046897899,0.22667318,0.298815793,-0.010652969,-0.14647833,0
1.13727406,-0.191499756,0.34000977,1.21763441,-0.397355761,-1.37103717,0
0.973131412,-0.328285296,0.08988764,0.348352101,-0.123574446,-0.682855343,0
0.941866146,-0.218856864,0.207132389,-0.412802567,0.110790882,-0.051666902,0
0.97703957,-0.160234489,0.238397655,-0.566737975,0.210396147,0.143815088,0
1.094284319,-0.13678554,0.308744504,-0.616806932,0.103333804,-0.004261188,0
1.047386419,-0.140693698,0.308744504,-0.57206446,-0.000532648,0.222114413,0
0.820713239,0.003908158,0.332193454,0.97314876,-0.276444558,0.081495216,0
0.898876404,-0.011724475,0.351734245,1.04665425,-0.422922888,-0.57206446,0
1.184171959,-0.066438691,0.47679531,1.311913189,-0.748903753,-1.523907282,0
1.199804592,-0.308744504,0.371275037,0.937993961,-0.600827478,-1.924458934,0
1.160723009,-0.519785051,0.230581339,-0.241289758,-0.209863498,-1.651210267,0
0.926233512,-0.418172936,0.171958964,0.030893611,-0.12570504,-0.819213352,0
0.926233512,-0.418172936,0.171958964,0.030893611,-0.12570504,-0.819213352,0
1.094284319,-0.34000977,0.214948705,-0.379778361,-0.021838587,0.234365328,0
1.094284319,-0.34000977,0.214948705,-0.379778361,-0.021838587,0.234365328,0
0.961406937,-0.25012213,0.242305813,-0.027697721,-0.200808474,0.951310173,0
0.961406937,-0.25012213,0.242305813,-0.027697721,-0.200808474,0.951310173,0
0.984855887,-0.199316072,0.277479238,-0.023436533,-0.1571313,1.302325517,0
0.965315095,-0.211040547,0.289203713,-0.174176051,-0.166186324,1.272497202,0
0.949682462,-0.13678554,0.332193454,-0.500156916,-0.022371236,1.018956529,0
0.875427455,0.019540791,0.398632145,-2.334598258,0.32438292,0.17098016,0
0.699560332,-0.082071324,0.261846605,-2.172673122,0.231169437,0.459142984,0
0.699560332,-0.082071324,0.261846605,-2.172673122,0.231169437,0.459142984,0
0.723009282,-0.160234489,0.117244748,-1.964940217,0.027165072,-0.127835634,0
0.812896922,-0.191499756,-0.02344895,-1.852018741,0.053797496,0.118247961,0
1.504640938,0.312652662,-0.179775281,-1.01522799,-1.775317361,-0.067646356,0
1.56717147,0.433805569,-0.054714216,0.023436533,-1.605402498,-0.007989727,0
1.56717147,0.433805569,-0.054714216,0.023436533,-1.605402498,-0.007989727,0
1.027845628,-0.300928188,0.27357108,-1.145726866,0.167251621,-0.191220802,0
1.023937469,-0.22667318,0.257938447,-1.553735596,0.100137913,0.005859133,0
0.961406937,-0.156326331,0.293111871,-1.428563205,-0.058058684,0.402149597,0
0.97703957,-0.11333659,0.300928188,-0.940124555,-0.1395539,0.751566996,0
1.004396678,-0.148510015,0.328285296,-0.239159164,-0.181100481,0.780862662,0
1.031753786,-0.109428432,0.390815828,-0.072440192,-0.266856885,0.573129757,0
0.996580362,-0.093795799,0.425989253,0.055395441,-0.344090914,0.379245713,0
0.949682462,-0.128969223,0.359550562,0.124107094,-0.185361669,0.228506195,0
0.906692721,-0.109428432,0.332193454,-0.004261188,0.04900366,0.034622151,0
0.883243771,-0.097703957,0.293111871,0.089484943,0.096409374,-0.213059389,0
0.926233512,-0.121152907,0.293111871,0.376049822,0.016512103,-0.548627927,0
1.008304836,-0.148510015,0.289203713,0.626394604,-0.116117367,-0.85117226,0
1.145090376,-0.168050806,0.343917929,0.796842116,-0.243953001,-1.032805389,0
1.168539326,-0.211040547,0.34000977,0.866086417,-0.248746837,-1.038664523,0
1.004396678,-0.269662921,0.218856864,0.564074733,-0.058591332,-0.943853094,0
0.992672203,-0.230581339,0.168050806,-0.002130594,0.147010979,-0.847976369,0
0.980947728,-0.125061065,0.175867123,-0.029295666,0.115584719,-0.601360126,0
0.949682462,-0.101612115,0.105520274,0.407476082,0.012783563,-0.25460597,0
0.891060088,-0.074255007,0.082071324,0.502820159,-0.067113708,-0.150206869,0
0.945774304,-0.054714216,0.066438691,0.338764429,-0.096942022,-0.178437239,0
0.980947728,-0.003908158,0.082071324,0.20933085,-0.101735858,-0.142217142,0
0.941866146,0.011724475,0.117244748,0.015446806,-0.005326485,-0.115584719,0
0.945774304,-0.039081583,0.101612115,-0.264193643,0.318523787,-0.173110754,0
0.95359062,-0.082071324,0.109428432,-0.491101892,0.393627222,-0.326513514,0
0.949682462,-0.121152907,0.121152907,-0.651961731,0.398421058,-0.426118779,0
0.918417196,-0.148510015,0.164142648,-0.860227284,0.410671973,-0.533181122,0
0.984855887,-0.179775281,0.171958964,-1.172359289,0.397888409,-0.731859002,0
1.008304836,-0.191499756,0.230581339,-1.417377587,0.263128346,-0.960897846,0
1.242794333,-0.27357108,0.27357108,-1.482360701,0.006391782,-1.099919097,0
1.379579873,-0.144601856,0.531509526,-1.338012965,-0.508679292,-1.142530975,0
0.984855887,-0.238397655,0.472887152,0.094811428,-0.741979323,0.044742472,0
0.84025403,-0.355642404,0.277479238,-0.549160576,0.109192937,1.13028006,0
0.88715193,-0.214948705,0.34000977,-1.53828879,0.304142278,1.206448792,0
0.957498779,-0.042989741,0.402540303,-1.208046737,0.082027865,1.178751071,0
0.973131412,-0.050806058,0.437713727,-0.217320577,-0.155000706,1.025348311,0
0.84025403,-0.11333659,0.449438202,0.354743883,-0.143282439,0.723336627,0
0.941866146,-0.207132389,0.414264778,-0.109725585,0.178969887,0.121443852,0
1.008304836,-0.214948705,0.418172936,-1.104712933,0.43943499,-0.642906707,0
0.97703957,-0.207132389,0.371275037,-1.54201733,0.552356467,-0.937993961,0
0.95359062,-0.195407914,0.34000977,-1.536690845,0.538507606,-0.872478199,0
0.95359062,-0.195407914,0.289203713,-1.421106126,0.356874477,-0.752632293,0
0.957498779,-0.203224231,0.285295554,-1.290074602,0.155000706,-0.787787092,0
0.996580362,-0.214948705,0.293111871,-1.056774571,-0.042611878,-0.752099644,0
0.984855887,-0.168050806,0.332193454,-0.691377718,-0.231702086,-0.476720383,0
1.106008793,-0.156326331,0.414264778,-0.466600062,-0.33503589,-0.368592743,0
0.707376649,-0.22667318,0.277479238,-0.312132005,-0.149674221,-0.178437239,0
1.055202736,-0.293111871,0.211040547,-1.225091488,0.501222213,-0.33823178,0
1.160723009,-0.105520274,0.308744504,-1.676244745,0.537974958,-0.365929501,0
1.00048852,-0.082071324,0.152418173,-1.016825935,0.467665359,0.204537014,0
0.996580362,-0.015632633,-0.140693698,-1.070090783,0.128900931,0.144880385,0
0.996580362,0.039081583,0,-0.728663111,0.096409374,-0.051666902,0
0.937957987,0.066438691,0.097703957,-0.280705745,0.192818747,-0.082560513,0
0.926233512,0.08988764,0.183683439,-0.385104846,0.059123981,-0.451685905,0
0.906692721,-0.019540791,0.199316072,-0.293489309,-0.150739518,-0.899643271,0
0.926233512,-0.128969223,0.203224231,-0.191220802,-0.116117367,-1.202720252,0
0.957498779,-0.254030288,0.179775281,-0.320121732,-0.002130594,-1.398734891,0
0.965315095,-0.312652662,0.132877382,-0.598696884,0.054862793,-1.437618229,0
1.004396678,-0.359550562,0.13678554,-0.935330719,-0.005859133,-1.082341697,0
1.145090376,-0.355642404,0.187591597,-0.718010142,-0.175773996,-0.57206446,0
1.297508549,-0.38690767,0.304836346,-0.809093031,-0.447424717,-0.260465103,0
0.957498779,-0.414264778,0.320468979,-1.00457502,-0.61414369,0.459142984,0
0.926233512,-0.359550562,0.304836346,-1.770523525,-0.348352101,1.145726866,0
1.199804592,-0.242305813,0.414264778,-2.103961469,-0.330242053,1.463185356,0
1.50073278,-0.058622374,0.640937958,-1.521776688,-0.668473834,1.685832418,0
1.305324866,-0.070346849,0.648754275,-0.164588378,-0.784058552,2.329271773,0
1.066927211,-0.195407914,0.429897411,0.140619197,-0.123574446,2.850734628,0
1.008304836,-0.168050806,0.367366878,-1.000313833,0.633851683,2.574290071,0
0.945774304,-0.054714216,0.332193454,-1.273029851,0.576858296,2.094906445,0
0.828529555,0.015632633,0.234489497,-0.699367445,0.351015344,1.544680572,0
0.711284807,-0.007816317,0.13678554,0.328644108,0.176839293,0.886859708,0
0.699560332,-0.070346849,0.046897899,0.799505358,0.061787223,-0.037818042,0
0.785539814,-0.082071324,0.097703957,1.063166352,-0.183763723,-1.172891938,0
1.027845628,-0.148510015,0.152418173,1.454130332,-0.460740929,-2.416093474,0
1.34049829,-0.222765022,0.269662921,1.725781053,-0.750501699,-3.604964866,0
1.743038593,-0.34000977,0.457254519,1.921795691,-0.993922051,-4.336823868,0
2.137762579,-0.394723986,0.84025403,2.394254887,-1.108974121,-3.669415332,0
1.039570103,-0.680019541,0.285295554,1.617120765,-0.964626385,-2.119408275,0
0.742550073,-0.531509526,0.109428432,0.229571492,0.264726291,-0.999781184,0
0.805080606,-0.390815828,0.22667318,-0.569933866,0.294554606,-0.605088666,0
1.070835369,-0.222765022,0.285295554,0.348352101,-0.165653675,-0.199743177,0
0.816805081,-0.398632145,0.312652662,1.363580091,-0.357939774,0.393094573,0
0.859794822,-0.582315584,0.125061065,0.287630176,0.178969887,0.726532517,0
1.070835369,-0.394723986,0.230581339,-1.739629913,0.641308762,0.828268376,0
1.125549585,-0.148510015,0.293111871,-1.959081084,0.606153962,1.664526479,0
1.20371275,-0.152418173,0.218856864,-1.599010716,0.638645519,2.089047312,0
1.039570103,-0.132877382,0.218856864,-1.660797939,0.643972004,1.89090208,0
0.902784563,-0.039081583,0.140693698,-2.355371548,0.663147349,1.221362949,0
0.742550073,-0.003908158,0.08988764,-1.840300475,0.625861956,0.454881796,0
0.762090865,-0.101612115,0.125061065,-1.282084875,0.515603722,-0.274313964,0
0.879335613,-0.117244748,0.207132389,-0.810158328,0.19175345,-0.962495791,0
1.242794333,-0.207132389,0.320468979,-0.506016049,-0.174176051,-1.861606414,0
1.418661456,-0.554958476,0.343917929,-0.855433448,-0.589109211,-2.782022975,0
0.777723498,-0.535417684,0.480703468,-2.580681852,-0.47778568,-1.548409111,0
1.047386419,-0.109428432,0.328285296,-2.32341264,0.086289053,0.971018167,0
1.36394724,-0.097703957,0.429897411,-0.732924299,0.014381509,2.388395754,0
1.281875916,-0.152418173,0.457254519,0.616274283,-0.302011684,2.437932062,0
1.446018564,-0.281387396,0.371275037,1.444542659,-1.087135534,-2.741009043,0
1.270151441,-0.207132389,0.777723498,3.749845251,-1.522841985,0.6801921,0
0.539325843,-0.375183195,0.156326331,0.405345488,0.142217142,0.20240642,0
0.945774304,0.003908158,-0.070346849,1.153716593,0.447424717,-0.051134253,0
1.094284319,-0.179775281,-0.027357108,1.844029014,-0.172578105,0.060721926,0
0.930141671,-0.484611627,-0.007816317,2.737280504,-0.297750496,0.159794542,0
0.871519297,-0.332193454,0.125061065,0.857564042,-0.173110754,-0.885794411,0
0.984855887,-0.355642404,0.097703957,0.857031393,0.175241348,-1.085537588,0
1.047386419,-0.382999511,0.109428432,0.748371105,0.322252326,-0.759556723,0
1.367855398,-0.382999511,0.179775281,-0.075103435,0.154468057,0.025034478,0
1.102100635,-0.242305813,0.218856864,-0.022371236,-0.026099775,0.871412902,0
1.016121153,-0.22667318,0.156326331,-0.218918522,0.107062343,1.877585868,0
1.09037616,-0.160234489,0.160234489,-0.783525904,-0.027697721,2.009150041,0
1.211529067,0.019540791,0.316560821,-0.182698426,-0.446892069,1.872259383,0
1.023937469,-0.042989741,0.324377137,0.719075439,-0.815484812,1.784372385,0
0.918417196,-0.11333659,0.27357108,0.74304462,-0.71854279,1.46158741,0
0.820713239,-0.050806058,0.25012213,0.121443852,-0.252475376,0.128368282,0
0.812896922,-0.054714216,0.285295554,0.536377012,-0.36965804,-0.4010843,0
0.84025403,-0.101612115,0.297020029,1.008836208,-0.460208281,-0.88952295,0
1.023937469,-0.179775281,0.304836346,1.218699707,-0.390963979,-1.662928533,0
1.176355642,-0.304836346,0.27357108,1.030142147,-0.291358715,-2.20463203,0
1.375671715,-0.285295554,0.390815828,1.444010011,-0.345156211,-0.495895729,0
0.640937958,-0.488519785,-0.058622374,0.249279485,0.289760769,1.123888278,0
0.828529555,-0.195407914,0.082071324,-0.817615406,0.45008796,1.802482433,0
1.094284319,0.02344895,0.293111871,0.512407831,-0.273781315,2.268017199,0
0.95359062,-0.199316072,0.203224231,1.242668888,-0.632786386,2.080524936,0
0.848070347,-0.25012213,0.027357108,0.332905296,0.026099775,1.203252901,0
0.969223254,0.007816317,0.093795799,-0.359005071,0.577390945,-0.168316918,0
0.891060088,0,0.039081583,0.625329307,0.149674221,-0.32438292,0
0.906692721,-0.261846605,-0.039081583,1.255452451,-0.020240642,-0.485242759,0
0.945774304,-0.359550562,0.011724475,1.122822981,-0.019707994,-1.010966802,0
1.020029311,-0.199316072,0.125061065,-0.599762181,-0.2615304,-2.066143427,0
1.211529067,-0.355642404,0.144601856,0.549693224,-0.21625528,-1.622447249,0
1.496824621,-0.504152418,0.242305813,0.382441604,-0.38031101,-1.398734891,0
1.164631168,-0.527601368,0.293111871,-0.796842116,-0.591772454,-0.786189146,0
1.395212506,-0.410356619,0.597948217,-1.023750365,-0.667408537,0.883131168,0
1.305324866,-0.433805569,0.578407426,-1.846159608,-0.586445969,1.434954987,0
1.270151441,-0.320468979,0.269662921,-0.920416562,0.271118073,4.223902392,0
1.176355642,-0.242305813,0.22667318,-1.356123013,0.245550946,3.619346375,0
0.84025403,-0.058622374,0.035173425,-1.193665228,0.064983114,2.719170455,0
0.515876893,0,-0.156326331,0.267389534,0.113986773,0.458610335,0
0.5901319,-0.050806058,-0.121152907,0.660484107,0.015446806,-1.079678455,0
0.785539814,-0.054714216,0.042989741,1.41631229,-0.357939774,-2.714376619,0
1.258426966,-0.132877382,0.195407914,2.084253475,-0.643439356,-3.780738862,0
2.255007328,-0.148510015,0.582315584,2.954601081,-0.921481859,-4.60155016,0
1.219345383,-0.582315584,0.160234489,2.589736876,-1.013630044,-2.634479348,0
1.301416707,-0.101612115,0.531509526,1.559062081,-0.282303691,-0.93852661,0
1.176355642,-0.152418173,0.566682951,2.93382779,-0.806962437,0.430912615,0
0.797264289,-0.269662921,0.461162677,3.766357354,-1.233081215,0.633319035,0
0.652662433,-0.316560821,0.394723986,3.392438126,-1.042393062,0.158196597,0
0.652662433,-0.230581339,0.496336102,2.287725192,-0.57206446,-0.486840704,0
0.808988764,-0.355642404,0.171958964,1.836039287,0.679659452,-0.571531812,0
1.094284319,-0.535417684,-0.109428432,-0.419726997,1.005107669,-0.965159033,0
1.098192477,-0.379091353,-0.08988764,-1.323631456,0.613611041,-0.082027865,0
1.004396678,-0.449438202,0.050806058,-1.184610204,0.053797496,1.011499451,0
1.47728383,-0.019540791,0.488519785,-2.227535915,-0.155533354,1.072221376,0
1.121641426,0.011724475,0.414264778,-0.163523081,-0.308936114,2.266951902,0
0.996580362,-0.148510015,0.242305813,0.491634541,0.07670138,2.784686218,0
0.941866146,-0.125061065,0.211040547,-0.252475376,0.30360963,2.231797103,0
0.883243771,-0.078163166,0.121152907,1.232548567,-0.484710111,-0.449555311,0
1.082559844,-0.082071324,0.246213972,1.565453863,-0.858629339,-1.872792032,0
1.406936981,-0.152418173,0.351734245,2.177999607,-1.234679161,-2.544461756,0
1.403028823,-0.25012213,0.312652662,2.293051677,-1.477034216,-2.378808081,0
1.258426966,-0.168050806,0.402540303,2.261092769,-1.512721664,-1.521776688,0
1.043478261,-0.160234489,0.488519785,3.175650197,-1.503133991,0.518799613,0
0.883243771,-0.22667318,0.437713727,2.787882109,-1.394473703,0.438369693,0
0.742550073,-0.265754763,0.308744504,0.842117236,0.38031101,-1.161173671,0
0.898876404,-0.27357108,0.22667318,0.11878061,1.005640317,-1.234146512,0
1.004396678,-0.132877382,0.199316072,-0.396823113,0.803233898,2.562039156,0
0.777723498,-0.054714216,-0.039081583,-0.035154799,0.356874477,0.520397558,0
0.898876404,-0.152418173,-0.007816317,1.118561794,-0.166718972,-1.355590364,0
0.961406937,-0.554958476,0.218856864,-0.963561088,-0.782993256,-1.246930076,0
1.059110894,-0.230581339,0.453346361,-0.821343946,0.658886161,2.239254181,0
1.086468002,-0.234489497,0.398632145,-1.551605002,0.892718841,2.318086155,0
1.094284319,-0.054714216,0.359550562,-1.591020989,0.759556723,2.091177906,0
1.066927211,-0.105520274,0.187591597,-1.293270493,0.926275695,1.856279929,0
1.004396678,-0.042989741,0.054714216,-1.099386449,1.052513383,1.412051102,0
0.88715193,-0.031265266,-0.085979482,-0.629057847,0.923612452,0.449555311,0
1.043478261,-0.183683439,0.097703957,0.820278649,0.231702086,-2.685613602,0
1.399120664,-0.164142648,0.562774792,2.821438962,-0.961963143,-1.771056173,0
1.121641426,-0.468978994,0.332193454,3.335444739,-0.902306514,-1.362514794,0
0.949682462,-0.429897411,-0.019540791,0.266856885,0.078831974,0.482046868,0
1.270151441,-0.343917929,0.187591597,-0.716412196,-0.130498876,0.203471717,0
0.871519297,-0.36345872,0.269662921,-2.094373796,-0.241822407,0.208798201,0
1.375671715,-0.203224231,0.488519785,-2.227535915,-0.389366034,1.24533213,0
0.844162189,-0.066438691,0.27357108,-0.581652133,0.626927253,1.245864779,0
0.851978505,-0.050806058,0.214948705,-0.050068956,0.727065166,0.714814251,0
0.97703957,-0.214948705,0.097703957,0.088419647,0.666875888,0.082560513,0
1.262335125,-0.265754763,0.148510015,1.389679866,0.114519422,-1.99210529,0
0.941866146,-0.414264778,0.171958964,0.564074733,-0.150739518,-0.961430494,0
1.285784074,-0.312652662,0.578407426,-1.203252901,-0.421857591,1.043458359,0
1.066927211,-0.316560821,0.488519785,-0.905502404,-0.142749791,1.676244745,0
0.969223254,-0.328285296,0.414264778,-1.171293992,0.575260351,2.168411934,0
0.910600879,-0.27357108,0.367366878,-1.570247699,0.863955823,2.026194792,0
0.832437714,-0.207132389,0.297020029,-1.368373928,0.755828183,1.624045195,0
0.871519297,-0.144601856,0.105520274,0.105997046,0.429847318,-0.399486355,0
1.141182218,-0.25012213,0.156326331,1.010966802,0.259932455,-2.472021564,0
1.117733268,-0.265754763,0.238397655,2.429409686,-0.452751202,-0.340362374,0
0.930141671,-0.265754763,0.164142648,0.852770206,-0.286564879,-0.393094573,0
0.824621397,-0.34000977,0.070346849,0.105464398,0.075636083,0.031958908,0
0.945774304,-0.297020029,0.132877382,-0.26845483,0.122509149,-0.044209823,0
1.199804592,-0.351734245,0.218856864,-0.4362391,-0.005326485,-0.253540673,0
1.039570103,-0.390815828,0.308744504,-1.547876463,-0.210928795,0.151804815,0
1.313141182,-0.140693698,0.429897411,-1.226689434,-0.198145232,1.967070811,0
1.145090376,-0.261846605,0.328285296,-0.881000575,0.150739518,2.411299638,0
1.25061065,-0.074255007,0.480703468,0.896980029,-0.242355055,-1.368373928,0
1.145090376,-0.179775281,0.367366878,1.975593187,-0.490569244,0.001065297,0
0.86370298,-0.277479238,0.308744504,2.499719285,-0.407476082,0.484177462,0
0.820713239,-0.246213972,0.254030288,1.293803141,-0.175241348,-0.351015344,0
0.914509038,-0.375183195,0.097703957,0.227973547,0.335568538,-0.664745295,0
1.438202247,-0.414264778,0.187591597,-0.11505207,0.33503589,-0.772872935,0
1.098192477,-0.465070835,0.27357108,-0.639710816,-0.141684494,-0.647700543,0
0.844162189,-0.394723986,0.13678554,-1.446140605,0.099072616,0.255138619,0
0.867611138,-0.269662921,0.375183195,-1.263442178,0.048471011,-0.205069662,0
1.148998534,-0.203224231,0.429897411,-1.107376176,0.159261893,0.135825361,0
1.2271617,-0.234489497,0.461162677,-0.537974958,0.041546581,0.554487061,0
1.035661944,-0.238397655,0.355642404,-0.222647062,0.189090208,1.306586705,0
0.988764045,-0.070346849,0.222765022,-1.471707731,0.229571492,1.388081921,0
1.066927211,-0.003908158,0.347826087,-1.790231518,0.422922888,1.417377587,0
1.215437225,-0.035173425,0.418172936,-0.949712228,0.155533354,0.991258809,0
1.023937469,-0.046897899,0.382999511,0.075636083,-0.260465103,0.842649885,0
0.918417196,-0.093795799,0.312652662,0.03835069,-0.276977206,0.69084507,0
0.859794822,-0.078163166,0.277479238,-0.014914157,-0.115584719,0.43943499,0
0.871519297,-0.070346849,0.254030288,0.132096821,-0.168849566,-0.046873066,0
0.918417196,-0.050806058,0.304836346,0.67326767,-0.45008796,-0.485775408,0
0.95359062,-0.085979482,0.343917929,1.428030557,-0.760089371,-0.749436402,0
1.008304836,-0.140693698,0.38690767,1.960146381,-0.902306514,-0.944385743,0
1.086468002,-0.187591597,0.429897411,2.140181565,-0.957169306,-1.164902211,0
1.152906693,-0.164142648,0.527601368,2.089047312,-0.979540542,-1.243201536,0
1.211529067,-0.152418173,0.695652174,2.566300344,-1.034935983,-1.095125261,0
0.922325354,-0.343917929,0.429897411,2.434203522,-0.73612019,-0.841584588,0
0.902784563,-0.257938447,0.445530044,1.334284425,-0.231169437,-0.564074733,0
0.918417196,-0.156326331,0.418172936,1.349198583,0.058591332,0.001597945,0
0.879335613,-0.25012213,0.300928188,1.611261631,0.347286804,0.33503589,0
0.910600879,-0.300928188,0.121152907,0.931069531,0.684985936,0.259399806,0
1.414753298,-0.003908158,-1.063019052,1.459989465,-0.017044751,0.609349853,0
0.934049829,-0.160234489,-0.027357108,1.216569113,-0.454349148,0.155533354,0
0.95359062,-0.34000977,0.078163166,-0.04900366,-0.117182664,0.031958908,0
0.836345872,-0.11333659,0.183683439,-0.299348442,-0.100137913,0.264726291,0
0.922325354,-0.109428432,0.156326331,0.239691813,-0.102801155,0.515071074,0
0.957498779,-0.097703957,0.179775281,0.414400512,-0.05592809,0.612545744,0
0.988764045,-0.08988764,0.078163166,0.338764429,0.082560513,0.541170849,0
1.023937469,0.031265266,-0.11333659,0.436771748,-0.199743177,0.297217848,0
1.012212995,-0.117244748,0.109428432,1.072754025,-0.093213483,0.318523787,0
1.066927211,-0.265754763,0.13678554,0.960365197,0.012783563,0.147010979,0
1.020029311,-0.25012213,0.148510015,0.265791588,0.015979454,0.12570504,0
0.961406937,-0.191499756,0.093795799,-0.121443852,0.030360963,0.02450183,0
0.945774304,-0.183683439,0.132877382,-0.241289758,0.178437239,-0.197612584,0
0.836345872,-0.191499756,0.117244748,-0.290826066,0.16032719,-0.01384886,0
0.961406937,-0.101612115,0.195407914,-0.02077329,0.032491557,0.355276532,0
1.348314607,0,0.406448461,0.755828183,-0.470328602,0.469795953,0
1.168539326,-0.015632633,0.551050318,2.297312865,-1.22455884,0.859161987,0
0.945774304,-0.156326331,0.343917929,2.844342847,-1.119094442,1.278356336,0
0.941866146,-0.195407914,0.218856864,1.715660732,-0.68392064,1.033870686,0
0.937957987,-0.039081583,0.300928188,1.248528021,-0.839986642,0.666875888,0
1.207620909,0.042989741,0.484611627,1.854681984,-1.414181696,0.346754156,0
1.13727406,0.003908158,0.578407426,2.760184388,-1.762001149,0.18482902,0
0.805080606,-0.203224231,0.355642404,2.655252639,-1.461054762,-0.196014638,0
0.769907181,-0.285295554,0,1.146792163,-0.267389534,-1.176087829,0
0.996580362,-0.175867123,0.132877382,0.392029276,0.274313964,-1.921795691,0
1.012212995,-0.13678554,0.34000977,1.680505933,-0.09427878,-2.153497777,0
1.055202736,-0.222765022,0.324377137,2.796937133,-0.529985231,-1.422704072,0
0.906692721,-0.222765022,0.429897411,3.42226644,-0.462338875,-0.181100481,0
0.984855887,-0.281387396,0.394723986,3.505359602,-0.050068956,0.390963979,0
0.930141671,-0.242305813,0.402540303,2.816645126,0.183231075,-0.115584719,0
0.97703957,-0.230581339,0.390815828,2.04430484,0.279640448,-0.799505358,0
1.11382511,-0.312652662,0.343917929,1.618186061,0.404280191,-1.189404041,0
1.035661944,-0.379091353,0.211040547,1.197926416,0.665277943,-0.993389402,0
1.039570103,-0.382999511,0.097703957,0.845845775,1.063166352,-0.356341829,0
1.164631168,-0.332193454,-0.003908158,0.251942728,1.114833254,0.123574446,0
1.047386419,-0.246213972,0.070346849,0.591772454,0.580054187,0.672735022,0
1.039570103,-0.25012213,0.117244748,-0.705759227,-0.621600768,0.316925842,0
1.109916952,-0.128969223,0.355642404,-2.14550805,0.911361538,-2.04430484,0
1.008304836,-0.261846605,0.144601856,0.57898889,0.616806932,-0.596033641,0
0.883243771,-0.277479238,0.320468979,-1.514852258,-0.806429788,-0.526256691,0
0.941866146,-0.297020029,0.343917929,-0.804831843,0.047405714,1.829114857,0
1.008304836,-0.101612115,0.336101612,-1.474370974,0.117182664,1.727378998,0
1.023937469,-0.379091353,0.019540791,0.438902342,-0.08362581,-0.958234603,0
0.945774304,-0.371275037,0.050806058,0.304142278,-0.272716018,-0.386702792,0
0.961406937,-0.375183195,0.070346849,0.038883339,-0.340895023,-0.126770337,0
1.391304348,-0.445530044,0.238397655,-0.48843865,-0.513473128,-0.2615304,0
1.09037616,-0.472887152,0.34000977,-1.286346063,-0.836790751,-0.263128346,0
1.266243283,-0.211040547,0.508060576,-1.71992192,-0.618937526,1.532429657,0
1.039570103,-0.062530532,0.465070835,-1.381157491,-0.02450183,1.946297521,0
0.988764045,-0.11333659,0.25012213,-1.144661569,0.124639743,1.638426703,0
0.883243771,-0.101612115,0.13678554,-0.447957366,0.182165778,1.018423881,0
0.871519297,-0.074255007,0.082071324,-0.035154799,0.267922182,0.343558265,0
1.168539326,-0.132877382,0.171958964,-0.776068825,1.059970462,-2.443791195,0
1.293600391,-0.22667318,0.070346849,-0.336633835,0.792580928,-2.269615144,0
1.156814851,-0.238397655,0.097703957,-0.045807769,0.744642565,-1.933513958,0
1.246702491,-0.429897411,-0.128969223,-0.258867158,0.910828889,-1.847224905,0
1.008304836,-0.410356619,-0.11333659,0.127835634,-0.123041797,-0.653027028,0
0.988764045,-0.382999511,-0.046897899,-0.021305939,-0.518266964,-0.473524493,0
1.082559844,-0.336101612,0.144601856,-0.007457079,-0.764883207,-0.322784975,0
1.430385931,-0.425989253,0.179775281,0.06977695,-0.922014507,-0.035687448,0
1.254518808,-0.179775281,0.465070835,-0.442098233,-0.063385168,2.546059702,0
1.152906693,-0.242305813,0.332193454,-1.034935983,0.389366034,2.456574758,0
0.992672203,-0.082071324,0.265754763,-1.738564616,0.515071074,2.036315113,0
0.902784563,-0.085979482,0.156326331,-1.441879417,0.414400512,1.648547024,0
0.820713239,-0.050806058,0.097703957,-0.770742341,0.360603016,1.214971167,0
0.793356131,-0.066438691,0.015632633,-0.345156211,0.316925842,0.552889115,0
1.066927211,-0.042989741,0.207132389,0.902839162,0.155000706,-1.389679866,0
1.156814851,-0.304836346,-0.027357108,1.087668182,0.352080641,-2.477348049,0
1.223253542,-0.125061065,0.211040547,0.076168732,0.286564879,-2.370818354,0
0.97703957,-0.222765022,0.144601856,1.459989465,0.240224461,-1.455728277,0
1.051294577,-0.390815828,0.003908158,1.549474408,0.36273361,-1.17928372,0
0.996580362,-0.308744504,0.125061065,1.200589658,0.173643402,-1.343339449,0
1.043478261,-0.328285296,0.070346849,1.077547861,-0.053264847,-1.393408406,0
1.199804592,-0.515876893,0.22667318,0.377647767,-0.388300737,0.428249372,0
1.102100635,-0.332193454,0.25012213,-0.981138488,0.034089502,1.677310042,0
1.289692233,-0.183683439,0.390815828,-1.253854506,-0.058058684,1.661330588,0
1.047386419,-0.027357108,0.289203713,0.68392064,-0.111856179,-0.978475245,0
1.078651685,-0.347826087,0.003908158,0.728663111,0.395225167,-2.295714919,0
0.996580362,-0.308744504,0.019540791,1.051448086,0.532115825,-1.179816368,0
0.758182706,-0.758182706,-0.156326331,-1.54894176,-0.999781184,0.284966933,0
0.75036639,-1.141182218,-0.320468979,0.877272035,-1.148390108,0.767013801,0
0.676111383,-1.20371275,-0.308744504,-0.118247961,-1.397136945,1.024815662,0
0.672203224,-1.223253542,-0.230581339,-0.743577269,-1.495676913,1.247995373,0
0.621397167,-1.215437225,-0.179775281,-1.096190558,-1.640557297,1.561192675,0
0.605764533,-1.254518808,-0.207132389,-1.022685068,-1.537223494,1.987311453,0
0.453346361,-1.297508549,-0.242305813,-1.365710685,-1.473305677,2.511437551,0
0.199316072,-1.180263801,-0.246213972,-1.16863075,-1.246930076,2.897607694,0
-0.093795799,-1.231069858,-0.269662921,-0.610947799,-1.062633704,3.334379442,0
-0.187591597,-0.941866146,-0.125061065,-1.059970462,-0.584315375,3.396166665,0
-0.316560821,-0.680019541,-0.195407914,-1.15105335,-0.067113708,3.312540855,0
-0.453346361,-0.551050318,-0.058622374,-0.90017592,0.068711653,3.013192413,0
-0.429897411,-0.297020029,-0.285295554,-0.550758521,0.138488603,2.521025223,0
-0.429897411,-0.25012213,-0.38690767,0.194416693,0.42558613,2.139648917,0
-0.468978994,-0.289203713,-0.515876893,-0.036220096,0.923612452,1.59421688,0
-0.36345872,-0.152418173,-0.707376649,0.204537014,0.936396016,1.119094442,0
-0.398632145,-0.128969223,-0.797264289,0.186426966,0.740381378,0.634384332,0
-0.359550562,-0.183683439,-0.789447973,0.300413739,0.819213352,0.356874477,0
-0.316560821,-0.175867123,-0.765999023,0.374984525,0.67326767,0.068711653,0
-0.336101612,-0.168050806,-0.660478749,0.170447511,0.644504653,-0.220516468,0
-0.164142648,-0.003908158,-0.934049829,-0.03835069,0.607751908,-0.466600062,0
-0.293111871,-0.312652662,-0.910600879,0.332905296,0.329709405,-0.409606676,0
-0.457254519,-0.367366878,-0.801172447,-0.047938363,0.175773996,-0.179502535,0
-0.406448461,-0.22667318,-0.957498779,-0.525191395,0.217853226,0.026632424,0
-0.332193454,-0.08988764,-0.97703957,-0.428249372,-0.079897271,0.109725585,0
-0.558866634,-0.164142648,-0.578407426,0.022371236,-0.018110048,-0.042611878,0
-0.27357108,-0.316560821,-1.074743527,0.466600062,0.341427671,-0.123574446,0
-0.394723986,-0.234489497,-0.961406937,0.215189983,0.111856179,-0.180567832,0
-0.433805569,-0.433805569,-0.691744016,0.162990433,-0.022371236,-0.114519422,0
-0.27357108,-0.050806058,-1.004396678,-0.709487766,0.428782021,-0.148076276,0
-0.214948705,-0.11333659,-1.094284319,-0.364864204,-0.191220802,-0.014381509,0
-0.511968735,-0.11333659,-0.558866634,-0.135825361,-0.229038843,-0.136890658,0
-0.293111871,-0.257938447,-1.168539326,0.255138619,-0.02077329,-0.145945682,0
-0.199316072,-0.109428432,-0.003908158,2.060816943,-1.905816237,-2.562039156,0
0.101612115,-1.078651685,0.08988764,2.091710554,-2.040576301,-4.694763642,0
0.558866634,-0.230581339,-0.082071324,0.90710035,0.05592809,-1.406191969,0
1.106008793,-0.312652662,0.070346849,-1.03972982,-0.712683657,0.065515762,0
0.957498779,-0.324377137,-0.007816317,-0.131564173,0.552356467,-1.519113445,0
1.012212995,-0.08988764,-0.08988764,-0.23383268,0.17098016,-0.420259645,0
1.485100147,-0.289203713,0.312652662,-0.127302985,-1.497274858,2.616901949,0
0.676111383,-0.117244748,0.179775281,-0.406410785,0.535844364,1.307119353,0
0.594040059,-0.105520274,0.074255007,-0.000532648,0.65569027,0.372853931,0
0.609672692,-0.140693698,0.097703957,0.693508312,0.731859002,-0.613611041,0
1.825109917,-0.582315584,0.02344895,1.505264585,0.395225167,-4.03268159,0
1.059110894,-0.406448461,0.109428432,-3.029171867,0.82667043,0.227973547,0
1.461651197,-0.406448461,0.195407914,-0.628525198,0.533181122,1.533494954,0
0.95359062,-0.269662921,0.203224231,-1.347067989,-0.014381509,0.322784975,0
0.875427455,-0.312652662,0.101612115,0.475655087,0.127835634,-1.31883762,0
0.906692721,-0.394723986,0.015632633,-0.134760064,0.325448217,-1.453065035,0
1.125549585,-0.242305813,0.148510015,0.316925842,0.253540673,-1.217101761,0
1.188080117,-0.297020029,0.128969223,1.32203351,0.077766677,-1.017358584,0
1.129457743,-0.359550562,0.097703957,1.862671711,0.032491557,-0.88259852,0
0.984855887,-0.156326331,0.109428432,1.224026191,-0.165653675,0.676996209,0
0.95359062,-0.13678554,-0.050806058,1.28368282,0.010120321,0.883663817,0
0.961406937,-0.13678554,-0.109428432,-0.155533354,0.267922182,-0.032491557,0
1.180263801,-0.234489497,0.238397655,-0.269520127,-1.075417267,1.030674796,0
0.949682462,-0.203224231,0.269662921,0.532115825,-1.107908824,1.226689434,0
0.906692721,-0.254030288,0.222765022,-0.007989727,-0.307870817,1.485556592,0
0.824621397,-0.211040547,0.222765022,-0.18482902,-0.160859839,1.055176625,0
0.816805081,-0.183683439,0.211040547,-0.023436533,-0.055395441,0.440500287,0
1.051294577,-0.324377137,0.101612115,0.414400512,0.388833385,-1.894630619,0
0.992672203,-0.336101612,0.007816317,1.444010011,-0.147543627,0.05592809,0
0.84025403,-0.347826087,-0.042989741,0.763817911,-0.067113708,0.297217848,0
0.906692721,-0.257938447,0.019540791,0.442630881,-0.116117367,0.135825361,0
0.934049829,-0.316560821,0,0.173643402,-0.015446806,0.027165072,0
1.004396678,-0.304836346,0.054714216,-0.322784975,0.093213483,-0.007457079,0
0.949682462,-0.390815828,0.066438691,-0.620535471,0.267389534,-0.077766677,0
1.082559844,-0.254030288,0.171958964,0.468730656,-0.937461313,2.281866059,0
0.918417196,-0.246213972,0.191499756,-0.111856179,-0.656222919,1.857345226,0
0.937957987,-0.488519785,-0.207132389,-0.543301443,0.437837045,-0.312664654,0
1.004396678,-0.242305813,-0.082071324,-0.793113577,-0.064983114,0.304674927,0
0.965315095,-0.289203713,0,-0.325448217,-0.365396853,0.881533223,0
0.902784563,-0.261846605,0.027357108,-0.518266964,-0.398953706,0.772872935,0
0.969223254,-0.285295554,0.02344895,-0.478850977,-0.246616243,0.503352807,0
1.207620909,-0.324377137,0.11333659,-0.429847318,-0.205069662,0.058591332,0
0.758182706,-0.265754763,0.128969223,0.114519422,-0.119313258,0.405345488,0
0.910600879,-0.242305813,0.121152907,-0.585380672,0.157663948,-0.353145938,0
1.277967758,-0.38690767,0.019540791,0.484710111,0.06977695,-1.891967377,0
1.461651197,-0.304836346,0.222765022,0.811223625,-0.054330144,-1.718323974,0
0.820713239,-0.359550562,-0.042989741,1.598478068,-0.406410785,-0.908698295,0
1.082559844,-0.22667318,0.093795799,0.299348442,-0.274846612,0.438902342,0
