timestamp,rel_time,acc_x,acc_y,acc_z,gyro_x,gyro_y,gyro_z,azimuth,pitch,roll,label
0.0,0.0,0.0,0.0,0.0,0.0,-0.014049901000000002,0.010995574,291.51047,39.609573,-49.676716,STD
185.56085205078125,3.9833544449030533e-13,7.282736219638153e-11,-7.675119984007495e-10,-3.5923302093426868e-12,1.3689410932951618e-12,-0.014966198,0.010690141499999998,291.67636,40.225464,-49.09314000000001,STD
5655.2578125,1.8547368502153105e-11,2.2206729788365465e-09,-2.3399012505365135e-08,-1.2530110282682472e-10,3.7110318290567434e-11,-0.019547688,0.004581489,291.81357,40.841248,-48.504414,STD
53658.37109375,2.2876169014640624e-10,2.0942206191421064e-08,-2.2204183380836184e-07,-1.2426236706275517e-09,2.4545845911383424e-10,-0.02076942,0.006414085,291.9430200000001,41.45203,-47.919773,STD
294540.3125,1.5295659183678367e-09,1.1408572930804439e-07,-1.2189641438453691e-06,-6.944146146992125e-09,1.1657803611342388e-09,-0.01740966,0.007941248,292.06403,42.072998,-47.32231,STD
1162269.125,7.088947207023466e-09,4.469338819035329e-07,-4.811635335499886e-06,-2.719369263104454e-08,4.429727251675786e-09,-0.01160644,0.01038471,292.1774,42.690933,-46.727657,STD
3664877.0,2.5625189081779354e-08,1.4002744137542322e-06,-1.5179173715296201e-05,-8.390230732402415e-08,1.3642247331802082e-08,-0.016493361,0.010079277,292.27344,43.311947,-46.126694,STD
9810313.0,7.728721129751648e-08,3.7296822483767755e-06,-4.065137909492478e-05,-2.2027737145435822e-07,3.494655587132911e-08,-0.023518313,0.003970624,292.36395,43.930492,-45.527264,STD
23162214.0,2.0284393542624457e-07,8.775456080911681e-06,-9.601747296983376e-05,-5.137806624588848e-07,7.60241718467114e-08,-0.019547688,-0.0027488936,292.4412,44.55577,-44.91876,STD
49497448.0,4.767084362811147e-07,1.871768108685501e-05,-0.00020525835861917585,-1.0841756648005685e-06,1.454665010669487e-07,-0.022296581,-0.00030543262000000003,292.50623,45.176277,-44.3134,STD
97517520.0,1.0238310323984479e-06,3.686056152218953e-05,-0.00040450310916639864,-2.0954353203705978e-06,2.5024721139743633e-07,-0.022907447,0.0036651916,292.5617,45.804916,-43.698486,STD
179552752.0,2.0400379980856087e-06,6.792262865928933e-05,-0.0007449559052474797,-3.7574338875856483e-06,3.986777699083177e-07,-0.013439035,0.0027488936,292.6142,46.429787,-43.086334,STD
312193824.0,3.8150519685586914e-06,0.00011830986477434635,-0.0012955212732777,-6.323949946818175e-06,5.892797503292968e-07,-0.010690141499999998,0.002443461,292.6409,47.062187,-42.46343,STD
516789504.0,6.756838956789579e-06,0.00019634782802313566,-0.0021448733750730753,-1.0086771908390801e-05,8.12720259091293e-07,-0.019242255,0.008246681,292.6615,47.687744,-41.84564,STD
819761280.0,1.1415536391723435e-05,0.0003124445502180606,-0.00340277049690485,-1.5366744264611043e-05,1.05962476482091e-06,-0.01038471,0.008552114,292.66858,48.32174000000001,-41.2173,STD
1252703104.0,1.850578519224655e-05,0.00047913225716911256,-0.00520050385966897,-2.2505248125526123e-05,1.3164764141038177e-06,-0.010079277,0.011301007,292.66418,48.94875,-40.594944,STD
1852252672.0,2.8925753213115968e-05,0.0007110107690095901,-0.00769041059538722,-3.1854986445978284e-05,1.5781758975208504e-06,-0.00580322,0.012217305,292.63916,49.588394,-39.95567,STD
2659741440.0,4.377209916128777e-05,0.0010246437741443515,-0.01104444358497858,-4.377064760774374e-05,1.8509622350393329e-06,-0.014966198,0.011301007,292.60538,50.22281,-39.321064,STD
3720643072.0,6.435320392483845e-05,0.0014383875532075763,-0.015451904386281967,-5.85999405302573e-05,2.1512755665753502e-06,-0.004581489,0.012217305,292.54706,50.86898,-38.670155,STD
5083857920.0,9.218876220984384e-05,0.0019721139688044786,-0.021116452291607857,-7.667539466638118e-05,2.522376007618732e-06,-0.0033597588,0.009773844,292.47925,51.509888,-38.023163,STD
6800870400.0,0.0001290073269046843,0.002646875800564885,-0.028252575546503067,-9.830721683101729e-05,3.043195420104894e-06,-0.004886922,0.012217305,292.37637,52.16814,-37.352932,STD
8924831744.0,0.00017673852562438697,0.003484521061182022,-0.03708171099424362,-0.00012375118967611343,3.840082626993535e-06,-0.0033597588,0.008552114,292.27335,52.8214,-36.687027,STD
11509603328.0,0.00023750049876980484,0.0045072827488183975,-0.04782821238040924,-0.0001531681919004768,5.039460575062549e-06,-0.004276057,0.006414085,292.1668,53.466785,-36.02889,STD
14608808960.0,0.00031358280102722347,0.005737334489822388,-0.06071535870432854,-0.00018653868755791336,6.7764722189167514e-06,0.00061086525,0.005497787,292.00836,54.13373000000001,-35.338936,STD
18274928640.0,0.0004074254829902202,0.007196343969553709,-0.07596156001091003,-0.00022355119290295988,9.183660949929617e-06,0.0033597588,0.007330383,291.84833,54.792625,-34.656925,STD
22558453760.0,0.0005215959390625358,0.008905138820409775,-0.0937768891453743,-0.0002635663840919733,1.2388441973598674e-05,-0.00061086525,0.005497787,291.727494682897,55.141241390141296,-34.288754501052,STD
27507144704.0,0.0006587639800272882,0.010883443988859653,-0.11436006426811218,-0.00030561970197595656,1.6474967196700163e-05,-0.0033597588,0.004886922,291.6076,55.487144,-33.92345,STD
33165375488.0,0.000821676745545119,0.013149573467671871,-0.13789580762386322,-0.0003484702610876411,2.1522975657717325e-05,0.009468411,0.009773844,291.3762200000001,56.16779,-33.202698,STD
39573602304.0,0.0010131326271221042,0.015720129013061523,-0.1645526885986328,-0.00039066874887794256,2.75639340543421e-05,0.0067195175,0.007941248,291.03198,56.89883,-32.40762,STD
46767935488.0,0.0012359557440504432,0.018609775230288506,-0.19448132812976837,-0.0004303866589907557,3.460420703049749e-05,0.003970624,0.0070249503,290.55673,57.701103,-31.505663,STD
54779826176.0,0.0014929723693057895,0.021831072866916656,-0.22781294584274292,-0.0004651510389521718,4.263464143150486e-05,0.002443461,0.008246681,290.0946,58.483562,-30.618914,STD
63635849216.0,0.0017869876464828849,0.025394465774297714,-0.26465845108032227,-0.0004928816924802959,5.162270099390298e-05,-0.003970624,0.010995574,289.58978,59.299,-29.677073,STD
73357582336.0,0.0021207723766565323,0.029308399185538292,-0.30510786175727844,-0.0005141055444255471,6.158953328849748e-05,-0.002443461,0.004581489,289.1026,60.09217,-28.750298,STD
83961593856.0,0.002497035777196288,0.033579420298337936,-0.34923020005226135,-0.0005316226161085069,7.261044811457396e-05,0.00580322,0.0018325958,288.63705,60.850574,-27.85342,STD
95459467264.0,0.002918409649282694,0.038212355226278305,-0.39707356691360474,-0.0005492052878253162,8.477749361190945e-05,-0.0021380284,0.0036651916,288.1796,61.586533,-26.97182,STD
107857911808.0,0.0033874327782541513,0.04321027547121048,-0.4486655294895172,-0.0005697624292224646,9.826176392380148e-05,-0.0021380284,0.01160644,287.7345,62.34136,-26.072094,STD
121158926336.0,0.003906538709998131,0.04857436940073967,-0.5040139555931091,-0.000593172968365252,0.00011327951506245881,-0.00030543262000000003,0.007941248,287.29706,63.077183,-25.18706700000001,STD
135359995904.0,0.004478044807910919,0.054303959012031555,-0.5631078481674194,-0.0006171418935991824,0.00013005539949517697,0.004276057,0.009773844,286.86847,63.76863,-24.335945,STD
150454337536.0,0.005104145035147667,0.06039661914110184,-0.6259183883666992,-0.0006402802537195385,0.00014888889563735574,-0.007941248,0.012217305,286.44366,64.43757,-23.499744,STD
166431162368.0,0.00578690180554986,0.06684832274913788,-0.6924001574516296,-0.0006634474848397076,0.0001700879802228883,-0.005192355,0.009162978,286.0371,65.04166,-22.715607,STD
183275962368.0,0.006528241094201803,0.07365356385707855,-0.762492299079895,-0.0006882832385599613,0.0001939796784427017,0.0061086523,0.012217305,285.63745,65.62061,-21.948473,STD
200970813440.0,0.007329948712140322,0.0808054506778717,-0.8361198902130127,-0.0007165656425058842,0.00022087781690061092,0.005192355,0.016493361,285.2259200000001,66.2382,-21.148838,STD
219494629376.0,0.0081936689093709,0.08829553425312042,-0.9131951332092285,-0.0007510121213272214,0.00025107196415774524,0.0036651916,0.004886922,284.82388,66.83675,-20.362679,STD
238823505920.0,0.009120902977883816,0.09611382335424423,-0.9936186075210571,-0.0007957443012855947,0.00028484369977377355,0.0061086523,0.01160644,284.4213,67.39200600000001,-19.605556,STD
258931015680.0,0.010113010182976723,0.10424892604351044,-1.0772804021835327,-0.0008559715352021158,0.00032241997541859746,0.0125227375,0.012217305,284.02625,67.93159,-18.859627,STD
279788486656.0,0.011171207763254642,0.11268822103738785,-1.164061427116394,-0.0009377082460559905,0.00036398411612026393,0.014049901000000002,0.011911872,283.63275,68.456665,-18.128708,STD
301365297152.0,0.012296578846871853,0.12141800671815872,-1.2538344860076904,-0.0010472917929291725,0.00040965963853523135,0.018936822,0.015271631,283.2459,68.961586,-17.415224,STD
323629121536.0,0.013490070588886738,0.1304236650466919,-1.3464655876159668,-0.0011910258326679468,0.0004595049540512264,0.02443461,0.014966198,282.8636,69.44710500000001,-16.716143,STD
346546241536.0,0.014752493239939213,0.1396898329257965,-1.4418151378631592,-0.0013748398050665855,0.0005135761457495391,0.015577064,0.013439035,282.48404,69.91116,-16.033438,STD
370081759232.0,0.016084525734186172,0.1492006778717041,-1.5397380590438843,-0.0016040022019296885,0.000571876356843859,0.008246681,0.011911872,282.1094700000001,70.358574,-15.365824,STD
394199859200.0,0.01748672127723694,0.15894007682800293,-1.6400853395462036,-0.001883088843896985,0.0006343699642457068,0.0143553335,0.014966198,281.7427,70.77728,-14.722407999999998,STD
418863972352.0,0.01895950920879841,0.16889183223247528,-1.7427046298980713,-0.002216288121417165,0.000700987468007952,0.008857545999999999,0.0143553335,281.3732,71.1803,-14.090381,STD
444037038080.0,0.020503200590610504,0.17903992533683777,-1.8474410772323608,-0.0026073746848851442,0.0007716327090747654,0.008552114,0.0067195175,281.01184,71.56084399999997,-13.475568,STD
469681668096.0,0.022117994725704193,0.1893688142299652,-1.9541380405426025,-0.0030593881383538246,0.0008461623801849782,-0.00061086525,0.0067195175,280.648,71.923485,-12.874935,STD
495760343040.0,0.023803984746336937,0.1998634934425354,-2.062638521194458,-0.0035744961351156235,0.0009243801468983293,-0.00061086525,0.0067195175,280.46432107354303,72.09761522624659,-12.578027323066099,STD
522235576320.0,0.02556115761399269,0.21050943434238434,-2.1727848052978516,-0.0041542332619428635,0.0010060807690024376,-0.00061086525,0.008857545999999999,280.27838,72.27389000000002,-12.277463,STD
549070012416.0,0.0273894052952528,0.22129246592521667,-2.2844202518463135,-0.0047996253706514835,0.0010910333367064595,0.011301007,0.0061086523,279.91187,72.61001999999998,-11.692008,STD
576226590720.0,0.029288528487086296,0.23219886422157288,-2.3973891735076904,-0.005510940682142973,0.0011789650889113545,0.004276057,0.00580322,279.5384,72.92692,-11.111472,STD
603668742144.0,0.0312582403421402,0.24321535229682922,-2.511537790298462,-0.006287511438131332,0.0012695958139374852,0.008857545999999999,0.010079277,279.17755,73.22785999999998,-10.550169,STD
631360389120.0,0.033298175781965256,0.25432899594306946,-2.6267144680023193,-0.007127712015062571,0.0013626805739477277,0.017715093,0.003970624,278.8183,73.515045,-9.998378,STD
659266142208.0,0.0354078933596611,0.2655269503593445,-2.7427709102630615,-0.008028977550566196,0.0014579116832464933,0.014049901000000002,0.010079277,278.45728,73.78712,-9.463057,BSC
687351267328.0,0.03758687525987625,0.2767965495586395,-2.8595616817474365,-0.008987803012132645,0.001555028953589499,0.013439035,0.0067195175,278.11194,74.03836,-8.938061,BSC
715581882368.0,0.03983454778790474,0.2881253659725189,-2.976945638656616,-0.009999680332839489,0.0016537932679057121,0.02443461,0.0018325958,277.76978,74.280464,-8.426635000000001,BSC
743925022720.0,0.042150262743234634,0.2995012104511261,-3.09478497505188,-0.011059162206947803,0.0017538892570883036,0.015577064,0.007941248,277.43115,74.50515,-7.936744999999997,BSC
772348510208.0,0.044533323496580124,0.310912162065506,-3.2129461765289307,-0.012160059064626694,0.001854992238804698,0.0143553335,0.007330383,277.0993,74.71472,-7.455875,BSC
800821280768.0,0.04698297381401062,0.32234641909599304,-3.3312997817993164,-0.013295614160597324,0.0019568081479519606,0.024740042,-0.00580322,276.7723,74.912224,-6.9853463000000025,BSC
829313253376.0,0.049498412758111954,0.3337925374507904,-3.449720859527588,-0.014458664692938328,0.0020589679479599,0.025350908,0.0018325958,276.4416,75.09777,-6.5302525000000005,BSC
857795395584.0,0.052078790962696075,0.345239520072937,-3.568089485168457,-0.015641778707504272,0.0021610623225569725,0.025961773,0.0036651916,276.11975,75.26829000000002,-6.0865846,BSC
886239854592.0,0.05472321808338165,0.3566768765449524,-3.6862902641296387,-0.016837235540151596,0.0022626789286732674,0.02687807,0.0033597588,275.79825,75.430176,-5.654387,BSC
914619760640.0,0.05743077024817467,0.3680945634841919,-3.804213047027588,-0.018036888912320137,0.0023633483797311783,0.023823744,0.007941248,275.4757,75.58327,-5.2335150000000015,BSC
942909358080.0,0.060200490057468414,0.3794828951358795,-3.9217529296875,-0.019232137128710747,0.0024625153746455908,0.0290161,0.010079277,275.1559,75.72652,-4.818503400000001,BSC
971084201984.0,0.0630313903093338,0.3908325731754303,-4.038809776306152,-0.020414164289832115,0.0025596064515411854,0.024129177,0.010690141499999998,274.83264,75.85885,-4.413028700000001,BSC
999120830464.0,0.06592245399951935,0.40213456749916077,-4.155289649963379,-0.021574152633547783,0.002654082141816616,0.025350908,0.014966198,274.52542,75.98076999999998,-4.0279765,BSC
1026996961280.0,0.06887265294790268,0.4133802056312561,-4.2711029052734375,-0.022703472524881363,0.0027455403469502926,0.028405234,0.01863139,274.2175,76.09076,-3.651467,BSC
1054691491840.0,0.07188092172145844,0.42456117272377014,-4.386166572570801,-0.023793866857886314,0.002833758480846882,0.032070424,0.020158553,273.91016,76.19263000000002,-3.2842267,BSC
1082184433664.0,0.07494619488716125,0.4356696605682373,-4.500401973724365,-0.024837564677000046,0.002918679965659976,0.030848695,0.026267206,273.60284,76.28704,-2.9309428,BSC
1109456977920.0,0.07806739211082458,0.4466981887817383,-4.613735198974609,-0.025827331468462944,0.00300037139095366,0.026572637000000003,0.017715093,273.29678,76.37427,-2.5822415000000003,BSC
1136491233280.0,0.08124341070652008,0.4576396644115448,-4.726097583770752,-0.026756539940834045,0.0030790111050009727,0.03390302,0.02321288,272.99905,76.457245,-2.2465944,BSC
1163270684672.0,0.0844731479883194,0.46848732233047485,-4.8374247550964355,-0.02761927992105484,0.0031550501007586718,0.040317107000000005,0.018020526,272.7011,76.52927,-1.913143,BSC
1189779603456.0,0.087755486369133,0.4792347252368927,-4.947657108306885,-0.028410442173480988,0.0032292131800204515,0.02565634,0.020158553,272.3942,76.59665,-1.5910528,BSC
1216003571712.0,0.09108931571245193,0.4898757338523865,-5.056739807128906,-0.02912578172981739,0.003302516182884574,0.025045475,0.022296581,272.09348,76.65171,-1.2763792,BSC
1241928957952.0,0.09447351843118668,0.5004046559333801,-5.164621829986572,-0.02976195514202118,0.0033762019593268633,0.038789943,0.027794369,271.79758,76.70753,-0.9723515,BSC
1267543441408.0,0.09790697693824768,0.510816216468811,-5.271256446838379,-0.030316665768623352,0.00345178903080523,0.029932396,0.033292156,271.49512000000004,76.752266,-0.6746486,BSC
1292835356672.0,0.10138857364654541,0.5211055278778076,-5.376601696014404,-0.03078877553343773,0.00353114097379148,0.020158553,0.03176499,271.19644,76.7912,-0.3843956,BSC
1317794217984.0,0.10491719096899033,0.5312681794166565,-5.480618953704834,-0.031178385019302368,0.0036163891199976206,0.027488936,0.032375857,270.90137000000004,76.830345,-0.10304027,BSC
1342410326016.0,0.10849172621965408,0.5413002967834473,-5.583272933959961,-0.031486876308918,0.003709829645231366,0.028099801,0.03268129,270.60193,76.86198399999998,0.17316946,BSC
1366675030016.0,0.11211106926202774,0.551198422908783,-5.68453311920166,-0.031716831028461456,0.0038139771204441786,0.03145956,0.035124752999999995,270.31412,76.88833000000002,0.44192103,BSC
1390580465664.0,0.11577412486076355,0.5609599351882935,-5.784371376037598,-0.031871795654296875,0.00393163226544857,0.04795292,0.03359759,270.03033,76.91099,0.7044186,BSC
1414119555072.0,0.11947981268167496,0.5705830454826355,-5.882762432098389,-0.03195607662200928,0.00406573386862874,0.058337633,0.03481932,269.7279,76.93808,0.9681553,BSC
1437286137856.0,0.12322704493999481,0.5800667405128479,-5.979683876037598,-0.0319746695458889,0.004219354130327702,0.064751714,0.03481932,269.42935,76.95275,1.225366,BSC
1460074708992.0,0.12701477110385895,0.5894108414649963,-6.07511568069458,-0.03193321451544762,0.004395706113427877,0.0720821,0.040011674,269.1338,76.96629,1.4737332,BSC
1482480549888.0,0.130841925740242,0.5986160635948181,-6.169039249420166,-0.031837839633226395,0.004598015453666449,0.07727446,0.03145956,268.8405,76.97684,1.727369,BSC
1504499597312.0,0.1347074806690216,0.6076838374137878,-6.261438846588135,-0.03169490396976471,0.004829565994441509,0.07391469,0.03970624,268.54584,76.97773000000002,1.9687933,BSC
1526128705536.0,0.13861039280891418,0.6166164875030518,-6.352299213409424,-0.03151081129908562,0.005093737971037626,0.07299839999999999,0.04337143,268.25327000000004,76.97848,2.2111428,BSC
1547365253120.0,0.14254966378211975,0.6254166960716248,-6.4416069984436035,-0.03129209205508232,0.005393934436142445,0.07727446,0.046731193,267.96118,76.9776,2.4451916,BSC
1568207142912.0,0.14652429521083832,0.6340872645378113,-6.529351234436035,-0.03104545921087265,0.005733578000217676,0.08827003,0.036957346,267.6778,76.96621,2.6789768,BSC
1588652933120.0,0.1505333036184311,0.6426310539245605,-6.615522861480713,-0.030777718871831894,0.006116115488111973,0.10598512,0.039095376,267.39706,76.953575,2.9022136,BSC
1608701837312.0,0.15457573533058167,0.6510509252548218,-6.7001142501831055,-0.030495660379529,0.006544957868754864,0.11026118,0.04184427,267.1167,76.93892,3.1226673,BSC
1628353462272.0,0.15865063667297363,0.6593497395515442,-6.7831196784973145,-0.030205966904759407,0.007023445330560207,0.111177474,0.0421497,266.83893,76.92492,3.3334773,BSC
1647608070144.0,0.16275709867477417,0.6675304770469666,-6.864535808563232,-0.029915133491158485,0.007554762531071901,0.0983493,0.037873644,266.5591,76.911224,3.5402641000000004,BSC
1666466316288.0,0.16689419746398926,0.6755962371826172,-6.944360256195068,-0.02962932176887989,0.008142075501382351,0.105068825,0.03634648,266.27936,76.88628,3.7418802,BSC
1684929380352.0,0.17106103897094727,0.683550238609314,-7.022593021392822,-0.029354047030210495,0.008788460865616798,0.09865474,0.03940081,265.993,76.86786,3.9399297,BSC
1702998704128.0,0.17525674402713776,0.6913958787918091,-7.099236011505127,-0.029093928635120392,0.009496870450675488,0.09040806,0.040317107000000005,265.70746,76.84071,4.1359080000000015,BSC
1720676253696.0,0.1794804483652115,0.6991367340087891,-7.174293041229248,-0.028852548450231552,0.010270118713378906,0.07513642,0.03726278,265.41900000000004,76.81268,4.328093,BSC
1737964388352.0,0.1837313175201416,0.70677649974823,-7.247769355773926,-0.028632408007979393,0.011110932566225529,0.06627888,0.03268129,265.13098,76.78204000000002,4.515773,BSC
1754865860608.0,0.18800851702690125,0.7143188714981079,-7.319672107696533,-0.02843499556183815,0.01202197466045618,0.07422013,0.027183503,264.84338,76.74143000000002,4.700085,BSC
1771383685120.0,0.19231124222278595,0.7217674255371094,-7.39000940322876,-0.028260957449674606,0.013005778193473816,0.0693332,0.028710667,264.55078,76.70116999999998,4.8803234,BSC
1787521138688.0,0.19663870334625244,0.7291254997253418,-7.458791732788086,-0.02811010554432869,0.014064817689359188,0.0711658,0.03023783,264.26105,76.648674,5.0596943,BSC
1803281760256.0,0.20099014043807983,0.7363962531089783,-7.52603006362915,-0.02798120304942131,0.015201397240161896,0.084910266,0.027183503,263.9748,76.60211,5.234854,BSC
1818669481984.0,0.20536477863788605,0.7435827255249023,-7.591736316680908,-0.02787192538380623,0.01641760766506195,0.07849618,0.032375857,263.68204,76.55238,5.4000195999999985,BSC
1833688367104.0,0.20976190268993378,0.7506877183914185,-7.655923843383789,-0.02777920290827751,0.017715321853756905,0.0842994,0.03481932,263.3984,76.50397,5.5608625,BSC
1848342872064.0,0.21418079733848572,0.7577136158943176,-7.718605995178223,-0.02769952267408371,0.019096218049526215,0.08155051,0.036957346,263.12006,76.44963,5.718221,BSC
1862637453312.0,0.21862076222896576,0.7646626234054565,-7.7797980308532715,-0.02762908861041069,0.020561806857585907,0.08368854,0.04153884,262.84576,76.39644,5.869502,BSC
1876576829440.0,0.22308112680912018,0.7715364694595337,-7.839515209197998,-0.027563966810703278,0.02211337350308895,0.079107046,0.05222898,262.5656,76.34849,6.012002,BSC
1890165981184.0,0.22756122052669525,0.7783366441726685,-7.897773742675781,-0.027500126510858536,0.02375211752951145,0.089491755,0.04917465,262.29236000000003,76.29318,6.1522827000000015,BSC
1903409889280.0,0.23206040263175964,0.7850644588470459,-7.954591274261475,-0.027433406561613083,0.025479314848780632,0.08582657,0.04734206,262.0146,76.2401,6.2867274,BSC
1916313796608.0,0.2365780472755432,0.7917212247848511,-8.00998592376709,-0.027359534054994583,0.02729634754359722,0.092240654,0.04520403,261.74625,76.18845,6.415021,BSC
1928882946048.0,0.241113543510437,0.7983080744743347,-8.063976287841797,-0.02727418951690197,0.029204662889242172,0.09712757,0.045814894,261.47787,76.13395,6.5400343,BSC
1941122711552.0,0.2456662803888321,0.8048260807991028,-8.116583824157715,-0.0271731186658144,0.031205730512738228,0.09132435,0.04520403,261.20276,76.07128,6.6665490000000025,BSC
1953038598144.0,0.2502357065677643,0.8112760782241821,-8.167829513549805,-0.02705240808427334,0.033301107585430145,0.08582657,0.04153884,260.93097,76.00548,6.7901216,BSC
1964636241920.0,0.25482121109962463,0.8176587224006653,-8.21773624420166,-0.026908686384558678,0.03549253195524216,0.0842994,0.043676864,260.6588,75.94038,6.908715700000001,BSC
1975921278976.0,0.25942227244377136,0.8239743709564209,-8.266325950622559,-0.026738997548818588,0.03778184577822685,0.079107046,0.042760565999999986,260.38622999999995,75.876175,7.0265265,BSC
1986899345408.0,0.2640383541584015,0.830223023891449,-8.313620567321777,-0.026540694758296013,0.04017094150185585,0.058643065,0.044593163,260.10394,75.811424,7.1398597000000015,BSC
1997576208384.0,0.2686689496040344,0.8364042043685913,-8.359643936157227,-0.026311390101909637,0.04266183078289032,0.042455133,0.053450707,259.8228,75.74475,7.2485037,BSC
2007957766144.0,0.2733135521411896,0.8425169587135315,-8.404417037963867,-0.02604895830154419,0.04525667428970337,0.02107485,0.063224554,259.53622,75.67956,7.354946000000001,BSC
2018049654784.0,0.27797165513038635,0.8485597968101501,-8.44796371459961,-0.025751587003469467,0.04795771837234497,-0.005192355,0.07086037,259.25107,75.61704,7.451060000000001,BSC
2027857772544.0,0.28264281153678894,0.8545307517051697,-8.49030590057373,-0.02541784569621086,0.05076733976602554,-0.018325957,0.081855945,258.9647,75.55123,7.541492999999999,BSC
2037387886592.0,0.28732654452323914,0.8604274988174438,-8.531465530395508,-0.02504674717783928,0.053687963634729385,-0.029321533,0.08307768,258.6641,75.485985,7.631214999999999,BSC
2046645895168.0,0.2920224070549011,0.8662474155426025,-8.571464538574219,-0.024637779220938683,0.05672208592295647,-0.022602014,0.08857546,258.3661,75.41896,7.7139792,BSC
2055637565440.0,0.2967299818992615,0.8719878792762756,-8.610323905944824,-0.02419091761112213,0.05987226590514183,-0.026572637000000003,0.09865474,258.0638,75.353226,7.794085000000001,BSC
2064368664576.0,0.30144885182380676,0.8776464462280273,-8.648065567016602,-0.023706499487161636,0.06314105540513992,-0.019242255,0.109650314,257.76434,75.29259,7.865288,BSC
2072844959744.0,0.30617859959602356,0.8832207322120667,-8.684708595275879,-0.023185070604085922,0.06653095036745071,-0.029626964,0.10445796,257.4615,75.22828,7.937491,BSC
2081072087040.0,0.3109188377857208,0.888708770275116,-8.7202730178833,-0.022627390921115875,0.0700443759560585,-0.021685716,0.11759156,257.15714,75.164024,8.004598,BSC
2089055813632.0,0.3156692087650299,0.8941090106964111,-8.754776000976562,-0.02203456126153469,0.07368360459804535,-0.027183503,0.116980694,256.8499,75.09939,8.076291000000001,BSC
2096801775616.0,0.3204292953014374,0.899420440196991,-8.78823471069336,-0.021407995373010635,0.07745078951120377,-0.024740042,0.12003502,256.54153,75.02673,8.141562,BSC
2104315609088.0,0.325198769569397,0.904642641544342,-8.820663452148438,-0.020749274641275406,0.08134784549474716,-0.01985312,0.11636983,256.23566,74.959724,8.207052000000001,BSC
2111602688000.0,0.32997727394104004,0.9097756743431091,-8.852076530456543,-0.02005995810031891,0.08537638187408447,-0.0009162979,0.11728613,255.93768,74.889984,8.2734,BSC
2118668648448.0,0.3347644805908203,0.9148204326629639,-8.882486343383789,-0.019341355189681053,0.0895376056432724,-0.004581489,0.116675265,255.63788,74.82422,8.340249,BSC
2125518864384.0,0.3395600914955139,0.9197782278060913,-8.911904335021973,-0.018594468012452126,0.09383227676153183,0.0030543262,0.12064589,255.34776,74.75752,8.400039999999999,BSC
2132158709760.0,0.3443637490272522,0.9246509075164795,-8.940340995788574,-0.017820065841078758,0.09826068580150604,0.004276057,0.12583824,255.05756,74.69487,8.45841,BSC
2138593427456.0,0.34917518496513367,0.9294406771659851,-8.967804908752441,-0.017018619924783707,0.10282274335622787,0.0015271631,0.1151481,254.77185,74.620476,8.522128,BSC
2144828260352.0,0.35399407148361206,0.934149980545044,-8.994302749633789,-0.016190098598599434,0.1075180321931839,0.0070249503,0.106595986,254.4912,74.54953,8.581380000000001,BSC
2150868451328.0,0.3588201701641083,0.9387813806533813,-9.019843101501465,-0.015333865769207478,0.11234577745199203,-0.01160644,0.10629055,254.21005,74.481186,8.640547999999999,BSC
2156718850048.0,0.36365318298339844,0.9433372020721436,-9.044432640075684,-0.014448687434196472,0.11730492115020752,-0.016798794,0.09132435,253.9385,74.40418000000003,8.703227,BSC
2162384568320.0,0.36849287152290344,0.9478192925453186,-9.068078994750977,-0.013532692566514015,0.12239416688680649,-0.017104227,0.07849618,253.66373,74.32645,8.764223,BSC
2167870586880.0,0.3733389675617218,0.9522290825843811,-9.090791702270508,-0.012583313509821892,0.1276119500398636,-0.019242255,0.07452556,253.3902,74.24809,8.825531,BSC
2173181624320.0,0.3781912326812744,0.9565670490264893,-9.112580299377441,-0.011597193777561188,0.13295648992061615,-0.015577064,0.0720821,253.11865,74.16885,8.874792,BSC
2178322399232.0,0.38304945826530457,0.960832953453064,-9.133455276489258,-0.010570120997726917,0.1384258270263672,-0.004276057,0.07299839999999999,252.85153,74.092445,8.9223,BSC
2183297630208.0,0.38791340589523315,0.9650255441665649,-9.15342903137207,-0.00949699804186821,0.14401768147945404,0.007941248,0.07666359,252.58853,74.01987,8.967874,BSC
2188111773696.0,0.3927828371524811,0.9691426157951355,-9.172516822814941,-0.008371910080313683,0.14972931146621704,0.023823744,0.07513642,252.32645,73.94685,9.007197999999997,BSC
2192769417216.0,0.397657573223114,0.9731811285018921,-9.190732955932617,-0.007188257295638323,0.15555749833583832,0.048563786,0.06750060599999999,252.07329,73.87469499999997,9.044464,BSC
2197274886144.0,0.40253740549087524,0.9771372079849243,-9.20809555053711,-0.005938887130469084,0.1614985167980194,0.058337633,0.07269296,251.82057000000003,73.80721,9.072364,BSC
2201632636928.0,0.40742212533950806,0.9810062050819397,-9.224623680114746,-0.0046162074431777,0.16754810512065887,0.08093964,0.06658431,251.58241,73.74494,9.101827,BSC
2205846601728.0,0.4123115539550781,0.9847827553749084,-9.240338325500488,-0.0032123837154358625,0.17370158433914185,0.09560041,0.06780604,251.34097000000003,73.67945,9.121104,BSC
2209921105920.0,0.41720548272132874,0.9884607791900635,-9.25525951385498,-0.001719567459076643,0.1799539476633072,0.12522738,0.07269296,251.11295,73.62275,9.137506,BSC
2213860343808.0,0.42210376262664795,0.9920336604118347,-9.269410133361816,-0.0001301486190641299,0.18629980087280273,0.14172074,0.07544186,250.88501,73.56929000000002,9.145787,BSC
2217667985408.0,0.42700621485710144,0.9954944252967834,-9.28281307220459,0.0015629885019734502,0.19273340702056885,0.15668693,0.071776666,250.6676,73.51225,9.151947,BSC
2221348225024.0,0.4319126605987549,0.9988359212875366,-9.295490264892578,0.003366317367181182,0.19924885034561157,0.18387043,0.07971791,250.45302,73.46370999999998,9.144744,BSC
2224904470528.0,0.43682295083999634,1.0020506381988525,-9.307464599609375,0.005285615101456642,0.20583997666835785,0.19425514,0.0842994,250.2408,73.41701,9.139211,BSC
2228340654080.0,0.44173693656921387,1.0051308870315552,-9.318757057189941,0.007325924001634121,0.2125004380941391,0.2180789,0.08277224,250.0367,73.37167,9.130008,BSC
2231660183552.0,0.44665446877479553,1.008068561553955,-9.329389572143555,0.00949144922196865,0.21922369301319122,0.23854288,0.08796459400000001,249.83612,73.33179,9.116928,BSC
2234866728960.0,0.4515753984451294,1.0108559131622314,-9.33938217163086,0.011785405687987804,0.22600296139717102,0.25259277,0.09407325,249.64273,73.29431,9.1026125,BSC
2237963698176.0,0.4564996063709259,1.013485312461853,-9.348752975463867,0.014209804125130177,0.23283126950263977,0.27091873,0.09712757,249.45477,73.261696,9.0783,BSC
2240954499072.0,0.4614269733428955,1.0159497261047363,-9.357521057128906,0.016765344887971878,0.23970143496990204,0.29901853,0.098043874,249.2752,73.23021,9.051359,BSC
2243842539520.0,0.46635738015174866,1.0182430744171143,-9.365703582763672,0.019451461732387543,0.24660618603229523,0.3304781,0.106901415,249.10121,73.20721,9.015553,BSC
2246630703104.0,0.4712906777858734,1.0203602313995361,-9.373316764831543,0.022266516461968422,0.2535381317138672,0.3475823,0.11148291,248.9331,73.18619,8.980074,BSC
2249322135552.0,0.4762267768383026,1.0222972631454468,-9.380376815795898,0.025208087638020515,0.2604897618293762,0.36346483,0.110872045,248.77719,73.17239000000002,8.936757,BSC
2251919982592.0,0.4811655580997467,1.024051547050476,-9.386900901794434,0.02827330492436886,0.2674535810947418,0.3848451,0.10720685,248.62897,73.15856,8.89211,BSC
2254427389952.0,0.48610690236091614,1.0256218910217285,-9.392906188964844,0.03145903721451759,0.2744219899177551,0.41783184,0.108123146,248.4874,73.150024,8.846869,BSC
2256846979072.0,0.49105072021484375,1.0270081758499146,-9.398409843444824,0.03476181626319885,0.2813871502876282,0.45540005,0.10720685,248.35495,73.14215,8.801978,BSC
2259181633536.0,0.49599689245224,1.028212070465088,-9.40342903137207,0.03817791864275932,0.288341224193573,0.4908302,0.099571034,248.22913,73.12635,8.75617,BSC
2261433974784.0,0.5009453296661377,1.0292364358901978,-9.40798282623291,0.04170370474457741,0.29527631402015686,0.52839845,0.098043874,248.11536,73.11856,8.7069025,BSC
2263606624256.0,0.5058959722518921,1.030085563659668,-9.412088394165039,0.04533594101667404,0.3021845519542694,0.5448918,0.08246681,248.01144,73.10943,8.664665,BSC
2265702203392.0,0.5108487010002136,1.0307652950286865,-9.415764808654785,0.04907234385609627,0.309058278799057,0.5546656,0.07238753,247.91692,73.09585,8.619981,BSC
2267723333632.0,0.5158033967018127,1.0312827825546265,-9.41903018951416,0.05291198566555977,0.3158903121948242,0.5412266,0.044898596,247.82495,73.07044,8.585548,BSC
2269672374272.0,0.5207600593566895,1.0316472053527832,-9.421903610229492,0.0568561851978302,0.32267385721206665,0.52778757,0.042455133,247.73557,73.047935,8.547017,BSC
2271551684608.0,0.5257185697555542,1.031869888305664,-9.42440128326416,0.06090981140732765,0.3294026851654053,0.48533243,0.0143553335,247.6391,73.01103,8.526845,BSC
2273363623936.0,0.5306788086891174,1.0319647789001465,-9.426539421081543,0.06508154422044754,0.33607110381126404,0.46089783,-0.0015271631,247.551,72.95588000000002,8.509727999999999,BSC
2275110289408.0,0.5356407761573792,1.0319479703903198,-9.428333282470703,0.06938283145427704,0.3426739573478699,0.4184427,-0.02076942,247.44937,72.89715,8.505853,BSC
2276794040320.0,0.5406043529510498,1.031837821006775,-9.429797172546387,0.07382705062627792,0.3492065966129303,0.38789943,-0.03573562,247.36356,72.779785,8.52897,BSC
2278416973824.0,0.5455695390701294,1.0316540002822876,-9.430941581726074,0.07842846214771271,0.35566478967666626,0.37568212,-0.055283304000000005,247.27422,72.660515,8.55964,BSC
2279980924928.0,0.5505362153053284,1.0314173698425293,-9.431775093078613,0.08320125937461853,0.3620448410511017,0.37598756,-0.063224554,247.18164,72.545105,8.5916195,BSC
2281487990784.0,0.555504322052002,1.0311497449874878,-9.432305335998535,0.08815883845090866,0.36834362149238586,0.40408736,-0.0711658,247.10178,72.412964,8.637686,BSC
2282940268544.0,0.5604738593101501,1.0308738946914673,-9.432538032531738,0.09331323951482773,0.3745588958263397,0.42638394,-0.076052725,247.02219,72.281166,8.684217,BSC
2284339331072.0,0.5654447078704834,1.0306134223937988,-9.432476043701172,0.09867534041404724,0.3806893229484558,0.44073927,-0.08857546,246.95383,72.15059000000002,8.729841,BSC
2285687275520.0,0.5704168081283569,1.0303930044174194,-9.432122230529785,0.10425551235675812,0.3867347240447998,0.42852196,-0.09621128,246.88547000000003,72.01201999999998,8.774767,BSC
2286985674752.0,0.5753901600837708,1.0302380323410034,-9.431479454040527,0.11006449162960052,0.3926962614059448,0.38362336,-0.09040806,246.81537000000003,71.86649,8.825014,BSC
2288236101632.0,0.5803646445274353,1.0301741361618042,-9.430548667907715,0.11611468344926834,0.39857640862464905,0.31520647,-0.086132,246.73706,71.71840999999998,8.879545,BSC
2289440391168.0,0.5853402614593506,1.0302270650863647,-9.429332733154297,0.12242112308740616,0.4043789803981781,0.22021692,-0.08674286,246.6495,71.53787,8.947704,BSC
2290600116224.0,0.5903169512748718,1.0304220914840698,-9.42783260345459,0.12900222837924957,0.41010868549346924,0.098043874,-0.09407325,246.5368,71.3606,9.022905,BSC
2291716849664.0,0.5952946543693542,1.0307838916778564,-9.426050186157227,0.13588032126426697,0.415770947933197,-0.04520403,-0.096516706,246.40292,71.14343000000002,9.106071,BSC
2292792164352.0,0.6002733707427979,1.0313353538513184,-9.423988342285156,0.14308127760887146,0.42137154936790466,-0.19730948,-0.09896017,246.23547,70.93396,9.200212,BSC
2293827371008.0,0.6052529811859131,1.032097339630127,-9.421648979187012,0.15063418447971344,0.4269166886806488,-0.32620203,-0.10598512,246.05382000000003,70.679985,9.3075075,BSC
2294824042496.0,0.6102334856987,1.0330880880355835,-9.419035911560059,0.15857082605361938,0.43241268396377563,-0.46181414,-0.11209377,245.83156,70.43741,9.42613,BSC
2295783489536.0,0.6152148842811584,1.034322738647461,-9.416152954101562,0.16692517697811127,0.43786612153053284,-0.5299255999999999,-0.11484267,245.60321,70.17153,9.534648,BSC
2296706760704.0,0.6201971173286438,1.0358128547668457,-9.413005828857422,0.17573216557502747,0.44328397512435913,-0.6462954000000001,-0.11759156,245.32889,69.908066,9.658022,BSC
2297595428864.0,0.6251801252365112,1.037566065788269,-9.409600257873535,0.18502658605575562,0.4486735761165619,-0.711658,-0.13683382,245.06189,69.632126,9.773561,BSC
2298450804736.0,0.630163848400116,1.0395857095718384,-9.40594482421875,0.19484172761440277,0.45404261350631714,-0.7189884,-0.17043139999999998,244.78574,69.34773,9.896324,BSC
2299273674752.0,0.635148286819458,1.041871428489685,-9.402048110961914,0.20520827174186707,0.4593989849090576,-0.66675943,-0.1957823,244.50594,69.0764,10.003905,BSC
2300065611776.0,0.6401334404945374,1.0444185733795166,-9.397921562194824,0.2161536067724228,0.46475037932395935,-0.56291234,-0.20891592,244.24612,68.80703000000001,10.110596,BSC
2300827402240.0,0.6451192498207092,1.0472185611724854,-9.393577575683594,0.22770139575004578,0.47010427713394165,-0.43768495,-0.19975294,243.99844,68.55931,10.194162,BSC
2301560356864.0,0.6501056551933289,1.0502588748931885,-9.38902759552002,0.23987135291099548,0.4754676818847656,-0.31673363,-0.18906279,243.78398,68.32204399999999,10.269478,BSC
2302265524224.0,0.6550926566123962,1.053523302078247,-9.384284019470215,0.25267916917800903,0.48084717988967896,-0.16157386,-0.17592919,243.6163,68.0888,10.324923,BSC
2302943952896.0,0.6600802540779114,1.0569921731948853,-9.379358291625977,0.26613688468933105,0.4862488806247711,0.00030543262000000003,-0.17654006,243.4797,67.87189000000001,10.349166,BSC
2303596429312.0,0.6650683879852295,1.060642957687378,-9.374261856079102,0.2802537679672241,0.4916786551475525,0.18387043,-0.16584991,243.39186,67.65899,10.34933,BSC
2304224002048.0,0.6700569987297058,1.0644505023956299,-9.36900520324707,0.29503732919692993,0.4971422255039215,0.3640757,-0.16584991,243.3497,67.44566999999999,10.321179,BSC
2304827457536.0,0.6750460863113403,1.0683879852294922,-9.363595962524414,0.3104954957962036,0.5026452541351318,0.47861293,-0.16615535,243.33974,67.23911,10.27947,BSC
2305407844352.0,0.6800356507301331,1.072427749633789,-9.358040809631348,0.32663795351982117,0.5081934332847595,0.5381723,-0.183565,243.36942,67.00048000000001,10.225491,BSC
2305965948928.0,0.685025691986084,1.0765420198440552,-9.352343559265137,0.34347614645957947,0.5137925148010254,0.54550266,-0.20219639,243.41599,66.762856,10.167307,BSC
2306502557696.0,0.6900161504745483,1.0807034969329834,-9.34650707244873,0.36102330684661865,0.5194481611251831,0.4841107,-0.20586158,243.49234,66.472824,10.113739,BSC
2307018457088.0,0.6950070858001709,1.0848861932754517,-9.340531349182129,0.3792954087257385,0.5251660943031311,0.34300083,-0.21166481,243.55038,66.17501,10.074718,BSC
2307514433536.0,0.6999984979629517,1.0890655517578125,-9.3344144821167,0.3983100652694702,0.5309521555900574,0.32284227,-0.20311269,243.62277000000003,65.87863,10.027787,BSC
2307991273472.0,0.7049903273582458,1.0932179689407349,-9.328156471252441,0.41808629035949707,0.5368120670318604,0.28191432,-0.18967366,243.67944,65.526855,10.013271,BSC
2308449763328.0,0.7099826335906982,1.0973201990127563,-9.321756362915039,0.4386444389820099,0.5427505373954773,0.28069258,-0.18142697,243.74084,65.19199,9.996146,BSC
2308890427392.0,0.7149754166603088,1.1013493537902832,-9.315217971801758,0.46000605821609497,0.5487706065177917,0.18020524,-0.1853976,243.7645,64.87106,9.994642,BSC
2309314052096.0,0.7199686765670776,1.105279803276062,-9.30854606628418,0.4821913540363312,0.5548732280731201,0.079107046,-0.18692477,243.78653,64.57132,9.99127,BSC
2309721161728.0,0.7249623537063599,1.1090812683105469,-9.301748275756836,0.5052170157432556,0.5610570907592773,-0.116980694,-0.1337795,243.75935,64.29216,9.97018,BSC
2310112542720.0,0.7299564480781555,1.112718105316162,-9.294836044311523,0.5290947556495667,0.5673189759254456,-0.19822577,-0.060170225999999986,243.73358,64.03679,9.943416,BSC
2310488719360.0,0.7349510192871094,1.116150140762329,-9.28781795501709,0.5538303256034851,0.5736539959907532,-0.13561209,0.025045475,243.68668,63.79534,9.906081,BSC
2310850215936.0,0.7399459481239319,1.1193339824676514,-9.2807035446167,0.5794236660003662,0.5800561904907227,-0.019242255,0.10629055,243.58789,63.63652800000001,9.774108,BSC
2311197556736.0,0.7449412941932678,1.1222246885299683,-9.273499488830566,0.6058693528175354,0.5865190029144287,0.10354166,0.1777618,243.49834,63.487003,9.617075,BSC
2311531266048.0,0.7499369978904724,1.1247763633728027,-9.266210556030273,0.6331575512886047,0.5930355191230774,0.22266038,0.22876903,243.42072,63.351063,9.4222145,BSC
2311851868160.0,0.7549330592155457,1.1269432306289673,-9.258837699890137,0.6612758040428162,0.59959876537323,0.29993483,0.25778514,243.35773,63.213028,9.209003,BSC
2312160149504.0,0.7599294781684875,1.1286803483963013,-9.251379013061523,0.6902099847793579,0.6062019467353821,0.310625,0.24495697,243.30547,63.04835,8.996516,BSC
2312456110080.0,0.7649261951446533,1.1299450397491455,-9.243830680847168,0.7199451327323914,0.6128390431404114,0.3145956,0.22296582,243.26804,62.877434,8.775097,BSC
2312740536320.0,0.769923210144043,1.1306984424591064,-9.236184120178223,0.7504657506942749,0.6195052266120911,0.3268129,0.204029,243.25351,62.654964,8.550697,BSC
2313013952512.0,0.7749204635620117,1.1309075355529785,-9.228425979614258,0.7817573547363281,0.626197099685669,0.32498032,0.19425514,243.23634,62.416313,8.335336999999999,BSC
2313276620800.0,0.7799180150032043,1.1305471658706665,-9.220538139343262,0.8138083815574646,0.6329129338264465,0.31245756,0.18692477,243.22017,62.164883,8.128436,BSC
2313528803328.0,0.7849158048629761,1.1296008825302124,-9.212495803833008,0.8466104865074158,0.6396524906158447,0.26908615,0.19639318,243.20932,61.859375,7.952195,BSC
2313771024384.0,0.7899138331413269,1.1280603408813477,-9.204270362854004,0.880158543586731,0.6464168429374695,0.20219639,0.20250183,243.18915,61.546432,7.787141,BSC
2314003808256.0,0.7949120402336121,1.1259251832962036,-9.195829391479492,0.9144501686096191,0.6532080769538879,0.13652839,0.22174409,243.1922,61.127346,7.6859074,BSC
2314227417088.0,0.7999104261398315,1.1232023239135742,-9.187138557434082,0.9494848847389221,0.6600290536880493,0.10903945,0.22540927,243.18802,60.71384000000001,7.5932918,BSC
2314442113024.0,0.8049090504646301,1.1199049949645996,-9.178163528442383,0.9852632284164429,0.6668831706047058,0.12461651,0.20586158,243.18533,60.26351,7.526622,BSC
2314648420352.0,0.8099077939987183,1.116052508354187,-9.168868064880371,1.0217862129211426,0.673774003982544,0.14660765,0.18081611,243.17702000000003,59.826633,7.4650803,BSC
2314846601216.0,0.8149067163467407,1.1116687059402466,-9.159217834472656,1.0590547323226929,0.6807050108909607,0.18875736,0.18875736,243.17532000000003,59.399944,7.396947,BSC
2315036917760.0,0.8199057579040527,1.1067811250686646,-9.149177551269531,1.097069501876831,0.6876791715621948,0.22999077,0.20005837,243.17473,58.96620600000001,7.346044999999997,BSC
2315219894272.0,0.8249049186706543,1.1014195680618286,-9.138713836669922,1.1358305215835571,0.694698691368103,0.2724459,0.20647246,243.18408,58.55341,7.2896867,BSC
2315395530752.0,0.8299041986465454,1.0956146717071533,-9.127795219421387,1.1753367185592651,0.7017648816108704,0.30115658,0.22113322,243.19868,58.12866999999999,7.227783,BSC
2315564351488.0,0.8349035978317261,1.0893971920013428,-9.116393089294434,1.2155848741531372,0.7088780999183655,0.35094208,0.23396139,243.22754,57.723873,7.157155499999999,BSC
2315726356480.0,0.8399030566215515,1.0827971696853638,-9.104479789733887,1.256569266319275,0.7160378098487854,0.4034765,0.2593123,243.25406,57.317223,7.057264999999999,BSC
2315882070016.0,0.8449026346206665,1.0758432149887085,-9.092031478881836,1.2982805967330933,0.7232428193092346,0.45540005,0.29871312,243.28711,56.92215699999999,6.945824000000001,BSC
2316031492096.0,0.8499022722244263,1.068562388420105,-9.079025268554688,1.340705394744873,0.7304913401603699,0.48472157,0.36957347,243.30669,56.537617,6.8030314,BSC
2316175147008.0,0.8549019694328308,1.0609796047210693,-9.06544303894043,1.3838257789611816,0.7377811670303345,0.51923543,0.43982297,243.33215,56.16295,6.645481599999999,BSC
2316313034752.0,0.8599017262458801,1.0531177520751953,-9.051268577575684,1.427619457244873,0.7451097965240479,0.57360244,0.48747048,243.35985,55.792393,6.472389700000001,BSC
2316445417472.0,0.864901602268219,1.0449975728988647,-9.036489486694336,1.4720603227615356,0.7524741888046265,0.6291912,0.5305365,243.36392,55.45219399999999,6.2677510000000005,BSC
2316572557312.0,0.8699014782905579,1.036637544631958,-9.021093368530273,1.5171185731887817,0.7598708271980286,0.65209866,0.5506949999999999,243.3671,55.110542,6.0586343000000005,BSC
2316694716416.0,0.8749014139175415,1.0280539989471436,-9.005070686340332,1.562761902809143,0.7672958374023438,0.6310238,0.5702427,243.36404,54.78699,5.84287,BSC
2316812156928.0,0.8799014091491699,1.0192607641220093,-8.988414764404297,1.6089555025100708,0.774744987487793,0.5684100999999999,0.5852089,243.3416,54.46224599999999,5.6200604000000025,BSC
2316924878848.0,0.8849014639854431,1.0102698802947998,-8.971117973327637,1.6556626558303833,0.7822137475013733,0.4746423,0.5870415,243.30399,54.14686999999999,5.409964,BSC
2317033144320.0,0.8899015188217163,1.0010915994644165,-8.953177452087402,1.7028448581695557,0.7896976470947266,0.38453966,0.6026186,243.24954,53.809406,5.193452,BSC
2317137215488.0,0.8949015736579895,0.9917347431182861,-8.934591293334961,1.7504618167877197,0.7971924543380737,0.30024028,0.589485,243.17789,53.476032,5.0031376,BSC
2317237092352.0,0.8999016880989075,0.9822069406509399,-8.915361404418945,1.7984720468521118,0.8046944737434387,0.2648101,0.5757405,243.0874,53.130203,4.813614,BSC
2317333037056.0,0.9049018025398254,0.9725151062011719,-8.895491600036621,1.846833348274231,0.812200665473938,0.24220806,0.57635134,242.97992,52.78613299999999,4.640552,BSC
2317425311744.0,0.9099019169807434,0.9626656174659729,-8.87498950958252,1.8955029249191284,0.8197084069252014,0.18478674,0.5870415,242.84688,52.44436,4.478927,BSC
2317513916416.0,0.9149019718170166,0.9526642560958862,-8.853866577148438,1.9444388151168823,0.8272157311439514,0.16126843,0.59559363,242.7172,52.104755,4.3202357000000005,BSC
2317599113216.0,0.9199020266532898,0.942516028881073,-8.83213996887207,1.9936014413833618,0.8347209095954895,0.089491755,0.59773165,242.5635,51.77144600000001,4.1832547,BSC
2317680902144.0,0.924902081489563,0.9322250485420227,-8.809830665588379,2.0429539680480957,0.8422224521636963,0.03481932,0.58184916,242.40576,51.43362800000001,4.050138,BSC
2317759545344.0,0.9299021363258362,0.9217943549156189,-8.786967277526855,2.0924630165100098,0.8497191667556763,0.0061086523,0.5552765000000001,242.24065,51.105854,3.93086,BSC
2317835042816.0,0.9349021315574646,0.9112256765365601,-8.763581275939941,2.142099142074585,0.857210099697113,0.0125227375,0.5360342,242.06656,50.76445,3.803553,BSC
2317907656704.0,0.939902126789093,0.9005191326141357,-8.739710807800293,2.1918365955352783,0.8646950125694275,0.042455133,0.50732356,241.8996,50.422153,3.6887388,BSC
2317977387008.0,0.9449020624160767,0.8896732926368713,-8.715396881103516,2.2416536808013916,0.8721742033958435,0.06291912,0.4990769000000001,241.725,50.079113,3.561181,BSC
2318044495872.0,0.9499019384384155,0.8786852955818176,-8.690685272216797,2.2915332317352295,0.8796486258506775,0.09560041,0.48808134,241.5672,49.73058,3.4367182,BSC
2318108983296.0,0.9549018144607544,0.8675508499145508,-8.66562271118164,2.3414621353149414,0.8871195316314697,0.13225232,0.49205196,241.41187,49.381737,3.2890053,BSC
2318170849280.0,0.9599016308784485,0.8562641739845276,-8.640259742736816,2.3914310932159424,0.894588053226471,0.1160644,0.4709771,241.26022000000003,49.03621,3.1572938,BSC
2318230355968.0,0.9649013876914978,0.8448178172111511,-8.614645957946777,2.441434860229492,0.9020552039146423,0.037873644,0.43585235,241.10301,48.675293,3.0247724,BSC
2318287765504.0,0.9699010848999023,0.833203136920929,-8.588831901550293,2.4914708137512207,0.9095216989517212,-0.048258353,0.40103304,240.94595,48.32585,2.905857,BSC
2318342815744.0,0.9749007225036621,0.8214108347892761,-8.562868118286133,2.541538953781128,0.9169880151748657,-0.14538592,0.3735441,240.77676,47.98529,2.8136454,BSC
2318395768832.0,0.9799003005027771,0.809431791305542,-8.53680419921875,2.5916404724121094,0.9244544506072998,-0.21044308,0.3652974,240.60117,47.63247,2.71247,BSC
2318446624768.0,0.9848998188972473,0.7972577810287476,-8.510684967041016,2.6417765617370605,0.931921124458313,-0.22052236,0.35002577,240.42545,47.288273,2.6298652,BSC
2318495645696.0,0.989899218082428,0.7848823666572571,-8.484553337097168,2.691948175430298,0.9393880367279053,-0.2275473,0.3463606,240.23631,46.92704000000001,2.5533602,BSC
2318542831616.0,0.9948985576629639,0.772301435470581,-8.458447456359863,2.7421560287475586,0.9468550682067871,-0.2284636,0.34238997,240.05212000000003,46.572845,2.4837341,BSC
2318588182528.0,0.999897837638855,0.7595133781433105,-8.43239974975586,2.792400360107422,0.9543218612670898,-0.22021692,0.34422258,239.8652,46.22296,2.4237938,BSC
2318631960576.0,1.0048969984054565,0.746519148349762,-8.406439781188965,2.842681407928467,0.9617876410484314,-0.18936823,0.3475823,239.68634,45.875957,2.3623934,BSC
2318673903616.0,1.0098960399627686,0.7333225011825562,-8.38059139251709,2.8929989337921143,0.9692513346672058,-0.16340645,0.36102137,239.50629,45.504234,2.3093946,BSC
2318714273792.0,1.0148950815200806,0.7199304103851318,-8.354874610900879,2.943352222442627,0.9767115116119385,-0.13927728,0.40011674,239.32953,45.1493,2.2469053,BSC
2318753333248.0,1.019894003868103,0.7063530087471008,-8.329306602478027,2.9937407970428467,0.9841662645339966,-0.089186326,0.42730024,239.16412000000003,44.78615,2.1794925,BSC
2318790819840.0,1.024892807006836,0.6926031112670898,-8.303898811340332,3.0441641807556152,0.9916132688522339,-0.033292156,0.44623706,239.0014,44.430992,2.1022112,BSC
2318826995712.0,1.0298914909362793,0.6786959767341614,-8.278660774230957,3.0946223735809326,0.999049723148346,0.011301007,0.46395215,238.8468,44.068073,2.0259094,BSC
2318861860864.0,1.034890055656433,0.6646484732627869,-8.253599166870117,3.145115613937378,1.006472110748291,0.02565634,0.46761733,238.69875,43.714516,1.946225,BSC
2318895415296.0,1.039888620376587,0.6504788398742676,-8.228718757629395,3.195645332336426,1.0138766765594482,0.022907447,0.47678033,238.54956,43.351833,1.8592205,BSC
2318927659008.0,1.0448870658874512,0.6362062096595764,-8.204020500183105,3.246212959289551,1.021259069442749,-0.0018325958,0.4578435,238.40625,43.002476,1.7817441000000005,BSC
2318958854144.0,1.0498853921890259,0.6218504905700684,-8.179502487182617,3.2968204021453857,1.02861487865448,-0.028099801,0.4382958,238.26309,42.638935,1.6979672,BSC
2318989000704.0,1.054883599281311,0.6074318885803223,-8.155158996582031,3.3474698066711426,1.035939335823059,-0.06414085,0.4098906,238.12155,42.284397,1.6298912,BSC
2319017836544.0,1.0598818063735962,0.592970609664917,-8.130982398986816,3.398162841796875,1.0432275533676147,-0.099571034,0.39064834,237.97913,41.911854,1.5694901,BSC
2319045885952.0,1.0648798942565918,0.5784862041473389,-8.106959342956543,3.4489002227783203,1.0504748821258545,-0.14660765,0.3979787,237.83072,41.540012,1.5221021,BSC
2319072886784.0,1.0698778629302979,0.563997209072113,-8.083072662353516,3.4996814727783203,1.0576767921447754,-0.16126843,0.3830125,237.6874,41.14957,1.4798875,BSC
2319098839040.0,1.074875831604004,0.5495209097862244,-8.05929946899414,3.550504207611084,1.0648292303085327,-0.14905111,0.37843102,237.53967000000003,40.763435,1.4406589,BSC
2319124004864.0,1.0798736810684204,0.5350728631019592,-8.035614013671875,3.601362943649292,1.0719285011291504,-0.12339478,0.38026363,237.39653,40.346416,1.395964,BSC
2319148122112.0,1.0848714113235474,0.5206669569015503,-8.011984825134277,3.6522505283355713,1.0789711475372314,-0.111177474,0.36957347,237.25984,39.93616,1.3569131,BSC
2319171452928.0,1.0898691415786743,0.506315290927887,-7.988376140594482,3.703157663345337,1.085953950881958,-0.13469578,0.36560285,237.11542000000003,39.51159000000001,1.3092254,BSC
2319193997312.0,1.0948667526245117,0.49202850461006165,-7.964746952056885,3.7540736198425293,1.0928741693496704,-0.14446963,0.3659083,236.97995,39.09422,1.2595838,BSC
2319215755264.0,1.0998643636703491,0.477816104888916,-7.941052436828613,3.8049862384796143,1.0997295379638672,-0.16187929,0.37904188,236.83974,38.6858,1.217554,BSC
2319236988928.0,1.1048619747161865,0.4636869430541992,-7.917245864868164,3.8558826446533203,1.106518030166626,-0.15607607,0.36560285,236.725,38.23009,1.1696725,BSC
2319257436160.0,1.1098594665527344,0.4496493339538574,-7.893279075622559,3.9067487716674805,1.1132384538650513,-0.12095132,0.35979962,236.61014,37.787052,1.1177143,BSC
2319277096960.0,1.1148569583892822,0.4357110857963562,-7.869102954864502,3.9575703144073486,1.1198896169662476,-0.10354166,0.34422258,236.49998,37.318233,1.0739913,BSC
2319296233472.0,1.11985445022583,0.42187950015068054,-7.84467077255249,4.008332252502441,1.126470923423767,-0.11362094,0.33078352,236.39444,36.859432,1.0317360999999998,BSC
2319314845696.0,1.124851942062378,0.40816113352775574,-7.819936275482178,4.059018611907959,1.1329818964004517,-0.12522738,0.31490102,236.29294,36.39359,0.9914693,BSC
2319332671488.0,1.1298494338989258,0.3945618271827698,-7.794856548309326,4.109613418579102,1.1394221782684326,-0.14691310000000002,0.31337386,236.19022,35.935265,0.9580948,BSC
2319349972992.0,1.1348469257354736,0.3810865581035614,-7.769392013549805,4.160099506378174,1.1457916498184204,-0.14508049,0.29993483,236.091,35.481014,0.9224192,BSC
2319366750208.0,1.1398444175720215,0.36773911118507385,-7.743506908416748,4.2104597091674805,1.152090311050415,-0.10842858,0.2919936,235.99564,35.033295,0.8850824,BSC
2319383003136.0,1.1448420286178589,0.3545220196247101,-7.717169761657715,4.260677337646484,1.158318281173706,-0.098043874,0.2724459,235.88947,34.58405,0.85163116,BSC
2319398731776.0,1.1498396396636963,0.34143656492233276,-7.690353870391846,4.310736656188965,1.1644763946533203,-0.098043874,0.26267207,235.78989,34.142178,0.8140221,BSC
2319414198272.0,1.1548372507095337,0.3284827768802643,-7.663037300109863,4.360621929168701,1.1705658435821533,-0.10751228,0.25961772,235.68884,33.69175,0.770349,BSC
2319429140480.0,1.159834861755371,0.315659761428833,-7.6352033615112305,4.410317897796631,1.176588773727417,-0.11789699,0.29932398,235.58209,33.241676,0.72409785,BSC
2319443558400.0,1.164832592010498,0.3029659688472748,-7.60684061050415,4.45980978012085,1.1825478076934814,-0.16890424,0.2968805,235.4807,32.796146,0.69933313,BSC
2319457714176.0,1.1698304414749146,0.2903995215892792,-7.57794189453125,4.509082317352295,1.1884464025497437,-0.16737708,0.26633725,235.37198,32.34107,0.65579695,BSC
2319471345664.0,1.174828290939331,0.27795878052711487,-7.5485053062438965,4.558119773864746,1.194288730621338,-0.18295415,0.26725355,235.2488,31.895761,0.6263810000000001,BSC
2319484715008.0,1.179826259613037,0.26564234495162964,-7.518533706665039,4.606906414031982,1.2000796794891357,-0.2180789,0.2510656,235.1256,31.453093,0.60777795,BSC
2319497560064.0,1.1848243474960327,0.2534492611885071,-7.488034248352051,4.655426502227783,1.2058244943618774,-0.23487769,0.23182335,235.00684,31.012129,0.5908346999999999,BSC
2319510142976.0,1.1898225545883179,0.24137906730175018,-7.4570183753967285,4.703664779663086,1.2115288972854614,-0.24098633,0.2312125,234.87201,30.573048,0.5857689,BSC
2319522463744.0,1.1948208808898926,0.22943264245986938,-7.425500392913818,4.75160551071167,1.2171993255615234,-0.24678956,0.23151793,234.74341,30.142555,0.5888332,BSC
2319534260224.0,1.1998193264007568,0.21761274337768555,-7.393496513366699,4.7992329597473145,1.2228424549102783,-0.21471913,0.22266038,234.61127,29.703484000000003,0.58537877,BSC
2319545794560.0,1.2048178911209106,0.20592372119426727,-7.361024379730225,4.846532821655273,1.2284650802612305,-0.19822577,0.23762658,234.47456,29.277014,0.5849868,BSC
2319557066752.0,1.209816575050354,0.19437125325202942,-7.328102111816406,4.893492221832275,1.2340739965438843,-0.18661933,0.22143865,234.3508,28.834738,0.5978787,BSC
2319568076800.0,1.214815378189087,0.18296225368976593,-7.294747352600098,4.940100193023682,1.2396761178970337,-0.17959438,0.20861048,234.22821,28.399042,0.6063016,BSC
2319578824704.0,1.2198141813278198,0.17170488834381104,-7.260976791381836,4.986349582672119,1.2452778816223145,-0.1695151,0.21838433,234.10976,27.978321,0.6112272,BSC
2319589310464.0,1.2248131036758423,0.16060827672481537,-7.226805686950684,5.032236576080322,1.2508856058120728,-0.15882497,0.24709499,233.99457,27.521416,0.61411494,BSC
2319599534080.0,1.2298121452331543,0.14968180656433105,-7.192249774932861,5.077760696411133,1.256505012512207,-0.13805555,0.26847526,233.88507,27.07368,0.612893,BSC
2319609495552.0,1.2348113059997559,0.13893482089042664,-7.157322883605957,5.1229248046875,1.262141466140747,-0.11728613,0.24281894,233.7843,26.588211,0.6176728,BSC
2319619457024.0,1.239810585975647,0.12837658822536469,-7.122038841247559,5.167735576629639,1.2677998542785645,-0.108123146,0.23335053,233.67886,26.117687,0.6167676999999999,BSC
2319629156352.0,1.2448099851608276,0.11801569163799286,-7.086409091949463,5.2122015953063965,1.273484230041504,-0.09987647,0.24312437,233.57231,25.638393,0.6030800999999999,BSC
2319638593536.0,1.2498093843460083,0.10785925388336182,-7.050444602966309,5.256333351135254,1.2791979312896729,-0.06414085,0.26725355,233.4722,25.179264,0.5812069000000001,BSC
2319647768576.0,1.2548089027404785,0.0979122743010521,-7.014154434204102,5.300142288208008,1.2849432229995728,-0.051923547,0.2678644,233.3779,24.69575,0.5645182,BSC
2319656681472.0,1.2598085403442383,0.08817735314369202,-6.977545261383057,5.343642234802246,1.2907215356826782,-0.03268129,0.29565877,233.27823,24.22792,0.5327624,BSC
2319665594368.0,1.2648082971572876,0.07865448296070099,-6.940621852874756,5.386848449707031,1.296533226966858,0.027488936,0.30024028,233.1799,23.755325,0.47209862,BSC
2319674245120.0,1.269808053970337,0.06934111565351486,-6.90338659286499,5.429778099060059,1.3023778200149536,0.06658431,0.3268129,233.07074,23.307606,0.40889096,BSC
2319682633728.0,1.2748079299926758,0.0602324977517128,-6.865839004516602,5.4724507331848145,1.3082537651062012,0.07086037,0.33353242,232.97067,22.860838,0.34396186,BSC
2319691022336.0,1.2798078060150146,0.05132194235920906,-6.827976226806641,5.51488733291626,1.3141590356826782,0.09254608,0.33261612,232.87814,22.372065,0.24568434,BSC
2319699148800.0,1.284807801246643,0.042600974440574646,-6.789794921875,5.557110786437988,1.3200907707214355,0.11575896,0.3475823,232.78133,21.89446400000001,0.14714889,BSC
2319707275264.0,1.2898077964782715,0.03405953198671341,-6.751289367675781,5.59914493560791,1.3260458707809448,0.13164146,0.35460728,232.68527000000003,21.395277,0.045408808,BSC
2319715139584.0,1.2948077917099,0.025686141103506088,-6.712453365325928,5.641015529632568,1.3320205211639404,0.13591751,0.40744713,232.57497,20.90788,-0.061724436,BSC
2319723003904.0,1.2998079061508179,0.017468120902776718,-6.673280239105225,5.682748794555664,1.3380107879638672,0.12370021,0.39553526,232.48083,20.428116,-0.15864414,BSC
2319730606080.0,1.3048080205917358,0.009392027743160725,-6.633763790130615,5.724370956420898,1.3440126180648804,0.12675454,0.39736784,232.3638,19.927055,-0.27424765,BSC
2319738208256.0,1.3098081350326538,0.0014442296233028173,-6.593898296356201,5.765906810760498,1.3500217199325562,0.13011430000000002,0.40530908,232.24805,19.438213,-0.38175148,BSC
2319745548288.0,1.3148082494735718,-0.006388600915670395,-6.553678035736084,5.807380676269531,1.3560335636138916,0.11881329,0.4111123,232.12328,18.93885,-0.49215952,BSC
2319752888320.0,1.3198083639144897,-0.014119062572717667,-6.513099193572998,5.848814487457275,1.3620433807373047,0.12308934,0.4120286,232.00069,18.449001000000006,-0.60348016,BSC
2319759966208.0,1.3248084783554077,-0.021758556365966797,-6.472158432006836,5.890228748321533,1.3680462837219238,0.14477506,0.4098906,231.86636,17.964361,-0.71096766,BSC
2319767044096.0,1.3298085927963257,-0.029316801577806473,-6.430853366851807,5.931641101837158,1.3740371465682983,0.17440203,0.4196644000000001,231.7312,17.489025,-0.818786,BSC
2319774121984.0,1.3348087072372437,-0.03680162876844406,-6.389181613922119,5.973067283630371,1.3800108432769775,0.19394971,0.4370741,231.58443,17.012114999999998,-0.9258463,BSC
2319780937728.0,1.3398088216781616,-0.0442189946770668,-6.347142696380615,6.014521598815918,1.385961890220642,0.18997909,0.42730024,231.44505,16.547684,-1.028672,BSC
2319787753472.0,1.3448089361190796,-0.05157303437590599,-6.304736137390137,6.05601692199707,1.3918850421905518,0.1872302,0.42394048,231.29008,16.063444,-1.1279377,BSC
2319794569216.0,1.3498090505599976,-0.058866120874881744,-6.261962890625,6.097563743591309,1.3977746963500977,0.18906279,0.42760566,231.13852000000003,15.592121,-1.2229134,BSC
2319801122816.0,1.3548091650009155,-0.06609904766082764,-6.218825340270996,6.139171600341797,1.4036256074905396,0.19883664,0.4343252,230.97859,15.113512,-1.3141874,BSC
2319807676416.0,1.3598092794418335,-0.07327134907245636,-6.175325870513916,6.180848121643066,1.4094324111938477,0.20372356,0.42485678,230.82446,14.652910999999998,-1.3998351,BSC
2319814230016.0,1.3648093938827515,-0.08038154244422913,-6.131467819213867,6.222599506378174,1.4151899814605713,0.19456059,0.4260785,230.66336,14.17067,-1.487306,BSC
2319820783616.0,1.3698095083236694,-0.08742744475603104,-6.087255477905273,6.264430046081543,1.4208934307098389,0.20830505,0.410196,230.51393,13.704539000000002,-1.576794,BSC
2319827075072.0,1.3748095035552979,-0.09440644830465317,-6.042692184448242,6.306342601776123,1.4265384674072266,0.19975294,0.39492437,230.36423,13.253410999999998,-1.6541279999999998,BSC
2319833366528.0,1.3798094987869263,-0.1013159528374672,-5.997783184051514,6.348338603973389,1.4321209192276,0.17989981,0.36926803,230.22134,12.771507,-1.7341723000000002,BSC
2319839657984.0,1.3848094940185547,-0.10815373808145523,-5.95253324508667,6.390415668487549,1.437637448310852,0.17256944,0.36102137,230.08037,12.305242,-1.811862,BSC
2319845949440.0,1.389809489250183,-0.11491827666759491,-5.906947612762451,6.43256950378418,1.4430850744247437,0.17501289,0.35430184,229.94057,11.821802,-1.8894912,BSC
2319852240896.0,1.3948094844818115,-0.12160898745059967,-5.861032009124756,6.47479248046875,1.4484614133834839,0.16737708,0.3567453,229.80179,11.348992,-1.958857,BSC
2319858270208.0,1.3998093605041504,-0.12822633981704712,-5.814791679382324,6.517073631286621,1.4537643194198608,0.16310102,0.35705075,229.66344,10.87087,-2.0431938,BSC
2319864299520.0,1.4048092365264893,-0.13477177917957306,-5.768231391906738,6.559398174285889,1.4589921236038208,0.1695151,0.35369098,229.5279,10.400643,-2.1247332,BSC
2319870328832.0,1.4098091125488281,-0.14124763011932373,-5.721355438232422,6.601748466491699,1.4641433954238892,0.18142697,0.35002577,229.38493,9.915059,-2.2141707000000004,BSC
2319876358144.0,1.414808988571167,-0.14765691757202148,-5.674167633056641,6.644103527069092,1.4692171812057495,0.1881465,0.33292156,229.24918,9.444703,-2.2994642000000005,BSC
2319882125312.0,1.4198088645935059,-0.15400314331054688,-5.62667179107666,6.686439514160156,1.474212884902954,0.18203785,0.3191771,229.11589,8.980466,-2.3809147,BSC
2319887892480.0,1.4248087406158447,-0.16028966009616852,-5.578869342803955,6.728728294372559,1.4791301488876343,0.18875736,0.30848694,228.98012000000003,8.497937,-2.473563,BSC
2319893659648.0,1.4298086166381836,-0.16651871800422668,-5.530761241912842,6.770938873291016,1.48396897315979,0.1881465,0.29932398,228.84964,8.027894,-2.5582302,BSC
2319899426816.0,1.4348084926605225,-0.17269116640090942,-5.4823455810546875,6.813037395477295,1.4887295961380005,0.1872302,0.29260445,228.7158,7.534101,-2.6452613,BSC
2319905193984.0,1.4398083686828613,-0.17880693078041077,-5.433620452880859,6.854987144470215,1.4934128522872925,0.19761491,0.2846632,228.58786,7.053721,-2.7312834,BSC
2319910961152.0,1.4448082447052002,-0.1848652958869934,-5.384584903717041,6.896751403808594,1.4980196952819824,0.21533,0.26878070000000004,228.47078,6.539546,-2.8058693,BSC
2319916728320.0,1.449808120727539,-0.19086505472660065,-5.335238456726074,6.93829345703125,1.5025513172149658,0.22082779,0.25167647,228.35864,6.0278625,-2.876214,BSC
2319922233344.0,1.454807996749878,-0.19680452346801758,-5.285582065582275,6.979577541351318,1.5070096254348755,0.23609942,0.24404067,228.24481,5.5250254,-2.9625401,BSC
2319927738368.0,1.4598078727722168,-0.20268167555332184,-5.235618591308594,7.020570278167725,1.511396884918213,0.26267207,0.24007004,228.13705,5.023852,-3.0497973,BSC
2319933243392.0,1.4648077487945557,-0.20849409699440002,-5.1853508949279785,7.061239242553711,1.5157159566879272,0.27947086,0.23304509,228.03424,4.5363474,-3.1349218,BSC
2319938748416.0,1.469807744026184,-0.21423909068107605,-5.1347832679748535,7.101554870605469,1.5199702978134155,0.3023783,0.23396139,227.92763,4.0339839999999985,-3.229968,BSC
2319944253440.0,1.4748077392578125,-0.21991395950317383,-5.083920478820801,7.141490459442139,1.524163842201233,0.30909783,0.2312125,227.82558,3.5424674,-3.3213453,BSC
2319949758464.0,1.479807734489441,-0.2255161851644516,-5.0327677726745605,7.1810221672058105,1.5283010005950928,0.30940324,0.22540927,227.72388,3.031797,-3.4175427000000003,BSC
2319955263488.0,1.4848077297210693,-0.23104384541511536,-4.9813313484191895,7.220129489898682,1.5323864221572876,0.31795537,0.21930063,227.62466,2.523798,-3.5141861000000003,BSC
2319960768512.0,1.4898077249526978,-0.2364959418773651,-4.929617881774902,7.25879430770874,1.536425232887268,0.31795537,0.22174409,227.51974,2.0083356,-3.6124234,BSC
2319966273536.0,1.4948077201843262,-0.24187298119068146,-4.877633094787598,7.296999931335449,1.5404225587844849,0.31581733,0.22174409,227.41866,1.5044208,-3.7085373,BSC
2319971778560.0,1.4998078346252441,-0.24717776477336884,-4.825381278991699,7.334729194641113,1.5443840026855469,0.33322698,0.22693644,227.31694,1.0060935,-3.8065827,BSC
2319977021440.0,1.504807949066162,-0.2524152100086212,-4.7728657722473145,7.371964454650879,1.5483149290084839,0.33964106,0.23182335,227.21088,0.48994288,-3.912719,BSC
2319982264320.0,1.50980806350708,-0.2575918138027191,-4.720088481903076,7.408687114715576,1.5522209405899048,0.34880406,0.23304509,227.10591,-0.017441208,-4.020527,BSC
2319987507200.0,1.514808177947998,-0.26271507143974304,-4.667050838470459,7.444879055023193,1.556107759475708,0.3390302,0.20066923,227.00414,-0.5654709,-4.1506076,BSC
2319992750080.0,1.519808292388916,-0.26779285073280334,-4.613753795623779,7.4805216789245605,1.5599809885025024,0.33322698,0.18142697,226.90001,-1.1046804,-4.2794614,BSC
2319997992960.0,1.5248085260391235,-0.2728331387042999,-4.560196876525879,7.51559591293335,1.5638463497161865,0.35155296,0.16401732,226.80043,-1.6606451,-4.4148955,BSC
2320003235840.0,1.529808759689331,-0.2778441309928894,-4.5063796043396,7.550082683563232,1.567710041999817,0.364992,0.12950343,226.71274,-2.2057807,-4.542861,BSC
2320008478720.0,1.5348089933395386,-0.28283432126045227,-4.452300548553467,7.583960056304932,1.5715785026550293,0.3885103,0.119729586,226.61833,-2.7833977,-4.6757464,BSC
2320013721600.0,1.539809226989746,-0.287812203168869,-4.397960186004639,7.61720609664917,1.5754585266113281,0.39858958,0.106595986,226.536,-3.3551571000000004,-4.804194,BSC
2320018964480.0,1.5448094606399536,-0.29278579354286194,-4.343359470367432,7.649799346923828,1.579357385635376,0.40866885,0.083383106,226.45042,-3.944921,-4.9491835,BSC
2320024207360.0,1.5498096942901611,-0.29776275157928467,-4.2885026931762695,7.681718826293945,1.5832823514938354,0.4034765,0.06078109,226.36969,-4.528149,-5.087845,BSC
2320029450240.0,1.5548099279403687,-0.3027505874633789,-4.233396053314209,7.712943077087402,1.5872410535812378,0.4343252,0.052534413,226.29156,-5.102124,-5.234815,BSC
2320034693120.0,1.5598101615905762,-0.3077567517757416,-4.178046703338623,7.743452548980713,1.5912410020828247,0.45478916,0.04795292,226.21321,-5.6658607000000005,-5.376032,BSC
2320039936000.0,1.5648103952407837,-0.3127882182598114,-4.122465133666992,7.773227214813232,1.595289945602417,0.46578476,0.04734206,226.13623,-6.221575,-5.518753500000001,BSC
2320045178880.0,1.5698106288909912,-0.31785157322883606,-4.066662311553955,7.802248954772949,1.5993956327438354,0.48716503,0.040011674,226.05446,-6.7889300000000015,-5.680278,BSC
2320050421760.0,1.5748108625411987,-0.32295316457748413,-4.010651588439941,7.830500602722168,1.6035658121109009,0.49266282,0.037873644,225.97215,-7.354044999999997,-5.835321,BSC
2320055664640.0,1.5798110961914062,-0.32809901237487793,-3.954446315765381,7.857966899871826,1.6078084707260132,0.46914452,0.0076358155,225.89012,-7.919153999999999,-5.9854307,BSC
2320060907520.0,1.5848113298416138,-0.3332942724227905,-3.8980605602264404,7.884634494781494,1.612131953239441,0.46883908,-0.019242255,225.80734,-8.488496000000001,-6.1389327000000025,BSC
2320066150400.0,1.5898115634918213,-0.33854296803474426,-3.8415091037750244,7.910491943359375,1.6165447235107422,0.47219884,-0.04795292,225.72726,-9.076461,-6.296259,BSC
2320071131136.0,1.5948117971420288,-0.34384727478027344,-3.7848076820373535,7.935530662536621,1.6210554838180542,0.4886922,-0.070249505,225.65303,-9.665398,-6.4532504,BSC
2320076111872.0,1.5998120307922363,-0.3492065668106079,-3.727973699569702,7.959746837615967,1.6256728172302246,0.52198434,-0.09712757,225.58783,-10.241866,-6.6127086,BSC
2320081354752.0,1.6048122644424438,-0.354617714881897,-3.6710257530212402,7.983139991760254,1.6304055452346802,0.49174652,-0.11026118,225.52615,-10.840784,-6.7493539999999985,BSC
2320086597632.0,1.6098124980926514,-0.36007601022720337,-3.6139814853668213,8.005712509155273,1.635262370109558,0.47678033,-0.12736541,225.47115,-11.421753,-6.896594,BSC
2320091578368.0,1.6148126125335693,-0.3655760586261749,-3.5568578243255615,8.027466773986816,1.6402517557144165,0.47433686,-0.13988814,225.4166,-11.992617999999998,-7.0171866,BSC
2320096559104.0,1.6198127269744873,-0.37111231684684753,-3.4996695518493652,8.048406600952148,1.6453819274902344,0.4896085,-0.15577064,225.3678,-12.560052,-7.1360600000000005,BSC
2320101539840.0,1.6248128414154053,-0.37667950987815857,-3.442429780960083,8.068534851074219,1.6506611108779907,0.48472157,-0.18325958,225.32243,-13.176914000000002,-7.267551400000001,BSC
2320106520576.0,1.6298129558563232,-0.38227227330207825,-3.385150194168091,8.087857246398926,1.656097412109375,0.52320606,-0.21380283,225.27869,-13.783036,-7.412461,BSC
2320111501312.0,1.6348130702972412,-0.3878854513168335,-3.32784104347229,8.106378555297852,1.6616989374160767,0.41905355,-0.23518312,225.24156,-14.431185,-7.5301557,BSC
2320116482048.0,1.6398131847381592,-0.3935144245624542,-3.2705111503601074,8.124105453491211,1.6674740314483643,0.40042216,-0.27305678,225.2093,-15.072849,-7.680944999999999,BSC
2320121462784.0,1.6448132991790771,-0.3991551995277405,-3.213167667388916,8.141045570373535,1.6734310388565063,0.3903429,-0.29901853,225.17981,-15.724863,-7.804123,BSC
2320126443520.0,1.6498134136199951,-0.40480396151542664,-3.1558175086975098,8.157206535339355,1.6795786619186401,0.38515055,-0.31031954,225.1581,-16.380625,-7.921328999999999,BSC
2320131424256.0,1.654813528060913,-0.4104565978050232,-3.098466157913208,8.172597885131836,1.6859253644943237,0.34025195,-0.33383787,225.14456,-17.059366,-8.04218,BSC
2320136404992.0,1.6598135232925415,-0.4161084294319153,-3.0411174297332764,8.18723201751709,1.6924799680709839,0.33383787,-0.34880406,225.12941,-17.73537,-8.16831,BSC
2320141385728.0,1.66481351852417,-0.4217539429664612,-2.9837734699249268,8.201122283935547,1.6992511749267578,0.34238997,-0.36835176,225.12097000000003,-18.418827,-8.282408,BSC
2320146366464.0,1.6698135137557983,-0.4273874759674072,-2.926434278488159,8.214282989501953,1.7062476873397827,0.25320363,-0.40775254,225.13203,-19.089928,-8.36792,BSC
2320151609344.0,1.6748135089874268,-0.433004230260849,-2.869098663330078,8.226729393005371,1.7134783267974854,0.27885997,-0.43463063,225.13393,-19.765293,-8.484195,BSC
2320156590080.0,1.6798135042190552,-0.43860089778900146,-2.8117644786834717,8.238476753234863,1.7209514379501343,0.3109304,-0.44104472,225.14311,-20.47256,-8.570377,BSC
2320161570816.0,1.6848134994506836,-0.44417640566825867,-2.754429817199707,8.249539375305176,1.728675127029419,0.30970868,-0.44440445,225.15993,-21.173336,-8.6536665,BSC
2320166551552.0,1.6898133754730225,-0.44973328709602356,-2.697091817855835,8.259928703308105,1.7366564273834229,0.30787608,-0.464563,225.17274,-21.87966,-8.774154,BSC
2320171532288.0,1.6948132514953613,-0.4552801549434662,-2.639744997024536,8.269646644592285,1.7449012994766235,0.3830125,-0.46700647,225.1736,-22.580362,-8.909317,BSC
2320176513024.0,1.6998131275177002,-0.460831880569458,-2.582380533218384,8.278684616088867,1.7534148693084717,0.33200526,-0.50243664,225.19771,-23.272907,-9.045196,BSC
2320181493760.0,1.704813003540039,-0.46640679240226746,-2.5249879360198975,8.287027359008789,1.762200951576233,0.2864958,-0.5403103,225.21442,-23.944424,-9.198426,BSC
2320186736640.0,1.709812879562378,-0.4720246493816376,-2.4675559997558594,8.294656753540039,1.7712621688842773,0.30573806,-0.5705481,225.17477,-24.78737000000001,-9.457875,BSC
2320191717376.0,1.7148127555847168,-0.4777054190635681,-2.4100747108459473,8.301551818847656,1.7806003093719482,0.3203988,-0.6035349,225.15425,-25.601515,-9.698431,BSC
2320196698112.0,1.7198125123977661,-0.4834674000740051,-2.352536916732788,8.307693481445312,1.790216326713562,0.45051312,-0.63346726,225.13646,-26.386591,-9.951848,BSC
2320201678848.0,1.7248122692108154,-0.4893244802951813,-2.29494309425354,8.313072204589844,1.8001102209091187,0.37018433,-0.6398814,225.14706,-27.164934,-10.148084,BSC
2320206659584.0,1.7298120260238647,-0.4952854514122009,-2.237300157546997,8.3176851272583,1.8102812767028809,0.3100141,-0.6844745,225.16638,-27.890842,-10.380719,BSC
2320211640320.0,1.734811782836914,-0.5013559460639954,-2.1796154975891113,8.321533203125,1.820727825164795,0.36713,-0.73548174,225.1831,-28.616758,-10.618017,BSC
2320216621056.0,1.7398115396499634,-0.5075401067733765,-2.121893882751465,8.324617385864258,1.8314472436904907,0.4251622000000001,-0.75747293,225.24284,-29.18129,-10.782224,BSC
2320221601792.0,1.7448112964630127,-0.5138421654701233,-2.0641345977783203,8.326939582824707,1.8424361944198608,0.50579643,-0.7693848000000001,225.3009,-29.733181,-10.968476,BSC
2320226582528.0,1.749811053276062,-0.5202674865722656,-2.006331443786621,8.328497886657715,1.8536903858184814,0.3943135,-0.82650065,225.35869,-30.448128000000004,-11.161451,BSC
2320231563264.0,1.7548106908798218,-0.5268233418464661,-1.948473334312439,8.3292875289917,1.8652048110961914,0.4260785,-0.8918633,225.38715,-31.140490000000003,-11.406914,BSC
2320236544000.0,1.7598103284835815,-0.5335195660591125,-1.8905447721481323,8.329302787780762,1.8769731521606445,0.49968776,-0.95417154,225.39621,-31.918156,-11.682563,BSC
2320241524736.0,1.7648099660873413,-0.5403690934181213,-1.832525372505188,8.328532218933105,1.8889877796173096,0.571159,-0.9627236,225.40224,-32.667840000000005,-11.958155,BSC
2320246505472.0,1.769809603691101,-0.5473881363868713,-1.7743898630142212,8.3269624710083,1.9012396335601807,0.57726765,-0.9801333,225.3811,-33.46161,-12.287369,BSC
2320251486208.0,1.7748092412948608,-0.5545936822891235,-1.716110348701477,8.324581146240234,1.9137177467346191,0.65026605,-1.0051788,225.34084,-34.21745,-12.639517,BSC
2320256466944.0,1.7798088788986206,-0.5620018839836121,-1.657657265663147,8.321378707885742,1.9264092445373535,0.71868294,-1.0057896000000002,225.22661,-35.027325,-13.005137,BSC
2320261447680.0,1.7848085165023804,-0.5696279406547546,-1.5989991426467896,8.317347526550293,1.93929922580719,0.6786713000000001,-1.0543534,225.14087,-35.780586,-13.357752,BSC
2320266428416.0,1.7898080348968506,-0.5774874091148376,-1.5401009321212769,8.312481880187988,1.9523706436157227,0.6798930000000001,-1.0598511999999998,225.03064,-36.491096,-13.712513,BSC
2320271409152.0,1.7948075532913208,-0.5855973958969116,-1.4809234142303467,8.306779861450195,1.965604543685913,0.7538077,-1.0839803,224.97777,-37.150505,-14.08145,BSC
2320276389888.0,1.799807071685791,-0.5939775705337524,-1.4214235544204712,8.300240516662598,1.9789798259735107,0.7812967,-1.0705414,224.92447,-37.76802,-14.422885,BSC
2320281370624.0,1.8048065900802612,-0.6026512384414673,-1.361554741859436,8.292863845825195,1.9924734830856323,0.79290307,-1.0522153,224.77696,-38.48157,-14.8094845,BSC
2320286351360.0,1.8098061084747314,-0.6116467118263245,-1.3012670278549194,8.284651756286621,2.00606107711792,0.81183994,-1.035722,224.62415,-39.147373,-15.185194,BSC
2320291332096.0,1.8148056268692017,-0.6209970116615295,-1.2405081987380981,8.27560806274414,2.019716262817383,0.8344419,-0.9981538,224.3834,-39.85885,-15.603072,BSC
2320296312832.0,1.8198051452636719,-0.6307389140129089,-1.1792243719100952,8.26573657989502,2.0334110260009766,0.8677341000000001,-0.97494096,224.1466,-40.51985,-16.006067,BSC
2320301293568.0,1.8248045444488525,-0.6409120559692383,-1.1173611879348755,8.255041122436523,2.0471158027648926,0.8744536,-0.9434814,223.79852,-41.237617,-16.458717,BSC
2320306274304.0,1.8298039436340332,-0.6515583992004395,-1.0548650026321411,8.243524551391602,2.0607991218566895,0.8735373,-0.91507614,223.4612,-41.88854,-16.887005,BSC
2320311517184.0,1.8348033428192139,-0.6627218127250671,-0.9916837811470032,8.231188774108887,2.0744285583496094,0.8436049000000001,-0.86834496,223.10992,-42.543285,-17.331598,BSC
2320316497920.0,1.8398027420043945,-0.6744472980499268,-0.927768349647522,8.218035697937012,2.0879697799682617,0.83260936,-0.8228354999999999,222.76709,-43.142258,-17.749735,BSC
2320321478656.0,1.8448021411895752,-0.686780571937561,-0.8630729913711548,8.204062461853027,2.1013877391815186,0.82558435,-0.7742717,222.41539,-43.73267,-18.186775,BSC
2320326459392.0,1.8498015403747559,-0.6997674107551575,-0.7975566983222961,8.189265251159668,2.1146461963653564,0.8173377,-0.7483099,222.07748,-44.267635,-18.593647,BSC
2320331440128.0,1.8548009395599365,-0.713455855846405,-0.731183648109436,8.17363452911377,2.1277084350585938,0.8069529999999999,-0.7351763000000001,221.72263,-44.79637,-19.026228,BSC
2320336683008.0,1.8598003387451172,-0.7279025316238403,-0.6639237403869629,8.157157897949219,2.140536308288574,0.8002335,-0.7483099,221.38336,-45.268627,-19.436283,BSC
2320341663744.0,1.8647997379302979,-0.7431749701499939,-0.5957528948783875,8.139819145202637,2.1530909538269043,0.8069529999999999,-0.77396625,221.03044,-45.730213,-19.877775,BSC
2320346644480.0,1.8697991371154785,-0.7593607902526855,-0.5266415476799011,8.12160873413086,2.165332794189453,0.7425067,-0.8491027,220.72075,-46.12635,-20.29771,BSC
2320351625216.0,1.8747985363006592,-0.776577889919281,-0.4565386474132538,8.1025390625,2.1772215366363525,0.41905355,-0.8521569999999999,220.47342000000003,-46.49228,-20.643013,BSC
2320356605952.0,1.8797979354858398,-0.7949826121330261,-0.3853604793548584,8.082655906677246,2.1887176036834717,-0.14355333,-0.8750645,220.2623,-46.766663,-21.137512,BSC
2320361586688.0,1.8847973346710205,-0.8147755861282349,-0.3129830062389374,8.062045097351074,2.199784517288208,-0.4972443,-0.9138544,220.09065,-47.024223,-21.59517,BSC
2320366567424.0,1.8897967338562012,-0.8362031579017639,-0.23923929035663605,8.040833473205566,2.2103893756866455,-1.1392636,-0.93187493,220.08705,-47.214565,-22.02159,BSC
2320371548160.0,1.8947962522506714,-0.8595529198646545,-0.16392241418361664,8.019183158874512,2.220503568649292,-1.464244,-0.94897914,220.10939,-47.3751,-22.42071,BSC
2320376528896.0,1.8997957706451416,-0.8851403594017029,-0.08679188042879105,7.997278213500977,2.230098247528076,-1.4700472,-0.9636399,220.16647000000003,-47.41124,-22.871569,BSC
2320381509632.0,1.9047952890396118,-0.913288950920105,-0.007582016754895449,7.975312232971191,2.239140033721924,-1.1343768,-0.9486737,220.22856,-47.363457,-23.281115,BSC
2320386490368.0,1.909794807434082,-0.9443137049674988,0.07399054616689682,7.953474044799805,2.2475838661193848,-0.5766568,-0.91782504,220.21786,-47.17947,-23.755472,BSC
2320391471104.0,1.9147943258285522,-0.9785046577453613,0.15821877121925354,7.9319305419921875,2.2553696632385254,-0.11178834,-0.8668178,220.15143,-46.849804,-24.224554,BSC
2320396451840.0,1.9197938442230225,-1.0161141157150269,0.2453983724117279,7.9108147621154785,2.2624223232269287,0.26053402,-0.79504114,220.06006,-46.577766,-24.610128,BSC
2320401432576.0,1.9247934818267822,-1.057344675064087,0.335811585187912,7.89022159576416,2.2686567306518555,0.6093381,-0.7473936,219.85414,-46.197105,-25.049591,BSC
2320406413312.0,1.929793119430542,-1.1023404598236084,0.42971089482307434,7.87021017074585,2.2739810943603516,0.92087936,-0.7360926,219.56001,-45.74672,-25.524952,BSC
2320411394048.0,1.9347927570343018,-1.1511794328689575,0.527303159236908,7.850805759429932,2.2782998085021973,1.2247848999999995,-0.78038037,219.28345,-45.451504,-25.92401,BSC
2320416374784.0,1.9397923946380615,-1.203867793083191,0.6287336945533752,7.832006454467773,2.2815146446228027,1.5738943,-0.8350528,218.91306,-45.141933,-26.378723,BSC
2320421355520.0,1.9447920322418213,-1.2603400945663452,0.7340777516365051,7.813787937164307,2.2835259437561035,1.8038851,-0.86284715,218.53906,-44.822884,-26.788996,BSC
2320426336256.0,1.949791669845581,-1.3204668760299683,0.843341052532196,7.796112060546875,2.2842342853546143,1.8118263,-0.8790351000000001,218.13866,-44.48243,-27.225311,BSC
2320431316992.0,1.9547913074493408,-1.3840620517730713,0.9564613103866577,7.778933048248291,2.283543109893799,1.670411,-0.83108217,217.71313,-44.086742,-27.61193,BSC
2320436297728.0,1.9597909450531006,-1.4508968591690063,1.073312759399414,7.762206554412842,2.2813620567321777,1.5647314,-0.7199047,217.27238,-43.70546,-27.990206,BSC
2320441278464.0,1.9647905826568604,-1.5207165479660034,1.1937124729156494,7.745903968811035,2.2776072025299072,1.3570372,-0.64812803,216.89703,-43.327744,-28.318542,BSC
2320446259200.0,1.9697903394699097,-1.5932530164718628,1.3174290657043457,7.730013847351074,2.272203207015991,1.1527027,-0.5870415,216.64938,-42.862698,-28.583525,BSC
2320451239936.0,1.974790096282959,-1.6682319641113281,1.4441945552825928,7.714540958404541,2.2650816440582275,1.0106765,-0.49327368,216.41885,-42.407684,-28.795883,BSC
2320456220672.0,1.9797898530960083,-1.745377540588379,1.5737130641937256,7.69950008392334,2.256181240081787,0.9773844,-0.39584067,216.2501,-41.744648,-29.074429,BSC
2320461201408.0,1.9847896099090576,-1.824415683746338,1.7056663036346436,7.684910774230957,2.2454464435577393,1.0198395,-0.2782491,216.07767,-41.086575,-29.313692,BSC
2320466182144.0,1.989789366722107,-1.9050761461257935,1.8397186994552612,7.67078971862793,2.232828140258789,1.0567969,-0.2134974,215.89732,-40.421368,-29.553476,BSC
2320471162880.0,1.9947891235351562,-1.9870949983596802,1.9755215644836426,7.6571455001831055,2.2182843685150146,1.071763,-0.06261369,215.66948,-39.78784,-29.753565,BSC
2320476405760.0,1.9997888803482056,-2.070216655731201,2.112717390060425,7.643970966339111,2.2017822265625,1.1481212,0.17898351,215.38423,-39.20191,-29.94081,BSC
2320481386496.0,2.004788637161255,-2.1541945934295654,2.250943899154663,7.631240367889404,2.1832997798919678,1.1746938,0.24923302,215.08473,-38.654617,-30.168648,BSC
2320486367232.0,2.0097882747650146,-2.2387912273406982,2.389840602874756,7.618908405303955,2.1628265380859375,0.9260716999999998,0.18997909,214.81085,-38.124172,-30.336983,BSC
2320491347968.0,2.0147881507873535,-2.323777914047241,2.529052972793579,7.606910705566406,2.140363931655884,0.43890667,0.060170225999999986,214.5578,-37.694736,-30.514334,BSC
2320496328704.0,2.0197880268096924,-2.408935308456421,2.66823410987854,7.595165252685547,2.1159260272979736,0.09315695,-0.014966198,214.3338,-37.29774000000001,-30.674156,BSC
2320501309440.0,2.0247879028320312,-2.494054079055786,2.8070452213287354,7.5835771560668945,2.089540719985962,-0.10934488,-0.009162978,214.20166,-36.94013,-30.778223,BSC
2320506290176.0,2.02978777885437,-2.5789356231689453,2.945154905319214,7.572042942047119,2.061249256134033,-0.29046643,0.010995574,214.16425,-36.668938,-30.812706,BSC
2320511270912.0,2.034787654876709,-2.6633927822113037,3.082237720489502,7.560454368591309,2.03110671043396,-0.45051312,0.06597344599999999,214.15622,-36.456203,-30.804659,BSC
2320516251648.0,2.039787530899048,-2.747250556945801,3.217973232269287,7.548703670501709,1.9991806745529175,-0.54244834,0.09193522,214.20009,-36.25529,-30.780539,BSC
2320521232384.0,2.0447874069213867,-2.8303463459014893,3.352046012878418,7.536688804626465,1.9655512571334839,-0.46914452,0.096516706,214.23088,-36.095787,-30.7543,BSC
2320526213120.0,2.0497872829437256,-2.912529706954956,3.4841465950012207,7.524319648742676,1.93030846118927,-0.22449298,0.1328632,214.26173,-35.882465,-30.761232,BSC
2320531193856.0,2.0547871589660645,-2.9936611652374268,3.6139731407165527,7.511519432067871,1.8935503959655762,0.1685988,0.17012598,214.23613,-35.70356,-30.81715800000001,BSC
2320536174592.0,2.0597870349884033,-3.07361102104187,3.7412335872650146,7.49822998046875,1.8553814888000488,0.5833763000000001,0.23823744,214.17665,-35.44345,-30.920923,BSC
2320541417472.0,2.064786911010742,-3.1522560119628906,3.865648031234741,7.484416484832764,1.8159099817276,0.9120218,0.28038713,214.04233,-35.184402,-31.089499,BSC
2320546398208.0,2.069786787033081,-3.2294766902923584,3.9869508743286133,7.4700703620910645,1.775246024131775,1.138042,0.2724459,213.83327000000003,-34.924343,-31.321365000000004,BSC
2320551378944.0,2.07478666305542,-3.3051581382751465,4.104893207550049,7.455204010009766,1.733500361442566,1.3136656999999998,0.23609942,213.59883,-34.616688,-31.575863,BSC
2320556359680.0,2.079786539077759,-3.379190683364868,4.219245910644531,7.439842700958252,1.6907838582992554,1.3713925,0.21410827,213.34186,-34.31118,-31.85117,BSC
2320561340416.0,2.0847864151000977,-3.451472043991089,4.329803466796875,7.424017429351807,1.6472073793411255,1.3631458,0.1994475,213.11716,-34.00588,-32.06704000000001,BSC
2320566321152.0,2.0897862911224365,-3.521909236907959,4.436386585235596,7.407759666442871,1.602881669998169,1.4199562,0.2049453,212.87126,-33.698370000000004,-32.306396,BSC
2320571301888.0,2.0947861671447754,-3.590420961380005,4.538845539093018,7.3911004066467285,1.5579179525375366,1.4865406,0.23182335,212.62605,-33.47435,-32.537674,BSC
2320576282624.0,2.0997860431671143,-3.656935930252075,4.6370625495910645,7.374070167541504,1.512427568435669,1.5540411,0.28252518,212.3642,-33.26395,-32.773765999999995,BSC
2320581263360.0,2.104785919189453,-3.721393585205078,4.730953693389893,7.356700897216797,1.4665216207504272,1.6493362,0.37323865,212.1111,-33.08847,-32.986008,BSC
2320586244096.0,2.109785795211792,-3.783743381500244,4.820469379425049,7.3390278816223145,1.4203095436096191,1.6865988999999997,0.47158796,211.84248,-32.940135999999995,-33.1883,BSC
2320591224832.0,2.114785671234131,-3.8439443111419678,4.90559720993042,7.321094989776611,1.3738977909088135,1.6484199000000002,0.5571090999999999,211.55217,-32.81005,-33.379215,BSC
2320596205568.0,2.1197855472564697,-3.901966094970703,4.986359119415283,7.302955150604248,1.3273886442184448,1.5506815,0.6215554,211.26106,-32.754546999999995,-33.48181,BSC
2320601186304.0,2.1247854232788086,-3.9577889442443848,5.062811374664307,7.284669399261475,1.2808796167373657,1.4104879,0.6386596,210.98314,-32.6898,-33.56139,BSC
2320606167040.0,2.1297852993011475,-4.011404991149902,5.135042190551758,7.266304016113281,1.2344629764556885,1.2809844,0.6239988000000001,210.73996,-32.679672,-33.538906,BSC
2320611409920.0,2.1347851753234863,-4.062819004058838,5.203167915344238,7.247927188873291,1.1882258653640747,1.1985176000000002,0.62980205,210.51236,-32.67167,-33.495490000000004,BSC
2320616390656.0,2.139785051345825,-4.112048625946045,5.267329692840576,7.229606628417969,1.1422511339187622,1.1123856,0.655153,210.31047,-32.701115,-33.402718,BSC
2320621371392.0,2.144784927368164,-4.15912389755249,5.327690601348877,7.2114105224609375,1.0966174602508545,0.9868528,0.6973026999999999,210.1341,-32.744404,-33.28647,BSC
2320626352128.0,2.149784803390503,-4.20408821105957,5.384429931640625,7.193406581878662,1.0513999462127686,0.89827734,0.7367035,209.92342,-32.8523,-33.187546000000005,BSC
2320631332864.0,2.154784679412842,-4.246998310089111,5.437740802764893,7.1756591796875,1.0066701173782349,0.9224065,0.78984874,209.70712,-32.985847,-33.080402,BSC
2320636313600.0,2.1597845554351807,-4.287923812866211,5.4878249168396,7.158228397369385,0.9624968767166138,1.0888673,0.8622363000000001,209.44655,-33.151897,-32.989643,BSC
2320641294336.0,2.1647844314575195,-4.326949119567871,5.534885883331299,7.141167640686035,0.918946385383606,1.3344351,0.93431836,209.15608,-33.339558000000004,-32.915813,BSC
2320646275072.0,2.1697843074798584,-4.364171981811523,5.579124927520752,7.124524116516113,0.8760821223258972,1.5665639999999998,1.0158689,208.76888,-33.561523,-32.907394000000004,BSC
2320651255808.0,2.1747841835021973,-4.399701118469238,5.620736598968506,7.108338356018066,0.8339642882347107,1.7507398,1.0931433000000002,208.32889,-33.79149,-32.92864,BSC
2320656236544.0,2.179783821105957,-4.433651447296143,5.6599016189575195,7.092645645141602,0.7926490306854248,1.8301523,1.1520919,207.80788,-33.98901,-33.047146000000005,BSC
2320661479424.0,2.184783697128296,-4.466137886047363,5.696780204772949,7.077475070953369,0.7521878480911255,1.9801197,1.1774428,207.22679,-34.186695,-33.207508000000004,BSC
2320666460160.0,2.1897835731506348,-4.4972710609436035,5.731508255004883,7.062849521636963,0.7126272916793823,2.0974060000000003,1.2049317,206.64305,-34.317947,-33.396667,BSC
2320671440896.0,2.1947834491729736,-4.527155876159668,5.764196395874023,7.048785209655762,0.6740090250968933,2.2165246,1.1969905,206.03578,-34.426964,-33.615463,BSC
2320676421632.0,2.1997833251953125,-4.555890083312988,5.794930458068848,7.035292148590088,0.6363693475723267,2.309376,1.1685852,205.41463,-34.52908,-33.847225,BSC
2320681402368.0,2.2047832012176514,-4.5835652351379395,5.8237738609313965,7.022375106811523,0.5997394323348999,2.3399193,1.1242975,204.90848,-34.46875,-34.091885,BSC
2320686383104.0,2.2097830772399902,-4.610267162322998,5.850770950317383,7.010033130645752,0.5641453862190247,2.2843306,1.0650436,204.41846,-34.38739,-34.345104,BSC
2320691363840.0,2.214782953262329,-4.636077404022217,5.875949382781982,6.9982590675354,0.5296083092689514,2.1713204,1.0009027,203.94034,-34.264503000000005,-34.62593,BSC
2320696344576.0,2.219782829284668,-4.661075592041016,5.899326801300049,6.987040042877197,0.4961444139480591,2.0100522,0.9279043,203.50992,-34.12187,-34.896877,BSC
2320701325312.0,2.224782705307007,-4.685340881347656,5.920915126800537,6.9763569831848145,0.4637649655342102,1.8435913,0.8539896,203.10692,-33.94642,-35.175426,BSC
2320706306048.0,2.2297825813293457,-4.708954811096191,5.9407243728637695,6.966186046600342,0.43247658014297485,1.6533068,0.77671516,202.7716,-33.751717,-35.42924,BSC
2320711286784.0,2.2347824573516846,-4.732004165649414,5.95876932144165,6.956499099731445,0.4022813141345978,1.4230106000000002,0.69027776,202.46663,-33.555138,-35.68137,BSC
2320716267520.0,2.2397823333740234,-4.754583358764648,5.975071907043457,6.947263717651367,0.3731769323348999,1.1615603,0.58093286,202.24275,-33.335674,-35.90554,BSC
2320721248256.0,2.2447822093963623,-4.776795387268066,5.98966646194458,6.93843936920166,0.34515732526779175,0.9621128,0.48349985,202.00615,-33.141396,-36.134674,BSC
2320726228992.0,2.249782085418701,-4.798752307891846,6.002602577209473,6.9299726486206055,0.3182128667831421,0.9236283000000002,0.42943826,201.81184,-32.93245,-36.354214,BSC
2320731471872.0,2.25478196144104,-4.820572853088379,6.013944625854492,6.9217939376831055,0.29233086109161377,1.02717,0.4147775,201.52757,-32.800205,-36.60993,BSC
2320736452608.0,2.259781837463379,-4.842380046844482,6.0237717628479,6.913815975189209,0.26749593019485474,1.2302825000000002,0.44776422,201.23227,-32.66167,-36.877163,BSC
2320741433344.0,2.264781951904297,-4.86430025100708,6.0321760177612305,6.9059343338012695,0.24369020760059357,1.4172074,0.4886922,200.79337,-32.635223,-37.212654,BSC
2320746414080.0,2.269782066345215,-4.8864593505859375,6.039262771606445,6.8980278968811035,0.22089354693889618,1.4978416,0.5555819000000001,200.31697,-32.616344,-37.55205,BSC
2320751394816.0,2.274782180786133,-4.908979415893555,6.0451507568359375,6.889960765838623,0.1990835964679718,1.4480561,0.6426301999999999,199.81273,-32.600895,-37.88571500000001,BSC
2320756375552.0,2.279782295227051,-4.931973457336426,6.0499701499938965,6.881588459014893,0.17823587357997894,1.3869696000000002,0.75686204,199.15585,-32.69805,-38.25253,BSC
2320761356288.0,2.2847824096679688,-4.955538272857666,6.053859710693359,6.87276554107666,0.15832386910915375,1.1585059,0.8042041,198.5486,-32.789482,-38.563873,BSC
2320766337024.0,2.2897825241088867,-4.979746341705322,6.056962490081787,6.863356590270996,0.13931883871555328,0.84299403,0.870483,197.90956,-32.978966,-38.772667,BSC
2320771317760.0,2.2947826385498047,-5.004644393920898,6.059423446655273,6.8532395362854,0.12118956446647644,0.50823987,0.8933904,197.33626,-33.15783,-38.925434,BSC
2320776298496.0,2.2997827529907227,-5.03024959564209,6.06138277053833,6.842309951782227,0.10390273481607437,0.24098633,0.8527679,196.8306,-33.327427,-39.024742,BSC
2320781279232.0,2.3047831058502197,-5.056550979614258,6.0629730224609375,6.830482482910156,0.08742354065179825,0.013744468,0.7684685,196.54706,-33.532043,-38.871338,BSC
2320786522112.0,2.309783458709717,-5.083512783050537,6.064317226409912,6.817690372467041,0.07171697914600372,-0.14844026,0.6814201999999999,196.33386,-33.733604,-38.688892,BSC
2320791502848.0,2.314783811569214,-5.111074447631836,6.065526485443115,6.803884983062744,0.056749001145362854,-0.2312125,0.5861251999999999,196.27711,-33.890285,-38.41995,BSC
2320796483584.0,2.319784164428711,-5.139156341552734,6.066697597503662,6.789031982421875,0.04248729720711708,-0.2312125,0.4978552,196.26561,-34.04138,-38.155796,BSC
2320801726464.0,2.324784517288208,-5.16766357421875,6.06791353225708,6.773108005523682,0.02890176512300968,-0.12644911,0.41722095,196.32784,-34.159256,-37.876225,BSC
2320806707200.0,2.329784870147705,-5.196489334106445,6.069241523742676,6.756096839904785,0.015964511781930923,0.03268129,0.33841935,196.40002,-34.266438,-37.629395,BSC
2320811687936.0,2.334785223007202,-5.225518226623535,6.070732116699219,6.7379841804504395,0.003649613354355097,0.23090707,0.25992316,196.45755,-34.36493,-37.431232,BSC
2320816668672.0,2.339785575866699,-5.254630088806152,6.072417736053467,6.718754768371582,-0.008067360147833824,0.41050145,0.1872302,196.47124,-34.436787,-37.304432,BSC
2320821649408.0,2.3447859287261963,-5.283699035644531,6.074312210083008,6.698383808135986,-0.01920967549085617,0.5488624,0.11026118,196.46791,-34.492515999999995,-37.227074,BSC
2320826630144.0,2.3497862815856934,-5.312596797943115,6.076409339904785,6.676836013793945,-0.029799770563840866,0.6227771,0.04062254,196.38335,-34.528046,-37.243607,BSC
2320831610880.0,2.3547868728637695,-5.341193199157715,6.078685760498047,6.6540656089782715,-0.03985942155122757,0.6386596,-0.027183503,196.2992,-34.54567,-37.29061,BSC
2320836591616.0,2.3597874641418457,-5.369358062744141,6.081104278564453,6.630019187927246,-0.0494096465408802,0.5842925999999999,-0.07269296,196.1308,-34.562405,-37.427837,BSC
2320841572352.0,2.364788055419922,-5.396961212158203,6.083617687225342,6.604640483856201,-0.058470435440540314,0.46822822,-0.10781772,195.98865,-34.568363,-37.566433,BSC
2320846553088.0,2.369788646697998,-5.42387580871582,6.086172103881836,6.577872276306152,-0.06706040352582932,0.26450464,-0.13103059,195.86798,-34.58688,-37.68929,BSC
2320851533824.0,2.374789237976074,-5.449978351593018,6.088709354400635,6.549662113189697,-0.07519633322954178,0.12461651,-0.13622294,195.76451,-34.613186,-37.804302,BSC
2320856514560.0,2.3797898292541504,-5.475151062011719,6.091169834136963,6.519963264465332,-0.08289278298616409,-0.15974127,-0.14966199,195.759,-34.644188,-37.855736,BSC
2320861495296.0,2.3847904205322266,-5.499282360076904,6.093494892120361,6.488739967346191,-0.0901622399687767,-0.462425,-0.19394971,195.81628,-34.689594,-37.848804,BSC
2320866476032.0,2.3897910118103027,-5.5222673416137695,6.0956268310546875,6.455966472625732,-0.09701507538557053,-0.7492262,-0.258396,195.95169,-34.748077,-37.795063,BSC
2320871456768.0,2.394791603088379,-5.544009208679199,6.097509860992432,6.421629905700684,-0.10345970839262009,-1.0128145,-0.34208453,196.19952,-34.797455,-37.664875,BSC
2320876437504.0,2.399791955947876,-5.564422130584717,6.099093914031982,6.3857316970825195,-0.10950268059968948,-1.2788464,-0.43310347,196.53812,-34.843876,-37.491783,BSC
2320881418240.0,2.404792308807373,-5.583435535430908,6.10033655166626,6.34829044342041,-0.1151488870382309,-1.5121969,-0.5155702999999999,196.9514,-34.882659999999994,-37.287857,BSC
2320886398976.0,2.40979266166687,-5.600996494293213,6.1012043952941895,6.3093438148498535,-0.12040191888809204,-1.7137824000000002,-0.60903263,197.47153,-34.891870000000004,-37.031433,BSC
2320891379712.0,2.414793014526367,-5.617071628570557,6.101675510406494,6.268947124481201,-0.12526462972164154,-1.8860464,-0.7031059000000001,198.05621,-34.88889,-36.75033,BSC
2320896360448.0,2.4197933673858643,-5.631647109985352,6.101739406585693,6.227171897888184,-0.12973998486995697,-2.0011945,-0.8246681,198.70596,-34.82459,-36.469234,BSC
2320901341184.0,2.4247937202453613,-5.644728660583496,6.101398944854736,6.184106349945068,-0.13383202254772186,-2.0726657,-0.95478237,199.39928,-34.734257,-36.182247,BSC
2320906321920.0,2.4297940731048584,-5.656343936920166,6.100671768188477,6.139852523803711,-0.13754704594612122,-2.087021,-1.0876455,200.1223,-34.60463,-35.90715,BSC
2320911302656.0,2.4347944259643555,-5.666539669036865,6.099590301513672,6.094526290893555,-0.140894815325737,-2.014939,-1.1939361000000002,200.83852,-34.42542,-35.67025800000001,BSC
2320916283392.0,2.4397947788238525,-5.675380706787109,6.098206043243408,6.048253536224365,-0.1438894271850586,-1.8371773,-1.2327261,201.53015,-34.21179,-35.463192,BSC
2320921264128.0,2.4447951316833496,-5.682949066162109,6.096589088439941,6.001168727874756,-0.14654996991157532,-1.5564847,-1.1921035,202.14558,-33.982890000000005,-35.303402,BSC
2320926244864.0,2.4497954845428467,-5.689340591430664,6.094832897186279,5.95341157913208,-0.14890079200267792,-1.2461652,-1.087951,202.68791,-33.733746000000004,-35.180435,BSC
2320931225600.0,2.4547958374023438,-5.694662094116211,6.093055725097656,5.90512752532959,-0.1509711593389511,-0.95814216,-0.92179567,203.12767,-33.48872,-35.090275,BSC
2320936206336.0,2.459796190261841,-5.699030876159668,6.091399192810059,5.856464385986328,-0.15279430150985718,-0.6805039,-0.700357,203.43646,-33.352965999999995,-34.991207,BSC
2320941187072.0,2.464796304702759,-5.7025675773620605,6.090019226074219,5.807570457458496,-0.15440575778484344,-0.46211955,-0.43463063,203.63013,-33.258568,-34.901474,BSC
2320946167808.0,2.4697964191436768,-5.705394268035889,6.089076995849609,5.758591651916504,-0.1558413803577423,-0.38637227,-0.1853976,203.73999,-33.365593,-34.69921,BSC
2320951410688.0,2.4747965335845947,-5.707630157470703,6.088731288909912,5.709670543670654,-0.1571352332830429,-0.24281894,-0.024129177,203.7392,-33.522194,-34.53091,BSC
2320956391424.0,2.4797966480255127,-5.709387302398682,6.089128494262695,5.660943031311035,-0.15831874310970306,-0.055283304000000005,0.018936822,203.68102,-33.703022,-34.370583,BSC
2320961372160.0,2.4847967624664307,-5.710768222808838,6.090397834777832,5.612539768218994,-0.15941964089870453,0.15974127,0.06627888,203.56064,-33.91565,-34.2305,BSC
2320966352896.0,2.4897968769073486,-5.711863040924072,6.09264612197876,5.564583778381348,-0.16046161949634552,0.34055737,0.08277224,203.40681,-34.127083,-34.125523,BSC
2320971333632.0,2.4947969913482666,-5.712747097015381,6.0959577560424805,5.517192840576172,-0.16146448254585266,0.43982297,0.08857546,203.24174,-34.271824,-34.06886,BSC
2320976314368.0,2.4997971057891846,-5.713479995727539,6.100390911102295,5.4704790115356445,-0.1624445617198944,0.44868052,0.093767814,203.05669,-34.42082,-34.02964,BSC
2320981295104.0,2.5047969818115234,-5.714103698730469,6.105979919433594,5.424549102783203,-0.16341523826122284,0.39950588,0.096516706,202.86658,-34.572759999999995,-33.999374,BSC
2320986537984.0,2.5097968578338623,-5.71464204788208,6.112734317779541,5.379502296447754,-0.16438749432563782,0.3032946,0.118202426,202.73474,-34.656307,-33.928085,BSC
2320991518720.0,2.514796733856201,-5.7151055335998535,6.120643138885498,5.335430145263672,-0.16537033021450043,0.17989981,0.13072516,202.6274,-34.736553,-33.844467,BSC
2320996499456.0,2.51979660987854,-5.715494155883789,6.129678249359131,5.292412757873535,-0.1663709580898285,0.06627888,0.13836098,202.59915,-34.780266,-33.679120000000005,BSC
2321001480192.0,2.524796485900879,-5.715799331665039,6.139797210693359,5.250517845153809,-0.16739512979984283,-0.010079277,0.13591751,202.59335,-34.819195,-33.501442,BSC
2321006460928.0,2.5297963619232178,-5.71600866317749,6.150946617126465,5.2098002433776855,-0.1684473305940628,-0.07269296,0.12858713,202.61221,-34.857056,-33.30862,BSC
2321011703808.0,2.5347962379455566,-5.7161078453063965,6.163064956665039,5.170300483703613,-0.1695311814546585,-0.12461651,0.11362094,202.62526,-34.887215000000005,-33.151764,BSC
2321016684544.0,2.5397961139678955,-5.716083526611328,6.176084995269775,5.132044315338135,-0.17064985632896423,-0.15668693,0.09193522,202.65256,-34.90776,-32.992702,BSC
2321021665280.0,2.5447962284088135,-5.7159271240234375,6.189937591552734,5.0950422286987305,-0.17180661857128143,-0.17745635,0.07941248,202.691,-34.916940000000004,-32.830284000000006,BSC
2321026646016.0,2.5497963428497314,-5.715637683868408,6.204552173614502,5.059289932250977,-0.17300519347190857,-0.17989981,0.06383542,202.69888,-34.921046999999994,-32.736073,BSC
2321031626752.0,2.5547964572906494,-5.715220928192139,6.219860553741455,5.024771213531494,-0.17425018548965454,-0.19058995,0.051923547,202.7155,-34.90503,-32.63958,BSC
2321036607488.0,2.5597965717315674,-5.714690685272217,6.2357964515686035,4.991459369659424,-0.17554734647274017,-0.20891592,0.05467244,202.67348,-34.873165,-32.6332,BSC
2321041588224.0,2.5647966861724854,-5.71406888961792,6.2522969245910645,4.95932149887085,-0.17690367996692657,-0.24587326,0.0711658,202.6374,-34.82775,-32.621086,BSC
2321046568960.0,2.5697968006134033,-5.713384628295898,6.2693023681640625,4.928318500518799,-0.17832748591899872,-0.26419923,0.095294975,202.59813,-34.77225,-32.607944,BSC
2321051549696.0,2.5747969150543213,-5.712672710418701,6.286755561828613,4.898409843444824,-0.17982794344425201,-0.301462,0.11362094,202.55724,-34.70852,-32.607018,BSC
2321056792576.0,2.5797970294952393,-5.711973190307617,6.304603099822998,4.8695526123046875,-0.18141473829746246,-0.267559,0.19272798,202.48232,-34.6523,-32.601772,BSC
2321061773312.0,2.5847973823547363,-5.711328506469727,6.3227925300598145,4.841704368591309,-0.1830977499485016,-0.23579398,0.21013765,202.42548,-34.56306,-32.616737,BSC
2321066754048.0,2.5897977352142334,-5.710782527923584,6.341273784637451,4.814823150634766,-0.1848868578672409,-0.12675454,0.22388211,202.32408,-34.488087,-32.641735,BSC
2321071734784.0,2.5947980880737305,-5.710378646850586,6.359994888305664,4.788870811462402,-0.18679186701774597,-0.005192355,0.22937989,202.22235,-34.400387,-32.674236,BSC
2321076715520.0,2.5997984409332275,-5.71015739440918,6.378900051116943,4.7638115882873535,-0.18882231414318085,0.09040806,0.22296582,202.10146,-34.313666999999995,-32.7247,BSC
2321081696256.0,2.6047987937927246,-5.710153579711914,6.397928714752197,4.7396159172058105,-0.190987229347229,0.13744467,0.22724187,201.97841,-34.204445,-32.78411,BSC
2321086676992.0,2.6097991466522217,-5.710396766662598,6.417012691497803,4.716259479522705,-0.19329461455345154,0.14385876,0.23945917,201.8429,-34.102920000000005,-32.854942,BSC
2321091657728.0,2.614799737930298,-5.710907459259033,6.4360761642456055,4.693726062774658,-0.19575080275535583,0.11453723,0.26297748,201.74211,-33.955784,-32.91704,BSC
2321096638464.0,2.619800329208374,-5.711697578430176,6.455035209655762,4.672008037567139,-0.19835993647575378,0.05131268,0.28221974,201.64522,-33.820225,-32.97211,BSC
2321101619200.0,2.62480092048645,-5.712770462036133,6.473799228668213,4.651106834411621,-0.20112347602844238,-0.036957346,0.31612277,201.61452,-33.64478,-32.979916,BSC
2321106599936.0,2.6298015117645264,-5.714120388031006,6.4922709465026855,4.631033897399902,-0.2040397971868515,-0.1337795,0.3408628,201.5946,-33.49258,-32.972435,BSC
2321111580672.0,2.6348021030426025,-5.715734958648682,6.510351181030273,4.611810684204102,-0.20710398256778717,-0.2275473,0.3735441,201.65813,-33.30059,-32.900055,BSC
2321116561408.0,2.6398026943206787,-5.717597961425781,6.5279412269592285,4.593470096588135,-0.21030771732330322,-0.29810223,0.42760566,201.71877,-33.14518,-32.807903,BSC
2321121542144.0,2.644803285598755,-5.719690799713135,6.544947147369385,4.576058387756348,-0.21363916993141174,-0.33841935,0.47433686,201.80522,-33.001442,-32.67628,BSC
2321126785024.0,2.649803876876831,-5.7219953536987305,6.561281204223633,4.559632778167725,-0.21708309650421143,-0.35430184,0.5558874,201.87164,-32.898445,-32.52421,BSC
2321131765760.0,2.6548044681549072,-5.724494934082031,6.576862812042236,4.544260501861572,-0.2206210196018219,-0.34666604,0.623388,201.92723,-32.825047,-32.36854,BSC
2321136746496.0,2.6598050594329834,-5.727173328399658,6.591619491577148,4.5300164222717285,-0.2242313176393509,-0.30543262,0.7067711,201.9712,-32.78269,-32.179493,BSC
2321141727232.0,2.6648056507110596,-5.730016231536865,6.6054863929748535,4.516982555389404,-0.22788956761360168,-0.23915374,0.7693848000000001,201.99142,-32.76527,-31.996403000000004,BSC
2321146707968.0,2.6698062419891357,-5.733010768890381,6.618407726287842,4.505244255065918,-0.2315690815448761,-0.19150625,0.8020661,201.99591,-32.765415000000004,-31.808752,BSC
2321151688704.0,2.674806833267212,-5.736144542694092,6.630334377288818,4.494886875152588,-0.23524165153503418,-0.070554934,0.8069529999999999,201.95969,-32.780476,-31.652628000000004,BSC
2321156669440.0,2.679807424545288,-5.739405155181885,6.641226291656494,4.485992908477783,-0.2388782799243927,0.061086524,0.7965683000000001,201.90573,-32.79752,-31.504936,BSC
2321161650176.0,2.6848080158233643,-5.742778301239014,6.6510515213012695,4.478638172149658,-0.24244996905326843,0.22602014,0.7583892,201.82497,-32.806587,-31.401413,BSC
2321166630912.0,2.6898086071014404,-5.746248722076416,6.659786224365234,4.472889423370361,-0.24592864513397217,0.40011674,0.68203104,201.72049,-32.812477,-31.32683,BSC
2321171611648.0,2.6948091983795166,-5.749797344207764,6.667414665222168,4.468801021575928,-0.24928787350654602,0.5693264,0.6041456999999999,201.59433,-32.804363,-31.29872,BSC
2321176592384.0,2.6998095512390137,-5.753402233123779,6.673928737640381,4.466413497924805,-0.25250351428985596,0.7021896,0.5198463,201.4604,-32.797146000000005,-31.300951,BSC
2321181573120.0,2.7048099040985107,-5.757037162780762,6.679327487945557,4.465752601623535,-0.25555410981178284,0.78984874,0.45020768,201.3193,-32.76828,-31.343332,BSC
2321186553856.0,2.709810256958008,-5.760672092437744,6.683616638183594,4.466827869415283,-0.2584210932254791,0.82436264,0.37507126,201.18552,-32.744820000000004,-31.400322,BSC
2321191534592.0,2.714810609817505,-5.764272689819336,6.686806678771973,4.469634056091309,-0.26108884811401367,0.81061816,0.31215215,201.06088,-32.703983,-31.476036,BSC
2321196515328.0,2.719810962677002,-5.767800807952881,6.688912868499756,4.47415018081665,-0.26354458928108215,0.73364913,0.26908615,200.9536,-32.67179,-31.53247,BSC
2321201496064.0,2.724811315536499,-5.771214962005615,6.689952373504639,4.480340480804443,-0.26577824354171753,0.64934975,0.23396139,200.86705,-32.62605300000001,-31.593441,BSC
2321206476800.0,2.729811668395996,-5.774470806121826,6.689944744110107,4.488155364990234,-0.2677820920944214,0.53878313,0.20830505,200.81252,-32.573837,-31.63695,BSC
2321211457536.0,2.734812021255493,-5.777520656585693,6.68890905380249,4.497532844543457,-0.2695506811141968,0.42119157,0.18142697,200.77768,-32.527695,-31.65871,BSC
2321216438272.0,2.739812135696411,-5.780315399169922,6.686864376068115,4.508398056030273,-0.2710804343223572,0.30482176,0.16523905,200.77048,-32.48328,-31.658833,BSC
2321221419008.0,2.744812250137329,-5.7828049659729,6.6838274002075195,4.520667552947998,-0.2723696827888489,0.19211712,0.14660765,200.78986,-32.432922,-31.636047,BSC
2321226399744.0,2.749812364578247,-5.784939765930176,6.679811954498291,4.534249305725098,-0.27341851592063904,0.076052725,0.12950343,200.83788,-32.381122999999995,-31.58988,BSC
2321231380480.0,2.754812479019165,-5.786672592163086,6.674829959869385,4.549046993255615,-0.27422842383384705,-0.027794369,0.10567969,200.89738,-32.32072,-31.54263,BSC
2321236361216.0,2.759812593460083,-5.787959575653076,6.668890476226807,4.564960956573486,-0.2748021185398102,-0.13255776,0.08521569999999999,200.98347,-32.25175,-31.472849,BSC
2321241341952.0,2.764812707901001,-5.788761138916016,6.66200065612793,4.581892490386963,-0.2751433849334717,-0.22602014,0.054367006,201.0957,-32.184593,-31.38975,BSC
2321246322688.0,2.769812822341919,-5.78904390335083,6.654166221618652,4.5997443199157715,-0.2752569317817688,-0.27122417,0.042455133,201.1969,-32.091038,-31.316513,BSC
2321251303424.0,2.774812698364258,-5.788780212402344,6.645391941070557,4.618425369262695,-0.27514827251434326,-0.34513888,0.032070424,201.32788,-31.999126,-31.222645,BSC
2321256284160.0,2.7798125743865967,-5.787950038909912,6.635682106018066,4.637851238250732,-0.2748235762119293,-0.40378192,0.012217305,201.45412,-31.885517,-31.145647,BSC
2321261264896.0,2.7848124504089355,-5.7865400314331055,6.625042915344238,4.657945156097412,-0.27428966760635376,-0.43554693,-0.00030543262000000003,201.58693,-31.772223,-31.06027000000001,BSC
2321266245632.0,2.7898123264312744,-5.784545421600342,6.613482475280762,4.6786394119262695,-0.2735539376735687,-0.4456262,0.0015271631,201.7258,-31.645775,-30.974422,BSC
2321271226368.0,2.7948122024536133,-5.78196907043457,6.60101318359375,4.699875831604004,-0.2726241648197174,-0.4092797,-0.008246681,201.86339,-31.516956,-30.897928000000004,BSC
2321276469248.0,2.799812078475952,-5.7788214683532715,6.587650775909424,4.721603870391846,-0.2715085446834564,-0.36743546,-0.009773844,201.99475,-31.39437,-30.820490000000003,BSC
2321281449984.0,2.804811716079712,-5.775119304656982,6.573415756225586,4.743780136108398,-0.2702154815196991,-0.30634892,-0.005192355,202.09843,-31.270704,-30.761007,BSC
2321286430720.0,2.8098113536834717,-5.770884990692139,6.558332920074463,4.7663679122924805,-0.2687535583972931,-0.22418754,0.004276057,202.18494,-31.148806,-30.71674,BSC
2321291411456.0,2.8148109912872314,-5.7661452293396,6.542431831359863,4.789335250854492,-0.2671314775943756,-0.1386664,0.019242255,202.24348,-31.045656,-30.686613,BSC
2321296392192.0,2.819810628890991,-5.760930061340332,6.525747299194336,4.812654972076416,-0.2653577923774719,-0.052534413,0.023518313,202.28357,-30.947912,-30.676552,BSC
2321301372928.0,2.824810266494751,-5.755272388458252,6.508317470550537,4.836302280426025,-0.26344090700149536,0.022296581,0.034513887,202.29942,-30.87053,-30.676985,BSC
2321306353664.0,2.8298099040985107,-5.749206066131592,6.490185260772705,4.860256195068359,-0.2613888680934906,0.060170225999999986,0.05681047,202.30032,-30.802004,-30.686243,BSC
2321311596544.0,2.8348095417022705,-5.742763996124268,6.471395969390869,4.88449764251709,-0.2592095136642456,0.064446285,0.06994407,202.28596,-30.752947,-30.693182,BSC
2321316577280.0,2.8398091793060303,-5.735978603363037,6.45199728012085,4.9090094566345215,-0.25691041350364685,0.048563786,0.0842994,202.27631836333904,-30.7383635781779,-30.692131240152804,BSC
2321321558016.0,2.84480881690979,-5.728880882263184,6.432039260864258,4.933775424957275,-0.25449874997138977,0.017715093,0.098043874,202.26436,-30.720276,-30.690828000000003,BSC
2321326538752.0,2.84980845451355,-5.721499919891357,6.411572456359863,4.958780765533447,-0.25198137760162354,-0.015577064,0.11026118,202.24507,-30.695847,-30.676582,BSC
2321331519488.0,2.8548080921173096,-5.713862419128418,6.39064884185791,4.984010696411133,-0.24936480820178986,-0.06291912,0.12003502,202.23132,-30.682005,-30.64482700000001,BSC
2321336762368.0,2.8598077297210693,-5.705992221832275,6.369319438934326,5.009451866149902,-0.24665524065494537,-0.10781772,0.12370021,202.22604,-30.68233,-30.591682,BSC
2321341743104.0,2.864807367324829,-5.697910785675049,6.347635269165039,5.035089015960693,-0.24385851621627808,-0.12461651,0.13683382,202.21971,-30.68357,-30.532503,BSC
2321346723840.0,2.869807004928589,-5.689636707305908,6.325647354125977,5.060906410217285,-0.24098019301891327,-0.15393804,0.13683382,202.23026,-30.696642,-30.453074,BSC
2321351704576.0,2.8748066425323486,-5.681185722351074,6.30340576171875,5.086885929107666,-0.23802559077739716,-0.17531833,0.14263703,202.23776,-30.71107,-30.370539,BSC
2321356685312.0,2.8798062801361084,-5.672572135925293,6.280959606170654,5.11300802230835,-0.23499979078769684,-0.18387043,0.14172074,202.25044,-30.72827,-30.287548,BSC
2321361666048.0,2.884805917739868,-5.6638078689575195,6.258357524871826,5.139251232147217,-0.23190763592720032,-0.15943582,0.15057829,202.25018,-30.755367,-30.197025,BSC
2321366646784.0,2.889805555343628,-5.654904365539551,6.2356486320495605,5.165591239929199,-0.22875380516052246,-0.13744467,0.1518,202.25478,-30.781607,-30.107891,BSC
2321371627520.0,2.8948051929473877,-5.645871639251709,6.212880611419678,5.192002773284912,-0.22554293274879456,-0.08827003,0.14691310000000002,202.24287,-30.81585,-30.030794,BSC
2321376608256.0,2.8998048305511475,-5.636719226837158,6.190101623535156,5.21845817565918,-0.2222796082496643,-0.03145956,0.14202617,202.2257,-30.84887,-29.962551,BSC
2321381851136.0,2.9048047065734863,-5.627456188201904,6.167359352111816,5.24492883682251,-0.21896851062774658,0.016798794,0.13988814,202.20207,-30.87719,-29.905956,BSC
2321386831872.0,2.909804582595825,-5.618090629577637,6.144700050354004,5.271383762359619,-0.21561439335346222,0.061086524,0.13255776,202.1707,-30.91485,-29.86376,BSC
2321391812608.0,2.914804458618164,-5.608631610870361,6.122169494628906,5.297791004180908,-0.2122221738100052,0.10048734,0.13500121,202.13005,-30.94903,-29.831509000000004,BSC
2321396793344.0,2.919804334640503,-5.599086761474609,6.099811553955078,5.324117183685303,-0.2087969332933426,0.13408493,0.12308934,202.08891,-30.97668,-29.812775,BSC
2321401774080.0,2.924804210662842,-5.5894646644592285,6.077669620513916,5.350327014923096,-0.20534393191337585,0.1572978,0.10842858,202.03513,-31.00576,-29.800215,BSC
2321406754816.0,2.9298043251037598,-5.579773902893066,6.055785179138184,5.37638521194458,-0.20186865329742432,0.16035213,0.103847094,201.98073,-31.030115,-29.79168,BSC
2321411735552.0,2.9348044395446777,-5.570022106170654,6.0341973304748535,5.402255058288574,-0.19837668538093567,0.15974127,0.09285152,201.91882,-31.063414,-29.790812,BSC
2321416716288.0,2.9398045539855957,-5.560218334197998,6.012942790985107,5.4278998374938965,-0.19487369060516357,0.14813483,0.08277224,201.8611,-31.090290000000003,-29.789146,BSC
2321421697024.0,2.9448046684265137,-5.5503716468811035,5.992055416107178,5.453282356262207,-0.19136536121368408,0.12889257,0.074830994,201.80573,-31.108988,-29.790949,BSC
2321426677760.0,2.9498047828674316,-5.540490627288818,5.971566200256348,5.478366374969482,-0.18785740435123444,0.09468412,0.06078109,201.76114,-31.124866,-29.78975100000001,BSC
2321431658496.0,2.9548048973083496,-5.530584335327148,5.951503753662109,5.503114700317383,-0.1843554824590683,0.0720821,0.05497787,201.71738,-31.137625,-29.790314,BSC
2321436639232.0,2.9598052501678467,-5.520662784576416,5.931893348693848,5.527492046356201,-0.180865079164505,0.0693332,0.04428773,201.6823,-31.149721000000003,-29.79118,BSC
2321441619968.0,2.9648056030273438,-5.510735988616943,5.912756443023682,5.5514631271362305,-0.17739151418209076,0.0580322,0.032070424,201.65125,-31.15061,-29.790787,BSC
2321446600704.0,2.969805955886841,-5.500813961029053,5.8941121101379395,5.574994087219238,-0.17393992841243744,0.044593163,0.025961773,201.62306,-31.153591,-29.790333,BSC
2321451843584.0,2.974806308746338,-5.490907192230225,5.875976085662842,5.598052024841309,-0.170515239238739,0.03573562,0.011911872,201.60205,-31.15057,-29.792036,BSC
2321456824320.0,2.979806661605835,-5.4810261726379395,5.858362197875977,5.620606422424316,-0.16712215542793274,0.03848451,0.008246681,201.5753,-31.14597,-29.796782,BSC
2321461805056.0,2.984807014465332,-5.471181869506836,5.841280937194824,5.642627239227295,-0.16376513242721558,0.03940081,0.005497787,201.55441,-31.137241,-29.80151,BSC
2321466785792.0,2.989807367324829,-5.461386203765869,5.824741363525391,5.664086818695068,-0.16044828295707703,0.029626964,-0.009162978,201.53458,-31.132584,-29.810213,BSC
2321471766528.0,2.994807720184326,-5.451651096343994,5.808750629425049,5.6849589347839355,-0.157175213098526,0.029321533,-0.01038471,201.5102,-31.130222,-29.819557,BSC
2321476747264.0,2.9998080730438232,-5.441990375518799,5.793313503265381,5.70521879196167,-0.15394911170005798,0.010079277,-0.01160644,201.48914,-31.127941,-29.831923,BSC
2321481728000.0,3.0048086643218994,-5.4324188232421875,5.778433322906494,5.7248430252075195,-0.15077272057533264,0.009468411,-0.01282817,201.46516,-31.13152,-29.84851500000001,BSC
2321486708736.0,3.0098092555999756,-5.422952175140381,5.764111518859863,5.743810653686523,-0.14764831960201263,-0.011301007,-0.01160644,201.43454,-31.129189,-29.868286,BSC
2321491689472.0,3.0148098468780518,-5.413606643676758,5.750348091125488,5.7621026039123535,-0.14457780122756958,-0.03481932,-0.014660766,201.4064,-31.126593,-29.887964,BSC
2321496670208.0,3.019810438156128,-5.404399394989014,5.737143039703369,5.779702663421631,-0.1415625959634781,-0.056505036,-0.013133603,201.3739,-31.128408,-29.908327000000003,BSC
2321501650944.0,3.024811029434204,-5.395348072052002,5.724493980407715,5.796597480773926,-0.13860368728637695,-0.074830994,-0.017104227,201.34793,-31.127583,-29.925356,BSC
2321506631680.0,3.029811382293701,-5.386470317840576,5.712399005889893,5.812776565551758,-0.13570165634155273,-0.0983493,-0.025350908,201.32822,-31.128332,-29.936611,BSC
2321511612416.0,3.0348117351531982,-5.377783298492432,5.700855255126953,5.828232288360596,-0.13285669684410095,-0.1151481,-0.0290161,201.30684,-31.129257,-29.944048,BSC
2321516593152.0,3.0398120880126953,-5.369304656982422,5.689859390258789,5.842958927154541,-0.13006870448589325,-0.12492194,-0.03023783,201.29033,-31.130169,-29.948809000000004,BSC
2321521573888.0,3.0448124408721924,-5.361051082611084,5.679408073425293,5.856955051422119,-0.1273372620344162,-0.14080444,-0.03359759,201.27815,-31.1308,-29.947908,BSC
2321526554624.0,3.0498127937316895,-5.353039741516113,5.669497966766357,5.87022066116333,-0.12466168403625488,-0.14691310000000002,-0.032986723,201.26535,-31.135515,-29.94673,BSC
2321531535360.0,3.0548131465911865,-5.345287322998047,5.660125732421875,5.882759094238281,-0.1220410168170929,-0.13439035,-0.04337143,201.25146,-31.13857,-29.95041,BSC
2321536516096.0,3.0598134994506836,-5.3378095626831055,5.6512885093688965,5.894576549530029,-0.11947408318519592,-0.13255776,-0.041233405,201.23755,-31.146963,-29.94821,BSC
2321541496832.0,3.0648138523101807,-5.330621719360352,5.642983436584473,5.905681133270264,-0.11695954203605652,-0.14019357,-0.0421497,201.22731,-31.155,-29.949337,BSC
2321546477568.0,3.0698142051696777,-5.323737621307373,5.635207653045654,5.916083812713623,-0.11449597030878067,-0.118202426,-0.043982297,201.21075,-31.16341,-29.957506,BSC
2321551458304.0,3.074814558029175,-5.317170143127441,5.62795877456665,5.925797462463379,-0.1120818555355072,-0.09193522,-0.043982297,201.19838,-31.174109,-29.966114,BSC
2321556439040.0,3.079814910888672,-5.3109307289123535,5.621233940124512,5.934836387634277,-0.10971564799547195,-0.07849618,-0.047647487,201.18585,-31.181995,-29.97762100000001,BSC
2321561419776.0,3.084815263748169,-5.305028438568115,5.615029335021973,5.943216800689697,-0.10739580541849136,-0.057421334,-0.048563786,201.16649,-31.191647,-29.989151,BSC
2321566400512.0,3.089815616607666,-5.2994704246521,5.609341621398926,5.95095682144165,-0.10512086749076843,-0.036651913,-0.041233405,201.14355,-31.20132000000001,-30.002745,BSC
