acc_x,acc_y,acc_z,gyro_x,gyro_y,gyro_z,label
0.0,0.0,0.0,0.0,-0.08155051,-0.08124508,8
0.2291308045387268,-0.019277984276413918,0.18252944946289065,-0.0036373699549585576,-0.07849618,-0.118202426,8
0.765218198299408,-0.07826544344425201,0.6295356154441833,-0.012484979815781116,-0.07544186,-0.14752395,8
1.4888081550598145,-0.18931835889816284,1.2446832656860352,-0.02657780423760414,-0.021991149,-0.15393804,8
2.283827781677246,-0.3401536345481873,1.9322694540023804,-0.04205606132745743,-0.0067195175,-0.21319197,8
3.071772575378418,-0.4873336255550385,2.5950098037719727,-0.06358339637517929,0.069027774,-0.2855795,8
3.788561582565308,-0.5986905694007874,3.2082531452178955,-0.08591749519109726,0.1554652,-0.32192600000000005,8
4.425205707550049,-0.6539605855941772,3.703759670257568,-0.10501167178153993,0.22907446,-0.3145956,8
4.9690022468566895,-0.6466203331947327,4.272528171539307,-0.1205105260014534,0.25045475,-0.27000242,8
5.441399097442627,-0.5684397220611572,4.717319965362549,-0.1302495002746582,0.19822577,-0.22907446,8
5.842647075653076,-0.4528036713600159,4.917504787445068,-0.13840191066265106,0.22113322,-0.21319197,8
6.15009880065918,-0.3338429927825928,5.148462772369385,-0.14718875288963318,0.24923302,-0.204029,8
6.386037349700928,-0.2316248267889023,5.3976101875305185,-0.15469104051589966,0.24465153,-0.20280726,8
6.5721497535705575,-0.14476995170116425,5.631931781768799,-0.16055651009082794,0.2144137,-0.18753563,16
6.705556869506836,-0.07837682962417603,5.834190368652344,-0.15867295861244202,0.13713925,-0.15393804,16
6.774904727935791,-0.03237675502896309,6.033768653869629,-0.15003910660743713,0.09682214,-0.118507855,16
6.7901458740234375,-0.003255730262026191,6.215634346008301,-0.13869157433509827,0.079107046,-0.08277224,16
6.787598609924316,0.02510041184723377,6.378377437591553,-0.1223219484090805,0.016493361,-0.04062254,16
6.780172824859619,0.06057915464043617,6.500022888183594,-0.0952216535806656,-0.022602014,0.012217305,16
6.7713069915771475,0.08163535594940187,6.580263137817383,-0.0623454861342907,-0.09590584,0.06688975,16
6.7774505615234375,0.07409096509218216,6.598568916320801,-0.029893428087234494,-0.14141529999999994,0.1001819,16
6.796957492828369,0.033989276736974716,6.550291061401367,0.0029257624410092826,-0.16157386,0.1255328,16
6.812835693359375,-0.008846167474985123,6.477430820465088,0.028768794611096382,-0.16310102,0.10140363,16
6.847041130065918,-0.05880560725927352,6.385389804840088,0.043350603431463235,-0.1020145,0.07971791,16
6.91127872467041,-0.10588117688894272,6.331026554107666,0.05546774342656136,-0.052534413,0.07544186,16
6.994838237762451,-0.1283545196056366,6.335179805755615,0.06503847986459732,-0.08460484,0.06352998,16
7.064803123474121,-0.14229705929756165,6.37662410736084,0.07442083954811096,-0.087659165,0.06780604,16
7.135891437530518,-0.1572013944387436,6.417552471160889,0.08639604598283768,-0.18875736,0.045814894,16
7.214063167572021,-0.13788673281669614,6.436036586761475,0.1143999770283699,-0.31948254,0.09712757,16
7.258097171783447,-0.1031893938779831,6.479881763458253,0.14729022979736328,-0.46517387,0.11178834,16
7.268343448638916,-0.012553391046822071,6.520051956176758,0.18878105282783508,-0.5510005,0.20250183,16
7.240387916564941,0.16796399652957916,6.560515403747559,0.1958104223012924,-0.43096542,0.35888332,16
7.185460567474365,0.3820158243179321,6.684865951538086,0.1755007654428482,-0.5140431,0.43585235,16
7.225156307220459,0.6222863793373108,6.82080078125,0.12468930333852768,-0.48349985,0.6438520000000001,16
7.320926189422607,0.7587588429450989,6.844952583312987,0.04494896903634072,-0.3717115,0.7852673000000001,16
7.320812225341798,0.6423918604850769,6.768296241760254,-0.05324093624949455,-0.33353242,0.6914994999999999,16
7.3074588775634775,0.40802252292633057,6.628496646881104,-0.14827734231948853,-0.28344148,0.5644395000000001,16
7.387951850891112,0.3288944959640503,6.471338748931885,-0.2269384562969208,-0.19700404,0.70157874,16
7.531786918640138,0.2117014229297638,6.418258666992188,-0.29992690682411194,-0.2706133,0.7309003000000001,16
7.747027397155763,0.06573868542909622,6.427957057952881,-0.35745623707771296,-0.34483343,0.8542950999999999,16
7.927910327911378,-0.17670439183712006,6.4398698806762695,-0.4131438136100769,-0.24801129,0.84329945,16
8.030447006225586,-0.4545214176177978,6.397836208343506,-0.4827059209346771,-0.030848695,0.9230174,16
7.93211555480957,-0.8430944681167603,6.280173778533936,-0.5657770037651062,0.15485434,0.65087694,16
7.67444372177124,-1.2754138708114624,6.129791259765625,-0.6319257020950317,0.38056904,0.26572640000000003,16
7.354030132293701,-1.6876574754714966,5.973781108856201,-0.6905487775802612,0.56230146,-0.1518,16
7.039105415344237,-2.077168226242065,5.864867210388184,-0.7490308284759521,0.59895337,-0.57879484,16
6.789193153381348,-2.4403738975524902,5.806591033935548,-0.7917907834053041,0.6044512,-0.9117164,16
6.618074893951416,-2.75525975227356,5.7274250984191895,-0.8291068077087402,0.5876524000000001,-1.1545353,16
6.492215156555176,-2.968112707138061,5.642703056335449,-0.853724479675293,0.6423248,-1.4071281,16
6.418410778045653,-3.044712781906128,5.578229904174805,-0.8638632893562317,0.71868294,-1.6221527,16
6.406818866729736,-2.991814136505127,5.522354602813722,-0.8661658763885498,0.73548174,-1.7999145,16
6.448342323303223,-2.857838630676269,5.475917339324951,-0.862640917301178,0.66981375,-1.8414533,16
6.413666725158691,-2.719655752182007,5.4593000411987305,-0.8417614102363586,0.48472157,-1.9156734,16
6.2601399421691895,-2.533812522888184,5.489311695098877,-0.7743152976036072,0.3036,-1.9327776,16
6.14401388168335,-2.241032123565674,5.532957077026367,-0.689136803150177,0.42455134,-1.9187278000000003,16
6.190436363220215,-1.924543380737305,5.59289026260376,-0.6246674060821533,0.3885103,-1.9303342,16
6.374391078948975,-1.6544051170349119,5.6602654457092285,-0.5568884611129761,0.09987647,-1.9040669,16
6.482926368713379,-1.380579113960266,5.720504760742188,-0.4628001153469086,0.005497787,-1.8799378,16
6.779887199401856,-0.99798983335495,5.883164405822754,-0.3583015203475952,-0.13103059,-1.6578883000000002,16
6.848269939422607,-0.7291467785835266,6.052004337310791,-0.27158653736114496,-0.06750060599999999,-1.7461584,16
6.84943437576294,-0.4825058579444885,6.170834541320801,-0.22337736189365387,-0.08155051,-1.7663169,16
6.840214729309082,-0.26651763916015625,6.1457252502441415,-0.1823471337556839,-0.07086037,-1.6142114,16
6.864603042602539,-0.001927076955325901,6.068647384643555,-0.11898104846477507,-0.07574729,-1.5247196,16
6.853452205657959,0.2641533315181732,6.001945495605469,-0.03392460569739342,-0.15577064,-1.3939945,16
6.839264392852782,0.5201448798179626,5.98748779296875,0.07516729086637497,-0.24373524,-1.3423764,16
6.973922252655028,0.7753850221633911,6.148951053619385,0.1963680237531662,-0.28191432,-1.2953397,16
7.281264781951903,1.0473755598068235,6.283559322357178,0.31460899114608765,-0.27916542,-1.2388347,16
7.611997127532959,1.254947304725647,6.282644271850586,0.4097736179828644,-0.36651915,-1.1096367,16
7.846458911895753,1.4704759120941162,6.254720211029053,0.4809102118015289,-0.43768495,-1.0070114,16
7.967072010040282,1.71045982837677,6.266033172607423,0.5204706788063049,-0.6123924,-1.0329732,16
8.005148887634277,1.9264612197875977,6.172701835632324,0.5279308557510376,-0.6059783000000001,-1.0965031,16
7.986556053161621,2.10896635055542,5.965615749359131,0.5254027247428894,-0.49602258,-1.1340714,16
7.95975399017334,2.321601152420044,5.745894432067871,0.5270879268646239,-0.34025195,-1.1255191999999998,16
7.905642986297607,2.5453097820281982,5.588068008422852,0.5406643748283386,-0.45448375,-1.0800097,16
7.7965087890625,2.781381845474243,5.480774879455566,0.5668692588806152,-0.5314528000000001,-1.1349876,16
7.616456031799316,2.9841191768646236,5.367274284362793,0.5894742012023926,-0.49480084,-1.2348641000000002,16
7.4480881690979,3.183024883270264,5.234940052032472,0.6120017766952515,-0.54733527,-1.2654073,16
7.39240026473999,3.383336544036865,5.010858535766602,0.6577252745628357,-0.4550946,-1.2479976000000002,16
7.541043281555176,3.736953496932984,4.905389308929443,0.7267132997512817,-0.74372846,-0.9129381,16
7.614195823669434,4.243236064910889,4.988506317138672,0.8289332985877991,-1.0015136,-0.57879484,16
7.595111846923827,4.869365692138672,5.1453819274902335,0.92763090133667,-1.1808025,-0.41813725,16
7.571362495422362,5.379871845245361,5.30722188949585,0.9934855103492736,-1.4147639,-0.32345316,16
7.466616630554199,5.750864505767822,5.43161153793335,1.0249364376068115,-1.6053538,-0.39767328,16
7.23265266418457,6.006124973297119,5.484098434448242,0.999515414237976,-1.7085901,-0.63255095,16
7.05805253982544,6.1863789558410645,5.398801326751709,0.9093385934829712,-1.6340646,-0.9129381,16
7.116935253143311,6.420486927032472,5.145177841186523,0.7868313789367676,-1.2620476,-0.95722586,16
7.3677616119384775,6.708199977874756,4.85162878036499,0.6443073749542236,-0.8219192,-0.90285885,16
7.542966365814209,6.949441432952881,4.560215473175049,0.5144724249839783,-0.5018258,-1.1032226,16
7.705875873565674,7.089079856872559,4.178427219390868,0.45081973075866705,0.024740042,-1.14018,16
8.133590698242188,7.199717998504639,3.868919849395752,0.4465063810348511,0.11056661,-0.80848014,16
8.682273864746094,7.2496585845947275,3.683794498443604,0.4793424904346466,0.11362094,-0.6224717,16
8.780999183654785,7.102180004119872,3.560522556304932,0.4951470494270325,0.20433442,-0.6426301999999999,16
8.438719749450684,6.918223857879639,3.46580171585083,0.4666710793972016,-0.27000242,-0.5879578000000001,16
7.782776355743407,7.086570739746094,3.3921315670013428,0.3678008317947388,-0.8359690999999999,-0.68691796,16
7.1148176193237305,7.555571556091309,3.3716154098510738,0.2479618340730667,-1.3399329,-1.0855075,16
6.595940113067628,8.17121410369873,3.3666160106658936,0.14826367795467374,-1.6166549,-1.4074335,16
6.290761947631836,8.793299674987793,3.3321561813354488,0.06513016670942308,-1.7559321,-1.4984524,16
6.2128233909606925,9.234919548034668,3.2897346019744877,-0.038965851068496704,-1.5897768,-1.3768903,16
6.2324538230896,9.446744918823242,3.2827467918396,-0.1710529327392578,-1.4563028,-1.4358387,16
6.270267009735107,9.441438674926758,3.2581534385681152,-0.29616132378578186,-1.3955216,-1.5375478,16
6.256591320037843,9.22189998626709,3.2078266143798833,-0.4077050983905792,-1.2932017,-1.5528195,16
6.095263481140138,8.783775329589844,3.166390419006348,-0.5272024273872375,-1.1023063999999998,-1.6233743,16
5.73285722732544,8.219765663146973,3.0634093284606934,-0.643965482711792,-0.8744536,-1.7754797999999998,16
5.274523735046387,7.64715576171875,2.885629415512085,-0.7027114033699036,-0.86437434,-1.7852536,16
4.878629207611084,7.140393257141112,2.658087730407715,-0.6972053647041321,-0.9831876,-1.6490307,16
4.712403297424316,6.738790512084961,2.5180249214172363,-0.6687504649162292,-1.2568552,-1.4330899,16
4.746396541595459,6.427210330963135,2.278193950653076,-0.5788126587867737,-1.273654,-1.2076806,16
4.78510856628418,6.316353797912598,2.0144710540771484,-0.4355574548244476,-1.2571607,-0.9718866,16
4.68516731262207,6.632111549377441,1.8218333721160889,-0.2572552859783173,-1.1737776000000002,-0.6417139000000001,16
4.24437952041626,7.432353973388673,1.6270543336868286,-0.05855866149067879,-1.2990049,-0.22968534,16
3.622201681137085,8.105656623840332,1.382669448852539,0.137147918343544,-1.4474452,0.05589417,16
3.037473201751709,8.53624153137207,1.173756718635559,0.2701765298843384,-1.5885551000000002,-0.17348573,16
2.674369096755981,8.651422500610353,0.9790677428245544,0.3142929375171661,-1.9117028000000005,-0.57543504,16
2.369191169738769,8.489202499389647,0.6367477774620056,0.3099149763584137,-1.9187278000000003,-0.816116,16
2.002304553985596,8.150797843933105,0.14794765412807465,0.32380130887031555,-1.5424347,-0.9578367,16
1.7423893213272097,7.955871105194093,-0.3148611783981323,0.371901661157608,-1.2968669,-0.8197812,16
1.7041025161743164,7.93458366394043,-0.56625896692276,0.4265076518058777,-1.7556267,-0.6404922,16
1.825100898742676,8.058711051940918,-0.6384273767471313,0.4439268410205841,-2.2171354,-0.4251622000000001,16
2.0137195587158203,8.397971153259277,-0.6107226610183716,0.3725370764732361,-1.9807305,-0.15760323,16
2.182586431503296,8.935431480407715,-0.5039600729942322,0.25298011302948004,-1.704925,0.07422013,16
2.1939187049865723,9.370530128479004,-0.4085527956485748,0.1106388047337532,-1.713477,-0.03145956,16
2.1016185283660893,9.558279037475586,-0.4301736354827881,-0.02703393623232841,-1.7968601000000002,-0.36651915,16
2.050509214401245,9.558838844299316,-0.6027575135231018,-0.12364567816257475,-1.6951511,-0.59559363,16
2.121896505355835,9.488381385803224,-0.8102831244468689,-0.17386575043201447,-1.4999796,-0.60903263,16
2.2927606105804443,9.514007568359377,-0.8559579849243164,-0.21595364809036252,-1.3335188999999998,-0.569021,16
2.461669445037842,9.5865478515625,-0.8810039758682251,-0.2554821372032165,-1.0961976999999998,-0.56382865,16
2.612551689147949,9.602943420410156,-0.8450906872749329,-0.2797432839870453,-1.1316278999999998,-0.37782016,16
2.644214868545532,9.527270317077637,-0.7994790077209473,-0.30423519015312195,-1.0042624,-0.3472769,16
2.59981107711792,9.459931373596193,-0.7894133925437927,-0.3186302781105041,-0.68019843,-0.40011674,16
2.534914970397949,9.427863121032717,-0.7501111626625061,-0.3277138769626617,-0.5506949999999999,-0.44532076,16
2.5035080909729004,9.458032608032227,-0.6908637285232544,-0.3333834409713745,-0.43493605,-0.464563,16
2.4783766269683842,9.551023483276367,-0.5956575870513916,-0.3355143964290619,-0.3378085,-0.464563,16
2.384608268737793,9.681818008422852,-0.4753817915916443,-0.3279467523097992,-0.13408493,-0.4783075,16
2.2488572597503658,9.848855018615724,-0.3615609109401703,-0.3337002098560333,-0.07849618,-0.5390885999999999,16
2.0826282501220703,10.020709037780762,-0.23952804505825046,-0.3569400608539581,-0.21074851,-0.5687156,16
1.9550483226776123,10.062751770019533,-0.13138262927532196,-0.4254809319972992,-0.4596761,-0.56779927,16
1.863491654396057,9.922996520996094,-0.15182486176490784,-0.5193219780921936,-0.52534413,-0.5039638,16
1.7613431215286257,9.687701225280762,-0.37964963912963867,-0.589386522769928,-0.34972036,-0.35399640000000004,16
1.7167514562606812,9.472512245178224,-0.6271870136260986,-0.6046291589736938,-0.4370741,-0.22235495,16
1.78477942943573,9.18257999420166,-0.8170405626296997,-0.5895408987998962,-0.46273044,-0.21380283,16
1.93936824798584,8.851672172546387,-1.1268805265426636,-0.5826684832572937,-0.2593123,-0.31520647,16
2.1870148181915283,8.716123580932617,-1.6143642663955688,-0.5137045979499817,0.17501289,-0.2125811,16
2.43635892868042,8.767818450927733,-2.0449364185333248,-0.3474719226360321,0.6310238,0.039095376,16
2.480513334274292,8.765735626220701,-2.1815624237060547,-0.12743714451789856,0.9211848,0.2510656,16
2.2227542400360107,8.555278778076174,-2.0288360118865967,0.025555497035384175,0.8219192,0.2706133,16
1.8481981754302976,8.173869132995605,-1.7683229446411133,0.08422108739614488,0.81183994,0.23793201,16
1.4867203235626218,8.052681922912598,-1.314216136932373,0.12900157272815704,0.27305678,0.75991637,16
1.389122486114502,8.783356666564941,-0.9667952060699464,0.14479894936084747,0.7715228,1.1624765,16
1.628522515296936,10.099215507507324,-0.5586274266242981,0.1178017109632492,0.44012842,1.5280794,16
1.821739912033081,11.076889038085938,-0.0767156332731247,0.03160037472844124,-0.017715093,1.7800613999999997,16
1.5945898294448853,11.59658432006836,0.4294068217277527,-0.14638391137123108,-0.4596761,1.7846428,16
1.1421475410461426,11.785162925720215,0.766449511051178,-0.2804747223854065,-0.9407325,1.7327193,16
0.7487303018569946,11.765774726867676,0.9446324706077576,-0.35630595684051514,-1.4343116000000002,1.4553864,16
0.41646283864974976,11.460775375366213,1.0279145240783691,-0.4308457672595978,-2.038152,1.2034045,16
0.11104335635900496,10.917206764221193,1.0781147480010986,-0.5072289705276489,-2.0967948,0.81061816,16
0.2502846419811249,10.563446998596193,1.2277989387512207,-0.5786480307579039,-2.0195205,0.49480084,16
0.8414602279663086,10.551590919494627,1.4106042385101318,-0.6437153220176697,-1.4223998,0.48533243,16
1.6251332759857178,10.578153610229492,1.6587868928909302,-0.7358006834983826,-0.7828238000000001,0.51068336,16
2.2975478172302246,10.394902229309082,1.8263403177261357,-0.8326446413993835,-0.6713409,0.50946164,16
2.72339129447937,10.100164413452148,1.7810320854187012,-0.8651261329650879,-0.52687126,0.46089783,16
2.870333194732666,9.941084861755373,1.821156620979309,-0.8602123856544495,-0.32834008,0.35979962,16
2.792593717575073,9.929096221923828,1.9182745218276975,-0.8727841377258301,-0.25595254,-0.004886922,16
2.7081544399261475,9.907315254211426,2.0025498867034908,-0.8677496314048767,-0.35735616,-0.40744713,16
2.7704088687896733,9.740933418273926,2.063263416290283,-0.850757896900177,-0.48380527,-0.6243043,16
2.971947431564331,9.407205581665039,2.1147427558898926,-0.7973946332931519,-0.46089783,-0.77274454,16
3.2892868518829346,9.05480670928955,2.1800668239593506,-0.7217462062835693,-0.19394971,-0.77182823,16
3.596554517745972,8.761771202087402,2.2720344066619877,-0.6568666100502014,0.06994407,-0.73548174,16
3.7912108898162837,8.487290382385254,2.365971803665161,-0.6138803362846375,0.28221974,-0.6835581999999999,16
3.870853900909424,8.218013763427733,2.433875560760498,-0.5878485441207886,0.39645153,-0.677755,16
3.863869428634644,7.958430767059326,2.4161972999572754,-0.5491201877593994,0.49205196,-0.6178902,16
3.851229190826416,7.8093318939208975,2.416000366210937,-0.4913173615932465,0.4260785,-0.52015173,16
3.8746840953826895,7.800236225128174,2.4296762943267822,-0.4019696116447449,0.38087448,-0.4129449000000001,16
3.87982988357544,7.810103416442871,2.448131799697876,-0.301428496837616,0.35277468,-0.37843102,16
3.8788335323333736,7.862978935241699,2.431696891784668,-0.1945623010396957,0.31031954,-0.2864958,16
3.904232263565064,8.132307052612305,2.418574094772339,-0.05823079496622085,0.29993483,-0.06414085,16
3.914445638656616,8.738739013671875,2.542840003967285,0.0934399738907814,-0.01282817,0.037873644,16
3.806431293487549,9.262250900268556,2.5595147609710693,0.18550054728984836,0.34147367,0.007330383,16
3.6248738765716553,9.368085861206056,2.4994451999664307,0.2106110006570816,0.59742624,-0.15363261,16
3.469691276550293,9.16426944732666,2.4530649185180664,0.2306685447692871,0.6151413,-0.40775254,16
3.446502685546875,9.03352165222168,2.368786334991455,0.29256337881088257,0.73945236,-0.59498274,16
3.426337718963623,9.331271171569824,2.279216766357422,0.3781670033931732,1.1615603,-0.6383542,16
3.3333742618560787,9.795188903808594,2.1307938098907466,0.4458947777748108,1.4547756,-0.59131753,16
3.1335837841033936,10.014641761779783,2.049773931503296,0.4886780083179474,1.3640621000000002,-0.65301496,16
2.880507707595825,9.935657501220703,1.9079508781433103,0.489824652671814,1.2528846000000002,-0.6420194,16
2.5733156204223637,9.735719680786133,1.6537961959838867,0.5082209110260011,1.0296134,-0.6936375,16
2.1707007884979252,9.584641456604004,1.4189165830612185,0.5780904293060303,0.96852684,-0.8582656999999999,16
1.8086578845977783,9.484123229980467,1.2728971242904663,0.6493950486183167,0.9071349,-0.9306532,16
1.5023369789123535,9.331090927124023,1.052562952041626,0.6800469756126404,0.8961393,-0.9080511999999998,16
1.2275476455688477,9.187941551208496,0.8445306420326233,0.6921747922897339,0.57940567,-0.7706065,16
0.9468472003936768,9.105257034301758,0.6721518039703369,0.7121406793594359,0.3747658,-0.72784597,16
0.8039230704307556,9.143949508666992,0.5391128659248352,0.7085149884223938,0.36560285,-0.6603453,16
0.910455584526062,9.36336898803711,0.4491888284683228,0.6531791090965271,0.08735373,-0.38912117,16
1.1437852382659912,9.64657497406006,0.3616459667682648,0.5698029398918152,-0.19120082,-0.079107046,16
1.3502647876739502,9.848535537719727,0.2327078729867935,0.4695876240730286,-0.15302174,0.16065755,16
1.4956071376800537,9.90280818939209,0.054263971745967865,0.37720823287963867,0.0693332,0.24923302,16
1.6105990409851074,9.833786964416504,-0.15039415657520294,0.327464759349823,0.5393939999999999,0.32559118,16
1.531429648399353,9.730215072631836,-0.24502433836460116,0.3324178457260132,0.86590147,0.22937989,16
1.2556171417236328,9.675930976867676,-0.21822239458560946,0.34121647477149963,0.8549059000000001,0.08124508,16
0.967271089553833,9.683253288269043,-0.17469993233680725,0.3293546736240387,0.7476991,-0.007941248,16
0.7464296817779541,9.792417526245117,-0.23897214233875275,0.289593517780304,0.6789767,-0.09407325,16
0.6533153057098389,9.849726676940918,-0.3243100345134735,0.2360126078128815,0.6759224,-0.07360926,16
0.7032729983329773,9.855084419250488,-0.466289222240448,0.1774568408727646,0.7165449,0.0030543262,16
0.7150164842605591,9.856477737426758,-0.6462401747703552,0.1353648006916046,0.74372846,0.0070249503,16
0.6167023181915283,9.855854034423828,-0.7896225452423096,0.12517330050468445,0.75655663,-0.010690141499999998,16
0.4366297721862793,9.909756660461426,-0.7701529860496521,0.13526156544685364,0.5717699,0.014049901000000002,16
0.2044682651758194,9.989303588867188,-0.607602059841156,0.14028812944889069,0.3631594,0.05131268,16
0.00925997830927372,10.044425964355467,-0.3862929940223694,0.12453124672174455,0.12095132,0.13011430000000002,16
-0.09865807741880417,10.048789024353027,-0.1907897442579269,0.09137240797281264,0.004886922,0.17043139999999998,16
-0.08061782270669937,10.019442558288574,-0.07313705235719681,0.04186742752790451,0.008857545999999999,0.19242255,16
0.06367649137973785,9.99095344543457,-0.024966686964035038,-0.029148461297154427,0.08857546,0.20372356,16
0.2219325453042984,9.94224452972412,-0.13024359941482544,-0.0513000525534153,0.24220806,0.06505715,16
0.3541945815086365,9.906387329101562,-0.16341912746429446,-0.05374480038881302,0.30573806,0.08643743400000001,16
0.3898327052593231,9.911966323852539,-0.138120636343956,-0.04657083749771118,0.23915374,0.018020526,16
0.3608197569847107,9.915332794189453,-0.09265047311782837,-0.03921002522110939,0.25717425,0.014966198,16
0.2941335737705231,9.932512283325195,-0.0348263680934906,-0.028645919635891918,0.21380283,-0.022602014,1
0.21023191511631006,9.933819770812988,0.07762469351291656,-0.02381514385342598,0.17470746,-0.01740966,1
0.11729013919830322,9.925827980041504,0.2335357815027237,-0.03027814254164696,0.07788532,-0.0012217305,1
0.06808783859014511,9.932220458984377,0.3311581313610077,-0.0390072911977768,-0.002443461,-0.016798794,1
0.04665602371096611,9.947202682495117,0.3923672735691071,-0.04077150672674179,-0.08674286,-0.04062254,1
0.037461720407009125,9.965669631958008,0.3947958052158356,-0.0404263399541378,-0.093462385,-0.070249505,1
0.043778590857982635,9.973981857299805,0.3710881769657135,-0.0361870601773262,-0.106595986,-0.10293079,1
0.05364293605089188,9.967666625976562,0.3391852378845215,-0.03415631875395775,-0.101098195,-0.110872045,1
0.08679666370153427,9.924601554870604,0.32116326689720154,-0.03397846966981888,-0.11056661,-0.11301007,1
0.13066594302654266,9.878500938415527,0.3147402107715607,-0.0292969923466444,-0.037873644,-0.092240654,1
0.196754053235054,9.86899185180664,0.3032746315002441,-0.023754850029945374,0.013439035,-0.06627888,1
0.2612816691398621,9.893251419067383,0.3073641061782837,-0.017460651695728302,0.020463986,-0.046120327,1
0.2919086515903473,9.92711353302002,0.3233374357223511,-0.021776603534817696,0.0290161,-0.032070424,1
0.30555376410484314,9.93502426147461,0.33294034004211426,-0.03212829679250717,-0.034208454,-0.04795292,1
0.31825658679008484,9.915590286254883,0.3433033525943756,-0.03701697662472725,-0.08216137400000001,-0.043982297,1
0.3314087688922882,9.895194053649902,0.3832060694694519,-0.03611328825354576,-0.10842858,-0.036651913,1
0.3293377161026001,9.895636558532717,0.44583913683891296,-0.03857114911079407,-0.13805555,-0.031154128,1
0.3140082061290741,9.911158561706543,0.4738879203796386,-0.04008285328745842,-0.15424347,-0.033292156,1
0.2803175449371338,9.91916275024414,0.4697051644325256,-0.0412340871989727,-0.110872045,-0.028405234,1
0.2646045386791229,9.922998428344727,0.4573215842247009,-0.040961958467960365,-0.08674286,-0.023823744,1
0.3002959787845612,9.917726516723633,0.43285685777664185,-0.0461844801902771,-0.090713486,-0.016493361,1
0.34565377235412603,9.905631065368652,0.4034095704555512,-0.04948699846863746,-0.06078109,0.010690141499999998,1
0.3749275505542755,9.885236740112305,0.38908588886260986,-0.05238133296370506,-0.0143553335,0.020158553,1
0.3841128051280975,9.878722190856934,0.3739616274833679,-0.059266060590744025,-0.007941248,0.058948494,1
0.3827601969242096,9.88846492767334,0.3677287697792053,-0.0589141845703125,-0.03390302,0.08796459400000001,1
0.3583087921142578,9.89610767364502,0.382954865694046,-0.05421256273984909,-0.07544186,0.08674286,1
0.326170027256012,9.888066291809082,0.41343048214912415,-0.05352723971009255,-0.098043874,0.06047566,1
0.3128035068511963,9.87265682220459,0.4418518841266632,-0.05489102378487587,-0.10140363,0.04886922,1
0.3064436912536621,9.860884666442873,0.4515368342399597,-0.05646679177880287,-0.07880162,0.03848451,1
0.3082097768783569,9.855323791503906,0.4606240391731262,-0.05721918120980263,-0.059864793,0.0290161,1
0.3145141005516052,9.857943534851074,0.4847853779792786,-0.05624229833483696,-0.059864793,0.024740042,1
0.3226543366909027,9.86087131500244,0.5072690844535828,-0.05332814157009125,-0.05772676700000001,0.0015271631,1
0.34356066584587097,9.857048988342283,0.5375109910964966,-0.050814248621463776,-0.03604105,-0.0012217305,1
0.38201653957366943,9.851341247558594,0.56365966796875,-0.04542038962244988,-0.014049901000000002,-0.0021380284,1
0.4272974133491516,9.848201751708984,0.5819165706634521,-0.041284725069999695,0.021380283,-0.0067195175,1
0.4719818532466888,9.844782829284668,0.5935904383659363,-0.03679795935750008,0.055283304000000005,-0.00061086525,1
0.5050530433654785,9.844103813171387,0.607425332069397,-0.03055771067738533,0.07666359,0.013744468,1
0.5190742015838623,9.849754333496094,0.6270986795425415,-0.024993635714054108,0.076358154,0.030543262,1
0.5105335712432861,9.86087417602539,0.6517313122749329,-0.02197854965925217,0.06597344599999999,0.05131268,1
0.4988678097724914,9.867352485656738,0.6713594794273376,-0.021000349894165996,0.04795292,0.06414085,1
0.4765705466270447,9.861750602722168,0.6819297671318054,-0.02287900261580944,0.036957346,0.06078109,1
0.4514779150485992,9.852478981018066,0.6876751184463501,-0.020824361592531204,0.03940081,0.048258353,1
0.4239954650402069,9.854665756225586,0.7087526321411133,-0.017263932153582573,0.008246681,0.058643065,1
0.3866112530231476,9.873279571533203,0.7276952266693115,-0.013289032503962515,-0.032375857,0.03176499,1
0.34685227274894714,9.89947509765625,0.7421939373016357,-0.01354803144931793,-0.062002823,0.014049901000000002,1
0.2924000918865204,9.88190746307373,0.768061101436615,-0.01747593656182289,-0.17165314,-0.007330383,1
0.2660360336303711,9.898866653442383,0.7551009654998779,-0.018770666792988774,-0.23243423,-0.0018325958,1
0.25284013152122503,9.826716423034668,0.7631314396858215,-0.02157663926482201,-0.258396,-0.028710667,1
0.28612229228019714,9.831778526306152,0.7486070394515991,-0.020205261185765263,-0.27458394,-0.02687807,1
0.33390605449676514,9.871086120605467,0.7265154123306274,-0.009200296364724636,-0.19425514,-0.008857545999999999,1
0.3613576889038086,9.883038520812988,0.6767497062683105,-0.008984949439764023,-0.17195857,-0.0067195175,1
0.3665497601032257,9.86858081817627,0.6101012825965881,-0.005784020759165287,-0.10934488,-0.047036625,1
0.43366292119026173,9.848003387451172,0.5434306859970093,-0.003184191649779677,-0.06352998,-0.105374254,1
0.5506286025047302,9.832731246948242,0.4855868816375733,0.002333954442292452,-0.022602014,-0.121256754,1
0.6793064475059509,9.824191093444824,0.4257903695106505,0.0034709300380200148,0.06750060599999999,-0.13194689,1
0.8128045201301575,9.79710865020752,0.3861957788467407,0.004753638990223408,0.14049901,-0.16584991,1
0.9852594137191772,9.76807689666748,0.3778035342693329,0.010848665609955788,0.17256944,-0.16310102,1
1.144932508468628,9.764532089233398,0.4391815364360809,0.023030830547213558,0.2678644,-0.12461651,1
1.2493631839752195,9.76905632019043,0.4822682738304138,0.028308799490332607,0.43096542,-0.04886922,1
1.2374317646026611,9.76984405517578,0.5005548000335693,0.03402063623070717,0.5870415,0.03023783,1
1.097553014755249,9.770402908325195,0.4851899445056915,0.038254372775554664,0.66248333,0.077579886,1
0.8740350604057312,9.79319953918457,0.4496115148067473,0.040964342653751366,0.5647449000000001,0.084910266,1
0.6167072057723999,9.8259916305542,0.4497906565666199,0.045517124235630035,0.42180246,0.025350908,1
0.3517272174358368,9.85779094696045,0.4481620788574219,0.045683536678552635,0.35521814,-0.069027774,1
0.11448349058628082,9.873716354370117,0.447296679019928,0.0482729934155941,0.2706133,-0.12705997,1
-0.09229425340890884,9.905898094177246,0.4681150615215302,0.05148104205727577,0.14874569,-0.124311075,1
-0.2629715204238892,9.941304206848145,0.4765896797180176,0.04360056668519974,0.035124752999999995,-0.111177474,1
-0.36615410447120667,9.965407371520996,0.463004320859909,0.02601158618927002,-0.16218472,-0.08093964,1
-0.4018139541149139,9.96927547454834,0.4710477888584137,0.010863377712666987,-0.24953845,-0.07727446,1
-0.3652503788471222,9.962772369384766,0.4622868299484253,-0.007762493100017309,-0.24495697,-0.05222898,1
-0.25649335980415344,9.94232940673828,0.43455827236175537,-0.021604828536510468,-0.15851954,-0.02443461,1
