acc_x,acc_y,acc_z,gyro_x,gyro_y,gyro_z,label
0.0,0.0,0.0,0.0,-0.00580322,-0.04520403,8
0.007655290421098471,-0.08591191470623016,0.2624385356903076,-0.0007007508538663387,0.03145956,-0.044593163,8
0.024716287851333615,-0.2946733236312866,0.8967023491859436,-0.003342407289892435,-0.008552114,-0.048563786,8
0.05430284887552261,-0.584029495716095,1.764542818069458,-0.007285663858056068,0.0018325958,-0.04795292,8
0.09024751931428908,-0.9055776000022888,2.6697821617126465,-0.010432710871100426,-0.0012217305,-0.029932396,8
0.1294201761484146,-1.2238301038742063,3.6000800132751465,-0.010928005911409857,-0.029626964,-0.03970624,8
0.16323386132717133,-1.5126395225524902,4.486988067626953,-0.013038638047873974,-0.01740966,-0.03023783,8
0.1843208223581314,-1.7647721767425537,5.296627998352051,-0.01632110960781574,0.035430185,-0.01282817,8
0.2079223096370697,-1.9740542173385618,5.932346820831299,-0.019616533070802692,0.03573562,0.0027488936,8
0.2328189313411713,-2.1403245925903316,6.443517208099365,-0.019808828830718998,-0.029932396,0.017104227,8
0.2511012256145477,-2.2700674533843994,6.8571529388427725,-0.018570253625512127,-0.022907447,0.038789943,8
0.2646060287952423,-2.3881590366363525,7.223182201385497,-0.012817330658435822,0.015577064,0.040011674,8
0.2760710418224335,-2.4864184856414795,7.588404178619385,-0.011892145499587059,-0.0033597588,0.03634648,8
0.28606608510017395,-2.556549549102783,7.913090229034424,-0.014638503082096575,-0.018020526,0.054367006,8
0.2821585834026337,-2.6138722896575928,8.151229858398438,-0.014220155775547028,0.013439035,0.06597344599999999,8
0.26113221049308777,-2.663569211959839,8.323783874511719,-0.009530390612781048,0.038179077,0.06261369,8
0.2327621132135391,-2.7106187343597408,8.428688049316406,-0.006227813661098479,0.02565634,0.056505036,8
0.20509645342826846,-2.7586557865142822,8.469941139221191,-0.004282106645405293,0.029626964,0.04917465,8
0.17385002970695496,-2.803554058074951,8.513351440429688,-0.0029861670918762684,0.0015271631,0.03970624,8
0.14408978819847107,-2.8480355739593506,8.526617050170897,-0.00326344626955688,0.018020526,0.026267206,8
0.1278485357761383,-2.8855681419372563,8.508556365966799,-0.002335134893655777,0.08155051,0.022602014,8
0.14273443818092346,-2.9160664081573486,8.556262016296388,0.004773703869432211,0.07696902,-0.0070249503,8
0.17641323804855347,-2.9189257621765137,8.633688926696777,0.021103821694850918,-0.04428773,-0.009773844,16
0.19486676156520846,-2.8869011402130127,8.66215705871582,0.03522660955786705,0.08827003,0.036957346,16
0.2239709049463272,-2.8043792247772217,8.76832103729248,0.02896428480744362,0.6160576,0.077579886,16
0.21737730503082275,-2.688648223876953,8.85099983215332,0.0100650517269969,0.6872234,0.053145275,16
0.06772008538246155,-2.5502192974090576,8.90540885925293,-0.02358592487871647,0.84238315,0.10262536,16
-0.1726251095533371,-2.4287588596343994,9.181130409240724,-0.099578358232975,0.86651236,0.1957823,16
-0.4255905449390411,-2.3809518814086914,9.277819633483887,-0.1946011334657669,0.37934732,0.10842858,16
-0.6842526793479919,-2.424201250076294,9.128702163696287,-0.2427748739719391,0.4801401,-0.007330383,16
-1.0039029121398926,-2.6224629878997803,9.20376205444336,-0.28506025671958923,0.5882632,-0.47219884,16
-1.452046275138855,-2.9466419219970703,9.36461353302002,-0.3622954189777374,0.29046643,-1.1768318000000002,16
-1.9196455478668213,-3.2857439517974854,9.496455192565918,-0.4574449062347412,-0.19547687,-1.8005253,16
-2.214477777481079,-3.5000264644622803,9.591645240783693,-0.5680971145629883,-0.41050145,-2.3118196,16
-2.280750036239624,-3.533097505569458,9.615255355834961,-0.6787557005882263,-0.70463306,-2.4831672,16
-2.118336677551269,-3.3990201950073238,9.659228324890137,-0.7545495033264159,-1.1096367,-2.3918428,16
-1.7815648317337036,-3.1716134548187256,9.653892517089844,-0.821712851524353,-1.4184291,-2.2107213,16
-1.3366893529891968,-3.0217571258544917,9.362558364868164,-0.8941364288330078,-0.95172805,-2.1529946,16
-0.7927836775779724,-3.0789194107055664,8.730495452880861,-0.9794498085975648,0.09437868,-2.0204368,16
-0.18020717799663544,-3.3817005157470703,8.60551643371582,-1.0481605529785156,-0.092240654,-1.8564194,16
0.3452589809894562,-3.7780215740203857,8.67634391784668,-1.1049925088882446,-0.57848936,-1.7376062,16
0.7072494029998779,-4.059164524078368,8.494159698486326,-1.152995228767395,-0.22327125,-1.5299120000000002,16
0.9640666842460632,-4.173552989959717,8.410926818847656,-1.207983374595642,-0.2098322,-1.5720617,16
1.1665612459182741,-4.108346462249757,8.429218292236326,-1.2694629430770874,-0.35094208,-1.3466524,16
1.2983975410461426,-4.119405269622804,8.234879493713379,-1.3055270910263062,-0.19914207,-1.3613132,16
1.5381927490234375,-4.111571788787842,7.978267192840576,-1.297484278678894,-0.03756821,-1.1328496,16
1.8837411403656008,-4.1622910499572745,7.901182174682617,-1.2396034002304075,-0.19608775,-1.0534371,16
2.401195287704468,-4.228956699371338,7.8147826194763175,-1.1741145849227903,-0.35338554,-0.83108217,16
3.134820938110352,-4.353518486022948,7.555838108062744,-1.12395179271698,0.043676864,-0.44073927,16
3.9504008293151855,-4.548664093017578,7.079813957214356,-1.103663444519043,0.7724390999999999,0.16279559,16
4.531596660614014,-4.9657883644104,6.114372253417969,-1.0702146291732788,1.6487253000000002,0.33108896,16
4.8317461013793945,-5.264774799346924,5.561593532562256,-0.9413793683052064,1.2339478000000002,0.6249151,16
4.935339450836182,-5.3855509757995605,5.30353593826294,-0.762105405330658,1.2516629,1.0454959,16
4.546607971191406,-5.735702991485597,5.122900485992432,-0.5920207500457764,1.346347,0.8491027,16
4.084413528442384,-6.088399410247803,4.931994438171387,-0.3906480669975281,1.2168436000000002,0.65270954,16
3.7133500576019287,-6.369339466094972,4.812642574310303,-0.12493816018104552,0.88239485,0.61269784,16
3.3454506397247314,-6.574114799499513,4.549614906311035,0.18880148231983185,0.8762861999999999,0.63194007,16
2.9481863975524902,-6.703920364379883,4.1667261123657235,0.5311053991317749,1.1878275,0.5635232,16
2.692943334579468,-6.677512168884277,4.207963943481444,0.9294812083244324,0.74036866,0.61666846,16
2.4329395294189453,-6.616791248321532,4.646322727203369,1.245882511138916,0.4868596,0.5702427,16
1.881358504295349,-6.555331707000732,5.027880668640137,1.4563674926757812,0.75777835,0.20219639,16
1.1338038444519043,-6.423173904418945,5.194899082183838,1.6279288530349731,0.9166033,-0.31734450000000003,16
0.5256291627883911,-6.188506603240968,5.416442394256592,1.7700426578521729,0.9795224,-0.81122905,16
0.2286422699689865,-5.703262805938722,5.938261032104492,1.861727237701416,0.6200281999999999,-0.8323039000000001,16
0.1630621999502182,-5.024065971374512,6.4284424781799325,1.9119956493377688,0.50579643,-0.61391956,16
0.30851835012435913,-4.2517075538635245,6.786619186401367,1.952828288078308,0.65240407,-0.3707952000000001,16
0.6023531556129456,-3.5286531448364262,7.1382317543029785,1.965476155281067,1.187522,-0.31887165,16
0.732357382774353,-2.9944725036621094,7.630514144897461,1.9415274858474727,0.9636399,-0.3827071,16
0.7057420611381531,-2.5763044357299805,7.9385318756103525,1.9182496070861816,1.054048,-0.064446285,16
0.3887550532817841,-2.3781180381774902,8.19664192199707,1.9267866611480715,1.1316278999999998,-0.15302174,16
-0.014703644439578056,-2.274362325668335,8.630365371704103,1.881898045539856,1.0635164,-0.3662137,16
-0.5275945663452148,-2.1706016063690186,9.094684600830078,1.8084113597869875,1.3301591,-0.5705481,16
-1.0517271757125854,-1.90839159488678,9.535818099975586,1.7217103242874146,0.5195409000000001,-0.5842925999999999,16
-1.3526574373245241,-1.4037569761276243,9.783223152160645,1.6202055215835571,-0.024129177,-0.40042216,16
-1.452951192855835,-0.8636327981948853,9.930607795715332,1.5651524066925049,-0.18875736,-0.23090707,16
-1.4789047241210938,-0.4443507492542267,10.139888763427734,1.5350400209426882,-0.31978795,-0.183565,16
-1.4394164085388184,-0.13499385118484494,10.369108200073242,1.488757610321045,-0.34238997,-0.106595986,16
-1.3932507038116455,0.07807940989732742,10.717314720153807,1.4054802656173706,-1.0393872,-0.10934488,16
-1.2625782489776611,0.3021616041660309,11.3489408493042,1.291785478591919,-1.598329,-0.12095132,16
-1.053890824317932,0.5862156748771667,11.585065841674805,1.163171887397766,-0.9260716999999998,-0.08704830000000001,16
-0.9439029097557068,0.909192144870758,11.013570785522461,1.0053886175155642,-0.12339478,-0.08246681,16
-1.1537482738494873,1.2306820154190063,10.14546012878418,0.8808088898658752,0.72021013,-0.14385876,16
-1.8357971906661987,1.3715702295303345,9.9822359085083,0.7968693375587463,-0.11789699,-0.9428705,16
-2.3603785037994385,1.2144215106964111,10.337754249572754,0.7578973174095154,-1.1878275,-1.5323554,16
-2.085906982421875,1.1869289875030518,10.354513168334961,0.7635095715522766,-0.5815437,-1.582141,16
-1.7991751432418823,1.5247308015823364,10.355916976928713,0.7326744794845581,-0.5503895999999999,-1.3271046999999998,16
-1.5431395769119265,1.8673237562179563,10.3849458694458,0.6910493969917297,-1.1163563,-1.2705997,16
-1.2585691213607788,2.087576150894165,10.349865913391113,0.7304483652114868,-0.8533788,-1.20371,16
-1.0256043672561646,2.3337221145629883,10.422004699707033,0.7755932807922363,-1.0864239,-1.0433578,16
-0.8391886949539185,2.5452022552490234,10.55943489074707,0.7824565172195435,-1.4385877,-1.0146471,16
-0.826080858707428,2.503631353378296,10.525477409362793,0.7841405272483826,-1.0106765,-1.3304645,16
-0.7154171466827393,2.582127332687378,10.503494262695312,0.8108825087547302,-1.3536774,-1.4349225,16
-0.3426150679588318,2.8273942470550537,10.505325317382812,0.8892149925231934,-1.9178114,-1.2959507,16
0.23026485741138455,3.1587755680084233,10.275468826293944,0.9671906828880309,-1.4792101,-1.0057896000000002,16
0.8899948596954346,3.344878435134888,10.00257682800293,1.01341450214386,-0.6554584,-0.9410379,16
1.588681697845459,3.450962543487549,9.770707130432127,1.0290594100952148,0.028099801,-0.8038987,16
1.9167582988739011,3.496298789978028,9.53077793121338,1.0433354377746582,0.52290064,-0.8045095,16
1.8946354389190676,3.536871671676636,9.35567855834961,1.0590003728866575,0.3903429,-0.8775079,16
1.6886683702468872,3.627949953079224,9.187417984008787,1.0780143737792969,0.204029,-0.9239337,16
1.3911997079849243,3.767577409744263,9.131237983703613,1.1091370582580566,-0.10598512,-0.9101892,16
0.9871169924736024,3.8206534385681152,9.080818176269533,1.1484856605529783,0.05131268,-0.7357872,16
0.446830689907074,3.6923248767852783,9.02540683746338,1.1987383365631104,-0.11301007,-0.5656611999999999,16
-0.03460710495710373,3.506190061569214,8.988578796386719,1.2342500686645508,-0.35124752,-0.5143485,16
-0.4302985668182373,3.3596537113189697,8.952656745910645,1.258525252342224,-0.548557,-0.6951646,16
-0.7264813184738159,3.3850038051605225,8.970805168151855,1.300865888595581,-0.79412484,-0.77457714,16
-0.8553860187530518,3.5340862274169917,8.874217987060547,1.3500808477401731,-0.8258898000000001,-0.72784597,16
-0.7150763273239136,3.7524819374084473,8.617302894592285,1.401031732559204,-0.9831876,-0.66614854,16
-0.3512395918369293,4.01670503616333,8.267884254455566,1.4641274213790894,-1.0485502,-0.6270532,16
0.06568963080644608,4.3843350410461435,7.959941387176514,1.5112537145614624,-0.74464476,-0.5589417,16
0.4159255623817444,4.832645893096924,7.63139533996582,1.5165607929229736,-0.30970868,-0.4089743,16
0.665954053401947,5.279374122619629,7.28077507019043,1.515025615692139,-0.0070249503,-0.24740042,16
0.7782210111618042,5.687364101409912,7.009171962738037,1.535614848136902,-0.14782938,-0.099571034,16
0.7682831287384033,6.007712841033936,6.727071762084961,1.5581909418106081,-0.21838433,-0.08827003,16
0.6667318344116211,6.248373508453369,6.39647912979126,1.5670884847640991,-0.10934488,-0.09285152,16
0.5385774374008179,6.418599605560303,6.041035175323486,1.573325753211975,-0.14477506,0.038789943,16
0.3907288014888763,6.478203773498535,5.572444438934326,1.596088409423828,-0.20647246,0.3368922,16
0.2065246254205704,6.491747856140138,5.101081848144531,1.6644768714904783,-0.5833763000000001,0.73914695,16
-0.04694817215204239,6.400032043457031,4.648653984069824,1.7419900894165041,-1.0531317,1.0919216,16
-0.3268432319164276,6.222636699676514,4.1584224700927725,1.7387021780014038,-1.7849482,1.0922271,16
-0.6423646807670593,6.15120792388916,3.929596900939941,1.6527754068374634,-3.0955596,0.89919364,16
-1.0515208244323728,6.300110340118407,3.6267092227935787,1.6144130229949951,-3.8050797,0.5012149,16
-1.3937296867370603,6.753051280975343,3.203141927719116,1.6144428253173828,-3.651447,0.15821409,16
-1.484123706817627,7.476597309112549,2.690756320953369,1.536013126373291,-3.1575625,0.26267207,16
-1.2808769941329956,8.170070648193361,2.0596451759338383,1.3923310041427612,-3.0353894,0.6835581999999999,16
-0.904598832130432,8.535854339599611,1.2890100479125977,1.284434795379639,-3.032335,1.1554517,16
-0.4988250136375427,8.448637962341309,0.5851700305938721,1.239610195159912,-3.2485814,1.5906931,16
-0.11759626865386966,7.947835922241211,0.04428573325276375,1.2250515222549438,-3.3148602999999994,1.9055941000000003,16
0.16938960552215576,7.086228370666504,-0.32962316274642944,1.1632381677627563,-3.4804046000000004,1.7965547,16
0.4685548841953278,6.381139278411865,-0.6247777938842773,1.0178102254867554,-3.8707476,1.8542814,16
1.6431761980056765,7.18377161026001,-1.180991768836975,0.7973841428756714,-3.0262265,4.209472,16
4.193038463592528,9.116389274597168,-2.541640043258667,0.5586415529251099,1.484708,8.194146,16
6.813511371612549,10.07840061187744,-3.298685312271118,0.2586135566234589,2.7177396000000003,5.203961,16
8.60483455657959,8.616879463195799,-2.4830310344696045,-0.15779678523540494,0.16218472,-2.0619757,16
9.281275749206543,7.053633213043213,0.2070884257555008,-0.37543344497680653,-7.3639803,-2.6719246,16
9.53855800628662,6.417284965515138,0.7369736433029175,-0.2924293279647827,-5.680436,-0.8414669,16
9.297471046447754,5.6954498291015625,-0.2716459035873413,-0.0427844412624836,-0.5174029,-0.09682214,16
8.613367080688478,4.961892127990723,-0.8029851317405701,0.13783299922943115,2.9816332,0.004276057,16
8.28482723236084,5.0268874168396,-0.4986432492733002,0.3370489776134491,2.5302038,0.05925392700000001,16
8.124661445617676,5.292286396026611,-0.22194069623947146,0.5306654572486877,1.8655825,-0.25717425,16
8.052145004272461,5.562122821807861,-0.14240668714046478,0.5977621674537659,1.4425583,-0.35216382,16
8.059355735778809,5.763040542602539,-0.0882761999964714,0.5665073394775391,0.571159,-0.2574797,16
8.197999954223633,5.890328407287598,-0.1025318130850792,0.446992963552475,-0.106901415,-0.30604348,16
8.452886581420897,5.9348487854003915,-0.2384391576051712,0.30627068877220154,-0.09621128,-0.24953845,16
8.653655052185059,5.895473003387451,-0.34827640652656555,0.23758117854595184,-0.2284636,-0.10140363,16
8.684966087341309,5.855417728424072,-0.4045446813106537,0.2838893532752991,-0.56688297,0.0143553335,16
8.60147762298584,5.8788347244262695,-0.5870282649993896,0.4283072352409363,-0.2611449,0.06719518,16
8.482763290405272,5.996405601501465,-0.8724228143692017,0.6189149022102356,0.5726861999999999,0.050396383,16
8.314448356628418,6.187901496887207,-1.1108057498931885,0.8082348108291626,1.2400563999999998,0.040927973,16
8.060277938842772,6.3961219787597665,-1.1933504343032837,0.9518291354179382,1.3356569,-0.018325957,16
7.707356929779053,6.575122356414795,-1.139371633529663,1.02348530292511,1.1905763,-0.10415252,16
7.297074317932129,6.7074642181396475,-1.0020049810409546,1.002689003944397,0.7031059000000001,-0.17562376,16
6.926524639129639,6.813845157623291,-0.8942104578018188,0.8776559233665466,0.2666427,-0.23365596,16
6.702660083770753,6.971140861511231,-0.9715821743011476,0.6711447834968567,0.101098195,-0.18570304,16
6.623272895812987,7.161542892456055,-1.1513223648071291,0.4282257258892059,0.2275473,-0.10781772,16
6.601418972015381,7.305081844329834,-1.3904317617416382,0.200654610991478,0.5030475000000001,-0.07299839999999999,16
6.565473556518555,7.3450684547424325,-1.6324989795684814,0.03507496789097786,0.9129381,-0.07422013,16
6.495837211608888,7.336254596710205,-1.79228413105011,-0.022585449740290642,1.1621711,-0.110872045,16
6.435157299041747,7.382011890411378,-1.7807559967041016,0.03443588688969612,0.81489426,-0.070554934,16
6.399949550628662,7.499828338623048,-1.6751092672348022,0.15757682919502258,0.16493362,-0.038789943,16
6.345763683319093,7.649321556091309,-1.5703357458114624,0.28255224227905273,-0.57940567,-0.10476339,16
6.216181755065918,7.748187065124513,-1.5194615125656128,0.37324658036232,-1.0115929,-0.172264,16
6.014778137207031,7.7045979499816895,-1.5753319263458252,0.4118000864982605,-0.86559606,-0.27183503,16
5.8024067878723145,7.582168102264403,-1.7154117822647097,0.4115998446941376,-0.3454443,-0.42302418,16
5.654338836669923,7.502146244049072,-1.8812559843063357,0.3934146463871002,0.13897185,-0.47647488,16
5.632842063903809,7.520981311798097,-2.0311081409454346,0.3874988257884979,0.54092115,-0.462425,16
5.724171161651611,7.643278121948242,-2.0969257354736333,0.4226121604442597,0.6270532,-0.42180246,16
5.843297004699707,7.805243968963622,-2.0318474769592285,0.5138155221939087,0.41172317,-0.33078352,16
5.9487242698669425,7.917034149169923,-1.9145526885986328,0.6540471315383911,0.23793201,-0.2669481,16
6.0477681159973145,7.961242198944093,-1.7944635152816772,0.815017580986023,0.20005837,-0.25717425,16
6.1890153884887695,7.999738693237305,-1.6728658676147459,0.9610165357589722,0.15668693,-0.2415972,16
6.30284595489502,8.025857925415039,-1.5344499349594116,1.064395308494568,0.08368854,-0.14477506,16
6.276901245117188,7.946705341339111,-1.3908939361572266,1.0841126441955566,-0.03176499,-0.103847094,16
6.164631843566895,7.826197624206543,-1.2478811740875244,0.9902419447898864,-0.1572978,-0.036651913,16
6.031232833862305,7.757474422454834,-1.1399495601654053,0.8026695251464844,-0.19150625,-0.055588737,16
5.922257900238037,7.764809131622314,-1.0754355192184448,0.5809510946273804,-0.21105394,-0.07299839999999999,16
5.896830558776856,7.793385505676269,-1.1060715913772583,0.3568916320800781,-0.098043874,-0.11575896,16
5.9975996017456055,7.8231682777404785,-1.21523118019104,0.15722300112247467,0.093462385,-0.115453534,16
6.1788268089294425,7.840284824371338,-1.3150354623794556,-0.0018366887234151363,0.13011430000000002,-0.06352998,16
6.360974788665772,7.8185691833496085,-1.3849010467529297,-0.11054422706365584,-0.032986723,-0.024129177,16
6.4834046363830575,7.7427802085876465,-1.4373772144317627,-0.1575745791196823,-0.15821409,0.013439035,16
6.544149875640869,7.660646915435791,-1.5013506412506104,-0.1476784646511078,-0.07299839999999999,0.049785517,16
6.558675765991211,7.602588176727295,-1.5449618101119995,-0.11148102581501007,0.0030543262,0.079107046,1
6.550109386444093,7.570086479187013,-1.5345947742462158,-0.07252192497253418,0.027488936,0.084910266,1
6.531951427459718,7.5572509765625,-1.4963771104812622,-0.04203228652477264,0.0009162979,0.098043874,1
6.506714344024657,7.540456295013428,-1.4491060972213743,-0.02766918390989304,-0.00061086525,0.1001819,1
6.475499153137207,7.534620761871338,-1.4178853034973145,-0.04129661247134209,0.02687807,0.101098195,1
6.4259934425354,7.551048278808594,-1.4086014032363892,-0.07920997589826584,0.021685716,0.08643743400000001,1
6.346355438232423,7.548471450805664,-1.4333736896514893,-0.12838543951511386,-0.0012217305,0.06688975,1
6.2771568298339835,7.534244060516357,-1.503121256828308,-0.17803114652633667,0.05467244,0.040927973,1
6.256763458251952,7.525141716003418,-1.6044962406158447,-0.21405653655529025,0.14905111,0.013439035,1
6.26453161239624,7.515200138092041,-1.6790616512298584,-0.21537359058856964,0.14905111,0.00061086525,1
6.27504301071167,7.500331401824951,-1.7182390689849854,-0.17258283495903015,0.04550946,-0.027794369,1
6.30099630355835,7.497632026672362,-1.7388534545898438,-0.10180642455816268,0.0067195175,-0.038789943,1
6.3495402336120605,7.507580280303955,-1.725996732711792,-0.02294175140559673,0.007941248,-0.02443461,1
6.405824184417725,7.502596378326416,-1.6693530082702637,0.05128684267401695,-0.054367006,-0.024129177,1
6.505599021911621,7.523254871368407,-1.5897125005722046,0.09906572848558426,-0.17409660000000002,-0.02687807,1
6.648964405059815,7.627715587615968,-1.5327939987182615,0.12770684063434598,-0.16982053,0.07819075,1
6.68122148513794,7.624641895294189,-1.518553614616394,0.11332952976226808,0.11056661,0.122783914,1
6.6045265197753915,7.408298969268799,-1.5216602087020874,0.04366463795304298,0.37873647,0.13164146,1
6.578242778778076,7.164866924285889,-1.4964048862457275,-0.0402548797428608,0.50976706,0.121256754,1
6.698350429534912,7.066572666168213,-1.440826177597046,-0.0792078971862793,0.5305365,0.11453723,1
6.823143005371094,7.102733135223389,-1.3246314525604248,-0.04518777877092362,0.22082779,0.112704635,1
6.785933971405028,7.210612773895264,-1.149328589439392,0.040850237011909485,-0.29077184,0.046731193,1
6.602042675018311,7.365268230438232,-1.0012421607971191,0.11529885232448578,-0.84482664,0.019547688,1
6.369334697723389,7.539713382720947,-0.999837040901184,0.1228952556848526,-0.9428705,0.043066,1
6.167921543121338,7.669951915740968,-1.1788532733917236,0.06516262143850328,-0.2761111,0.04550946,1
6.029117107391357,7.7006402015686035,-1.4108775854110718,-0.004373861942440271,0.45814893,-0.04184427,1
6.008262634277344,7.700192928314209,-1.5544583797454834,-0.04741617664694786,0.6435465,-0.05009095,1
6.102274417877197,7.69723653793335,-1.5852468013763428,-0.06812021881341934,0.44348818,-0.05467244,1
6.252490043640138,7.663101673126222,-1.541757106781006,-0.07334335893392563,0.103847094,-0.039095376,1
6.377146244049072,7.597545146942139,-1.48784077167511,-0.05691323429346085,-0.06352998,-0.019242255,1
6.446739673614503,7.533732414245605,-1.4614373445510864,-0.014762611128389837,-0.07238753,0.0021380284,1
6.453187942504883,7.495806694030763,-1.4432508945465088,0.025767453014850616,-0.10781772,0.01282817,1
6.434491157531737,7.497761726379394,-1.4237951040267944,0.040361229330301285,-0.09712757,0.027183503,1
6.421369552612305,7.521136283874513,-1.424194097518921,0.03421388566493988,-0.04184427,0.027488936,1
6.4100890159606925,7.549694538116455,-1.430097579956055,0.03287690132856369,-0.04337143,0.0027488936,1
6.395964622497559,7.565032005310059,-1.4171841144561768,0.040148716419935226,-0.09437868,-0.015577064,1
6.3946709632873535,7.551922798156737,-1.4068000316619873,0.04471399635076523,-0.07269296,-0.03970624,1
6.412718772888184,7.5282530784606925,-1.4127141237258911,0.040609244257211685,0.027183503,-0.040011674,1
6.431692123413086,7.507535457611084,-1.4157972335815432,0.03092217072844505,0.064751714,-0.027794369,1
6.425804615020753,7.483868598937987,-1.3978909254074097,0.023808306083083156,0.032070424,-0.0143553335,1
6.4271302223205575,7.4664549827575675,-1.389344573020935,0.016652114689350128,0.051923547,-0.004276057,1
6.43652868270874,7.467212677001952,-1.4062508344650269,0.00577675411477685,0.06383542,-0.0061086523,1
6.44926118850708,7.463552951812744,-1.4314203262329102,0.0015509412623941898,0.05222898,-0.01160644,1
6.449734687805176,7.4418983459472665,-1.4539591073989868,0.008805274032056332,0.04337143,-0.013744468,1
6.434610366821289,7.41249418258667,-1.4826371669769287,0.011212941259145737,0.053145275,-0.011911872,1
6.413132667541504,7.402249813079834,-1.5127041339874268,0.004681674763560295,0.035430185,-0.010690141499999998,1
6.382955074310303,7.423001766204834,-1.541028380393982,0.010734411887824535,-0.020463986,-0.024129177,1
6.361831188201903,7.448139190673827,-1.5891447067260742,0.02910578064620495,0.0143553335,-0.03359759,1
6.354819297790527,7.4634480476379395,-1.644798994064331,0.03831127658486366,0.07727446,-0.03573562,1
6.3418846130371085,7.479708671569824,-1.6575387716293335,0.05100393295288086,-0.002443461,-0.035124752999999995,1
6.33220100402832,7.4856934547424325,-1.6623409986495972,0.07768436521291733,-0.017715093,-0.043676864,1
6.3482418060302725,7.478602886199951,-1.6666834354400637,0.1025514081120491,0.07788532,-0.042760565999999986,1
6.380497932434082,7.4733381271362305,-1.6467858552932741,0.10945725440979004,0.118507855,-0.019242255,1
6.404362678527832,7.4843692779541025,-1.5887876749038696,0.11063528060913086,0.02107485,-0.010079277,1
6.420803546905518,7.492275714874268,-1.552956461906433,0.1127091646194458,0.00061086525,-0.0021380284,1
6.434492111206055,7.490065574645996,-1.5490976572036743,0.09873635321855544,0.08399397,0.007941248,1
6.435112476348878,7.47488260269165,-1.547425627708435,0.07651752978563309,0.08307768,0.0018325958,1
6.423511981964111,7.461200714111327,-1.555003643035889,0.06280256062746048,0.053145275,0.0021380284,1
6.411570549011231,7.455559730529785,-1.5848146677017212,0.06155858933925629,0.09315695,-0.0027488936,1
6.396448612213135,7.461280822753906,-1.6135500669479368,0.06819047033786774,0.09193522,0.0076358155,1
6.3704609870910645,7.4898858070373535,-1.6306164264678955,0.07794255763292313,0.0720821,0.0061086523,1
6.3310322761535645,7.5293288230896,-1.6415239572525024,0.08921703696250917,0.04795292,-0.0009162979,1
6.29468297958374,7.55399227142334,-1.6547718048095703,0.09926764667034148,0.09896017,-0.015882496,1
6.2728776931762695,7.548734188079834,-1.6648905277252195,0.10596979409456253,0.18448131,-0.007941248,1
6.273068904876709,7.5061893463134775,-1.6557215452194214,0.10321176797151567,0.20433442,0.010079277,1
6.315186023712157,7.456153392791747,-1.6466064453125,0.07818905264139175,0.17867808,0.02107485,1
6.376001834869385,7.443012714385986,-1.6406668424606323,0.04284698516130448,0.056505036,0.034208454,1
6.4034767150878915,7.500721931457519,-1.6618677377700806,0.016594748944044113,-0.0061086523,0.024740042,1
6.370234489440918,7.57615327835083,-1.723354697227478,0.013211192563176157,0.0421497,-0.016493361,1
6.329300880432129,7.604575157165527,-1.7802581787109375,0.022179406136274338,0.09315695,-0.05100725,1
6.345682144165039,7.540799140930176,-1.7979987859725952,0.0454535037279129,0.09590584,-0.042455133,1
6.441681385040282,7.4543962478637695,-1.7509090900421145,0.08038463443517685,0.043982297,-0.0061086523,1
6.504988670349121,7.429322242736816,-1.685422420501709,0.11242734640836716,-0.034208454,0.02565634,1
6.482091426849365,7.468140125274657,-1.640128493309021,0.12498921155929565,-0.008857545999999999,0.034513887,1
6.402059555053711,7.538581848144531,-1.609210729598999,0.11673198640346527,0.04520403,0.01985312,1
6.333406448364258,7.601213455200195,-1.5754934549331665,0.09686673432588576,0.063224554,0.0030543262,1
6.304857730865479,7.629054546356201,-1.542355179786682,0.06986492872238159,0.023823744,0.015271631,1
6.2965760231018075,7.623283863067628,-1.5363997220993042,0.03396930918097496,0.008246681,0.02107485,1
6.278797149658202,7.606352806091309,-1.5723921060562134,-0.003153065452352166,0.018020526,0.0061086523,1
6.261718273162843,7.599894046783447,-1.6338249444961548,-0.030035331845283512,0.008552114,0.004886922,1
6.252674102783202,7.589231967926025,-1.6894574165344238,-0.037116829305887215,-0.024740042,-0.006414085,1
6.259024620056152,7.574553489685059,-1.714319944381714,-0.0292682945728302,-0.04337143,-0.01282817,1
6.272561550140381,7.560396194458008,-1.7095886468887331,-0.01656622625887394,-0.04642576,-0.013439035,1
6.290839672088622,7.540684700012207,-1.6777908802032468,-0.008202233351767063,-0.03145956,-0.003970624,1
6.3139286041259775,7.529907703399657,-1.6469022035598757,-0.009394983761012554,0.008246681,-0.007330383,1
6.3387999534606925,7.5296897888183585,-1.6274534463882446,-0.015872038900852203,0.015882496,0.0067195175,1
6.350719451904298,7.527575016021728,-1.6147098541259766,-0.021261278539896008,0.0027488936,0.013439035,1
6.3558735847473145,7.519054412841798,-1.602745771408081,-0.02473575621843338,-0.018325957,0.011301007,1
6.356501579284668,7.523542881011963,-1.6136753559112549,-0.02977482415735722,0.009162978,0.010995574,1
6.361694812774657,7.534303188323975,-1.6236265897750854,-0.04038061201572418,-0.0021380284,0.005497787,1
6.362114906311035,7.56992769241333,-1.6010676622390747,-0.04653618857264519,-0.07360926,0.0067195175,1
6.369965553283691,7.609930992126465,-1.5621562004089355,-0.036236904561519616,-0.20647246,-0.0143553335,1
6.3845624923706055,7.606495380401611,-1.543840765953064,-0.03095382265746593,-0.13316862,-0.014660766,1
6.403483867645264,7.557851314544678,-1.5068310499191284,-0.04189151152968407,-0.093462385,0.00030543262000000003,1
6.426358222961426,7.4848270416259775,-1.495391011238098,-0.059672839939594276,-0.00030543262000000003,0.01740966,1
6.456311225891112,7.417489051818848,-1.5175937414169312,-0.08346547931432724,0.08093964,0.028099801,1
6.49512243270874,7.392094135284424,-1.546358942985535,-0.0996880754828453,0.056505036,0.039095376,1
6.515758991241455,7.385803699493407,-1.5701024532318115,-0.10185064375400543,-0.0027488936,0.04795292,1
6.513500690460205,7.3735904693603525,-1.5883134603500366,-0.0876421183347702,-0.03481932,0.0421497,1
6.493008613586426,7.3805789947509775,-1.6119592189788818,-0.05953314527869225,-0.02321288,0.02321288,1
6.451091289520264,7.4166622161865225,-1.6129567623138428,-0.02486817166209221,-0.004886922,0.009773844,1
6.393320083618164,7.439487934112549,-1.5990335941314695,0.0068073277361691,0.020158553,0.0012217305,1
6.354161739349365,7.443004608154298,-1.5749601125717163,0.02781104482710361,0.05009095,-0.0009162979,1
6.340292453765869,7.464427947998048,-1.549250245094299,0.03750155493617058,0.058337633,0.0009162979,1
