acc_x,acc_y,acc_z,gyro_x,gyro_y,gyro_z,label
0.0,0.0,0.0,0.0,-0.0030543262,0.08796459400000001,8
0.16449342668056488,-0.027667861431837082,0.2270447760820389,0.0008474313071928918,0.025350908,0.06811147,8
0.5580913424491882,-0.09628814458847046,0.7684914469718933,0.0011411793529987335,0.018936822,0.0421497,8
1.0977002382278442,-0.1883595734834671,1.5621215105056765,-0.0009624861413612963,0.020158553,0.024129177,8
1.701783299446106,-0.28504425287246704,2.4517602920532227,-0.002399104647338391,-0.0070249503,-0.007941248,8
2.3113808631896973,-0.3694805204868317,3.221852302551269,2.7381705876905468e-05,-0.007941248,-0.025350908,8
2.8976423740386963,-0.4384531676769257,3.948655128479004,0.003737263847142458,-0.0076358155,-0.021685716,8
3.408510684967041,-0.48798668384552,4.642679691314697,0.006345863919705153,0.013744468,-0.018936822,8
3.846657514572144,-0.5219012498855591,5.267107963562012,0.005162769928574562,0.019547688,-0.02443461,8
4.196455001831056,-0.5390979051589966,5.790228843688965,0.0010549552971497178,0.013744468,-0.009162978,8
4.47434663772583,-0.5529965758323669,6.195259094238281,-0.003446837188676,0.016187929,-0.010995574,8
4.701056003570557,-0.5659698247909546,6.4829206466674805,-0.006992123555392028,0.017715093,-0.004581489,8
4.873564720153809,-0.5749607086181641,6.6703734397888175,-0.006907308474183083,0.0076358155,0.0061086523,8
5.000486373901367,-0.5795228481292725,6.779599666595459,-0.005515123251825571,0.0015271631,0.009162978,8
5.095646858215332,-0.5773080587387085,6.850386619567871,-0.003809070913121104,0.0018325958,0.01160644,8
5.171655654907227,-0.5832785367965698,6.903425693511963,-0.004537578206509353,-0.01282817,0.0143553335,8
5.245877742767334,-0.6050022840499878,6.963737964630128,-0.00883314199745655,-0.007941248,0.01160644,16
5.318390369415283,-0.625390887260437,7.063575267791747,-0.012722493149340151,-0.010690141499999998,0.005192355,16
5.383203506469727,-0.6491485238075256,7.197617530822754,-0.016075612977147102,-0.029321533,-0.0030543262,16
5.4393696784973145,-0.6682687401771545,7.372161865234375,-0.0218451414257288,-0.059864793,-0.010995574,16
5.488865852355957,-0.6769189238548279,7.624594688415527,-0.031149098649621013,-0.45112398,-0.033292156,16
5.558456897735597,-0.6155228614807129,8.006313323974611,-0.053927257657051086,-1.5919148,0.0067195175,16
5.61672830581665,-0.4713221788406372,8.043108940124513,-0.13752348721027374,-1.7507398,0.1142318,16
5.667877674102782,-0.29621732234954834,7.741288185119629,-0.1963713765144348,-0.78801614,0.25778514,16
5.618626117706299,-0.054029859602451324,7.589934825897218,-0.24432845413684845,-0.5177083,0.32009340000000003,16
5.551544666290283,0.17846247553825378,7.460021495819093,-0.3345460593700409,-0.14630222,0.20189096,16
5.647130012512207,0.4144737124443054,7.346303939819336,-0.4441906809806824,0.07513642,0.20647246,16
5.854015827178955,0.5774155259132385,7.241726398468018,-0.5426777005195618,-0.004276057,0.3381139,16
6.021811485290527,0.4504715502262116,7.171670913696289,-0.6419514417648315,0.010690141499999998,0.34391713,16
6.100594520568848,0.12834763526916504,7.1675567626953125,-0.7632864117622375,0.046120327,0.23762658,16
6.08663272857666,-0.20772530138492584,7.202916145324707,-0.9185383915901184,0.11728613,0.09773844,16
6.1038498878479,-0.3715563416481018,7.266920566558838,-1.0829898118972778,0.10170906,0.19364429,16
6.180668830871582,-0.4420072138309479,7.286987781524657,-1.2237074375152588,0.090713486,0.35979962,16
6.226588249206543,-0.6650435924530029,7.275797367095947,-1.3312208652496338,0.07819075,0.4831944,16
6.228266716003418,-1.1244663000106812,7.200173854827881,-1.4179667234420776,0.096516706,0.5546656,16
6.2737250328063965,-1.64021897315979,7.043985843658447,-1.4954301118850708,0.10903945,0.61086524,16
6.3783507347106925,-2.1859204769134517,6.7481956481933585,-1.5484603643417358,0.28008172,0.528093,16
6.381974697113037,-2.795987606048584,6.375061511993407,-1.5561516284942627,0.3903429,0.26450464,16
6.281941890716553,-3.289615631103516,6.067234516143799,-1.520238757133484,0.3594942,0.10903945,16
5.9910011291503915,-3.751171112060547,5.8150129318237305,-1.4627492427825928,0.2968805,-0.07147124,16
5.621424198150635,-4.099066734313965,5.6385698318481445,-1.3934351205825806,0.15424347,-0.23609942,16
5.269521236419678,-4.461867809295653,5.530624866485597,-1.3091790676116943,0.14569137,-0.441961,16
4.970600605010986,-4.807831764221191,5.40138578414917,-1.2135367393493652,0.21624629,-0.68691796,16
4.791920185089111,-5.053533554077148,5.213050365447998,-1.1108108758926392,0.17195857,-0.88697636,16
4.75443172454834,-5.307312488555908,4.958580493927002,-0.9879195690155028,0.07696902,-1.0574077,16
4.842162132263184,-5.537926197052002,4.70707893371582,-0.8291551470756531,-0.06566802,-1.2651019,16
5.100323677062988,-5.574240684509277,4.645827293395996,-0.6582362055778503,-0.0711658,-1.4853188999999998,16
5.431614875793457,-5.40395975112915,4.773696422576903,-0.5060659050941467,0.061391957,-1.5549575,16
5.646493434906006,-5.106047630310059,4.920217990875244,-0.3746240735054016,0.15332718,-1.6520851000000003,16
5.843007564544678,-4.843759536743164,5.042232036590576,-0.2522558271884918,0.0842994,-1.8842138,16
6.109623908996582,-4.645752429962158,5.136420726776123,-0.11421730369329453,0.070554934,-2.0555615,16
6.483269691467285,-4.410927772521973,5.309729099273682,0.03942381590604782,0.053450707,-2.1105394,16
6.955823421478272,-4.1014933586120605,5.555796146392822,0.17904439568519592,0.0070249503,-2.0344868000000003,16
7.3801589012146,-3.786588907241821,5.80037260055542,0.29710087180137634,-0.19730948,-1.92392,16
7.5264039039611825,-3.516037940979004,5.933840751647949,0.3950193524360657,-0.09101892,-2.0470095,16
7.5210041999816895,-3.23888897895813,5.899961948394775,0.4907517731189728,0.0012217305,-2.2009475,16
7.532799243927003,-2.9251163005828857,5.849165439605713,0.6194936633110046,-0.20861048,-2.1991148,16
7.599923133850098,-2.5889430046081543,5.870730400085449,0.7287658452987671,-0.1255328,-2.0903810000000003,16
7.633852958679199,-2.274618148803711,5.875202178955077,0.7877597212791443,-0.086132,-2.0109684,16
7.668109893798827,-1.9048326015472408,5.825904369354247,0.8309221267700195,-0.04520403,-2.019826,16
7.702719211578369,-1.5171178579330444,5.8516950607299805,0.8880081176757812,-0.020463986,-1.9715676,16
7.746662139892577,-1.1405695676803589,5.865105628967285,0.9389511346817015,-0.03726278,-1.8106046,16
7.702110767364503,-0.7392227053642273,5.966583728790282,0.9825065135955809,-0.008857545999999999,-1.6673566999999998,16
7.547080039978027,-0.24800950288772586,6.086457252502441,1.0045797824859621,-0.010995574,-1.5690073999999998,16
7.341630458831787,0.2575810253620148,6.158036231994629,1.0150760412216189,-0.08643743400000001,-1.5228871000000002,16
7.20663595199585,0.6994971632957458,6.18444299697876,1.0225889682769775,-0.16737708,-1.5012014,16
7.178495407104492,1.130136013031006,6.2197699546813965,1.0347423553466797,-0.17623462,-1.457219,16
7.17089319229126,1.5944030284881592,6.235610961914063,1.036605715751648,-0.172264,-1.4715744,16
7.163156032562256,2.0391404628753658,6.150379180908202,1.0302551984786987,-0.14630222,-1.5793921,16
7.2713661193847665,2.44205904006958,5.908462047576903,1.0302472114562988,-0.12889257,-1.743104,16
7.359304904937744,3.201747179031372,5.67448091506958,1.0591378211975098,0.28955013,-1.2116512,16
7.695127010345459,3.8801424503326416,5.7521820068359375,1.0608301162719729,0.28252518,-1.1462886,16
8.154167175292969,4.439076900482178,5.899650096893311,0.9897297620773317,0.6429357,-0.7870999,16
8.353339195251465,5.000830173492432,6.175060272216798,0.9026165604591371,0.47861293,-1.1368201999999998,16
8.053338050842285,5.645547866821289,6.5877017974853525,0.770480751991272,0.0027488936,-1.3900238,16
7.508903503417969,6.2489681243896475,6.766379833221436,0.6341185569763184,-0.56046885,-1.4263704,16
7.184922218322754,6.647429943084718,6.877833843231201,0.5097609758377075,-0.9297369,-1.3744466999999998,16
7.1942973136901855,6.8258376121521,6.911993980407715,0.3892441391944885,-0.87995136,-0.90041536,16
7.205769062042236,6.784617424011231,6.801339149475098,0.3178358972072601,-0.44440445,-1.0238101000000002,16
7.0632262229919425,6.679861545562744,6.63182258605957,0.28298115730285645,-0.06047566,-0.9410379,16
6.761839389801025,6.551755428314209,6.522786617279053,0.2605828046798706,-0.06352998,-0.8762861999999999,16
6.294029712677003,6.366192817687987,6.472457408905028,0.23260413110256195,-0.23671028,-0.9819659,16
5.750455379486084,6.17595100402832,6.496737957000732,0.20016568899154666,-0.5510005,-1.1542298999999998,16
5.31591796875,6.095690727233888,6.568540096282959,0.1851215958595276,-0.8527679,-1.2635747,16
5.04944372177124,6.147503852844237,6.639726638793945,0.20019838213920596,-0.96944314,-1.2690725,16
4.8821702003479,6.26546049118042,6.6466312408447275,0.2356373965740204,-0.84207773,-1.1914927,16
4.750897407531738,6.407501697540282,6.557875156402588,0.2826645374298096,-0.58001655,-1.1172725,16
4.5968217849731445,6.533501625061035,6.435554504394531,0.34449654817581177,-0.37201694,-1.0140363,16
4.402655124664307,6.628798484802246,6.314441204071045,0.4197130501270294,-0.44043383,-0.98349303,16
4.14976167678833,6.613115310668945,6.125363349914551,0.4984669983386994,-0.5103779,-1.1484267,16
3.846872806549072,6.589804172515869,5.868528842926025,0.5648617148399353,-0.589485,-1.3744466999999998,16
3.4437055587768555,6.695287227630615,5.42564582824707,0.5962404012680054,-0.7968736999999999,-1.5567901000000002,16
2.963765382766724,6.961164474487305,4.87567138671875,0.6118816137313843,-0.99387777,-1.5989398,16
2.379178524017334,7.311624050140381,4.2920355796813965,0.6204028129577637,-1.4724906999999998,-1.7214183,16
1.9100558757781985,7.5912208557128915,3.672142505645752,0.6267454028129578,-1.9346102,-1.7119498,16
1.6284501552581787,7.744265079498291,3.0291953086853027,0.6219638586044312,-2.3225098,-1.5448782,16
1.520383596420288,7.8028082847595215,2.4209320545196533,0.6148883104324341,-2.6178630000000003,-1.35551,16
1.5669693946838381,7.793113231658935,1.8644036054611208,0.5952743887901306,-2.8637362,-1.1808025,16
1.705488204956055,7.761290073394775,1.383400321006775,0.5548623204231262,-2.9733865,-0.99112886,16
1.823166251182556,7.814413547515869,1.0207557678222656,0.4980953335762024,-2.9831605,-0.88361657,16
1.8620927333831787,8.047533988952638,0.7825513482093811,0.40744590759277344,-2.7614164,-0.82863873,16
1.8491071462631223,8.42607593536377,0.6626307964324951,0.3037138879299164,-2.2592852000000003,-0.79901177,16
1.8406598567962649,8.844297409057617,0.6129642128944397,0.20650914311409,-1.6511686999999995,-0.8564331000000001,16
1.8268864154815676,9.13626194000244,0.6546280980110168,0.12030039727687836,-1.3002267,-0.8747590000000001,16
1.7598516941070557,9.214449882507324,0.7762792110443115,0.04785281792283058,-1.1600331,-0.8069529999999999,16
1.6587812900543213,9.0812349319458,0.8995139598846436,-0.009122304618358612,-1.180497,-0.74006325,16
1.6449705362319946,8.864716529846191,0.9336161613464355,-0.059386584907770164,-1.2791518,-0.6637050999999999,16
1.7689042091369631,8.7320556640625,0.9188817143440248,-0.09168779104948044,-1.4193454,-0.54092115,16
2.0260934829711914,8.891907691955566,0.7966324090957642,-0.07423639297485353,-1.2791518,-0.15882497,16
2.326150417327881,9.19969654083252,0.6852613091468811,0.012189984321594238,-1.0277808000000002,0.049480084,16
2.601003408432007,9.299759864807127,0.6791924238204956,0.11740565299987793,-0.75502944,0.070554934,16
2.862706661224365,9.281707763671877,0.7671912908554077,0.1858222335577011,-0.41813725,0.011301007,16
3.0647454261779785,9.301817893981934,0.779941737651825,0.1851176619529724,-0.23671028,-0.057421334,16
3.1252756118774414,9.366758346557617,0.6462169289588928,0.1354435533285141,0.076358154,-0.12950343,16
2.973032236099243,9.521993637084961,0.4349904954433441,0.10186693072319032,0.30695978,-0.15974127,16
2.638362169265747,9.67045783996582,0.31481730937957764,0.10241672396659852,0.33078352,-0.11636983,16
2.2011055946350098,9.710078239440918,0.3491987884044647,0.13397279381752014,0.1142318,-0.14721853,16
1.7601014375686646,9.66331386566162,0.4633713066577912,0.16339914500713348,-0.10476339,-0.21655174,16
1.3856780529022217,9.603360176086426,0.6369638442993164,0.1673630326986313,-0.30665436,-0.31429017,16
1.129485249519348,9.577966690063477,0.7890743017196655,0.13014467060565948,-0.50701815,-0.35918877,16
1.0293112993240356,9.59825325012207,0.8359541296958923,0.06146180257201195,-0.61208695,-0.37384954,16
1.0869423151016235,9.65659236907959,0.8063485622406006,-0.014573352411389353,-0.6762278,-0.3203988,16
1.2521662712097168,9.699199676513672,0.7688777446746826,-0.05693184211850166,-0.66339964,-0.23090707,16
1.4751181602478027,9.667231559753418,0.6856650710105896,-0.06248194351792336,-0.44440445,-0.13011430000000002,16
1.6894575357437134,9.575495719909668,0.5508466958999634,-0.04728742316365242,-0.13897185,-0.092240654,16
1.8571014404296875,9.537652969360352,0.4770810902118683,-0.033015035092830665,0.032375857,-0.10048734,16
1.9679149389266968,9.549825668334961,0.4717226326465607,-0.02906931564211845,0.109650314,-0.10598512,16
2.0243258476257324,9.556425094604492,0.4701330363750458,-0.029994582757353783,0.2275473,-0.093767814,16
2.023581027984619,9.58090114593506,0.4764953851699829,-0.014299486763775347,0.33628133,-0.060170225999999986,16
1.9629539251327517,9.639948844909668,0.4452801048755646,0.02150031365454197,0.45875978,-0.100792766,16
1.8775230646133425,9.688892364501953,0.3819486796855927,0.05726044997572899,0.42241332,-0.21410827,16
1.8034507036209104,9.691507339477539,0.2896714508533478,0.08179310709238052,0.5128214,-0.35246924,16
1.7176107168197632,9.75561809539795,0.2047459185123444,0.09018152207136154,0.6585127,-0.3894266,16
1.6343244314193726,9.846169471740724,0.17866766452789307,0.0924270898103714,0.7012733,-0.35460728,16
1.577891230583191,9.855900764465332,0.19004149734973907,0.09530109167099,0.70066243,-0.36254853,16
1.5649521350860596,9.810892105102539,0.15954577922821045,0.09407922625541687,0.79626286,-0.3100141,16
1.5571137666702268,9.79812240600586,0.08838257193565369,0.09994687885046004,0.9850202,-0.24129178,16
1.4648575782775881,9.802852630615234,0.006398292724043131,0.11211606115102768,1.0848966999999998,-0.19242255,16
1.2874045372009275,9.81997776031494,-0.020567568019032482,0.11488454043865205,1.0983357,-0.15882497,16
1.065295934677124,9.880777359008787,0.025549624115228653,0.10648051649332048,0.9618073,-0.08704830000000001,16
0.8133493065834045,9.965977668762207,0.10735443234443663,0.08370799571275711,0.58062744,0.014049901000000002,16
0.5236102938652039,10.013257026672363,0.1982938051223755,0.04614030569791794,0.28710666,0.070554934,16
0.283574640750885,10.038171768188477,0.2944430112838745,0.007961786352097988,0.101098195,0.090713486,16
0.11608140915632248,10.04218864440918,0.4100466668605805,-0.03028428927063942,-0.060170225999999986,0.09682214,16
0.06107819825410842,10.032419204711914,0.5030708909034729,-0.06335072964429855,-0.21410827,0.089491755,16
0.12352631986141205,9.996785163879396,0.6184259057044983,-0.08925854414701463,-0.34055737,0.09285152,16
0.23892153799533844,9.94386100769043,0.7157651782035828,-0.10247963666915894,-0.30176744,0.084910266,16
0.3954111933708191,9.89047908782959,0.7778788208961487,-0.1009315773844719,-0.19700404,0.052839845,16
0.5962023138999939,9.828191757202148,0.7529889941215515,-0.0876830518245697,0.062308256,-0.0036651916,16
0.7721532583236694,9.72955322265625,0.6921985745429993,-0.05444725975394249,0.2302962,-0.064446285,16
0.8597791790962219,9.66126537322998,0.6323785185813904,-0.01671269722282886,0.34819320000000004,-0.10598512,1
0.8010224699974059,9.683298110961914,0.5989264845848083,0.009464218281209469,0.39767328,-0.11759156,1
0.7001000046730042,9.722532272338867,0.5788752436637878,0.017721857875585556,0.42394048,-0.1255328,1
0.596095085144043,9.73809051513672,0.5927308797836304,0.01649083010852337,0.4016439000000001,-0.11789699,1
0.4928985238075256,9.716222763061523,0.5864554047584534,0.009077778086066246,0.3662137,-0.09101892,1
0.3772984743118286,9.678544044494627,0.5508837103843689,0.003306402824819088,0.3390302,-0.05772676700000001,1
0.2679221034049988,9.65237045288086,0.5173944234848022,0.01052766852080822,0.2443461,-0.032986723,1
0.18068991601467133,9.67046070098877,0.5041983127593994,0.02761757560074329,0.13347405,-0.022296581,1
0.11276935786008835,9.777472496032717,0.5040701031684875,0.04280008748173714,0.047647487,-0.03268129,1
0.04111286997795105,9.867819786071776,0.5117448568344116,0.05213885754346848,-0.076358154,-0.06383542,1
-0.0249398835003376,9.915069580078123,0.5074766278266907,0.051923368126153946,-0.20586158,-0.12217305,1
-0.07373563200235367,9.939586639404297,0.4864237904548645,0.04188476875424385,-0.27580565,-0.1572978,1
-0.09589987248182297,9.954164505004883,0.4868558049201965,0.02253013104200363,-0.37110063,-0.16584991,1
-0.0737331286072731,9.960882186889648,0.5054866075515747,0.0039001042023301133,-0.43188173,-0.13622294,1
-0.009180227294564249,9.95671844482422,0.5396453142166138,-0.00875144265592098,-0.39614612,-0.10842858,1
0.10060898959636687,9.943792343139648,0.5555919408798218,-0.016343731433153152,-0.3286455,-0.070554934,1
0.23308680951595304,9.90684986114502,0.5503553748130798,-0.0199633464217186,-0.22999077,-0.038789943,1
0.34910255670547485,9.89638614654541,0.5522430539131165,-0.023064639419317245,-0.1133155,-0.025350908,1
0.4293578565120697,9.904024124145508,0.5669389963150024,-0.029005669057369232,-0.03970624,-0.028405234,1
0.4736785590648651,9.91046905517578,0.5988649129867554,-0.037891261279582984,-0.025961773,-0.017715093,1
0.496026873588562,9.910225868225098,0.6301608085632324,-0.04456624388694763,-0.0033597588,-0.00061086525,1
0.5036256313323975,9.900558471679688,0.6587255597114563,-0.0437036007642746,0.020463986,0.01985312,1
0.5061998963356018,9.87747573852539,0.6820271015167236,-0.03967925906181336,0.045814894,0.03481932,1
0.4867264926433563,9.86502742767334,0.6904974579811096,-0.03268634155392647,0.07574729,0.071776666,1
0.4423482120037079,9.85771656036377,0.6920512914657593,-0.027250586077570915,0.08704830000000001,0.070249505,1
0.3985519409179688,9.849874496459961,0.7000866532325745,-0.0281001441180706,0.07299839999999999,0.062002823,1
0.3587624728679657,9.86012077331543,0.7092382311820984,-0.033475883305072784,0.06597344599999999,0.07422013,1
0.3382355570793152,9.85728359222412,0.7047520279884338,-0.037685927003622055,0.04337143,0.06719518,1
0.3412998914718628,9.847183227539062,0.6970647573471069,-0.038867268711328506,0.03756821,0.08307768,1
0.34769073128700256,9.854253768920898,0.6906616687774658,-0.036837689578533166,0.055588737,0.08674286,1
0.3527575731277466,9.859519958496094,0.6698208451271057,-0.037618398666381836,0.073303826,0.06841691,1
0.3432959020137787,9.854565620422363,0.6760235428810121,-0.039073649793863297,0.06597344599999999,0.05009095,1
0.3317250609397888,9.853184700012207,0.7034915089607239,-0.04314205422997475,0.02321288,0.044593163,1
0.3293250203132629,9.841985702514648,0.7220655679702759,-0.0468270368874073,0.0033597588,0.0290161,1
0.34540024399757385,9.839834213256836,0.7322360873222351,-0.04921826720237732,0.003970624,0.04550946,1
0.3686216175556183,9.846151351928713,0.7438076138496399,-0.0507807694375515,0.00061086525,0.05009095,1
0.3957022726535797,9.845970153808594,0.7574660778045654,-0.05201021581888199,0.0009162979,0.04734206,1
0.41988635063171387,9.849042892456056,0.7562410831451416,-0.05445821583271026,0.008246681,0.043066,1
0.4330912232398987,9.85250473022461,0.7458035945892334,-0.05538409948348999,0.021991149,0.037873644,1
0.44190859794616705,9.855554580688477,0.7440000772476196,-0.05648737773299217,0.014966198,0.034513887,1
0.4464251399040222,9.855451583862305,0.7583331465721129,-0.057373877614736564,0.016493361,0.03940081,1
0.44747355580329895,9.861668586730957,0.760217547416687,-0.0619545504450798,0.025961773,0.046731193,1
0.4427938163280487,9.866527557373047,0.7531797289848328,-0.06745890527963637,0.043982297,0.0580322,1
0.4305926263332367,9.868389129638672,0.7509660720825195,-0.07265370339155197,0.032375857,0.06811147,1
0.4118655025959015,9.864294052124023,0.7604589462280273,-0.07565248757600784,0.01740966,0.064751714,1
0.3953490555286408,9.85634994506836,0.7773926854133606,-0.07887721806764603,-0.0033597588,0.06780604,1
0.3854759633541107,9.848408699035645,0.7916018962860107,-0.07977557182312013,-0.022602014,0.059864793,1
0.38511788845062256,9.843002319335938,0.8072408437728882,-0.08063782006502151,-0.025961773,0.061086524,1
0.4013003706932068,9.841748237609863,0.8166309595108032,-0.08109619468450546,-0.017715093,0.06261369,1
0.4280902147293091,9.834826469421387,0.8296629786491394,-0.08319981396198273,-0.029626964,0.04153884,1
0.4482247531414032,9.828975677490234,0.840505838394165,-0.08415309339761734,-0.019242255,0.03756821,1
0.4636678397655487,9.825338363647461,0.8586522936820984,-0.08448890596628189,-0.03176499,0.028099801,1
0.4720611274242401,9.811498641967773,0.8931946158409119,-0.08529932051897049,-0.0571159,0.018020526,1
0.4804474711418152,9.799941062927246,0.9298897385597228,-0.0880085825920105,-0.07238753,0.015577064,1
0.4911056756973266,9.794116973876953,0.9632875323295592,-0.08874044567346573,-0.086132,0.015271631,1
0.5120793581008911,9.793147087097168,0.9997521042823792,-0.08706642687320709,-0.096516706,0.010690141499999998,1
0.5358473658561707,9.797866821289062,1.0322425365447998,-0.08487554639577866,-0.09285152,0.006414085,1
0.5692926049232483,9.797985076904297,1.0495752096176147,-0.08404047042131424,-0.07513642,0.003970624,1
0.6131482124328613,9.795100212097168,1.0675678253173828,-0.08378224819898605,-0.050396383,-0.00030543262000000003,1
0.6590157151222229,9.78506088256836,1.0964454412460327,-0.08227092027664185,-0.021991149,-0.0033597588,1
0.7047086954116821,9.773890495300293,1.121815800666809,-0.0782662183046341,0.0021380284,0.0015271631,1
0.7366250157356262,9.765869140625,1.1415762901306152,-0.07556232810020448,0.03940081,0.0143553335,1
0.7582840323448181,9.764421463012695,1.154521107673645,-0.07401378452777863,0.070249505,0.025961773,1
0.7721304297447205,9.768298149108887,1.1707985401153564,-0.0744229108095169,0.08093964,0.030543262,1
0.7659581303596497,9.779744148254396,1.1862592697143557,-0.07589401304721832,0.07574729,0.03970624,1
0.7413241863250732,9.792879104614258,1.2007911205291748,-0.07731244713068007,0.046120327,0.0421497,1
0.7100791931152344,9.798469543457033,1.2076969146728516,-0.08086244761943817,0.015271631,0.041233405,1
0.6819660663604736,9.804466247558594,1.1958829164505005,-0.08634347468614577,-0.034208454,0.04795292,1
0.6521023511886597,9.81434154510498,1.1845295429229736,-0.09370183199644087,-0.076358154,0.05375614,1
0.6290367841720581,9.811084747314453,1.182294249534607,-0.09931552410125732,-0.108123146,0.048258353,1
0.6144025325775146,9.804502487182617,1.1770975589752195,-0.10359742492437364,-0.12095132,0.04153884,1
0.6107614040374756,9.79651165008545,1.176852464675903,-0.1081872060894966,-0.11453723,0.044898596,1
0.614547848701477,9.795328140258787,1.1862343549728394,-0.1138841062784195,-0.13530666,0.043982297,1
0.620066225528717,9.797684669494627,1.1862432956695557,-0.1172010600566864,-0.1432479,0.041233405,1
0.6193847060203552,9.79350757598877,1.2101129293441772,-0.11816805601119995,-0.14477506,0.03848451,1
0.6191615462303162,9.784814834594727,1.2549707889556885,-0.11773563921451567,-0.13225232,0.03176499,1
0.6404150724411011,9.765828132629396,1.2984291315078735,-0.11773908138275145,-0.1282817,0.026572637000000003,1
0.6770243644714355,9.7470703125,1.328340768814087,-0.11640430986881255,-0.105374254,0.038789943,1
0.7117172479629517,9.73922061920166,1.3458205461502075,-0.1146928369998932,-0.06688975,0.04184427,1
0.7365667223930359,9.736445426940918,1.3703465461730957,-0.11346026510000227,-0.040011674,0.038789943,1
0.7373606562614441,9.724651336669922,1.4146075248718262,-0.1104416474699974,-0.040927973,0.04428773,1
0.7184963226318359,9.719865798950195,1.4658907651901243,-0.10829988867044447,-0.053145275,0.032986723,1
0.6928800344467163,9.719508171081543,1.4975656270980835,-0.10738211125135423,-0.07422013,0.020158553,1
0.6699948310852051,9.72280979156494,1.5144168138504028,-0.1055765375494957,-0.093462385,0.02076942,1
0.6591508984565735,9.72763442993164,1.5311416387557983,-0.10207376629114152,-0.09468412,0.015271631,1
0.6436234712600708,9.732373237609863,1.550984263420105,-0.1010371744632721,-0.12705997,0.022296581,1
0.6238223910331726,9.727805137634276,1.5739244222640991,-0.1017170175909996,-0.15241088,0.010079277,1
0.6187734603881836,9.731106758117676,1.597646951675415,-0.10325629264116287,-0.14996742,0.026572637000000003,1
0.6322245001792908,9.733844757080078,1.623931884765625,-0.10590675473213196,-0.14691310000000002,0.01282817,1
0.6622087359428406,9.727596282958984,1.6399935483932495,-0.10961361229419707,-0.13011430000000002,0.013133603,1
0.707625150680542,9.712417602539062,1.6571836471557615,-0.10943951457738876,-0.10842858,0.022907447,1
0.7394802570343018,9.679546356201172,1.680480718612671,-0.10599993914365767,-0.09040806,0.021685716,1
0.7669886946678162,9.665109634399414,1.7064958810806274,-0.10328703373670578,-0.0693332,0.016187929,1
0.7816999554634094,9.668333053588867,1.7298129796981812,-0.0994131788611412,-0.06841691,0.023518313,1
0.7861392498016357,9.643403053283693,1.7616275548934937,-0.09242958575487137,-0.11301007,0.0012217305,1
0.7956587672233582,9.618203163146973,1.7917001247406006,-0.08707164227962494,-0.12492194,-0.0143553335,1
0.8215764164924622,9.611184120178224,1.813228130340576,-0.08318831771612167,-0.13011430000000002,-0.025961773,1
0.8504607677459717,9.613845825195312,1.8120537996292116,-0.07739268243312836,-0.09773844,-0.023518313,1
0.8870394229888916,9.630003929138184,1.800762176513672,-0.07123470306396484,-0.09437868,-0.018020526,1
0.923147201538086,9.635458946228027,1.8051574230194087,-0.06481289863586426,-0.08093964,-0.021380283,1
0.9544432759284972,9.63171672821045,1.8139933347702024,-0.059362825006246574,-0.056199603,-0.011911872,1
0.9863117933273317,9.629037857055664,1.823642015457153,-0.053798634558916085,-0.0067195175,0.00030543262000000003,1
1.0110387802124023,9.619609832763672,1.8472522497177124,-0.04780840128660202,0.024740042,0.01863139,1
1.025686502456665,9.607507705688477,1.8622180223464968,-0.043968357145786285,0.06536258,0.024129177,1
1.0320216417312622,9.608857154846193,1.8709310293197632,-0.04243142530322075,0.09987647,0.03176499,1
1.032400608062744,9.614751815795898,1.8779194355010984,-0.039365652948617935,0.10629055,0.033292156,1
1.025537133216858,9.609224319458008,1.8849632740020752,-0.035927973687648766,0.099571034,0.017715093,1
1.0100013017654421,9.6055908203125,1.879263401031494,-0.03071194142103195,0.108123146,0.02321288,1
0.9875269532203674,9.601298332214355,1.8771814107894895,-0.025880128145217896,0.11209377,0.018325957,1
0.9548230171203612,9.603860855102539,1.876254200935364,-0.023014945909380916,0.11301007,0.018936822,1
0.9155560135841371,9.619656562805176,1.862474799156189,-0.02284161560237408,0.09162979,0.011301007,1
0.8908742666244507,9.651911735534668,1.8364681005477903,-0.025484245270490646,0.08796459400000001,0.014049901000000002,1
0.8728886842727661,9.673856735229492,1.8268771171569824,-0.02600186876952648,0.076358154,0.027488936,1
0.8607476353645325,9.671486854553224,1.8303605318069456,-0.023167412728071213,0.04550946,0.011911872,1
0.8457171320915222,9.663114547729492,1.847136378288269,-0.019315047189593315,0.018325957,0.0027488936,1
0.8283383250236511,9.653230667114258,1.872170329093933,-0.01484585553407669,0.0015271631,-0.0076358155,1
0.805836021900177,9.648469924926758,1.891148805618286,-0.010426990687847136,-0.02076942,-0.004886922,1
0.782039225101471,9.643932342529297,1.9087257385253904,-0.006802935618907213,-0.036651913,-0.008857545999999999,1
0.7733627557754517,9.647682189941406,1.928592324256897,-0.006000783760100603,-0.06047566,-0.0070249503,1
0.7859467864036559,9.64439868927002,1.9479866027832031,-0.0056684971787035465,-0.040927973,-0.0076358155,1
0.8245473504066467,9.633679389953613,1.9498695135116575,-0.0033694610465317965,-0.022907447,-0.004276057,1
0.8633279204368591,9.622666358947754,1.945775866508484,0.0007426420343108474,0.007330383,-0.00061086525,1
0.8866599202156067,9.616697311401367,1.935641884803772,0.0055218860507011405,0.036651913,-0.0033597588,1
0.8942900300025941,9.61750602722168,1.930768370628357,0.009937617927789688,0.058643065,0.0033597588,1
0.902330219745636,9.624539375305176,1.9317748546600344,0.014267598278820516,0.0571159,0.0027488936,1
0.9141916632652284,9.624547004699707,1.9349097013473509,0.02099080570042133,0.070554934,0.009773844,1
0.9225797653198242,9.613055229187012,1.9342707395553589,0.02885417640209198,0.08063421400000001,0.016493361,1
0.9191108942031859,9.6202392578125,1.9246854782104488,0.03409495204687118,0.108123146,0.01740966,1
0.9067832231521606,9.634995460510254,1.9082792997360232,0.041028201580047614,0.10995574,0.011911872,1
0.8872228264808655,9.646247863769533,1.892974615097046,0.047627244144678116,0.11636983,0.009162978,1
0.8555446863174438,9.645342826843262,1.8798789978027344,0.0492810495197773,0.11728613,0.0076358155,1
0.8137568831443787,9.637483596801758,1.8601019382476809,0.05067598074674606,0.121256754,0.016187929,1
0.7755523920059204,9.640824317932127,1.838961243629456,0.052608609199523926,0.11178834,0.0067195175,1
0.7417153716087341,9.659893035888672,1.8181971311569212,0.05406050756573677,0.0983493,0.008552114,1
0.7078880071640015,9.674620628356934,1.8081226348876955,0.055405572056770325,0.11484267,-0.0009162979,1
