acc_x,acc_y,acc_z,gyro_x,gyro_y,gyro_z,label
0.0,0.0,0.0,0.0,-0.0009162979,0.007941248,8
0.16044040024280548,0.004027863033115864,0.23100292682647705,-0.0010173781774938107,0.023518313,0.010079277,8
0.5424339771270752,0.01318772044032812,0.7826178073883057,-0.0039191143587231645,0.035430185,0.013133603,8
1.0701819658279421,0.02516826428472996,1.5472462177276611,-0.007759788073599338,0.03848451,0.02443461,8
1.660053014755249,0.03769525140523911,2.405132532119751,-0.011695470660924913,0.05131268,0.021380283,8
2.244964361190796,0.049122076481580734,3.259549379348755,-0.016316521912813187,0.03726278,0.022907447,8
2.7828969955444336,0.058535419404506676,4.0494651794433585,-0.02021369338035584,0.03756821,0.02321288,8
3.253981828689575,0.06562373042106627,4.745567321777344,-0.02310476079583168,0.03726278,0.016493361,8
3.6534037590026855,0.07042964547872542,5.340306758880615,-0.02432509884238243,0.028710667,0.008857545999999999,8
3.985831260681152,0.07396506518125534,5.837151050567628,-0.023139258846640587,-0.009468411,-0.0018325958,8
4.2618465423583975,0.0789056122303009,6.242602348327638,-0.021688349545001984,-0.03940081,-0.0061086523,8
4.489706039428711,0.08516401797533035,6.56960391998291,-0.020512813702225685,-0.04337143,-0.002443461,8
4.677255630493164,0.09249728918075563,6.831037521362305,-0.020711522549390796,-0.03359759,0.00030543262000000003,8
4.8315162658691415,0.1006605476140976,7.038527488708496,-0.020735107362270355,-0.042455133,-0.00580322,8
4.958590030670166,0.10949915647506714,7.201970100402832,-0.021773675456643105,-0.03268129,0.0018325958,8
5.06358814239502,0.11888273060321808,7.329659461975098,-0.02281821332871914,-0.021685716,-0.0009162979,8
5.150710105895996,0.12868785858154294,7.428466796875,-0.023822570219635963,-0.02443461,0.0018325958,8
5.223406791687012,0.13883037865161896,7.503977298736572,-0.023987570777535442,-0.013744468,0.0070249503,8
5.2844882011413565,0.149248868227005,7.560714244842528,-0.024929609149694443,-0.00580322,0.0067195175,8
5.335002899169922,0.15920865535736084,7.603657245635986,-0.02540272288024425,0.002443461,0.015577064,8
5.373381614685059,0.16677723824977875,7.639416217803955,-0.025204617530107498,-0.004276057,0.01160644,8
5.401771545410156,0.1722937375307083,7.669650554656982,-0.024837803095579147,0.0125227375,0.011301007,8
5.42213249206543,0.17616096138954165,7.695445537567139,-0.023724211379885674,0.019547688,0.019242255,8
5.436044216156006,0.17870350182056427,7.717672348022461,-0.025717178359627724,0.005192355,0.026572637000000003,8
5.444747447967528,0.18017542362213132,7.737048625946045,-0.029678694903850555,0.0021380284,0.023823744,8
5.449330806732178,0.18080221116542816,7.7540955543518075,-0.03428148478269577,-0.0033597588,0.028405234,8
5.450562953948975,0.18074041604995728,7.769296646118164,-0.042868655174970634,-0.021685716,0.029626964,8
5.449110507965088,0.1801271289587021,7.783010482788086,-0.05066526308655739,-0.01740966,0.028710667,8
5.445480346679688,0.17906592786312106,7.795542240142822,-0.060855839401483536,-0.020463986,0.038789943,8
5.441396713256836,0.17706714570522308,7.806262969970702,-0.06900481134653091,0.013744468,0.042455133,8
5.441032409667969,0.17239321768283844,7.81280517578125,-0.06928432732820511,-0.009468411,0.05131268,8
5.4439616203308105,0.1654171198606491,7.815786361694336,-0.06527143716812134,-0.029932396,0.05772676700000001,8
5.449494361877441,0.15663349628448486,7.81593656539917,-0.058930691331624985,-0.014660766,0.061086524,8
5.457139015197754,0.14637792110443115,7.813798427581787,-0.052314415574073785,-0.004276057,0.040317107000000005,8
5.466480255126953,0.13493911921977994,7.809821128845215,-0.045524213463068015,-0.020463986,0.043676864,8
5.477193832397461,0.12254045903682707,7.804360389709473,-0.03953753784298897,0.0015271631,0.042760565999999986,8
5.488988876342773,0.10939173400402068,7.797722816467285,-0.033451128751039505,0.014049901000000002,0.024129177,8
5.501661777496338,0.09563211351633072,7.790133476257324,-0.0267631858587265,-0.02321288,0.041233405,8
5.515042304992676,0.08137854933738707,7.781778335571289,-0.02207606099545956,-0.011911872,0.019242255,8
5.527566432952881,0.06705582141876221,7.773255825042725,-0.021997300907969475,-0.010690141499999998,0.02107485,8
5.534587383270264,0.05377860739827156,7.76611328125,-0.022106874734163284,-0.01038471,0.007330383,8
5.536840915679932,0.041420113295316696,7.7601871490478525,-0.018633177503943443,-0.0070249503,0.018936822,8
5.5352654457092285,0.029800117015838627,7.755239486694336,-0.01299132779240608,-0.021991149,0.03756821,8
5.530609607696533,0.01877114363014698,7.751076221466064,-0.008635999634861946,-0.09132435,0.048258353,8
5.523453712463379,0.008203890174627304,7.747541904449463,-0.005487403832376003,-0.13347405,0.06352998,8
5.5143585205078125,-0.001958102686330676,7.74451732635498,-0.0008320494089275599,-0.09896017,0.09437868,8
5.503657341003418,-0.011818697676062584,7.741899490356445,0.00302209984511137,-0.062308256,0.094989546,8
5.491682052612305,-0.021428877487778664,7.739608287811278,0.010071825236082077,-0.020158553,0.1001819,8
5.4786415100097665,-0.030859304592013363,7.73757791519165,0.014249146915972231,-0.017715093,0.09162979,8
5.460907936096191,-0.04195645451545715,7.7396769523620605,0.014435041695833206,-0.013133603,0.08521569999999999,8
5.443962097167969,-0.042458649724721916,7.749473571777344,0.01270460430532694,-0.03726278,0.057421334,8
5.438272953033447,-0.03851863369345665,7.7594261169433585,0.007457418832927942,-0.03023783,0.051618114000000014,8
5.455913066864014,-0.03396748378872872,7.750508308410644,0.0002202055184170604,0.00580322,0.045814894,8
5.488795757293701,-0.02497768960893154,7.7278151512146,-0.008046379312872887,0.010690141499999998,0.046731193,16
5.5250892639160165,-0.014978963881731032,7.711857318878174,-0.015044670552015303,-0.009162978,0.049480084,16
5.565497875213623,-0.0039629717357456675,7.699666023254394,-0.019963320344686508,0.01863139,0.0571159,16
5.601326942443848,0.015692586079239845,7.703444480895996,-0.028382018208503727,-0.018325957,0.06872234,16
5.664950847625732,0.05201185122132301,7.853981971740723,-0.04983601719141007,-0.29046643,0.109650314,16
5.774458885192871,0.08962446451187134,8.014270782470701,-0.11311788856983185,-0.6759224,0.19792034,16
5.806296348571777,0.1481209546327591,7.988457202911378,-0.194554403424263,-0.39614612,0.28130344,16
5.715678215026856,0.19341710209846494,7.90175199508667,-0.2518664598464966,0.013744468,0.24984388,16
5.7172722816467285,0.18703028559684756,7.986061573028564,-0.28214702010154724,-0.24801129,0.22204952,16
5.880681037902832,0.21688655018806455,8.179981231689451,-0.2884100675582886,-0.7131852,0.2947425,16
5.933712482452393,0.28343465924263,8.217227935791017,-0.31590867042541504,-0.57604593,0.2929099,16
5.868194103240968,0.2912188172340393,8.170756340026855,-0.398846834897995,-0.3640757,0.18845193,16
5.8859314918518075,0.24154631793498996,8.207547187805176,-0.4999778270721436,-0.45112398,0.13011430000000002,16
5.952452659606934,0.1976121813058853,8.273747444152832,-0.594404399394989,-0.45723262,0.099571034,16
5.931379318237305,0.21774038672447205,8.322164535522461,-0.7250477075576782,-0.4560109000000001,0.04795292,16
5.849476337432861,0.2662717401981354,8.248286247253418,-0.903850793838501,-0.34972036,0.06352998,16
5.788010120391847,0.28649118542671204,8.067384719848633,-1.0798861980438232,-0.204029,0.1151481,16
5.821184158325195,0.12833136320114136,7.863193988800049,-1.2235380411148071,-0.04153884,0.17898351,16
5.9222660064697275,-0.15876485407352448,7.677917957305907,-1.337082028388977,0.086132,0.22388211,16
5.998208999633789,-0.4791868031024933,7.509650230407715,-1.4295719861984253,0.11636983,0.28405234,16
6.049332141876222,-0.8143488168716431,7.36668062210083,-1.5225443840026855,0.12461651,0.28680122,16
6.095848560333253,-1.1139296293258667,7.155361652374268,-1.6105250120162964,0.24037547,0.35735616,16
6.059399604797362,-1.4885635375976562,6.851713180541992,-1.682637095451355,0.3744604,0.35338554,16
5.991244316101074,-1.9889812469482424,6.562580585479736,-1.708879470825195,0.32650748,0.19883664,16
5.964321613311768,-2.4039714336395264,6.2898292541503915,-1.7004562616348269,0.18020524,0.17989981,16
5.95888614654541,-2.7851006984710693,6.0737037658691415,-1.6658679246902466,0.11881329,0.15851954,16
6.042618751525879,-3.159013509750366,6.012867450714111,-1.6194205284118652,0.15699236,0.07788532,16
6.300536632537843,-3.547691345214844,5.94168758392334,-1.5572452545166016,0.1881465,0.13622294,16
6.594440937042236,-3.9020068645477295,5.76249885559082,-1.4832816123962402,0.22968534,0.19058995,16
6.7194504737854,-4.256915092468262,5.450445652008057,-1.376468300819397,0.38545597,0.09254608,16
6.678771495819093,-4.559650897979736,5.143470764160156,-1.2520185708999634,0.47433686,-0.08552113,16
6.57464599609375,-4.810057640075684,4.948823928833008,-1.1091830730438232,0.4783075,-0.2837469,16
6.409343242645264,-4.98775577545166,4.757361888885498,-0.9685395956039428,0.5012149,-0.3643811,16
6.187725067138673,-5.113794803619385,4.552311420440674,-0.8166008591651917,0.4859433,-0.37323865,16
5.97127628326416,-5.234492301940918,4.4193525314331055,-0.6556369066238403,0.33841935,-0.29871312,16
5.70482063293457,-5.323741436004639,4.310741424560547,-0.4950070381164551,0.2565634,-0.23518312,16
5.38401460647583,-5.389795303344727,4.243518352508545,-0.3355870544910431,0.25625798,-0.19303341,16
5.036705017089844,-5.513856887817383,4.208800315856934,-0.19748523831367493,0.37690386,-0.34330627,16
4.828784942626953,-5.632692337036133,4.2498154640197745,-0.04090573266148567,0.5925393,-0.5522222,16
4.889277458190918,-5.522816181182861,4.429229259490967,0.1416042149066925,0.5497787,-0.5174029,16
5.017800807952881,-5.325539588928223,4.731300354003906,0.3015996515750885,0.41630468,-0.3930918,16
5.039310932159424,-5.21322774887085,5.054141044616699,0.44822606444358826,0.36896262,-0.48991394,16
5.002857208251953,-5.125845432281494,5.310911655426025,0.6152257323265076,0.30940324,-0.6450737,16
5.0259928703308105,-4.938150882720947,5.585041999816895,0.7888311743736267,0.3979787,-0.66156703,16
4.991976261138916,-4.622578144073486,5.858430862426758,0.9032002687454224,0.25534168,-0.8035932,16
4.884665489196777,-4.352112770080566,5.995415687561035,1.0010640621185305,0.28710666,-1.0894781,16
4.897756576538086,-4.0529842376708975,6.129361629486084,1.1099624633789062,0.27550024,-1.0937542,16
5.0755934715271,-3.762832164764404,6.308151721954347,1.1919492483139038,0.13225232,-0.9914343,16
5.192410469055176,-3.515049695968628,6.448946952819824,1.2550821304321291,0.03848451,-1.0424415,16
5.254563331604004,-3.2378413677215576,6.544625759124756,1.3016294240951538,0.051923547,-1.0946705,16
5.392855644226074,-3.02299427986145,6.649978160858153,1.3607548475265503,-0.19364429,-1.0256428,16
5.592240333557129,-2.8858349323272705,6.807188034057617,1.461710810661316,-0.29932398,-0.8933904,16
5.693686008453369,-2.637860059738159,6.900784969329834,1.5764800310134888,-0.35643986,-0.7165449,16
5.629855632781982,-2.338165760040283,6.885078430175781,1.6601214408874512,-0.34666604,-0.66920286,16
5.652975082397461,-1.9360873699188232,6.935751438140869,1.7329795360565186,-0.26206118,-0.73823065,16
5.670126438140869,-1.4596408605575562,6.9069600105285645,1.788139581680298,-0.30024028,-0.79351395,16
5.65640115737915,-1.0284374952316284,6.973051071166992,1.8243449926376345,-0.19272798,-0.91232723,16
5.6395416259765625,-0.5730726718902588,7.121009826660156,1.841513752937317,-0.26083946,-0.97524637,16
5.587047576904297,-0.1142035871744156,7.150015830993652,1.8582676649093628,-0.45356745,-0.8729264000000001,16
5.558961868286133,0.32084548473358154,7.064961910247803,1.8805396556854248,-0.6041456999999999,-0.9120218,16
5.630129337310791,0.7703561186790466,6.926898002624513,1.9084784984588623,-0.6627888000000001,-1.0161743,16
5.795870780944824,1.3202770948410034,6.972678184509277,1.9232568740844729,-0.7809911999999999,-0.86193085,16
6.056632041931152,1.939881682395935,7.228506088256836,1.903820276260376,-1.0253373,-0.54611355,16
6.343022346496582,2.533001184463501,7.559430122375487,1.8324328660964968,-1.1658363,-0.41691554,16
6.551684856414795,2.99167275428772,7.695790290832519,1.7889413833618164,-1.5980235,-0.47525316,16
6.666228771209718,3.4512844085693364,7.667031764984131,1.7691450119018557,-1.500285,-0.6536258,16
6.614645481109619,3.908147573471069,7.560716152191162,1.7340962886810305,-1.1817188,-0.84513205,16
6.517579555511475,4.1739587783813485,7.508716106414795,1.72197687625885,-0.88606006,-1.162782,16
6.605467796325684,4.609289169311523,7.489659786224365,1.7029188871383667,-0.112704635,-1.3338243,16
6.7204346656799325,5.178457736968994,7.450418472290039,1.6341636180877686,0.50243664,-1.2125676,16
6.56844425201416,5.63654899597168,7.408843517303468,1.5401669740676882,0.82344633,-1.2082913999999998,16
6.204561710357666,6.119029521942139,7.301565170288086,1.4010535478591921,0.6597345,-1.2113458,16
6.1032447814941415,6.504851818084718,7.0873236656188965,1.2710273265838623,0.40866885,-0.84116143,16
6.507686138153076,7.577435493469237,7.355525493621826,1.0779292583465576,-0.15210545,-0.04062254,16
6.637511253356934,8.483495712280272,7.636029243469237,0.7790945172309875,0.07819075,-0.06719518,16
5.8296732902526855,8.556285858154299,7.041060924530028,0.598544716835022,0.6582073,-0.67073005,16
5.206644535064697,8.324348449707031,6.668736934661865,0.5242734551429749,-0.049785517,-0.9101892,16
4.956159591674805,8.130967140197754,6.529170513153076,0.4639371335506439,-0.1777618,-0.8570439000000001,16
4.914705753326416,7.878542900085449,6.249351978302003,0.4237259328365326,0.110872045,-0.6178902,16
5.0099287033081055,7.624611377716064,5.9677486419677725,0.4010031819343567,0.013744468,-0.38789943,16
5.027832984924316,7.262022972106934,5.673954486846924,0.4176983833312988,-0.10415252,-0.36560285,16
4.877341270446777,6.735361576080322,5.2856173515319815,0.4701735377311706,-0.1160644,-0.4914411,16
4.837888240814209,6.451169013977051,4.968949794769287,0.5084754824638367,-0.090713486,-0.52442783,16
4.8397979736328125,6.508126735687256,4.616405963897705,0.5269941091537476,0.02443461,-0.40133846,16
4.701523303985597,6.783955097198486,4.31715726852417,0.5573899745941162,-0.040317107000000005,-0.2910773,16
4.453356742858887,7.149828910827638,4.159724712371826,0.5969804525375366,-0.35827246,-0.23915374,16
4.25032377243042,7.45128870010376,3.879403829574585,0.6550136208534241,-0.39553526,-0.22296582,16
4.250712394714356,7.690786838531494,3.377232074737549,0.7229416370391846,-0.34330627,-0.31581733,16
4.475368022918701,7.869089603424072,2.7734317779541016,0.7602564096450806,-0.19547687,-0.43585235,16
4.771465301513672,8.014513969421388,2.2427103519439697,0.7844127416610718,-0.052534413,-0.5021312,16
4.918255805969238,8.153889656066895,1.872032642364502,0.7991498112678528,-0.09560041,-0.5360342,16
4.815127372741699,8.264256477355957,1.6113587617874146,0.8128777146339417,-0.119729586,-0.5644395000000001,16
4.548916816711426,8.356866836547853,1.4770764112472534,0.8244806528091431,-0.27366763,-0.5421429,16
4.218404293060304,8.394152641296388,1.469291925430298,0.8368123769760132,-0.49632803,-0.46578476,16
3.98185133934021,8.394397735595701,1.4606877565383911,0.8483507633209229,-0.6239988000000001,-0.40653083,16
3.952278852462769,8.404168128967285,1.4444851875305176,0.8302147388458252,-0.6401868000000001,-0.47739118,16
4.069900989532472,8.393854141235353,1.4056025743484497,0.7628698348999023,-0.47555858,-0.49418998,16
4.1872291564941415,8.317358016967772,1.3218854665756226,0.6881920695304871,-0.3368922,-0.52687126,16
4.2066168785095215,8.134791374206543,1.111250400543213,0.6314337253570557,0.009773844,-0.6759224,16
4.294387340545653,7.957465171813965,0.8782567381858826,0.564460813999176,0.19761491,-0.6713409,16
4.318867206573486,7.8466758728027335,0.8405640721321106,0.5016552209854126,0.45081854,-0.52503866,16
4.142347335815431,7.8051695823669425,0.8266526460647583,0.44319233298301697,0.64843345,-0.5342017,16
3.969520092010498,7.887734889984131,0.7135604023933411,0.3867624402046204,0.5506949999999999,-0.5015204000000001,16
3.888947010040283,7.972568035125732,0.6340343952178955,0.34905245900154114,0.4990769000000001,-0.59773165,16
3.867833852767944,8.063855171203612,0.6909555196762085,0.33530616760253906,0.55924714,-0.54458636,16
3.7097055912017822,8.109365463256836,0.7793238162994385,0.33447420597076416,0.5897904,-0.55741453,16
3.5227372646331787,8.120368957519531,0.67917799949646,0.3430656790733337,0.6218608,-0.65576386,16
3.457303762435913,8.165318489074707,0.6110150218009949,0.34389618039131165,0.6536258,-0.6747006999999999,16
3.4558324813842773,8.28346061706543,0.6777331829071045,0.32589191198349,0.5357288,-0.57451874,16
3.4019601345062256,8.494438171386719,0.6833253502845764,0.30064162611961365,0.5928446999999999,-0.3998113,16
3.281196594238281,8.756495475769043,0.6255247592926025,0.2694167196750641,0.52595496,-0.36835176,16
3.13797664642334,8.938981056213379,0.5367821455001831,0.25074514746665955,0.528093,-0.3827071,16
2.933600425720215,9.015360832214355,0.6089028120040894,0.24499356746673584,0.47158796,-0.3368922,16
2.70261287689209,9.063675880432127,0.7190613746643066,0.21978524327278134,0.24220806,-0.27702740000000003,16
2.5191280841827397,9.123860359191896,0.7333788871765137,0.1837698519229889,0.1994475,-0.27458394,16
2.3856425285339355,9.198321342468262,0.7548363208770752,0.14465723931789398,-0.0125227375,-0.24617869,16
2.2438623905181885,9.258706092834473,0.7645899057388306,0.11835907399654387,0.004276057,-0.21777347,16
2.1069228649139404,9.377981185913086,0.7187068462371826,0.09856228530406952,0.06597344599999999,-0.1423316,16
2.034717082977295,9.561741828918457,0.7211083173751831,0.08211415261030197,0.013744468,-0.17715092,16
2.0433111190795903,9.726454734802246,0.7338733077049255,0.0635451152920723,0.02107485,-0.12889257,16
2.0200035572051998,9.73472499847412,0.6723636984825134,0.04466933012008667,0.20066923,-0.08521569999999999,16
1.899636030197144,9.687392234802246,0.5449507832527161,0.021583499386906624,0.29901853,-0.04917465,16
1.8233976364135744,9.800785064697266,0.5094010233879089,0.004918382503092289,0.26389378,-0.019242255,16
1.773196578025818,9.99810028076172,0.5650525093078613,-0.010733459144830705,0.13133603,0.048563786,16
1.6962310075759888,10.056668281555176,0.5654411315917969,-0.024586420506238937,0.121256754,0.15882497,16
1.650357007980347,9.975366592407227,0.4992993474006653,-0.037760403007268906,0.37048978,0.29229903,16
1.6571439504623413,9.963491439819336,0.40278318524360657,-0.06535353511571884,0.5870415,0.28069258,16
1.6891942024230957,10.021839141845703,0.2615836262702942,-0.09913191944360733,0.77091193,0.35063666,16
1.6400980949401855,10.043083190917967,0.0938979908823967,-0.13487140834331512,0.94959,0.40744713,16
1.5174641609191897,10.018301963806152,-0.004690299276262522,-0.16252677142620087,0.91965765,0.41263947,16
1.3273316621780396,10.078408241271973,0.04580894485116005,-0.17870880663394928,0.8717046999999999,0.37690386,16
1.1027876138687134,10.105125427246094,0.2533430755138397,-0.20695510506629944,0.6585127,0.41722095,16
0.8608790636062622,10.14728546142578,0.5558051466941833,-0.2318623661994934,0.2773328,0.45875978,16
0.6449882388114929,10.364583969116213,0.9421994686126708,-0.241252675652504,-0.05772676700000001,0.28099802,16
0.6064353585243225,10.493528366088867,1.3373898267745972,-0.20728947222232816,-0.42760566,-0.053450707,16
0.7315670847892761,10.34470272064209,1.6804047822952268,-0.18545913696289065,-0.6621779000000001,-0.31398472,16
0.983637273311615,10.079556465148926,1.927438497543335,-0.18596698343753812,-0.7425067,-0.41050145,16
1.35566246509552,9.864860534667967,2.0927078723907466,-0.17480799555778506,-0.7690793,-0.3631594,16
1.7983852624893188,9.774042129516602,2.1939291954040527,-0.1457502543926239,-0.6270532,-0.21563543,16
2.239297866821289,9.793639183044434,2.278607130050659,-0.11395928263664246,-0.4541782999999999,-0.07727446,16
2.673938035964966,9.81070613861084,2.346590518951416,-0.0957566574215889,-0.28038713,0.050396383,16
2.9807069301605225,9.664015769958496,2.36649751663208,-0.09823304414749147,-0.0421497,0.0693332,16
2.996861934661865,9.333456039428713,2.3540115356445312,-0.11827637255191804,0.16462818,-0.15760323,16
2.7789669036865234,8.900225639343262,2.346526622772217,-0.15140387415885925,0.30848694,-0.4016439000000001,16
2.484372615814209,8.544567108154299,2.3275072574615483,-0.1873846650123596,0.34300083,-0.6081163,16
2.1816022396087646,8.371700286865233,2.286972999572754,-0.20837986469268802,0.16340645,-0.7861836,16
1.952385783195496,8.401041030883789,2.211020946502685,-0.1955005079507828,-0.010690141499999998,-0.8268061,16
1.8293561935424805,8.554680824279785,2.157368898391724,-0.15901321172714233,-0.14966199,-0.77763146,16
1.7537837028503418,8.758204460144043,2.158902645111084,-0.11533107608556747,-0.19547687,-0.6582073,16
1.686629056930542,8.9418306350708,2.17233681678772,-0.06090766564011574,-0.22021692,-0.50426924,16
1.5718549489974976,9.064287185668944,2.1839194297790527,-0.006956982892006636,-0.2489276,-0.4279111,16
1.4028271436691284,9.057558059692383,2.1673030853271484,0.03423913568258285,-0.2846632,-0.4841107,16
1.2587727308273315,9.043007850646973,2.142371654510498,0.06765874475240707,-0.28221974,-0.4792238,16
1.1433159112930298,9.03884506225586,2.127161026000977,0.09494975209236144,-0.3100141,-0.4841107,16
1.0610086917877195,9.07512092590332,2.12379002571106,0.11746502667665483,-0.32803464,-0.4364632000000001,16
1.0037609338760376,9.17300510406494,2.131868839263916,0.14075212180614471,-0.38606682,-0.37384954,16
0.9495981335639954,9.2601318359375,2.1353223323822017,0.16575883328914642,-0.45662177,-0.2779437,16
0.8803654313087463,9.28636074066162,2.1513912677764893,0.18942715227603912,-0.5155702999999999,-0.26725355,16
0.824208676815033,9.290268898010254,2.175482273101806,0.2061232477426529,-0.50732356,-0.2855795,16
0.8079379200935364,9.314489364624023,2.158072233200073,0.218822181224823,-0.47678033,-0.20738874,16
0.7602452039718628,9.293386459350586,2.1148221492767334,0.2335415184497833,-0.46028697,-0.2556471,16
0.733532190322876,9.30255126953125,2.066128253936768,0.24808967113494876,-0.43768495,-0.23640485,16
0.7615374922752379,9.404325485229492,2.027733564376831,0.26571747660636896,-0.5158757,-0.10873401,16
0.7884644865989685,9.563920974731444,2.0070452690124507,0.2845083475112915,-0.6020076999999999,0.03573562,16
0.7945792675018309,9.728752136230467,2.0261499881744385,0.29374080896377563,-0.6603453,0.12003502,16
0.8431587815284729,9.842604637145996,2.058245658874512,0.2862324416637421,-0.65393126,0.1966986,16
0.9329307675361632,9.916224479675293,2.0326249599456787,0.2704193890094757,-0.552833,0.2302962,16
0.9789601564407348,9.976746559143066,1.917782425880432,0.26523861289024353,-0.3640757,0.20158553,16
0.912284255027771,9.982227325439453,1.797971248626709,0.2637869119644165,-0.16126843,0.081855945,16
0.8523285388946533,9.993953704833984,1.697736740112305,0.2529389560222626,-0.113926366,0.06841691,16
0.8004536628723145,9.943342208862305,1.585298776626587,0.2401815801858902,-0.111177474,0.06566802,16
0.7417721748352051,9.772193908691406,1.4259642362594604,0.23848678171634674,-0.06078109,0.04520403,16
0.7292286157608032,9.682477951049805,1.2837355136871338,0.2547714114189148,-0.13805555,0.12583824,16
0.693419337272644,9.623988151550293,1.1549596786499023,0.2831467986106873,-0.101098195,0.12675454,16
0.614323616027832,9.582777976989746,1.035650372505188,0.3114261031150818,-0.014966198,0.076358154,16
0.5384966135025024,9.55862808227539,0.8880689144134521,0.3336142897605896,0.06963864,0.02565634,16
0.4846950471401215,9.555058479309082,0.7309014201164246,0.3511329591274261,0.15027285,-0.004886922,16
0.4539429545402527,9.58859634399414,0.5822881460189819,0.36486193537712097,0.19853121,0.0012217305,16
0.4678482711315155,9.67771816253662,0.4564418196678162,0.37583804130554205,0.25534168,0.018325957,16
0.5365837216377258,9.778959274291992,0.3342660069465637,0.3672464787960053,0.30634892,0.02443461,16
0.6335601806640625,9.846235275268556,0.18382252752780914,0.3526007831096649,0.4196644000000001,0.04795292,16
0.7458015680313109,9.869622230529783,-0.0006826047319918871,0.3307696580886841,0.52015173,0.0888809,16
0.8509084582328796,9.92539119720459,-0.11932409554719925,0.3133929967880249,0.50946164,0.15027285,16
0.9084959626197816,9.953180313110352,-0.18031160533428192,0.2884576022624969,0.5006041,0.18753563,1
0.9335916638374328,9.945904731750488,-0.2030653953552246,0.25997480750083923,0.48166725,0.19364429,1
0.9597458243370056,9.948445320129396,-0.20386016368865967,0.23698221147060394,0.41691554,0.19303341,1
0.9570520520210266,9.942630767822266,-0.21289509534835813,0.21985217928886414,0.33444872,0.17104226,1
0.9533791542053224,9.93869686126709,-0.2304996103048325,0.2041172832250595,0.2751948,0.14782938,1
0.972497582435608,9.94108772277832,-0.2674077153205872,0.1900516003370285,0.2452624,0.14996742,1
1.017742156982422,9.95058536529541,-0.31879106163978577,0.17874684929847715,0.22388211,0.16768251,1
1.0609999895095823,9.96581745147705,-0.3484752178192139,0.16540390253067014,0.17348573,0.17043139999999998,1
1.0770609378814695,9.965389251708984,-0.3488649725914001,0.15213924646377566,0.12980886,0.15424347,1
1.0626428127288818,9.949225425720217,-0.3104986846446991,0.13575394451618195,0.05375614,0.10445796,1
1.0345044136047363,9.926735877990724,-0.26982858777046204,0.11822530627250673,-0.054367006,0.07391469,1
1.0109580755233765,9.902182579040527,-0.25505560636520386,0.10095889121294023,-0.1423316,0.061391957,1
0.9985947608947754,9.891568183898926,-0.25919780135154724,0.08777274191379547,-0.23426682,0.032375857,1
1.0077625513076782,9.88054084777832,-0.2928802371025085,0.07604406028985977,-0.24129178,0.032986723,1
1.047984004020691,9.869247436523438,-0.3425869345664978,0.06361651420593263,-0.1423316,0.028099801,1
1.14028799533844,9.85879898071289,-0.3809391856193543,0.048749994486570365,-0.14477506,0.004886922,1
1.2475022077560425,9.855079650878906,-0.4355013072490692,0.029284480959177017,-0.08368854,-0.016798794,1
1.3542914390563965,9.84561824798584,-0.5193111300468445,0.013675102964043616,-0.00580322,-0.0030543262,1
1.4395824670791626,9.825543403625488,-0.6106460094451904,0.001878378796391189,0.093767814,0.014966198,1
1.4881997108459473,9.817180633544922,-0.699138343334198,-0.006000712513923645,0.16249016,0.050396383,1
1.5022211074829102,9.820806503295898,-0.7593395113945007,-0.007858652621507645,0.13408493,0.029626964,1
1.4743585586547852,9.83712673187256,-0.7974704504013062,-0.010031021200120449,0.13164146,0.0290161,1
1.4167195558547974,9.845267295837402,-0.814419150352478,-0.01335068605840206,0.14294247,0.022907447,1
1.3480318784713743,9.851211547851562,-0.8210750818252563,-0.0185132808983326,0.11942416,0.016798794,1
1.285904049873352,9.869291305541992,-0.8096386194229126,-0.0236713532358408,0.098043874,0.021380283,1
1.2474863529205322,9.88790512084961,-0.7832531332969666,-0.02991992235183716,0.051923547,0.025045475,1
1.2324316501617432,9.890644073486328,-0.7742831110954285,-0.037605669349431985,0.040927973,0.018020526,1
1.2312198877334597,9.877243995666504,-0.7730535268783569,-0.04332289844751358,0.07696902,0.014660766,1
1.2362385988235474,9.835582733154297,-0.7486281991004944,-0.0565013699233532,0.08552113,0.0018325958,1
1.2932617664337158,9.835002899169922,-0.7459322214126587,-0.0703810602426529,0.064446285,0.070249505,1
1.3879104852676392,9.846577644348145,-0.7417736649513245,-0.07848036289215088,0.040927973,0.12461651,1
1.4499187469482422,9.863335609436037,-0.6761453151702881,-0.07992997765541078,0.008552114,0.16646078,1
1.4038394689559937,9.855960845947266,-0.5732120871543884,-0.08105552941560745,0.04795292,0.16187929,1
1.2832040786743164,9.826050758361816,-0.4301286041736603,-0.0901498794555664,0.12858713,0.099265605,1
1.1631866693496704,9.790746688842773,-0.3006831407546997,-0.10663259029388428,0.17837265,0.02443461,1
1.0825791358947754,9.751471519470217,-0.22792090475559235,-0.12571123242378235,0.21013765,-0.027794369,1
1.061456322669983,9.708858489990234,-0.2151227444410324,-0.13214971125125885,0.21044308,-0.030543262,1
1.0884051322937012,9.668475151062012,-0.2206929624080658,-0.1270524561405182,0.2574797,-0.039095376,1
1.1180927753448486,9.662920951843262,-0.19018860161304474,-0.11172018200159073,0.29626966,-0.04886922,1
1.1235008239746094,9.696352005004883,-0.10574405640363692,-0.09694069623947144,0.29077184,-0.043066,1
1.098704814910889,9.74885082244873,-0.0009934557601809502,-0.09313406050205232,0.21868975,-0.03023783,1
1.0528472661972046,9.798568725585938,0.0618784986436367,-0.09332725405693054,0.15210545,0.016493361,1
0.9931778311729432,9.821318626403807,0.08497871458530426,-0.09248657524585724,0.074830994,0.050701816,1
0.9133148193359376,9.817134857177734,0.10724034160375596,-0.08881405740976334,0.021685716,0.04734206,1
0.8182296156883241,9.80133819580078,0.15341365337371826,-0.0850595235824585,0.04062254,0.016187929,1
0.7548710107803345,9.807867050170898,0.1978057026863098,-0.09069567173719406,0.049785517,-0.014660766,1
0.7434015870094299,9.817355155944824,0.22516657412052155,-0.0979653149843216,0.009468411,-0.010995574,1
0.7393731474876404,9.816068649291992,0.2343937158584595,-0.09908537566661836,-0.059864793,-0.010690141499999998,1
0.7285512089729309,9.816164016723633,0.23824045062065125,-0.09304405003786087,-0.116980694,-0.004581489,1
