acc_x,acc_y,acc_z,gyro_x,gyro_y,gyro_z,label
0.0,0.0,0.0,0.0,-0.0067195175,0.007330383,8
-0.18865400552749634,-0.04564235731959343,-0.21578973531723025,-0.0004646873567253352,0.004276057,0.012217305,8
-0.6386910676956177,-0.15431347489356995,-0.7309631109237671,-0.0015691545559093356,-0.002443461,0.011301007,8
-1.261812448501587,-0.3044455945491791,-1.444915533065796,-0.002944257576018572,-0.0027488936,0.0030543262,8
-1.959985852241516,-0.4723259210586548,-2.245601177215576,-0.004387708380818367,-0.008857545999999999,0.0009162979,8
-2.6513028144836426,-0.6434614062309265,-3.0365633964538574,-0.005856124684214592,0.0036651916,0.004581489,8
-3.2896511554718018,-0.7997736930847168,-3.7677063941955566,-0.0074751838110387325,0.0030543262,0.007941248,8
-3.852055311203003,-0.93843412399292,-4.400121212005615,-0.008572130464017391,-0.0009162979,0.003970624,8
-4.329782485961913,-1.0622862577438354,-4.941201686859131,-0.010775864124298096,0.0061086523,0.0036651916,8
-4.723612308502197,-1.1618273258209229,-5.395922660827637,-0.01132254209369421,0.008246681,0.007330383,8
-5.041949272155762,-1.236234188079834,-5.771854877471924,-0.01246152725070715,0.0067195175,0.0033597588,8
-5.304533004760742,-1.298312783241272,-6.0767579078674325,-0.013120103627443314,0.010079277,0.013133603,8
-5.50927734375,-1.3494317531585691,-6.328689098358153,-0.01401002798229456,0.006414085,0.008857545999999999,8
-5.669732093811035,-1.3847612142562866,-6.529844760894775,-0.014427978545427322,0.00580322,0.010690141499999998,8
-5.798086166381836,-1.4048413038253784,-6.688556671142577,-0.01275010500103235,-0.062308256,0.007941248,8
-5.901657104492188,-1.4094287157058716,-6.823086261749268,-0.006847670301795007,-0.16371189,0.0143553335,16
-5.973506450653076,-1.407562017440796,-6.941249370574951,0.004742257297039032,-0.29352075,-0.00030543262000000003,16
-5.996733665466309,-1.3865567445755005,-7.0644707679748535,0.024434946477413174,-0.37965274,-0.011911872,16
-5.977916717529298,-1.3274441957473757,-7.200072288513184,0.06239351257681847,-0.38973203,-0.0067195175,16
-5.9812278747558585,-1.2422093152999878,-7.2471251487731925,0.1283143013715744,-0.68477994,-0.005192355,16
-6.03386926651001,-1.1449732780456543,-7.21872091293335,0.2002568542957306,-0.8378017,-0.04153884,16
-6.1588077545166025,-1.0577526092529297,-7.213637351989746,0.26064082980155945,-0.67103547,-0.077579886,16
-6.287045955657959,-0.9783629775047302,-7.28425931930542,0.3185255825519562,-0.47891834,-0.05681047,16
-6.3652100563049325,-0.8817352652549744,-7.5205135345458975,0.403795450925827,-0.31184670000000003,-0.015577064,16
-6.338123321533202,-0.7517961263656616,-7.838551044464111,0.5640507936477661,-0.11056661,0.051618114000000014,16
-6.201768398284912,-0.6196287870407104,-7.948110580444336,0.7856715321540833,-0.31031954,0.043982297,16
-6.1983585357666025,-0.5383149981498718,-7.986459732055664,1.031711220741272,-0.029626964,0.17837265,16
-6.3133788108825675,-0.630655825138092,-7.7494750022888175,1.2448395490646362,0.10995574,0.30543262,16
-6.618089199066162,-0.974342167377472,-7.469637870788574,1.3829891681671145,0.3136793,0.14202617,16
-7.110151767730713,-1.2822575569152832,-7.339116096496582,1.5203293561935425,0.3659083,-0.010995574,16
-7.469744682312013,-1.3961106538772583,-7.248204231262207,1.6761213541030884,0.43890667,-0.076052725,16
-7.550975322723389,-1.5541247129440308,-6.947791576385497,1.7840657234191897,0.6945538,-0.14263703,16
-7.685476303100586,-1.8918079137802124,-6.498384475708008,1.8332431316375728,0.5421429,-0.4456262,16
-7.891774654388428,-2.2330126762390137,-6.294359683990479,1.8675724267959597,0.5497787,-0.57543504,16
-8.003032684326174,-2.6440680027008057,-6.147705078125,1.901356220245361,1.0684034,-0.54336464,16
-7.996238708496094,-3.0549733638763428,-5.832775115966798,1.8895632028579712,1.2644911,-0.46914452,16
-7.782834529876709,-3.44982385635376,-5.420626163482666,1.831493258476257,1.1389582,-0.33383787,16
-7.516737937927246,-3.96673583984375,-4.9754981994628915,1.7395614385604858,1.0244209999999998,-0.33658674,16
-7.311439037322997,-4.677459239959717,-4.537309646606445,1.6001245975494385,0.9663888,-0.4373795,16
-7.180899620056152,-5.4303555488586435,-4.162611007690431,1.407889723777771,0.86345804,-0.52412236,16
-6.962822437286378,-6.038273334503174,-3.845545053482056,1.164339303970337,0.56779927,-0.55833083,16
-6.5003581047058105,-6.4794368743896475,-3.6055266857147217,0.902392327785492,0.30085114,-0.3717115,16
-5.882908821105957,-6.832462787628174,-3.400061845779419,0.6292400956153871,0.087659165,-0.16218472,16
-5.22086238861084,-7.0141844749450675,-3.181466817855835,0.3514533042907715,-0.17012598,0.11148291,16
-4.672313690185547,-7.055013179779053,-3.1728458404541016,0.06994805485010147,-0.3115413,0.38056904,16
-4.181082248687743,-6.952252864837647,-3.313135862350464,-0.1814490109682083,-0.27488935,0.6969972,16
-3.7741696834564213,-6.72191858291626,-3.4694058895111084,-0.4013567268848419,-0.30024028,0.9755518,16
-3.5427863597869877,-6.386432647705077,-3.716639518737793,-0.5956817865371704,-0.33261612,1.2592987,16
-3.5131897926330566,-5.8817524909973145,-4.168504238128662,-0.7474600672721863,-0.24648413,1.5311338,16
-3.564404010772705,-5.261242389678955,-4.698009014129639,-0.8584662079811096,-0.28405234,1.740966,16
-3.749159097671509,-4.566080570220947,-5.26779317855835,-0.9006466865539551,-0.20616703,1.8680259,16
-3.94095778465271,-3.8629865646362314,-5.746774196624756,-0.8770381808280945,0.06566802,2.0525072,16
-4.254735469818115,-3.2053468227386475,-6.080883979797362,-0.823222815990448,0.05009095,2.1859813,16
-4.679636001586914,-2.675764560699463,-6.420483112335205,-0.7771843075752258,0.032070424,2.2262983,16
-5.232898235321045,-2.3094656467437744,-6.736329555511475,-0.7394945621490479,0.063224554,2.1337523,16
-5.856283664703369,-2.1348822116851807,-6.88500452041626,-0.7023356556892395,0.038179077,2.0405953,16
-6.457644462585449,-2.050220012664795,-6.7934088706970215,-0.6672249436378479,0.17470746,1.9578232,16
-7.03324031829834,-1.996251463890076,-6.58719539642334,-0.6616376042366028,0.19242255,1.8173242,16
-7.5475807189941415,-1.987354516983032,-6.50103759765625,-0.6788355112075806,0.13225232,1.4770721000000002,16
-7.913208961486816,-1.943257451057434,-6.527829647064209,-0.6953619122505188,0.19486602,1.1633928999999998,16
-8.299986839294434,-1.8740109205245967,-6.60854434967041,-0.7047805190086365,0.15577064,0.6844745,16
-8.624811172485353,-1.8390203714370728,-6.619980812072754,-0.6915196180343628,-0.19547687,0.16707164,16
-8.630863189697267,-1.7956933975219729,-6.6019606590271,-0.6918842792510986,-0.43799037,-0.23304509,16
-8.299081802368164,-1.6412405967712402,-6.73994779586792,-0.6935793161392212,-0.35277468,-0.625526,16
-7.82280158996582,-1.3248322010040283,-6.939838409423827,-0.6771294474601746,-0.4578435,-0.79779,16
-7.4812164306640625,-0.9890404939651488,-7.063667297363281,-0.651390016078949,-0.552833,-0.72784597,16
-7.341779708862305,-0.6911677718162537,-7.080409049987793,-0.6289536356925964,-0.64660084,-0.45051312,16
-7.254875183105469,-0.5035156011581421,-7.033451557159424,-0.6048128008842468,-0.8045095,-0.22999077,16
-7.1180057525634775,-0.41019752621650696,-6.979080677032472,-0.5658395290374756,-0.7993172,0.04337143,16
-7.012511730194093,-0.318247526884079,-6.896423816680907,-0.5201572775840759,-0.9062186,0.25228736,16
-7.1792707443237305,-0.06542590260505676,-6.488005638122559,-0.4608616530895233,-1.7935003,0.9068295,16
-7.306748867034912,-0.013084248639643192,-6.3224544525146475,-0.3715143799781799,-1.6820174,1.0280862,16
-7.456150531768799,-0.019503753632307053,-6.273296356201173,-0.2981979250907898,-1.627345,1.1023063999999998,16
-7.721463203430176,0.0549483448266983,-6.277804851531982,-0.2111859768629074,-1.7421877,1.0720685,16
-8.090738296508789,0.19127200543880465,-6.24587345123291,-0.11799604445695876,-1.9682078,0.8512407,16
-8.412898063659668,0.4712381660938263,-6.055452346801758,-0.035904359072446816,-2.111761,0.7492262,16
-8.500856399536133,0.5941177010536194,-5.824441432952881,0.023999126628041267,-1.6606371,0.91599244,16
-8.400955200195312,0.7506493926048279,-5.597996711730957,0.09710574150085448,-1.1074986,1.2528846000000002,16
-8.373308181762695,0.914578139781952,-5.416962623596191,0.1877190470695496,-0.75228053,1.35551,16
-8.746663093566895,0.9731284976005554,-5.065435886383057,0.2350589483976364,-0.5839871999999999,0.8509353000000001,16
-9.365065574645996,1.0167790651321411,-4.793320655822754,0.158853679895401,0.039095376,0.36560285,16
-9.55866813659668,1.4476103782653809,-4.188185691833496,0.026828384026885036,-0.058337633,0.31337386,16
-9.603641510009766,1.517974019050598,-3.7965178489685063,-0.05271351709961891,0.5552765000000001,0.51068336,16
-9.761176109313963,1.7454482316970823,-3.63950514793396,-0.12170920521020888,0.57940567,0.38698313,16
-9.970829963684082,2.1717586517333984,-3.4523367881774902,-0.11176485568284987,-0.23457226,0.49510628,16
-10.044224739074707,2.671058654785156,-3.532227039337158,-0.021398141980171204,-0.23396139,0.700357,16
-10.016084671020508,3.0193018913269043,-3.6858305931091313,0.08565754443407059,-0.22143865,0.8940013000000001,16
-9.922552108764648,3.271477460861206,-3.76370906829834,0.1994929760694504,-0.34574974,1.0754282,16
-9.87302017211914,3.435615062713623,-3.823919057846069,0.3171418607234955,-0.28588495,1.1652255,16
-9.883500099182127,3.5528085231781006,-3.831127166748047,0.4255803823471069,-0.38728857,1.2760975,16
-9.873204231262207,3.675830841064453,-3.756113290786743,0.5089138746261597,-0.4456262,1.3848315,16
-9.803875923156738,3.744900941848755,-3.672806978225708,0.5870966911315918,-0.43982297,1.5137241,16
-9.69657039642334,3.7296414375305176,-3.573725700378418,0.6642844676971436,-0.5119051,1.6337591,16
-9.55903148651123,3.6541326045989986,-3.573720693588257,0.7557325959205627,-0.56169057,1.756543,16
-9.372983932495117,3.583332061767578,-3.614781379699707,0.8434067368507385,-0.52564955,1.7785342,16
-9.158601760864258,3.640763282775879,-3.735750675201416,0.917394995689392,-0.38881573,1.8839084,16
-8.917296409606934,3.8139078617095943,-3.824490785598755,0.9807262420654296,-0.32589662,2.0589213,16
-8.625680923461914,3.9822618961334233,-3.870473146438599,1.0393273830413818,-0.4251622000000001,2.16399,16
-8.288530349731445,3.994033098220825,-3.994812488555908,1.1111737489700315,-0.47036624,2.1902573,16
-7.942934036254883,3.862725973129273,-4.094231128692627,1.1902858018875122,-0.41874814,2.1960607000000003,16
-7.688601493835449,3.647552013397217,-4.045766353607179,1.245779037475586,-0.6603453,2.1755965,16
-7.584479808807372,3.349191427230835,-4.052652359008788,1.2616655826568604,-0.42424592,2.1853704,16
-7.566023826599121,3.1024956703186035,-4.145101547241212,1.2654383182525637,-0.17104226,2.1523838,16
-7.60308837890625,2.952500343322754,-4.242753982543944,1.2470626831054688,-0.008857545999999999,2.0595322,16
-7.671656608581543,2.9485902786254883,-4.310023784637451,1.2020739316940308,0.10567969,1.8402315,16
-7.761148929595947,3.0853395462036133,-4.254400730133057,1.0914080142974854,0.12095132,1.4862351,16
-7.755543708801269,3.301256895065308,-4.132917881011963,0.9151397347450256,-0.014966198,1.1224649,16
-7.56992769241333,3.5939142704010014,-4.018623352050781,0.7173706889152527,-0.22968534,0.87872964,16
-7.264567852020264,3.989783525466919,-4.065474510192871,0.5457417964935303,-0.40591997,0.7974846,16
-6.9800477027893075,4.452027797698975,-4.1941752433776855,0.4016420245170593,-0.59864795,0.70646566,16
-6.609314441680907,4.9731407165527335,-4.2605509757995605,0.2678738534450531,-0.62796944,0.88208944,16
-6.288656711578369,5.376623630523682,-4.373861312866212,0.1756567806005478,-0.5540548000000001,1.022283,16
-6.0490455627441415,5.65298318862915,-4.4389920234680185,0.10003143548965454,-0.7089091,1.0564915,16
-5.839874267578125,5.844596862792969,-4.511724472045898,0.029029883444309238,-0.65087694,1.1890492,16
-5.7272138595581055,5.915840148925781,-4.469213962554932,-0.03658757731318474,-0.8579602,1.1319333,16
-5.637481212615968,5.942600727081299,-4.430752754211426,-0.11049429327249527,-0.8906415000000001,1.035722,16
-5.529444217681885,6.0523858070373535,-4.370621204376222,-0.18331791460514069,-0.9080511999999998,0.883922,16
-5.350272178649902,6.265742301940918,-4.237299919128418,-0.2616566121578217,-1.094976,0.8738427,16
-5.130614280700684,6.48137092590332,-4.099163055419922,-0.3484378159046173,-1.1685852,0.8472700999999999,16
-4.9285407066345215,6.639267921447754,-3.937378883361816,-0.44771283864974976,-1.0910053,0.7870999,16
-4.760209560394287,6.796851634979247,-3.66474986076355,-0.5551292300224304,-1.0858129,0.8374963,16
-4.553330421447754,7.018120288848878,-3.36710786819458,-0.6435783505439758,-0.8863655,0.82527894,16
-4.218691349029541,7.212705135345459,-3.1104624271392822,-0.7172240018844604,-0.8933904,0.68508536,16
-3.773054838180542,7.42280387878418,-2.8210394382476807,-0.7820095419883728,-1.1325442,0.53969944,16
-3.387129068374634,7.7383270263671875,-2.4970695972442627,-0.8155155181884766,-1.205848,0.49235737,16
-3.0813708305358887,8.239742279052733,-2.1897726058959956,-0.7781370282173157,-1.1969905,0.5158757,16
-2.6665141582489014,8.809412956237793,-1.9097348451614382,-0.6608532667160034,-1.3267993,0.5589417,16
-2.283025026321411,9.139092445373537,-1.5860242843627932,-0.5363277792930603,-1.6777414000000002,0.5534439,16
-2.1565406322479252,9.294394493103027,-1.2537487745285034,-0.4324087798595429,-1.78617,0.5751295999999999,16
-2.263204574584961,9.351813316345217,-0.9264248609542848,-0.32887157797813416,-1.7742581000000002,0.6160576,16
-2.5121846199035645,9.361291885375977,-0.6295723915100098,-0.22916719317436215,-1.6746869999999998,0.6188064999999999,16
-2.8123233318328857,9.333436012268066,-0.34347283840179443,-0.14873963594436646,-1.4840971,0.5531385,16
-3.107973337173462,9.276684761047363,-0.0578245222568512,-0.09524742513895036,-1.5308284,0.41355577,16
-3.3299987316131587,9.232845306396484,0.1579991728067398,-0.06713038682937622,-1.5296066,0.36743546,16
-3.4064886569976807,9.195733070373537,0.3633599579334259,-0.04912087321281433,-1.4966198,0.44898596,16
-3.3798799514770512,9.173839569091797,0.5938303470611572,-0.04318064823746681,-1.5650368,0.54153204,16
-3.2877559661865234,9.15550136566162,0.7850844860076904,-0.02972549945116043,-1.5613716,0.65301496,16
-3.201790571212769,9.180514335632324,0.961938977241516,-0.015349834226071838,-1.6374242,0.70707655,16
-3.1550817489624023,9.245243072509766,1.0501379966735842,-0.0115275913849473,-1.7522669999999998,0.5732970000000001,16
-3.1284751892089844,9.353562355041504,0.9467294216156006,0.0013819056330248713,-1.8344283,0.3115413,16
-3.120511770248413,9.454599380493164,0.8470889329910278,0.018742231652140614,-1.7974709,0.17623462,16
-3.176969051361084,9.51802921295166,0.8209403157234192,0.05365150794386864,-1.8286251,0.042760565999999986,16
-3.260274648666382,9.534761428833008,0.8479616045951843,0.0841025561094284,-1.9126191000000003,0.03390302,16
-3.323134422302246,9.504584312438963,0.80621337890625,0.10938893258571623,-1.7519615000000002,0.058643065,16
-3.3560385704040527,9.460250854492188,0.7613447904586792,0.1261071413755417,-1.4856243,0.08002335,16
-3.3669393062591557,9.42054557800293,0.7260313034057617,0.13237464427947998,-1.2360858,0.069027774,16
-3.3225386142730717,9.407292366027832,0.7063870429992676,0.14234507083892822,-1.103528,0.06994407,16
-3.1885356903076167,9.418581008911133,0.7030388116836548,0.1527893841266632,-1.1582005,0.08246681,16
-2.9368817806243896,9.45602798461914,0.6840564608573914,0.1558372974395752,-1.1630874,0.11789699,16
-2.7255685329437256,9.450210571289062,0.6991707682609558,0.14899316430091858,-1.2247848999999995,0.113926366,16
-2.581430673599243,9.391965866088867,0.7001807689666748,0.12233736366033555,-1.0467176,0.04337143,16
-2.413646697998047,9.3764009475708,0.6518697738647461,0.093813456594944,-1.0238101000000002,0.09193522,16
-2.223522186279297,9.463530540466307,0.5227294564247131,0.08374171704053879,-1.0497719,0.14110987,16
-2.0898804664611816,9.617327690124512,0.4761856198310852,0.09550584852695464,-1.1585059,0.19211712,16
-2.0333302021026607,9.71719455718994,0.5727452039718628,0.11788101494312285,-1.2281445,0.13469578,16
-1.9464459419250488,9.74243450164795,0.700128436088562,0.12974917888641355,-1.2547172,0.049785517,16
-1.8201593160629272,9.731704711914062,0.8214625120162964,0.15426740050315854,-1.3610078,-0.015271631,16
-1.770056962966919,9.698497772216797,1.0000283718109129,0.20446762442588806,-1.4187346,-0.004886922,16
-1.8619664907455444,9.663640975952148,1.1585172414779663,0.2511066496372223,-1.2660183,0.08827003,16
-2.0803167819976807,9.645071029663086,1.3580188751220703,0.2928312420845032,-1.0210613000000002,0.09407325,16
-2.419936180114746,9.615302085876463,1.6146668195724487,0.2939295470714569,-1.0051788,-0.105374254,16
-2.713808298110962,9.573533058166504,1.6791821718215942,0.2916472852230072,-1.0064004999999998,-0.29626966,16
-2.762937307357788,9.59420394897461,1.5193783044815063,0.3097214698791504,-0.99204516,-0.3930918,16
-2.6845738887786865,9.588465690612793,1.3011032342910769,0.33924782276153564,-1.1609493,-0.52381694,16
-2.4642176628112797,9.533910751342773,1.0431041717529297,0.4093829393386841,-1.3912456,-0.6267477,16
-2.092031717300415,9.451050758361816,0.87593013048172,0.5281611084938049,-1.597718,-0.6737844,16
-1.6342235803604126,9.379312515258787,0.7713319063186646,0.6554620265960693,-1.6939293000000002,-0.7641924,16
-1.1800442934036257,9.42813491821289,0.6213347911834717,0.7680180668830872,-1.7669277,-0.7968736999999999,16
-0.7656651139259338,9.631021499633787,0.44072774052619934,0.8801172375679016,-2.058616,-0.67347896,16
-0.4311783909797669,9.936978340148926,0.3149065375328064,0.9665744304656982,-2.264783,-0.42546764,16
-0.3269789516925812,10.214858055114746,0.21533896028995514,1.00752055644989,-2.108096,-0.28924468,16
-0.4656113684177399,10.400667190551758,0.14381252229213715,1.0021772384643557,-1.6560557,-0.269697,16
-0.630862832069397,10.558055877685547,0.07283063977956772,0.962131917476654,-1.4859296999999998,-0.18020524,16
-0.7123682498931885,10.68883228302002,-0.021815041080117226,0.9209687113761902,-0.9184359,0.13072516,16
-0.7993242144584656,10.628768920898438,0.04532850161194801,0.8534922003746033,-0.94989544,0.30970868,16
-0.8961109519004822,10.32557773590088,0.17435382306575775,0.7509007453918457,-1.0396926,0.38423425,16
-0.9290332198143004,9.905189514160156,0.3788972496986389,0.6393882632255554,-1.1655309,0.49418998,16
-1.044148087501526,9.46002960205078,0.564035952091217,0.5175208449363708,-1.3326025,0.48166725,16
-1.2353419065475464,9.141531944274902,0.5099193453788757,0.3706679940223694,-1.2959507,0.4071417,16
-1.4405592679977417,8.999493598937988,0.3211570680141449,0.2234674096107483,-1.237613,0.45204028,16
-1.6248260736465454,8.93233871459961,0.15211838483810425,0.09793686121702194,-1.3109168,0.45478916,16
-1.8650798797607424,8.893271446228027,-0.016059240326285362,0.02069041132926941,-1.1927143,0.42180246,16
-2.29184627532959,8.97227668762207,-0.1868174374103546,-0.02019922249019146,-0.91507614,0.38698313,16
-2.8829095363616943,9.283934593200684,-0.2553240954875946,-0.037446845322847366,-0.72356987,0.24953845,16
-3.3706462383270264,9.84292697906494,-0.4520797729492188,-0.07293462753295897,-0.73426,0.1160644,16
-3.418442249298096,10.29183578491211,-0.94566810131073,-0.041141729801893234,-0.51159966,0.16829337,16
-3.163912296295166,10.303583145141602,-1.2268335819244385,0.03624554350972176,-0.47861293,0.258396,16
-2.8716063499450684,10.038006782531738,-1.144975662231445,0.1109260693192482,-0.50946164,0.35216382,16
-2.6710574626922607,9.737676620483398,-0.669428288936615,0.10750693827867508,-0.3652974,0.40622538,16
-2.6750876903533936,9.541502952575684,-0.2323588728904724,-0.010920877568423748,-0.024129177,0.26419923,16
-2.7973227500915527,9.50145149230957,-0.18404826521873474,-0.09857240319252014,-0.04795292,0.025961773,16
-2.759265422821045,9.55791187286377,-0.4004718959331513,-0.12044063955545425,-0.054061573,-0.0076358155,16
-2.539201259613037,9.626018524169922,-0.615288496017456,-0.10400103777647017,-0.1020145,0.032070424,16
-2.33296537399292,9.650704383850098,-0.6854224801063538,-0.05990689247846604,-0.25442538,0.035124752999999995,16
-2.2212374210357666,9.629000663757324,-0.5533601641654968,-0.0008091675117611885,-0.27885997,-0.01160644,16
-2.145141363143921,9.58578109741211,-0.3173857033252716,0.03022544644773006,-0.2519819,-0.048258353,16
-2.0922555923461914,9.558502197265623,-0.1272851675748825,0.02989527210593224,-0.172264,-0.038179077,16
-2.0682082176208496,9.588184356689453,-0.05402822047472,0.012142687104642393,-0.10323623,-0.02687807,16
-2.0526814460754395,9.655619621276855,-0.0769711583852768,-0.00694712996482849,-0.04550946,-0.022602014,16
-2.0091724395751958,9.711071014404297,-0.15634189546108246,-0.016870247200131416,-0.0070249503,-0.013744468,1
-1.9095063209533687,9.729778289794922,-0.2411805391311645,-0.0158332958817482,0.03848451,0.015271631,1
-1.8009086847305298,9.717252731323242,-0.2571295201778412,-0.011987658217549324,0.05100725,0.03940081,1
-1.7333837747573853,9.691497802734377,-0.191496342420578,-0.011091151274740696,0.025961773,0.05222898,1
-1.6779683828353882,9.684540748596193,-0.08201318234205246,-0.023305343464016914,-0.03023783,0.043676864,1
-1.586963176727295,9.708735466003418,-0.02811611443758011,-0.03571760281920433,-0.051923547,0.07238753,1
-1.498542308807373,9.752345085144043,-0.01860688254237175,-0.041559625416994095,-0.08735373,0.08002335,1
-1.4738303422927856,9.771448135375977,-0.014511503279209137,-0.04061312600970268,-0.09865474,0.076358154,1
-1.4786089658737185,9.753999710083008,-0.005245967302471399,-0.03677055984735489,-0.04550946,0.079107046,1
-1.4693143367767334,9.7435302734375,0.009246598929166794,-0.03441145271062851,-0.015577064,0.10170906,1
-1.4295098781585691,9.763177871704102,0.03986486792564392,-0.02440870553255081,0.027794369,0.118507855,1
-1.4078798294067385,9.782204627990724,0.11177737265825273,-0.024265602231025696,0.0033597588,0.10293079,1
-1.39823579788208,9.788344383239746,0.18838918209075928,-0.038837481290102005,-0.014049901000000002,0.102319926,1
-1.3816847801208496,9.793608665466307,0.2105490118265152,-0.057151950895786285,-0.02443461,0.110872045,1
-1.3645122051239014,9.796618461608887,0.20608709752559665,-0.06882847100496292,-0.030848695,0.09621128,1
-1.3414831161499023,9.799734115600586,0.18688906729221344,-0.07495253533124924,0.006414085,0.07666359,1
-1.3151777982711792,9.800665855407717,0.16521920263767242,-0.07324851304292679,0.02321288,0.047647487,1
-1.3101989030838013,9.793865203857422,0.1623145043849945,-0.0678943321108818,0.01160644,0.022296581,1
-1.3339935541152954,9.781305313110352,0.15409646928310394,-0.0611969530582428,0.02076942,0.014049901000000002,1
-1.3710405826568604,9.774128913879396,0.164082869887352,-0.05518287420272827,0.021991149,0.012217305,1
-1.3993220329284668,9.770005226135254,0.1989346444606781,-0.05411134287714958,0.02687807,0.031154128,1
-1.4033046960830688,9.783366203308104,0.2291571795940399,-0.058280423283576965,0.06169739,0.06750060599999999,1
-1.3976486921310425,9.797811508178713,0.2284058034420013,-0.06439168006181717,0.12675454,0.10170906,1
-1.387824773788452,9.803147315979004,0.2285178005695343,-0.07176754623651505,0.1863139,0.13958271,1
-1.3697636127471924,9.812529563903807,0.2312438040971756,-0.0789305716753006,0.23701571,0.17867808,1
-1.3315504789352417,9.822951316833496,0.26249897480010986,-0.08300252258777617,0.26419923,0.20799962,1
-1.2515343427658079,9.821216583251953,0.3226708769798279,-0.08612433075904846,0.2519819,0.24220806,1
-1.135780692100525,9.806675910949707,0.3899596631526947,-0.09129206091165544,0.23640485,0.27305678,1
-1.0039167404174805,9.80193042755127,0.4482250213623047,-0.09196218848228456,0.1826487,0.3109304,1
-0.8784207105636597,9.791342735290527,0.5047599077224731,-0.09275239706039427,0.048258353,0.31429017,1
-0.7533888816833496,9.80083465576172,0.5054639577865601,-0.09631653875112534,-0.021685716,0.31581733,1
-0.6465017199516296,9.843738555908203,0.4876809120178223,-0.08989330381155014,-0.0021380284,0.30818152,1
-0.6140460968017578,9.881731033325195,0.518603503704071,-0.08181804418563843,-0.058643065,0.22602014,1
-0.6369975805282593,9.881150245666504,0.557227373123169,-0.07449062168598175,-0.13469578,0.13530666,1
-0.6736955046653748,9.872269630432127,0.5586055517196655,-0.06291099637746811,-0.18142697,0.07147124,1
-0.6992477774620056,9.876057624816896,0.5146248936653137,-0.0495842769742012,-0.15332718,0.04428773,1
-0.7307252287864685,9.880184173583984,0.4485328197479248,-0.035636279731988914,-0.09315695,0.03023783,1
-0.7644551396369934,9.860748291015623,0.43643757700920105,-0.017791679129004482,-0.069027774,0.014966198,1
-0.7860039472579956,9.81148624420166,0.469022810459137,-0.0066583859734237185,-0.07513642,0.015882496,1
-0.7923830151557922,9.754986763000488,0.5156880617141724,-0.0066479076631367215,-0.038789943,0.009468411,1
-0.7794983983039856,9.74033260345459,0.519559383392334,-0.009929001331329346,0.045814894,0.025350908,1
-0.7761142253875732,9.74501132965088,0.4899395108222962,-0.017244299873709682,0.103847094,0.03145956,1
-0.7778684496879578,9.748175621032717,0.4634512960910797,-0.02655262500047684,0.1255328,0.033292156,1
-0.7765635848045349,9.752508163452148,0.4519253671169281,-0.034951407462358475,0.13194689,0.028405234,1
-0.7584049701690674,9.759519577026367,0.4460824429988861,-0.04266584292054176,0.14294247,0.025961773,1
-0.7265918254852295,9.786906242370604,0.4237969815731049,-0.047790005803108215,0.17012598,0.033292156,1
-0.6862277984619141,9.842649459838867,0.4141852259635925,-0.04319850727915764,0.108123146,0.04642576,1
-0.6673789024353027,9.85051727294922,0.4291574954986572,-0.040599141269922256,0.09040806,0.050396383,1
-0.6680275797843933,9.828218460083008,0.4384366571903229,-0.044595886021852486,0.13408493,0.044898596,1
-0.6589160561561584,9.825748443603516,0.4297343492507935,-0.050008434802293784,0.15088372,0.046731193,1
-0.6398120522499084,9.832179069519043,0.4158899784088135,-0.057406004518270486,0.19517145,0.0571159,1
-0.6056984066963196,9.85759162902832,0.39926058053970337,-0.06269999593496323,0.15851954,0.0421497,1
-0.572252094745636,9.877790451049805,0.3900908529758453,-0.06172085553407669,0.09101892,0.02565634,1
-0.5498355031013489,9.88243579864502,0.3968415856361389,-0.056117847561836236,0.04886922,0.017104227,1
-0.5330947637557983,9.876450538635254,0.40632691979408253,-0.05042533949017525,0.044898596,0.016493361,1
-0.5212554335594177,9.87026309967041,0.4123382270336151,-0.04457860440015793,0.032070424,0.02107485,1
-0.5046794414520264,9.866442680358887,0.42387905716896057,-0.04130629822611809,0.023823744,0.025961773,1
-0.5002771019935608,9.871661186218262,0.43399032950401306,-0.04103916138410568,0.026572637000000003,0.03970624,1
-0.5036943554878235,9.873846054077148,0.43212756514549255,-0.042678654193878174,0.027488936,0.039095376,1
-0.5093151330947876,9.868415832519533,0.4336070418357849,-0.04261591285467148,0.01985312,0.03145956,1
-0.5189882516860962,9.86072826385498,0.4381949305534363,-0.04255494102835655,0.02565634,0.032070424,1
-0.5353404283523561,9.856622695922852,0.4411448836326599,-0.043853774666786194,0.023823744,0.018325957,1
-0.5515066385269165,9.854002952575684,0.43179720640182495,-0.04328571259975433,0.025961773,0.015271631,1
-0.554062008857727,9.859049797058104,0.4234816133975983,-0.039566420018672936,0.008857545999999999,0.0076358155,1
-0.5560770034790039,9.86089038848877,0.4198015034198761,-0.03559814020991325,0.0012217305,0.005192355,1
-0.5561004281044006,9.858587265014648,0.4279060363769531,-0.03351802378892898,0.0033597588,0.0033597588,1
-0.5471047759056091,9.852474212646484,0.43153262138366705,-0.03243161365389824,0.0067195175,0.0061086523,1
-0.5362428426742554,9.844941139221193,0.4373050928115845,-0.0322699211537838,0.003970624,0.0076358155,1
-0.5226778984069824,9.843748092651367,0.4364874064922333,-0.03430097922682762,0.013133603,0.015882496,1
-0.5150463581085205,9.85118579864502,0.4354708194732666,-0.036509338766336434,0.003970624,0.0143553335,1
-0.5180383920669556,9.86732292175293,0.4298040866851807,-0.037048600614070885,-0.0027488936,0.019242255,1
-0.5304746627807617,9.878533363342283,0.41686177253723145,-0.0343274362385273,-0.008857545999999999,0.011911872,1
-0.5481048226356506,9.880880355834961,0.4168059229850769,-0.02828067168593407,-0.00030543262000000003,0.018325957,1
-0.567120373249054,9.872617721557617,0.4321014881134033,-0.02275898866355419,-0.008552114,0.005192355,1
-0.578497588634491,9.864375114440918,0.4453697502613068,-0.019504528492689133,-0.01160644,-0.014966198,1
-0.589547336101532,9.835693359375,0.475913941860199,-0.016080286353826526,-0.029626964,-0.02076942,1
-0.5974414944648743,9.81631851196289,0.5167522430419922,-0.01197553239762783,-0.035124752999999995,-0.039095376,1
-0.600485622882843,9.805201530456543,0.5304675102233887,-0.011358226649463177,-0.027794369,-0.032986723,1
-0.6029309630393982,9.799304962158203,0.527023196220398,-0.012232351116836071,-0.013744468,-0.017104227,1
-0.6054138541221619,9.799296379089355,0.5212841033935547,-0.01429714448750019,0.008552114,-0.008552114,1
-0.6117539405822754,9.81169319152832,0.5247043967247009,-0.016458509489893913,-0.007941248,-0.0033597588,1
-0.6137487888336182,9.820629119873047,0.5350325107574463,-0.01758857630193234,-0.017104227,0.011301007,1
-0.602729082107544,9.82824420928955,0.5301024913787842,-0.019091138616204262,-0.0125227375,0.009162978,1
-0.6036404967308044,9.827350616455078,0.5247083902359009,-0.019503088667988774,-0.005497787,0.014049901000000002,1
-0.6182044148445129,9.82414436340332,0.5213369727134705,-0.021236920729279518,0.007941248,0.008857545999999999,1
