acc_x,acc_y,acc_z,gyro_x,gyro_y,gyro_z,label
0.0,0.0,0.0,0.0,-0.07147124,-0.0125227375,1
-0.03722508996725082,0.2844381034374237,0.030163608491420742,-0.002269476884976029,-0.08063421400000001,-0.023518313,1
-0.12429892271757124,0.9636086821556092,0.09913482517004013,-0.0074760690331459045,-0.08735373,-0.03634648,1
-0.2420860230922699,1.9050171375274656,0.18983641266822812,-0.013175870291888714,-0.10170906,-0.03390302,1
-0.37063419818878174,2.961148977279663,0.28553521633148193,-0.018218612298369408,-0.11301007,-0.03970624,1
-0.4944700300693512,4.012927055358887,0.3737896680831909,-0.0228680931031704,-0.13194689,-0.037873644,1
-0.6189387440681458,4.979851722717285,0.4489988386631012,-0.024484846740961075,-0.089491755,-0.03176499,1
-0.7569727301597595,5.8196539878845215,0.5100950002670288,-0.02901150658726692,-0.02107485,-0.029932396,1
-0.9037041664123536,6.524641036987305,0.5570271611213684,-0.04055439680814743,0.081855945,-0.025045475,1
-1.0562204122543335,7.1022911071777335,0.590924084186554,-0.05891941860318184,0.11759156,-0.055283304000000005,1
-1.2124552726745603,7.567107677459718,0.6134693026542664,-0.07603973150253296,-0.01282817,-0.09468412,1
-1.370724081993103,7.935706615447997,0.626494824886322,-0.093011312186718,-0.24037547,-0.15454891,1
-1.5301893949508667,8.224005699157715,0.6316462755203247,-0.10919994860887527,-0.28008172,-0.17898351,1
-1.6903125047683716,8.446233749389647,0.6303650736808777,-0.11794286966323853,0.017104227,-0.16432275,1
-1.8508867025375368,8.614538192749022,0.6238458752632141,-0.1418396681547165,0.31520647,-0.1872302,1
-2.0113890171051025,8.739219665527344,0.613150954246521,-0.18111495673656464,0.44257188,-0.2666427,1
-2.154247045516968,8.837776184082031,0.6239427924156189,-0.1966913640499115,0.47494772,-0.34574974,1
-2.2653956413269043,8.924323081970215,0.6765351891517639,-0.178524911403656,0.19028452,-0.32314770000000004,1
-2.351001262664795,9.00119400024414,0.7627972960472107,-0.13586150109767914,-0.0983493,-0.27000242,1
-2.416057825088501,9.070267677307127,0.8760820627212524,-0.10125191509723663,0.1151481,-0.13683382,1
-2.4645895957946777,9.133068084716797,1.0110799074172974,-0.08307172358036041,0.30482176,-0.004276057,1
-2.4998347759246826,9.19083023071289,1.1635662317276,-0.06899954378604889,0.4034765,0.08460484,1
-2.524407386779785,9.244532585144043,1.330044865608215,-0.06277940422296524,0.7189884,0.12461651,1
-2.5403673648834233,9.295044898986816,1.5082004070281982,-0.08774998039007187,1.1630874,0.14691310000000002,1
-2.5494699478149414,9.342873573303224,1.6950054168701172,-0.13664613664150238,1.2000448,0.15913039999999998,1
-2.5530447959899902,9.38858127593994,1.888976812362671,-0.17054618895053866,0.4297437,0.095294975,1
-2.546419620513916,9.435598373413086,1.9955334663391116,-0.1835763603448868,-0.30634892,0.07238753,1
-2.40559458732605,9.495532035827637,1.8817038536071775,-0.18402808904647827,-0.75411314,0.13164146,1
-2.1181511878967285,9.55434799194336,1.639963984489441,-0.16026495397090912,-0.8872818000000001,0.13713925,1
-1.8232542276382449,9.590818405151367,1.389923095703125,-0.1210685595870018,-0.54550266,0.081855945,1
-1.6067185401916504,9.583316802978516,1.2191730737686155,-0.09553929418325424,-0.013439035,0.0720821,1
-1.4888672828674316,9.53229808807373,1.182456374168396,-0.08568453788757324,0.27275133,0.10873401,1
-1.4923899173736572,9.476061820983887,1.2732300758361816,-0.08275269716978073,0.14477506,0.100792766,1
-1.6463940143585205,9.473458290100098,1.4610434770584106,-0.1110759824514389,-0.56291234,0.0711658,1
-1.859331727027893,9.477826118469238,1.533853530883789,-0.1513637900352478,-1.1490375,0.062002823,1
-1.9996917247772217,9.432968139648438,1.4011907577514648,-0.13827042281627655,-0.84971356,0.04184427,1
-2.062017679214477,9.444403648376463,1.299034595489502,-0.1186797246336937,-0.43768495,0.064446285,1
-2.08382248878479,9.45958137512207,1.318460464477539,-0.10321491956710817,-0.46211955,0.110872045,1
-2.0911922454833984,9.443747520446776,1.376033067703247,-0.0874897837638855,-0.6337727,0.14477506,1
-2.08823037147522,9.423726081848145,1.393319606781006,-0.08960625529289246,-0.6612616,0.20250183,1
-2.0767409801483154,9.413124084472656,1.3749605417251587,-0.10425598174333572,-0.6059783000000001,0.2489276,1
-2.06392240524292,9.394485473632812,1.3412460088729858,-0.12490756064653395,-0.5726861999999999,0.27916542,1
-2.065786600112915,9.383493423461914,1.2857885360717771,-0.14890456199645996,-0.46211955,0.31581733,1
-2.1163110733032227,9.367377281188963,1.2136293649673462,-0.16234269738197327,-0.2125811,0.31978795,2
-2.2284839153289795,9.333978652954102,1.1687661409378052,-0.17194047570228574,-0.0571159,0.23976462,2
-2.359707355499268,9.305990219116213,1.1977051496505735,-0.1926572024822235,-0.09773844,0.17256944,2
-2.492257595062256,9.307689666748047,1.2903776168823242,-0.21694964170455933,-0.20525073,0.12950343,2
-2.6310625076293945,9.3429536819458,1.3950117826461792,-0.23580242693424225,-0.33261612,0.06811147,2
-2.7668476104736333,9.408824920654297,1.4813523292541504,-0.25315433740615845,-0.48930305,-0.035430185,2
-2.887320280075073,9.507513046264648,1.5251975059509275,-0.27241459488868713,-0.6973026999999999,-0.18967366,2
-2.9315433502197266,9.707778930664062,1.465488076210022,-0.2684468328952789,-0.92179567,-0.25961772,2
-2.92438006401062,9.95492172241211,1.3325109481811523,-0.214611291885376,-1.1490375,-0.27366763,2
-2.8641297817230225,10.183098793029783,1.1301076412200928,-0.1226292923092842,-1.3307699,-0.24678956,2
-2.7817213535308842,10.311477661132812,0.8372175097465515,-0.015369739383459091,-1.1863003,-0.24404067,2
-2.7105629444122314,10.334064483642578,0.5009663701057434,0.10908709466457367,-0.77274454,-0.29352075,2
-2.708193778991699,10.26991367340088,0.22092799842357635,0.2504126727581024,-0.408058,-0.42577308,2
-2.8970432281494136,10.096288681030273,0.043395478278398514,0.4135901629924774,-0.19028452,-0.73364913,2
-3.2678349018096924,9.821929931640623,-0.04062790796160698,0.6033270359039307,-0.29382620000000004,-1.3139712,2
-3.7030301094055176,9.466788291931152,-0.1273803412914276,0.8303189873695374,-0.8555168,-1.8515326,2
-4.068787097930908,9.209797859191896,-0.3103020489215851,1.1139024496078491,-0.78038037,-2.0415115000000004,2
-4.184732437133788,9.209412574768066,-0.4332975149154663,1.3039158582687378,0.06780604,-2.2592852000000003,2
-3.93667197227478,9.555838584899902,-0.26530736684799194,1.337746024131775,0.68600166,-2.1560488,2
-3.4769535064697266,10.284842491149902,0.2066381424665451,1.2912677526474,0.51068336,-1.8246545,2
-3.080387115478516,10.951807022094727,0.7491537928581238,1.257646083831787,-0.2510656,-1.6157386,2
-2.9187474250793457,11.241690635681152,1.0524885654449463,1.2419112920761108,-0.59589905,-1.6917913,2
-3.1244325637817383,11.255020141601562,0.8637444972991943,1.2064387798309326,-0.49021935,-1.9285016,2
-3.4605803489685063,11.249350547790527,0.275613397359848,1.1410752534866333,0.81031275,-2.0885482,2
-3.651771545410156,11.323122024536133,-0.11165796220302583,1.040643334388733,2.0540345,-1.8781052,2
-3.6468622684478764,11.426508903503418,0.021543402224779132,0.937673568725586,1.7507398,-1.4618006,2
-3.4774994850158687,11.37860870361328,0.2483565211296081,0.8575462698936462,1.4159856000000002,-1.1655309,2
-3.206864833831787,11.057435989379883,0.2285069227218628,0.7713376879692078,1.743104,-1.028697,2
-2.867880582809448,10.571399688720703,0.22843675315380094,0.6763741374015808,1.4639386,-0.7470882,2
-2.4976189136505127,10.000978469848633,0.29047128558158875,0.5660930275917053,1.0494665,-0.39706242,2
-2.095428466796875,9.410748481750488,0.2795630097389221,0.4355807900428772,0.8341365,0.0030543262,2
-1.6812880039215088,8.83825969696045,0.18413937091827395,0.3080821633338928,0.56077427,0.3576616,2
-1.2494165897369385,8.300251007080076,0.09444306045770644,0.18409229815006256,0.109650314,0.7492262,2
-0.8045862913131714,7.843879699707031,0.05423543602228165,0.05035772919654846,-0.42577308,1.3399329,2
-0.4920490086078644,7.519064426422119,-0.1406436413526535,-0.09555036574602127,-0.3213151,1.8674151,2
-0.6186769604682922,7.384572505950928,-0.6634294390678406,-0.19908010959625244,0.43096542,1.9914207,2
-1.6734410524368286,7.594715595245361,-1.491422176361084,-0.20918923616409305,0.8924741,1.3811663,2
-3.4116547107696533,7.953691482543945,-1.9565893411636357,-0.16447821259498596,0.2302962,0.27916542,2
-5.29487943649292,8.285452842712402,-2.1316473484039307,-0.17338670790195465,-0.9266826,-0.52870387,2
-6.5094566345214835,8.510848999023438,-2.4158644676208496,-0.19980332255363464,-0.4538729,0.18173242,2
-6.9106950759887695,8.698940277099611,-2.472833633422852,-0.2805873453617096,-0.053145275,0.6377433000000001,2
-6.59827995300293,8.982963562011719,-2.1417067050933842,-0.3835670351982117,-0.72692966,0.7305948,2
-5.780893325805664,9.246106147766113,-1.711395263671875,-0.4914449155330658,-0.8200866,0.96486163,2
-4.757745742797852,9.463541030883787,-1.6061438322067259,-0.6395041942596436,0.2171626,1.3836098,2
-4.004889965057373,9.837821006774902,-2.0719258785247803,-0.7132871150970459,1.6181821,1.3451253,2
-3.946080446243286,10.28299045562744,-2.345619440078736,-0.6488481163978577,1.4679091999999998,0.5867361,2
-4.046577453613281,10.353006362915039,-1.909493327140808,-0.6835293769836426,0.17837265,0.31215215,2
-3.801729917526245,10.048866271972656,-1.1642420291900637,-0.8069121837615967,-0.25778514,0.5384777,2
-3.2732865810394287,9.5610990524292,-0.4405646026134491,-0.9046997427940368,-0.66431594,0.88239485,2
-2.6668288707733154,9.02128791809082,0.18588359653949735,-0.9089440703392028,-1.2892311,1.2122620000000002,2
-2.127492666244507,8.645734786987305,0.699769139289856,-0.834564208984375,-1.4440855,1.2617421,2
-1.701380491256714,8.696620941162111,1.0684057474136353,-0.7584556937217712,-0.56107974,1.1087204,2
-1.4196217060089111,9.137539863586426,1.2404347658157349,-0.7328741550445557,0.7849618,0.77518797,2
-1.3122756481170654,9.45188045501709,1.2800321578979492,-0.7507038116455078,2.1041253,0.25076020000000004,2
-1.3133268356323242,9.43929672241211,1.326199650764465,-0.7905812263488771,2.5754080000000004,0.06414085,2
-1.4165905714035034,9.346550941467283,1.4690560102462769,-0.8125349283218384,1.9315559,0.0018325958,2
-1.6668431758880615,9.379499435424805,1.7035143375396729,-0.7529838085174559,-0.6545420999999999,-0.19242255,2
-1.8788882493972776,9.487421035766602,1.713997721672058,-0.6489337682723999,-2.9953778,-0.12889257,2
-1.9449657201766968,9.504328727722168,1.3809484243392944,-0.5508936047554016,-2.5992317000000003,-0.08399397,2
-1.9206843376159668,9.445937156677246,0.9834846258163452,-0.4771457016468048,-1.4978416,-0.17318029999999998,2
-1.819408655166626,9.411705017089844,0.77189040184021,-0.4081937074661255,-0.88270026,-0.1386664,2
-1.6881763935089111,9.424676895141602,0.8426267504692078,-0.33137011528015137,-0.8891144,0.032375857,2
-1.609173059463501,9.413372993469238,1.0748701095581057,-0.2527506351470947,-1.035722,0.2321288,2
-1.634652853012085,9.367764472961426,1.2532049417495728,-0.20803265273571012,-0.5549710999999999,0.37843102,2
-1.7456271648406982,9.331131935119627,1.3299850225448608,-0.2403943091630936,0.18906279,0.4447099,2
-1.9041545391082764,9.323378562927246,1.3648712635040283,-0.3300057351589203,0.3921755,0.44012842,2
-2.081778287887573,9.35820484161377,1.4412472248077393,-0.4521817266941071,-0.88025683,0.38545597,2
-2.25195574760437,9.415692329406738,1.2978997230529783,-0.5419018864631653,-1.971873,0.28405234,2
-2.33756685256958,9.428223609924316,0.8119471669197083,-0.4911302030086517,-1.6542231,0.22968534,2
-2.3534209728240967,9.392577171325684,0.2710552513599396,-0.38757672905921936,-0.5635232,0.2180789,2
-2.3697752952575684,9.358353614807127,-0.03215233236551285,-0.3111530840396881,0.035430185,0.20799962,2
-2.465815544128418,9.324867248535156,-0.07609120011329651,-0.2367205619812012,0.2843578,0.14996742,2
-2.679849624633789,9.285701751708984,0.04593653231859207,-0.15849168598651886,0.73456544,0.056199603,2
-3.018640518188477,9.21526050567627,0.33603936433792114,-0.09140509366989136,1.1621711,-0.029626964,2
-3.386310815811157,9.154656410217283,0.7727311253547668,-0.05124037712812424,1.1297953,-0.04062254,2
-3.75752854347229,9.188729286193848,1.3358758687973022,-0.04177706688642502,0.2415972,-0.017715093,2
-4.038941383361816,9.437813758850098,1.8184590339660645,-0.046154707670211785,-1.1090258,-0.10629055,2
-4.125312805175781,9.765772819519043,1.9933390617370603,-0.05720165744423866,-2.4141395,-0.31734450000000003,2
-3.960909605026245,10.119840621948242,1.6199678182601929,-0.062458496540784836,-3.5146132000000003,-0.31887165,2
-3.6545894145965576,10.388290405273438,0.35138463973999023,0.14077048003673553,-2.368019,-0.24801129,2
-3.6198225021362314,10.26190185546875,-1.019750952720642,0.5316574573516846,0.40378192,-1.0354166,2
-3.8109650611877437,10.00225067138672,-1.655565619468689,0.8593671321868896,1.2596041,-1.4789047,2
-4.045522212982179,9.744362831115724,-1.6300334930419922,1.0981192588806152,1.2168436000000002,-1.8383989,2
-4.145787239074707,9.517107963562012,-1.079737424850464,1.2799341678619385,0.33322698,-2.2699752,2
-4.0284385681152335,9.515596389770508,-0.30216583609580994,1.3666342496871948,-0.36560285,-2.5665503,2
-3.7879114151000977,10.076062202453613,0.3712765574455261,1.3446223735809326,-0.91354895,-2.4239132000000003,2
-3.4556496143341064,11.080055236816406,0.8074403405189514,1.2971277236938477,-1.4517213,-1.920255,2
-3.2613914012908936,11.71514129638672,0.7103639841079712,1.2324475049972534,-0.56230146,-1.5613716,2
-3.3731014728546143,11.767376899719238,0.1821203976869583,1.1224640607833862,1.2840388,-1.7357736,2
-3.67162036895752,11.546566009521484,-0.06089376285672188,0.9837191700935364,2.0677788,-1.670411,2
-4.0748071670532235,11.166561126708984,0.08158384263515472,0.7740417122840881,1.8399261,-1.6245961000000002,2
-4.371603012084962,10.745903968811037,0.2696092128753662,0.5465126633644104,1.4718798,-1.5121969,2
-4.362309455871582,10.441069602966307,0.2154076993465424,0.3818967938423157,1.7357736,-1.1756102,2
-4.065927982330321,10.201529502868652,0.05826156213879585,0.2637688517570496,2.4190264,-0.9233228,2
-3.590906143188477,9.931687355041504,0.04442009329795837,0.14926253259181976,2.751337,-0.6411031,2
-3.02803897857666,9.58232593536377,0.2319400012493133,0.033694252371788025,2.48164,-0.3820962,2
-2.4730472564697266,9.14807415008545,0.4207167625427246,-0.0845668762922287,2.1077905,-0.2049453,2
-1.9320881366729736,8.63768196105957,0.5275371670722961,-0.2151848673820496,1.5299120000000002,0.0070249503,2
-1.3710764646530151,8.104957580566406,0.533180296421051,-0.3379300236701965,0.8136725,0.31429017,2
-0.7760279178619385,7.657104969024657,0.4913454055786133,-0.4442865550518036,0.032070424,0.782213,2
-0.26867708563804626,7.47668981552124,0.12268934398889543,-0.5550760626792908,-0.3643811,1.303281,2
-0.14042899012565613,7.702901840209961,-0.6613635420799255,-0.6261557340621948,-0.093462385,1.7183639,2
-0.6995217800140381,8.234588623046875,-1.6510391235351562,-0.5853468179702759,0.5326744999999999,1.7666223,2
-2.0147974491119385,8.793829917907715,-2.390071392059326,-0.4343269169330597,0.42149702,0.8179486,2
-3.5828337669372563,9.20283317565918,-2.65947699546814,-0.3239569067955017,-1.4737124,-0.08674286,2
-4.92340898513794,9.290302276611328,-2.8358912467956543,-0.2700771689414978,-2.298075,0.052839845,2
-5.918932914733888,9.115819931030273,-3.0588393211364746,-0.28598278760910034,-1.1270463,0.27488935,2
-6.419375419616699,9.154951095581056,-2.827332735061645,-0.3362656831741333,-0.9126327,0.32528573,2
-6.3753910064697275,9.392256736755373,-2.2636148929595947,-0.3919601440429688,-1.0815369,0.56413406,2
-5.947737216949463,9.641376495361328,-1.7981811761856081,-0.5096161961555481,-0.0711658,0.9211848,2
-5.417891979217528,9.970718383789062,-1.8011205196380615,-0.6725252270698547,1.2883148000000002,1.2092078000000002,2
-5.287103652954102,10.330574989318848,-2.314106702804565,-0.7062007784843445,2.2644775000000004,0.7846564,2
-5.337235927581787,10.464393615722656,-2.3968825340271,-0.7023838758468628,1.9517145,0.43401974,2
-4.938082218170166,10.235485076904297,-1.6403725147247314,-0.8059011697769165,0.5876524000000001,0.49968776,2
-3.960814237594605,9.709404945373537,-0.5496020913124084,-0.9146568179130554,-0.42943826,0.96791595,2
-2.89703631401062,9.114198684692383,0.43006008863449097,-0.9504119157791138,-1.640784,1.5546521,2
-1.9474318027496336,8.677445411682129,1.2132916450500488,-0.9344272017478944,-2.728735,1.9581286,2
-1.1205403804779053,8.675397872924805,1.661301851272583,-0.9009412527084352,-2.475226,2.0711386000000003,2
-0.5058503150939941,9.04456901550293,1.7095791101455688,-0.8730463981628418,-0.91965765,1.5622878,2
-0.1662980616092682,9.391395568847656,1.5373963117599487,-0.8285537958145142,1.1081096,0.42180246,2
-0.06985608488321304,9.499563217163086,1.3654996156692505,-0.8035163879394531,2.4627032000000004,-0.098043874,2
-0.14998984336853027,9.477232933044434,1.3258110284805298,-0.8196668028831482,2.9798007,-0.15699236,2
-0.4383098781108856,9.450267791748047,1.4570543766021729,-0.8397819995880127,1.4929546,-0.27366763,2
-0.9804831743240356,9.446792602539062,1.7935949563980105,-0.7347692847251892,-3.1077769,-0.5516113,2
-1.432819962501526,9.518499374389648,1.8552291393280032,-0.5697900056838989,-3.921144,-0.13744467,2
-1.7013949155807495,9.61556625366211,1.5843170881271362,-0.4391602277755737,-2.7757716,0.18906279,2
-1.8722927570343015,9.611673355102539,1.2554159164428709,-0.3476662337779999,-1.239751,0.20799962,2
-1.9491509199142456,9.482215881347656,1.1811569929122925,-0.27898237109184265,-0.42394048,0.19639318,2
-2.0148870944976807,9.359000205993652,1.331702709197998,-0.21577493846416476,-0.34880406,0.30879238,2
-2.1513259410858154,9.286989212036133,1.5199458599090576,-0.1946498602628708,-0.31673363,0.37843102,2
-2.353711605072021,9.231578826904297,1.646912932395935,-0.2556298077106476,-0.42852196,0.34391713,2
-2.528696060180664,9.179902076721193,1.6761093139648438,-0.4141896367073059,-1.3521502,0.267559,2
-2.5399961471557617,9.21146011352539,1.4255404472351074,-0.5596588253974915,-2.3884830000000004,0.27550024,2
-2.4336507320404053,9.297151565551758,0.8095971941947937,-0.5377646684646606,-2.0583105,0.36102137,2
-2.361841917037964,9.331037521362305,0.11146412044763564,-0.4427241384983063,-0.5103779,0.34116822,2
-2.4055159091949463,9.340021133422852,-0.3159506916999817,-0.3813385963439941,0.54336464,0.41599923,2
-2.5632224082946777,9.312519073486328,-0.4049248099327088,-0.3182694613933563,1.3353515,0.3640757,2
-2.836312055587769,9.236063003540039,-0.2376507520675659,-0.2317212373018265,1.983174,0.19547687,2
-3.224219799041748,9.15074348449707,0.2511137723922729,-0.14787091314792633,1.8985692,0.09712757,2
-3.742675065994263,9.212763786315918,1.1830517053604126,-0.11070697754621506,0.5305365,0.073303826,2
-4.336517810821533,9.573780059814453,2.2314748764038086,-0.13088321685791016,-0.88239485,-0.07880162,2
-4.725409507751465,9.983199119567873,2.8139331340789795,-0.18220040202140808,-1.8234328,-0.35918877,2
-4.6852755546569815,10.289953231811523,2.9720973968505864,-0.2914913594722748,-4.375933,-0.61453044,2
-4.1150383949279785,10.721561431884766,1.2885931730270386,-0.15945374965667725,-3.1471777000000003,-0.09865474,2
-3.762471914291382,10.739879608154297,-0.4869557619094849,0.29508715867996216,0.80909103,-0.97341377,2
-3.779582977294922,10.474842071533203,-1.0686837434768677,0.6155199408531189,1.5491543,-1.3796391,2
-3.9541988372802734,10.024236679077148,-0.9709381461143494,0.8854665756225586,1.0708468,-1.7962493000000002,2
-4.1026668548583975,9.511505126953123,-0.4592434465885162,1.1576101779937744,0.45204028,-2.2153027,2
-4.12237548828125,9.444194793701172,0.16642104089260099,1.3132383823394775,-0.5546656,-2.8753426,2
-3.829460620880127,10.162934303283693,0.5129114985466003,1.3358001708984375,-0.8546004999999999,-2.687807,2
-3.1619138717651367,11.483813285827635,0.5831304788589478,1.3467282056808472,-1.105666,-1.7925841,2
-2.3495662212371826,12.663670539855955,0.2811828851699829,1.379996657371521,-0.30573806,-1.0983357,2
-1.8043535947799685,12.867173194885256,-0.2591472864151001,1.3671751022338867,1.1887437,-1.5241088,2
-1.6568256616592407,12.473365783691404,-0.4044676423072815,1.277438044548035,1.2788464,-1.6233743,2
-1.920582890510559,11.887413024902346,-0.10800936073064804,1.1280076503753662,0.6783658,-1.6258179,2
-2.4906439781188965,11.193042755126953,0.22706662118434906,0.9610061049461364,0.36041048,-1.7217237,2
-2.879144191741944,10.693474769592283,0.06797384470701218,0.8315335512161255,1.1414018,-1.3127494,2
-2.8814446926116943,10.314990997314453,-0.195424422621727,0.7295217514038086,2.1975877,-1.0170907,2
-2.63528823852539,9.900235176086426,-0.19062435626983645,0.6051552891731262,2.5659394,-0.71868294,2
-2.2892742156982417,9.4345703125,0.009069644846022127,0.4585510194301605,2.454762,-0.4147775,2
-1.8981287479400637,8.937092781066895,0.2581746280193329,0.3063504695892334,2.1386392000000005,-0.040927973,2
-1.4695607423782349,8.397454261779785,0.4600861072540283,0.1602393090724945,1.7052304,0.267559,2
-0.956695318222046,7.8327574729919425,0.6045916080474854,0.030530933290719982,0.9798279,0.5699373000000001,2
-0.3635863363742829,7.327054500579834,0.7112897038459778,-0.10004276782274246,0.14813483,0.9972375,2
0.1552777737379074,7.033925533294678,0.5756840109825134,-0.25875696539878845,-0.13500121,1.4257594,2
0.29099389910697937,7.081525802612305,-0.20426060259342196,-0.39293986558914185,0.605062,1.6062702,2
-0.4596934914588928,7.501301288604736,-1.4740867614746094,-0.4107525944709778,0.92149025,0.86162543,2
-2.38724422454834,8.269092559814451,-2.3785719871521,-0.3916223347187042,-0.23945917,-0.8613200000000001,2
-4.475257396697998,9.09896755218506,-3.044581413269043,-0.3266514539718628,-1.0659598,-0.6585127,2
-5.839188098907472,9.569774627685547,-3.7756748199462886,-0.2155725210905075,0.3827071,0.36193767,2
-6.265510082244872,9.558924674987793,-3.666614055633545,-0.2562167048454285,0.2864958,0.6646214,2
-5.707835674285889,9.694973945617676,-2.886428117752075,-0.3849098384380341,-0.64965516,0.8518515999999999,2
-4.799590587615967,10.009931564331056,-2.004956722259521,-0.5591989159584045,-0.70738196,1.0946705,2
-3.782238483428955,10.54797649383545,-1.585216999053955,-0.7410218715667725,-0.0012217305,1.7211128,2
-3.1739935874938965,11.189499855041504,-2.1601209640502934,-0.7578624486923218,1.5711454,1.3625348999999998,2
-3.157109022140503,11.277318000793455,-2.501265525817871,-0.6569576263427734,1.4850134,0.46944994,2
-3.049999237060547,10.863524436950684,-1.88814115524292,-0.7072426676750183,-0.50885075,0.410196,2
-2.614441394805908,10.18717098236084,-0.948359489440918,-0.8711800575256348,-1.2724323,0.8396343000000001,2
-2.0556914806365967,9.402261734008787,-0.0984010249376297,-1.0028038024902344,-1.5131133,1.2663236999999998,2
-1.5822759866714478,8.634790420532228,0.6059246063232422,-1.046502947807312,-1.2266175,1.2574661,2
-1.2282471656799316,8.332964897155763,1.2530157566070557,-1.0113019943237305,-0.21624629,0.96669424,2
-1.0454351902008057,8.728121757507324,1.8342276811599727,-0.9469573497772216,1.185384,0.62888575,2
-1.127174973487854,9.24946403503418,2.0461230278015137,-0.9317429065704346,2.8435776,0.24495697,2
-1.3576208353042605,9.344630241394043,2.0579116344451904,-0.9978910088539124,3.2947017999999995,0.0012217305,2
-1.7585636377334597,9.373128890991213,2.0610523223876958,-1.0830044746398926,-1.5393803999999998,-0.26847526,2
-2.00457501411438,9.494524955749512,1.6155747175216677,-1.0439413785934448,-4.632496400000001,-0.08032878,2
-2.0227081775665283,9.522156715393066,0.7313112616539001,-0.907539129257202,-2.7837129000000003,0.0018325958,2
-1.9124164581298828,9.50071907043457,0.06090419739484788,-0.7962042689323425,-0.31826079999999995,-0.11942416,2
-1.7179812192916868,9.5092191696167,-0.08917448669672012,-0.6920618414878845,0.43585235,-0.12461651,2
-1.4698139429092407,9.51948070526123,0.2619525194168091,-0.5731204152107239,-0.28344148,-0.021685716,2
-1.2288812398910522,9.47571086883545,0.9611076116561891,-0.442582905292511,-1.9547688,0.0711658,2
-1.098692774772644,9.391932487487793,1.4988423585891724,-0.3574509918689728,-2.34389,0.31429017,2
-1.1092411279678345,9.28657054901123,1.562227487564087,-0.3631845712661743,-0.700357,0.5326744999999999,2
-1.2566744089126587,9.20419692993164,1.3770790100097656,-0.4163513481616974,0.8762861999999999,0.5684100999999999,2
-1.4732491970062256,9.187348365783693,1.269512414932251,-0.4683623909950256,1.3921618,0.5137377000000001,2
-1.7401502132415771,9.259500503540039,1.5110595226287842,-0.556235134601593,-1.0867293,0.5311473000000001,2
-2.1152234077453613,9.232484817504883,1.5876142978668213,-0.6647634506225586,-3.2305608,0.31490102,2
-2.4599146842956543,9.14831829071045,1.1265424489974976,-0.5965251326560974,-2.0912971,0.21502456,2
-2.697786808013916,9.194000244140623,0.5039073824882507,-0.4848660826683045,0.06963864,0.34483343,2
-2.8856928348541264,9.247447967529297,0.11521273106336595,-0.4113265872001648,1.707063,0.44868052,2
-3.227324247360229,9.28646183013916,0.1509348452091217,-0.32911747694015503,2.3588562,0.23335053,2
-3.629786729812622,9.525517463684082,0.5493752360343933,-0.19714605808258054,1.7030922999999998,0.052839845,2
-3.940345048904419,9.881627082824707,1.2271525859832764,-0.06275422126054764,-0.59956425,0.105068825,2
-4.107667922973634,10.141417503356934,1.6545063257217407,-0.0016864259960129855,-1.6490307,-0.060170225999999986,2
-4.0963497161865225,10.284021377563477,1.4982850551605225,0.03194668516516685,-2.9098566000000003,-0.4279111,2
-3.97287917137146,10.400591850280762,0.495241641998291,0.27990370988845825,-3.7152824,-0.77579886,2
-3.908353567123413,10.414337158203123,-0.9432021975517272,0.8383877277374268,-1.1957687,-1.4199562,2
-3.900890350341797,10.330692291259766,-1.8727089166641235,1.2149131298065186,1.4944818000000002,-1.6792686,2
-3.999752759933472,10.251348495483398,-1.9637367725372317,1.3836383819580078,2.7751608,-2.1771238,2
-4.04591703414917,10.46485710144043,-1.0833319425582886,1.484445333480835,2.0314324,-2.2962425,2
-3.8950507640838623,11.049315452575684,0.3538340032100677,1.5793524980545044,-0.007941248,-1.9034561,2
-3.58899998664856,11.79619026184082,1.6095825433731081,1.6032764911651611,-1.3206906,-1.5186110000000002,2
-3.291219472885132,12.28205680847168,2.1014699935913086,1.4874390363693235,-2.233018,-1.4471397,2
-3.294504404067993,12.012100219726562,0.9603928327560424,1.3293402194976809,-1.328021,-1.767844,2
-3.3928730487823486,11.54305934906006,-0.3189859986305237,1.2141798734664917,2.405282,-1.7715092,2
-3.5529937744140625,11.101278305053713,-0.5453548431396484,1.0365581512451172,3.0888400000000003,-1.4227052,2
-3.7839956283569336,10.637921333312988,-0.03419308364391327,0.8375400304794312,1.9339994,-1.3319917,2
-3.9198894500732417,10.210078239440918,0.40589970350265503,0.6538811922073364,1.6737707999999998,-1.2388347,2
-3.8129162788391113,9.927565574645996,0.4970937967300415,0.4892435371875763,2.3924537,-1.1181888999999998,2
-3.5315463542938232,9.708545684814453,0.5418679714202881,0.3214743137359619,3.1963525,-0.9801333,2
-3.143266439437866,9.478403091430664,0.7904767990112305,0.16701839864253998,3.0207286,-0.64965516,2
-2.715655565261841,9.148844718933104,1.0580655336380005,0.04928899183869362,2.5192082,-0.3912592,2
-2.2764523029327397,8.721260070800781,1.0768712759017944,-0.04663301631808281,2.1383338,-0.2932153,2
-1.7987642288208008,8.322399139404299,0.9732697606086732,-0.14587564766407013,1.5748106000000002,-0.20738874,2
-1.2701438665390017,8.01762580871582,0.9428298473358154,-0.26433688402175903,0.5681046999999999,-0.048258353,2
-0.7660925984382629,7.818037509918213,0.8031812310218811,-0.3993681073188782,0.40378192,0.312763,2
-0.4953754246234894,7.809566974639893,0.2349286526441574,-0.5226340889930725,0.46914452,0.68752885,2
-0.5772717595100403,7.961956977844237,-0.7160368561744691,-0.556857168674469,0.45265114,0.88300574,2
-1.1987076997756958,8.277034759521483,-1.8988358974456787,-0.4679295122623444,0.49480084,0.7519751,2
-2.5504350662231445,8.550274848937987,-3.030635356903076,-0.35147911310195923,0.70005155,0.09682214,2
-4.2564735412597665,8.546426773071289,-3.933736324310303,-0.3258810639381409,0.8390234000000001,-0.25289822,2
-5.486062049865723,8.378049850463867,-4.360445499420166,-0.3328714668750763,0.79412484,-0.17592919,2
-5.937223434448242,8.368918418884277,-4.106678009033203,-0.3603454530239105,0.27122417,-0.37934732,2
-5.817680358886719,8.684383392333983,-3.4122872352600098,-0.4152210652828217,-0.675617,-0.41355577,2
-5.408425807952881,9.256632804870604,-2.9829812049865723,-0.4722414314746857,-0.6072,-0.37232238,2
-4.948597431182861,9.942904472351074,-3.088654041290283,-0.5105072259902954,-0.6783658,-0.13439035,2
-4.848874092102051,10.715706825256348,-3.752599954605103,-0.5316063165664673,0.26206118,0.035124752999999995,2
-5.365796089172363,11.183961868286133,-4.379953384399413,-0.411523699760437,1.1175779,-0.1600467,2
-5.512464046478272,10.938541412353516,-3.8579397201538086,-0.2797339856624603,0.9789116,0.514654,2
-4.8910555839538565,10.237215042114258,-2.482863187789917,-0.3330852687358856,0.30176744,1.0968086,2
-3.865034580230713,9.509510040283203,-0.8369327187538147,-0.5510060787200928,-0.016493361,1.6578883000000002,2
-2.8219194412231445,8.90066909790039,0.8705316185951233,-0.8829990029335022,-1.2370021,1.9453003,2
-2.058032989501953,8.53287410736084,1.82745373249054,-1.2072919607162476,-1.5222762,1.7024814,2
-1.641423583030701,8.812738418579102,1.6753065586090088,-1.415987253189087,-0.30543262,1.600467,2
-1.8394441604614256,9.451909065246582,0.7402447462081909,-1.3329122066497805,1.9443841,1.0146471,2
-2.203425407409668,9.846385955810547,0.2458564639091492,-1.0801429748535156,2.7916540000000003,0.42302418,2
-2.314415454864502,9.78245449066162,0.3707815706729889,-0.972672700881958,1.676825,0.3222314000000001,2
-2.2027029991149902,9.467642784118652,0.7859993577003479,-0.9892088770866394,0.37873647,0.2666427,2
-2.0601024627685547,9.19882583618164,1.16686749458313,-1.0329365730285645,-0.5164866,0.11026118,2
-1.9481395483016968,9.184687614440918,1.4349967241287231,-1.055480718612671,-1.2721269,0.027488936,2
-1.8420548439025881,9.369564056396484,1.4916887283325195,-1.05012309551239,-1.8625281,0.1151481,2
-1.6909607648849487,9.526780128479004,1.2420110702514648,-1.0020118951797483,-1.7403551,0.28802297,2
-1.56749427318573,9.54362964630127,0.8535227179527283,-0.8919637203216553,-1.1746938,0.43463063,2
-1.5885978937149048,9.463809967041016,0.5791335105895996,-0.7511699199676514,-0.2574797,0.46975538,2
-1.7552601099014282,9.374469757080078,0.4996036589145661,-0.634709894657135,0.7476991,0.42180246,2
-1.9964622259140012,9.296266555786133,0.6001630425453186,-0.58650141954422,1.5354098,0.46028697,2
-2.292470693588257,9.241713523864746,0.8433721661567688,-0.6248846650123596,1.5711454,0.46700647,2
-2.6475934982299805,9.217164993286133,1.167548894882202,-0.7542442679405212,0.8069529999999999,0.40958515,2
-2.960728645324707,9.236041069030762,1.43818199634552,-0.9145195484161376,-0.46670106,0.33750305,2
-3.0381853580474854,9.289819717407227,1.5083327293395996,-1.0091540813446045,-1.4141531,0.35888332,2
-2.7477540969848637,9.356022834777832,1.2521708011627195,-1.0174887180328371,-2.0525072,0.43768495,2
-2.253336906433105,9.43225383758545,0.6446601152420044,-0.9525394439697266,-2.1749856,0.7290677,2
-1.8529670238494875,9.49623203277588,-0.00429352605715394,-0.7995726466178894,-1.2052372,0.73426,2
-1.7574459314346311,9.588837623596193,-0.2773557007312775,-0.6577158570289612,0.12064589,0.29077184,2
-1.9128425121307373,9.73699188232422,-0.2319277375936508,-0.5554588437080383,1.2455542,0.1282817,2
-2.261250734329224,9.844884872436523,0.06275444477796555,-0.4514197409152985,1.8206838,0.15027285,2
-2.740776538848877,9.85599422454834,0.6091100573539734,-0.3334169685840607,1.5293012,0.15943582,2
-3.254445791244507,9.855735778808594,1.3225992918014526,-0.22110246121883392,0.30909783,0.093462385,2
-3.6736323833465576,9.914837837219238,1.8777917623519895,-0.1273845136165619,-2.577546,-0.22113322,2
-3.985947370529175,10.027975082397461,1.7359012365341189,0.016409687697887417,-3.90068,-0.75228053,2
-4.261204719543457,10.20121955871582,0.9134617447853088,0.3533709943294525,-3.375336,-1.2330315,2
-4.486103534698486,10.366734504699707,-0.2269102931022644,0.8603897690773009,-1.7623463,-1.459968,2
-4.635315418243408,10.285684585571287,-1.179560661315918,1.2297587394714355,0.5128214,-1.6584991000000002,2
-4.685064792633057,10.025760650634766,-1.5884122848510742,1.381677508354187,1.9865338,-2.1734586,2
-4.631542205810547,10.00347900390625,-1.267836093902588,1.43218994140625,1.9281962,-2.3487768,2
-4.4733004570007315,10.51336669921875,-0.22587019205093384,1.4804812669754028,0.2443461,-2.0372355,2
-4.157063007354736,11.392586708068848,0.9809978008270264,1.5247455835342407,-1.1316278999999998,-1.5195273,2
-3.727217197418213,12.11269760131836,1.4969810247421265,1.4729875326156616,-2.1490240000000003,-1.3151928,2
-3.429215908050537,12.019433975219727,0.4114494025707245,1.3448092937469482,-0.7678576,-1.6630806,2
-3.3001387119293213,11.601221084594727,-0.5909287929534912,1.230557203292847,2.3469443,-1.6694947,2
-3.3196113109588623,11.144194602966307,-0.5863007307052612,1.053762912750244,2.543643,-1.2528846000000002,2
-3.529040813446045,10.594359397888184,0.010581748560070992,0.8637568950653076,1.486846,-1.2519683,2
-3.767737627029419,10.066598892211914,0.4822310507297516,0.6961228847503662,0.91415983,-1.3762794,2
-3.7379338741302486,9.81075382232666,0.5479918122291565,0.5609429478645325,1.5534303,-1.1557571000000002,2
-3.477506399154663,9.690671920776367,0.4342630207538605,0.4315432906150818,2.6413813,-0.9126327,2
-3.097383737564087,9.506165504455566,0.47044438123703,0.3068264424800873,2.8212812,-0.6267477,2
-2.6680831909179688,9.148504257202148,0.6234105825424194,0.2016562968492508,2.4468207000000004,-0.4034765,2
-2.2224907875061035,8.641094207763674,0.7095117568969727,0.0981537327170372,1.8741345,-0.23335053,2
-1.7353034019470217,8.133394241333008,0.7465687394142151,-0.015801435336470604,1.1001683,-0.054061573,2
-1.1816221475601196,7.730024814605713,0.7764906287193298,-0.1365722268819809,0.35827246,0.23090707,2
-0.649441659450531,7.490603923797607,0.6576071977615356,-0.278976708650589,0.29840767,0.7828238000000001,2
-0.3125640153884888,7.465397834777832,0.28354063630104065,-0.4351728856563568,0.39400807,1.1691961000000002,2
-0.4215527772903441,7.645267009735107,-0.4956530928611755,-0.5357660055160522,0.63407815,1.280679,2
-1.28635835647583,8.049317359924316,-1.7859920263290403,-0.488797128200531,0.8008443000000001,0.61758476,2
-3.305466413497925,8.520289421081543,-2.9382359981536865,-0.3703137934207916,1.3946054,-0.40011674,2
-5.211072444915772,8.731728553771973,-3.3857710361480717,-0.3620216548442841,0.7870999,-0.13805555,2
-6.04440450668335,8.657408714294434,-3.464783191680908,-0.3341091275215149,0.7483099,-0.11148291,2
-6.029797077178955,8.468311309814451,-3.0492701530456543,-0.3395512402057648,0.2846632,-0.34330627,2
-5.5691237449646,8.394983291625978,-2.381979465484619,-0.3858541250228882,-0.43004912,-0.43585235,2
-4.830825805664063,8.960389137268066,-1.769789457321167,-0.4879246950149536,-0.47983465,0.36957347,2
-4.072081565856934,9.75041675567627,-1.5546330213546753,-0.6503310799598694,0.119729586,1.1533136,2
-3.85332989692688,10.441843032836914,-2.1706655025482178,-0.77884840965271,0.97433007,1.0384709,2
-4.538104057312012,10.596055030822754,-2.86475157737732,-0.7476855516433716,1.4660766,-0.06688975,2
-5.028054237365723,10.309592247009276,-2.593084812164306,-0.7409306168556213,1.0369438,-0.01160644,2
-4.81654167175293,9.963757514953613,-1.6197315454483032,-0.7917683124542236,0.22999077,0.5513059,2
-4.045102119445802,9.726332664489746,-0.5551193952560425,-0.8410638570785522,-0.19242255,1.3151928,2
-3.0882134437561035,9.468950271606444,0.34140098094940186,-0.8469169735908508,-0.5696318,1.8839084,2
-2.268458604812622,9.055709838867188,1.0517581701278689,-0.8648830652236938,-0.24648413,1.8383989,2
-1.6105695962905884,8.675365447998049,1.5899839401245115,-0.9529713988304138,0.97310835,1.3338243,2
-1.1297204494476318,8.673711776733397,1.9640959501266482,-1.0214037895202637,1.9727893,0.8555168,2
-1.0907784700393677,9.063612937927246,1.932910680770874,-1.015934705734253,3.032335,0.6545420999999999,2
-1.4798530340194702,9.348329544067383,1.5739967823028564,-1.017177939414978,1.4150693,0.3817908,2
-1.7745008468627932,9.335909843444824,0.989105463027954,-0.973824679851532,-0.78893244,0.43860126,2
-1.8569180965423584,9.109801292419434,0.5089055299758911,-0.9276936054229736,-0.18142697,0.19028452,2
-1.7439011335372925,9.097712516784668,0.5355861783027649,-0.9072702527046204,-0.0033597588,0.020158553,2
-1.4997402429580688,9.320484161376953,0.9472529292106628,-0.8639828562736511,-0.9691377,0.24312437,2
-1.2802608013153076,9.440546035766602,1.253992199897766,-0.8112932443618774,-1.4813483,0.37018433,2
-1.174588322639465,9.427297592163086,1.1962811946868896,-0.7727800607681274,-0.977079,0.52595496,2
-1.282215237617493,9.400195121765137,0.9646887779235841,-0.7263000011444092,0.269697,0.5516113,2
-1.5542060136795044,9.332423210144043,0.8671679496765137,-0.6915755867958069,1.0467176,0.48075095,2
-1.8799453973770144,9.223687171936037,0.9938125610351562,-0.7113748788833618,0.8744536,0.4990769000000001,2
-2.212148427963257,9.128246307373047,1.201329231262207,-0.8110964298248291,0.31337386,0.5626069,2
-2.483195781707764,9.085329055786133,1.303327202796936,-0.9477421641349792,-0.105374254,0.5824600000000001,2
-2.59455943107605,9.127321243286133,1.2335312366485596,-1.023200750350952,-0.6545420999999999,0.5833763000000001,2
-2.491629838943481,9.266131401062012,0.9124228358268738,-0.983651041984558,-1.0482447,0.62980205,2
-2.302952527999878,9.402928352355957,0.3556464612483978,-0.8626737594604492,-0.72204274,0.48899764,2
-2.2054271697998047,9.58177661895752,-0.08336751908063889,-0.7594790458679199,-0.22937989,0.42149702,2
-2.171836376190185,9.839874267578123,-0.22945258021354675,-0.6722683906555176,-0.14019357,0.5036584,2
-2.34424901008606,9.999249458312988,-0.150967538356781,-0.5333610773086548,0.15271631,0.48258355,2
-2.7321701049804688,10.096035957336426,0.02376340515911579,-0.3537556231021881,0.9779953,0.2321288,2
-3.300659656524658,10.214152336120604,0.3681371212005615,-0.18696127831935885,1.4541647,-0.019242255,2
-3.990280866622925,10.34178638458252,0.9234186410903932,-0.07116889208555223,-0.13988814,-0.18112154,2
-4.704428672790527,10.28668212890625,1.1008310317993164,-0.0021470263600349426,-1.3863586,-0.5296202,2
-5.290115833282472,10.089181900024414,0.663250744342804,0.18633343279361725,-1.4132367,-1.1612549,2
-5.5439558029174805,10.051995277404783,-0.188738226890564,0.5831868052482605,-0.44165558,-1.5436565,2
-5.438226222991943,10.026606559753418,-0.7871763110160828,0.9697561860084534,0.8145888000000001,-1.9370537,2
-5.03988790512085,10.0443115234375,-0.7153783440589905,1.1137051582336426,1.5406022,-2.0790799,2
-4.523749828338623,10.351115226745604,-0.12537698447704315,1.0981751680374146,1.239751,-1.8622227,2
-4.054442405700684,10.932180404663086,0.6231675148010254,1.1118462085723877,0.49754974,-1.808772,2
-3.6366591453552246,11.616806030273438,1.1780993938446045,1.1798731088638306,-0.25045475,-1.8014416,2
-3.2512378692626958,12.17436695098877,1.2752320766448977,1.2442104816436768,-0.40683624,-1.806634,2
-2.9540982246398926,12.294440269470215,0.7819789052009583,1.2370980978012085,1.2822062,-1.9077321,2
-2.8145174980163574,12.042970657348633,0.3295217752456665,1.0993202924728394,2.5216517000000005,-1.7922786,2
-2.911055326461792,11.6222505569458,0.524192214012146,0.917403280735016,1.8258762,-1.6624697,2
-3.251528024673462,11.03541088104248,1.0021796226501465,0.7618638277053833,0.9773844,-1.8460348,2
-3.470597982406616,10.55670928955078,1.0276645421981812,0.6351432204246521,1.2202033,-1.7623463,2
-3.4261062145233154,10.257856369018556,0.7618042230606079,0.5164166688919067,2.3945918,-1.5036448,2
-3.1876461505889893,9.984718322753906,0.6743590235710144,0.3806118369102478,2.853657,-1.2040153999999998,2
-2.848120927810669,9.574137687683104,0.7703703045845032,0.2444067299365997,2.6413813,-0.8521569999999999,2
-2.491191864013672,9.007744789123537,0.8329603672027588,0.11745129525661467,2.3429737,-0.5720753000000001,2
-2.0946059226989746,8.407336235046388,0.8333223462104797,-0.007996887899935246,2.0048597,-0.33108896,2
-1.6044000387191772,7.87970495223999,0.8735406398773193,-0.13189025223255155,1.3087788,-0.05925392700000001,2
-0.9997976422309875,7.442333221435548,0.8708531856536865,-0.2524893581867218,0.60048056,0.31978795,2
-0.4181854426860809,7.184398174285889,0.5997766256332397,-0.38981249928474426,0.4016439000000001,0.9639453,2
-0.1479845494031906,7.23136043548584,-0.16616879403591156,-0.5117225050926208,0.6753115,1.4902058,2
-0.5689229965209961,7.641056537628174,-1.447978973388672,-0.5298472642898561,0.8491027,1.536326,2
-2.093640089035034,8.142498016357424,-2.8438446521759038,-0.3875119984149933,0.6227771,0.25809056,2
-4.330055236816406,8.515892028808594,-3.763550281524658,-0.33276790380477905,0.38789943,-0.7797695,2
-5.876908302307129,8.737091064453125,-4.2319207191467285,-0.3916077315807343,0.55833083,-0.21777347,2
-6.416339874267577,8.703117370605469,-4.118638992309569,-0.4190114736557007,0.20861048,-0.40775254,2
-6.2846360206604,8.657474517822267,-3.41789984703064,-0.4072110652923584,-0.65209866,-0.42455134,2
-5.794066429138184,8.96214485168457,-2.7338016033172607,-0.4446102976799011,-1.0002918,0.15699236,2
-5.132750988006592,9.614143371582033,-2.4601941108703613,-0.5502734184265137,-1.0042624,0.9621128,2
-4.78972864151001,10.392770767211914,-3.008641481399536,-0.6119886636734009,0.16920967,1.0644327,2
-5.005814075469972,10.693690299987793,-3.3161842823028564,-0.5550355911254883,0.9950995,0.34422258,2
-5.00402307510376,10.489940643310547,-2.679356336593628,-0.5563911199569702,1.1145236,0.56413406,2
-4.480358123779297,10.125399589538574,-1.315778732299805,-0.6250591874122621,0.24831672,0.93767816,2
-3.6534483432769775,9.674824714660645,0.1381661891937256,-0.7281222343444824,-0.36163223,1.2971723,2
-2.8234882354736333,9.087777137756348,1.337586522102356,-0.8828543424606323,-0.76083267,1.5800028999999998,2
-2.1606402397155757,8.459454536437987,2.0696330070495605,-1.1003094911575315,-0.52442783,1.5314392,2
-1.6736589670181274,8.230518341064451,2.3915908336639404,-1.284331202507019,0.04642576,1.4077389,2
-1.4649641513824463,8.551033973693848,2.2893223762512207,-1.3596484661102295,0.9773844,1.2449434,2
-1.7190310955047607,9.125507354736328,1.7453973293304443,-1.2192182540893557,0.6533204,0.41538838,2
-1.9384901523590088,9.52027416229248,1.2167459726333618,-0.9582660794258118,-0.04337143,0.33261612,2
-2.018470764160156,9.465919494628906,0.9059723615646362,-0.8914976716041565,-0.10048734,0.22968534,2
-1.9895527362823489,9.224576950073242,0.8711389303207397,-0.9873976111412048,-0.27183503,-0.01038471,2
-1.8037527799606323,9.174389839172363,1.0707207918167114,-1.0747472047805786,-0.9984592,0.07391469,2
-1.5809729099273682,9.324204444885254,1.3083884716033936,-1.04963481426239,-1.5995506000000002,0.29840767,2
-1.4390201568603516,9.456320762634276,1.3672323226928709,-0.950542688369751,-1.432479,0.47128254,2
-1.4157564640045166,9.45910930633545,1.221974492073059,-0.8373560309410095,-0.8720101,0.52870387,2
-1.561901330947876,9.36412239074707,1.0143027305603027,-0.7340723872184753,-0.009162978,0.54092115,2
-1.806774616241455,9.258256912231444,0.8974894285202026,-0.6653923392295837,0.86193085,0.48258355,2
-2.104977369308472,9.164986610412598,0.9268049001693726,-0.6576249599456787,1.2632693000000002,0.47250426,2
-2.465697765350342,9.144312858581543,1.1108590364456177,-0.7305854558944702,0.6908886,0.4654793,2
-2.826987266540528,9.199854850769043,1.3181142807006836,-0.8483930826187134,-0.28527406,0.45234573,2
-2.99763822555542,9.26932144165039,1.3840806484222412,-0.9047560691833496,-1.627345,0.462425,2
-2.903102159500122,9.35644245147705,1.1637780666351318,-0.8450320363044739,-2.7036896,0.46639562,2
-2.649806261062622,9.55221939086914,0.5911980271339417,-0.6864727735519409,-2.4220808,0.55833083,2
-2.453365564346313,9.701669692993164,0.0028837884310632944,-0.5038754343986511,-0.86009824,0.4297437,2
-2.4696805477142334,9.714561462402344,-0.2985072135925293,-0.3763062357902527,0.67103547,0.32284227,2
-2.7616000175476074,9.677127838134766,-0.31873100996017456,-0.27757638692855835,2.1499403,0.07422013,2
-3.361294984817505,9.713346481323242,-0.04824657365679741,-0.1774599254131317,2.9636127999999995,-0.15699236,2
-4.2037625312805185,9.835617065429688,0.7995817065238953,-0.06514863669872284,0.17592919,-0.2012801,2
-5.069773674011231,9.805154800415039,1.646479249000549,0.0011110290652140977,-2.8411343,-0.49602258,2
-5.618765354156494,9.562541007995604,1.5968565940856934,0.12003426998853685,-3.6294558,-0.947452,2
-5.777796268463135,9.41296100616455,0.6618720889091492,0.5135317444801331,-3.170696,-1.5873333,2
-5.597899436950684,9.43982982635498,-0.5725460052490234,1.0818324089050293,-1.2757921,-2.2333232999999995,2
-5.199844837188722,9.489413261413574,-1.232300043106079,1.300568699836731,0.9129381,-2.6126707,2
-4.690844535827637,9.9327974319458,-1.223854660987854,1.2318953275680542,2.273335,-2.5192082,2
-4.254340171813965,10.80064868927002,-0.4850213527679443,1.160834550857544,1.704925,-2.2269092,2
-3.8004148006439213,11.996526718139648,0.6929108500480652,1.2229427099227903,-0.26542094,-1.6881261000000003,2
-3.3419277667999268,13.007275581359865,1.4479342699050903,1.339738368988037,-1.9449949,-1.3509285,2
-3.060275793075561,13.091654777526855,0.7246901988983154,1.3657745122909546,-0.5842925999999999,-1.9049833,2
-2.890528440475464,12.62814235687256,-0.2872205674648285,1.2415974140167236,1.9071213,-2.0189097,2
-2.7817254066467285,12.109189987182615,-0.4103386104106903,1.0363593101501465,1.4501941,-1.5283848,2
-2.888270139694214,11.445178031921387,-0.07323689013719559,0.8655072450637817,0.48747048,-1.4074335,2
-3.145834922790528,10.69562816619873,0.05117269232869148,0.733529806137085,0.8491027,-1.4584408000000002,2
-3.2336173057556152,10.133062362670898,-0.009005235508084297,0.6145259141921997,1.5699236,-1.20371,2
-3.1021265983581543,9.69897747039795,0.010765515267848969,0.4777818024158478,1.9938642,-0.9850202,2
-2.7886979579925537,9.28406047821045,0.1156945675611496,0.3351793587207794,2.4150558,-0.56199604,2
-2.447690010070801,8.764363288879395,0.19206570088863373,0.2047455757856369,2.7516425,-0.13530666,2
-2.1538660526275635,8.166416168212889,0.27098459005355835,0.08163311332464218,2.5219572,0.2443461,2
-1.8539656400680544,7.5731139183044425,0.4376536905765533,-0.04898398369550705,1.6911805,0.5143485,2
-1.4141863584518433,7.10650634765625,0.6850941777229309,-0.19129730761051175,0.79412484,0.711658,2
-0.7951809763908386,6.887041091918945,0.7706910371780396,-0.344061017036438,0.061086524,0.9288206,2
-0.3030689358711243,7.154478549957275,0.19353055953979487,-0.5163877606391907,0.50610185,1.4813483,2
-0.7675456404685974,7.800641059875487,-1.1761441230773926,-0.612764835357666,1.2180653,1.2644911,2
-2.969852924346924,8.539823532104492,-2.4837276935577397,-0.4522305727005005,-0.63132924,-1.1863003,2
-5.3795437812805185,9.204545974731444,-3.3845899105072017,-0.3566200137138367,-1.3356569,-1.8808541,2
-6.527781963348389,9.415936470031738,-4.094344139099121,-0.30914169549942017,0.41630468,-0.06811147,2
-6.603017330169678,9.086461067199707,-3.9080653190612793,-0.29544490575790405,0.22418754,0.025961773,2
-6.036043643951416,8.90324592590332,-3.10559630393982,-0.3232947289943695,-0.9682214,0.21227567,2
-5.125921249389648,9.235694885253906,-2.4491400718688965,-0.4452357888221741,-0.8164214,0.93767816,2
-4.206435203552246,10.012899398803713,-2.254666566848755,-0.6145503520965576,-0.27672195,1.6139059999999998,2
-4.014533519744873,11.0828218460083,-2.9761049747467037,-0.7381129264831543,1.0842858999999998,1.3417655000000002,2
-4.922372817993164,11.646708488464355,-3.614188671112061,-0.5703933835029602,1.1695015,-0.30879238,2
-5.436114311218262,11.431453704833984,-2.8753430843353267,-0.4174312055110931,0.16676621,-0.14355333,2
-5.042103290557861,10.684896469116213,-1.3569645881652832,-0.44642719626426697,-0.5458081,0.4718934,2
-4.000615119934082,9.783648490905762,0.19769492745399475,-0.5807299017906189,-1.1246029,1.3548992,2
-2.8422164916992188,8.837313652038574,1.5886768102645874,-0.7719808220863342,-2.320677,2.0570886,2
-1.882721781730652,8.107425689697267,2.48236346244812,-1.0038566589355469,-2.516154,2.2272146,2
-1.10894775390625,8.068967819213867,2.6205263137817383,-1.1622806787490845,-0.98532563,2.3359487,2
-0.7100326418876648,8.737530708312987,1.893863677978516,-1.1114729642868042,1.8423696,1.6636915,2
-0.7532928586006165,9.467910766601562,1.2695825099945068,-0.8755707144737244,2.4877486,0.9056077,2
-1.0101410150527954,9.551762580871582,1.1410773992538452,-0.7164342999458313,1.1505647,0.17409660000000002,2
-1.1600396633148191,9.353619575500488,1.2399346828460691,-0.7440869212150574,-0.5531385,-0.09896017,2
-1.1774091720581057,9.298504829406738,1.396592617034912,-0.8638308644294739,-1.3567317,0.03756821,2
-1.1202582120895386,9.35986614227295,1.5032135248184204,-0.9462592005729676,-1.4645494,0.22449298,2
-1.115809440612793,9.41439437866211,1.5321503877639768,-0.9277420043945312,-1.1731668,0.30543262,2
-1.1887151002883911,9.44694709777832,1.5169641971588137,-0.8142730593681335,-0.8338310999999999,0.3594942,2
-1.356713056564331,9.451452255249023,1.5156725645065308,-0.6452056765556335,-0.8078693,0.3378085,2
-1.6490764617919922,9.421215057373047,1.5122395753860474,-0.486968994140625,-0.8940013000000001,0.13927728,2
-2.0209205150604252,9.341809272766113,1.4803234338760376,-0.4170922338962555,-0.8717046999999999,-0.023518313,2
-2.381413459777832,9.255718231201172,1.3926066160202026,-0.4624614417552948,-0.44043383,0.004581489,2
-2.693270444869995,9.24520206451416,1.2651549577713013,-0.5819926857948303,0.094989546,0.23182335,2
-2.994252920150757,9.297391891479492,1.1943708658218384,-0.6733092665672302,-0.5748241999999999,0.40530908,2
-3.261251211166382,9.326147079467773,1.147305250167847,-0.6748320460319519,-2.1600194,0.4746423,2
-3.36725115776062,9.290303230285645,0.8836297392845154,-0.5965234041213989,-2.361605,0.44012842,2
-3.285474300384521,9.21822738647461,0.41055443882942205,-0.48018002510070795,-1.5653422,0.4007276,2
-3.1407294273376465,9.177766799926758,-0.01965540461242199,-0.3618631064891815,-0.28038713,0.32559118,2
-3.1252858638763428,9.271275520324707,-0.1974945068359375,-0.27208229899406433,0.95172805,0.27763826,2
-3.351970672607422,9.447131156921387,-0.106318362057209,-0.2039455473423004,2.008525,0.13988814,2
-3.7327454090118413,9.66110610961914,0.27584320306777954,-0.14979808032512665,2.3738225,0.124005646,2
-4.195225238800049,9.875231742858887,1.0155107975006104,-0.09994541853666307,1.2425,0.26542094,2
-4.62361478805542,9.948152542114258,1.804854273796081,-0.06925462931394577,-1.6380351999999998,0.01740966,2
-4.859031200408936,9.862310409545898,1.9672822952270508,-0.042354870587587364,-3.3441818,-0.66767573,2
-4.80709171295166,9.83582592010498,1.2972713708877563,0.13986627757549286,-3.8542542,-1.035722,2
-4.56890869140625,9.95491886138916,-0.08149140328168869,0.6324626207351685,-2.2602015,-1.3735305,2
-4.313032627105713,9.870399475097656,-1.269782543182373,1.086027979850769,0.3304781,-1.9963076,2
-4.1519203186035165,9.680363655090332,-1.743163824081421,1.2487890720367432,2.0518963,-2.5195136,2
-4.030741214752196,9.821434020996094,-1.5392465591430664,1.2501888275146484,2.3096814,-2.663678,2
-3.830862283706665,10.543875694274902,-0.5940719842910767,1.27788245677948,0.45051312,-2.2379048,2
-3.3649942874908447,11.846379280090332,0.7642812132835388,1.378909468650818,-1.6032158,-1.5494597,2
-2.86313533782959,12.66895866394043,1.2105481624603271,1.4284576177597046,-2.7421741,-1.1621711,2
-2.5755271911621094,12.42190170288086,0.14862902462482452,1.3932921886444092,-0.5311473000000001,-1.7980819,2
-2.496048212051392,11.815485954284668,-0.737850546836853,1.2846797704696655,1.881465,-1.8530598000000005,2
-2.649139642715454,11.26318073272705,-0.6758925318717957,1.112605333328247,1.599856,-1.4291192,2
-3.0360212326049805,10.678667068481444,-0.22406019270420074,0.9348281621932985,0.9279043,-1.4202617,2
-3.404374361038208,10.198114395141602,0.0070171114057302475,0.7913643121719359,1.099252,-1.3307699,2
-3.4683949947357178,9.908000946044922,-0.03698089346289635,0.6756787300109863,2.0234911,-1.1169671,2
-3.2340178489685063,9.65829849243164,-0.05337515473365784,0.5497471690177917,2.7076602000000003,-0.83169305,2
-2.854723691940308,9.336437225341797,0.06632969528436661,0.4163925051689148,2.8053987,-0.48533243,2
-2.4762091636657715,8.907296180725098,0.22194498777389526,0.2863030731678009,2.6624563,-0.2012801,2
-2.128489255905152,8.399041175842285,0.3718957304954529,0.15349946916103366,2.1517727000000004,0.05955936,2
-1.7039231061935425,7.8971662521362305,0.5688580870628357,0.009533948265016079,1.20371,0.28893927,2
-1.1190730333328247,7.461852550506593,0.8319269418716431,-0.14935678243637085,-0.007941248,0.49846604,2
-0.4578673541545868,7.144787788391112,0.9221035242080688,-0.34541165828704834,-0.47708577,0.9615019,2
0.12424425035715105,7.1328654289245605,0.6621334552764893,-0.5676374435424805,-0.410196,1.4596626,2
-0.13331373035907745,7.656186103820801,-0.5998130440711975,-0.7126233577728271,0.10262536,1.5335772,2
-1.9563444852828982,8.376933097839355,-2.227961540222168,-0.5753231048583984,-0.7852673000000001,-0.33994650000000004,2
-4.547826766967773,9.034311294555664,-3.2466037273406982,-0.4483278095722199,-1.0714576,-2.3530529,2
-6.394619941711426,9.491867065429688,-3.778873205184937,-0.4870842695236206,-0.035124752999999995,-0.6236934000000001,2
-7.240375995635986,9.262689590454102,-3.6643457412719727,-0.44425225257873535,0.106901415,0.15607607,2
-7.169434070587157,8.91566276550293,-2.9429640769958496,-0.393670916557312,-1.0180069,-0.09865474,2
-6.557734966278076,9.099529266357422,-2.2533416748046875,-0.4278489351272583,-1.2559389,0.3203988,2
-5.789924144744872,9.768132209777832,-1.911369800567627,-0.5388514995574951,-0.19792034,1.073901,2
-5.454048156738281,10.51590633392334,-2.1367812156677246,-0.6546425819396973,0.77091193,0.7678576,2
-5.698591709136963,10.949992179870604,-2.4178900718688965,-0.5690697431564331,0.88453287,0.10598512,2
-5.679721355438232,10.890425682067873,-2.0383236408233643,-0.4604519903659821,0.9859365,0.32742378,2
-4.984242916107178,10.52049160003662,-1.0486702919006348,-0.4613212645053864,0.8445212,0.9618073,2
-3.8518435955047607,9.954041481018066,0.10606242716312407,-0.5675174593925476,0.6976081000000001,1.7986927,2
-2.6819398403167725,9.260117530822754,1.1803730726242063,-0.7570388317108154,-0.044593163,2.2791383,2
-1.7656095027923584,8.656181335449219,1.986075520515442,-0.9683223962783812,-0.9932669,2.1728477,2
-1.0998432636260986,8.708239555358888,2.203667640686035,-1.117327332496643,-0.75808376,2.094657,2
-0.9649821519851683,9.24604034423828,1.6287890672683716,-1.1513019800186155,0.28680122,1.4575243999999998,2
-1.2010260820388794,9.659173965454102,0.9081107974052428,-0.968980312347412,0.75502944,0.3155119,2
-1.3800032138824463,9.721506118774414,0.5011491775512695,-0.8016266822814941,0.6795876000000001,-0.044593163,2
-1.3940736055374146,9.577482223510742,0.5148798823356628,-0.7637349963188171,0.11178834,0.008246681,2
-1.3115530014038086,9.496177673339844,0.7886964082717896,-0.8287410140037537,-0.62949663,0.18448131,2
-1.210546612739563,9.497244834899902,1.1149024963378906,-0.8842064142227173,-1.3686435,0.20952678,2
-1.160338282585144,9.51737117767334,1.309174656867981,-0.8542225956916809,-1.3179418,0.2764165,2
-1.2072932720184326,9.503292083740234,1.3345348834991455,-0.7454026937484741,-0.70432764,0.36651915,2
-1.3750182390213013,9.435778617858887,1.3092753887176514,-0.6131228804588318,0.04153884,0.33078352,2
-1.6517330408096311,9.355748176574707,1.321985363960266,-0.5096890330314636,0.29046643,0.14599679999999998,2
-2.0243687629699707,9.304224967956543,1.4619929790496826,-0.5031114220619202,-0.82558435,0.05009095,2
-2.387349843978882,9.283218383789062,1.4914183616638184,-0.60699462890625,-1.0665708,0.16187929,2
-2.627065896987915,9.309999465942383,1.3347785472869873,-0.7054449915885925,-0.6719518,0.4605924,2
-2.731825828552246,9.297404289245604,1.1526294946670532,-0.732914388179779,-0.84299403,0.5696318,2
-2.7182440757751465,9.263389587402344,0.9868727326393129,-0.6999552249908447,-1.7489072,0.4288274,2
-2.639482021331787,9.317769050598145,0.6687712669372559,-0.648743748664856,-1.8423696,0.45173484,2
-2.583790063858032,9.47701358795166,0.2772136926651001,-0.5691925287246704,-1.0345002,0.43982297,2
-2.616552352905273,9.61927890777588,0.028747811913490295,-0.4616108238697052,-0.11575896,0.3390302,2
-2.7668135166168213,9.639303207397461,-0.0063935392536222935,-0.3380104601383209,0.86406887,0.2843578,2
-3.077980756759644,9.619179725646973,0.177859365940094,-0.2140009701251984,1.6789632,0.11636983,2
-3.53003478050232,9.676682472229004,0.6729641556739807,-0.11329971253871918,1.5635096000000002,0.03145956,2
-4.053380489349365,9.791016578674316,1.4036957025527954,-0.03927058354020119,0.07086037,-0.020463986,2
-4.581035137176514,9.838604927062988,1.960361123085022,-0.004799353424459696,-2.1566598,-0.5030475000000001,2
-4.968649864196777,9.79053020477295,1.8432222604751587,0.0516502857208252,-3.1199942000000003,-1.2473868,2
-5.088247776031494,9.911458015441896,1.0454789400100708,0.3021013140678406,-3.5613443999999994,-1.6621643,2
-4.853971004486084,10.10347843170166,-0.3202573657035828,0.848007082939148,-1.7599026999999998,-1.7983873,2
-4.414318561553955,9.998793601989746,-1.3657939434051514,1.22592294216156,0.38789943,-2.3102922,2
-3.8943936824798575,9.97567081451416,-1.6353615522384644,1.3043842315673828,1.4147639,-2.3698518,2
-3.403269052505493,10.39345932006836,-1.16662335395813,1.3065197467803955,0.95722586,-2.1358902000000004,2
-2.9230327606201167,11.31625747680664,-0.1814545840024948,1.3667958974838257,-0.8933904,-1.6679676,2
-2.48935866355896,12.287505149841307,0.3931116163730621,1.4581571817398071,-1.9804251,-1.4785993,2
-2.2935926914215092,12.43603801727295,-0.15057522058486938,1.5132564306259155,-0.5128214,-1.8429805,2
-2.2344038486480717,12.072504043579102,-0.7440562248229979,1.470079779624939,1.2360858,-1.756543,2
-2.302402973175049,11.574715614318848,-0.6809259057044983,1.3109560012817385,1.2596041,-1.3603969,2
-2.5825977325439453,10.968404769897461,-0.2595520317554474,1.1138871908187866,0.70738196,-1.3234396000000002,2
-2.9047756195068364,10.384998321533203,0.03789078444242477,0.9442611932754515,0.6933321,-1.282817,2
-3.021385669708252,9.962624549865724,0.07000801712274551,0.8085623979568481,1.2263118999999998,-1.1294898000000002,2
-2.93422269821167,9.595977783203123,-0.002472240012139082,0.6731140613555908,1.9862283,-1.0793989,2
-2.7096326351165767,9.232868194580078,0.03514990210533142,0.5304944515228271,2.332589,-0.82711154,2
-2.4279980659484863,8.85318374633789,0.19900907576084134,0.3945220708847046,2.2834144,-0.40225476,2
-2.1560306549072266,8.435238838195799,0.3610715270042419,0.2549444437026977,2.1065688,-0.02076942,2
-1.866666436195373,8.008234024047853,0.4576312303543091,0.1086079329252243,1.7479908,0.25503623,2
-1.4584968090057373,7.666401863098144,0.5416339039802551,-0.045175932347774506,1.0665708,0.5155702999999999,2
-0.917372703552246,7.405232429504394,0.6072285175323486,-0.224871888756752,0.089491755,0.79259765,2
-0.3741069734096527,7.324300289154053,0.4091026782989502,-0.43415725231170654,-0.13041973,1.3209959999999998,2
-0.14330822229385376,7.559316635131836,-0.2789103090763092,-0.5859601497650146,0.04184427,1.5427402,2
-0.8043804764747621,8.045412063598633,-1.5194820165634155,-0.5371360182762146,0.027794369,0.49296826,2
-3.076546430587769,8.647609710693361,-2.642654657363892,-0.3985795974731445,-0.43279803,-1.1533136,2
-5.024829864501953,9.12065887451172,-3.4940009117126465,-0.37199246883392334,-0.1020145,-0.7257079000000001,2
-6.032267093658447,9.169837951660156,-3.741487741470337,-0.32100120186805725,0.34666604,0.35979962,2
-6.200186252593994,9.116071701049805,-3.171760082244873,-0.30023521184921265,-0.65057147,0.3576616,2
-5.830447673797607,9.236391067504883,-2.438795804977417,-0.3658316135406494,-1.0479393,0.6123924,2
-5.065762996673584,9.564785957336426,-1.8467047214508057,-0.5080552101135254,-0.9266826,1.135293,2
-4.269883632659912,10.18230438232422,-2.1716725826263428,-0.6359151601791382,1.707063,1.9956968,2
-4.026782512664795,10.622171401977539,-2.6859371662139893,-0.5347662568092346,3.0476067,0.9728029,2
-3.9710690975189213,10.534017562866213,-2.118069887161255,-0.47749447822570795,1.1676688999999998,0.44073927,2
-3.5964818000793457,10.052603721618652,-0.9554677605628968,-0.5739881992340088,-0.9263771,0.41355577,2
-2.92848539352417,9.424691200256348,0.14157956838607788,-0.7512766122817993,-2.017077,0.7284568,2
-2.233104944229126,8.801928520202637,0.9487544298171996,-0.8922178745269775,-2.7794368,1.0888673,2
-1.655738353729248,8.48906421661377,1.37746262550354,-0.9590457677841188,-2.3936756,1.2571607,2
-1.1812673807144165,8.677237510681152,1.475678563117981,-0.9577892422676086,-1.1169671,1.3255776,2
-0.8593853116035461,9.123238563537598,1.422617793083191,-0.9071334600448608,0.5161811,0.99296147,2
-0.8320133090019226,9.312724113464355,1.3727660179138184,-0.8545718193054199,1.7571539,0.39858958,2
-0.9779823422431946,9.294585227966307,1.3616347312927246,-0.8573592901229858,2.6099217,0.14874569,2
-1.4271892309188845,9.23585033416748,1.4756331443786619,-0.8978330492973328,1.3716979,-0.08399397,2
-2.172382116317749,9.250622749328613,1.6343426704406738,-0.8807897567749023,-2.3863451,-0.56046885,2
-2.667641878128052,9.35381317138672,1.386113524436951,-0.8075448274612427,-3.6340373,-0.35918877,2
-2.776456356048584,9.454533576965332,0.8753178119659424,-0.7055310010910034,-2.1762075000000003,0.07299839999999999,2
-2.660117626190185,9.484561920166016,0.5092841982841492,-0.5908086895942688,-0.89461213,0.08307768,2
-2.437809467315674,9.447315216064453,0.4038795828819275,-0.4890931844711304,-0.30970868,0.03634648,2
-2.2115392684936523,9.371116638183594,0.5124476552009583,-0.4159169793128967,-0.26939157,0.08460484,2
-2.069077014923096,9.283885955810547,0.714175820350647,-0.3708100616931915,-0.27091873,0.27763826,2
-2.0522913932800293,9.196606636047363,0.9055071473121644,-0.35708755254745483,-0.016187929,0.41905355,2
-2.1396632194519043,9.134428977966307,1.0611739158630369,-0.3787751495838165,0.30298916,0.46853364,2
-2.287400484085083,9.105354309082033,1.1888248920440674,-0.43438684940338135,0.33383787,0.45234573,2
-2.4410881996154785,9.119319915771484,1.3564274311065674,-0.5254238843917847,-0.8417723,0.41141775,2
-2.576237201690674,9.15653133392334,1.3676875829696655,-0.612742006778717,-2.3942864,0.37018433,2
-2.7007079124450684,9.16177749633789,0.9082636833190918,-0.5647705793380737,-1.8267925,0.30298916,2
-2.810488224029541,9.169974327087402,0.4303040206432343,-0.4675899744033814,-0.0143553335,0.35033122,2
-2.9176867008209233,9.169275283813477,0.2255961149930954,-0.3908884823322296,1.1985176000000002,0.40744713,2
-3.101018190383911,9.262560844421387,0.3385907709598541,-0.3069175481796265,1.5509868999999998,0.28038713,2
-3.3448848724365234,9.542984008789062,0.8109527230262756,-0.18887461721897125,0.98746365,0.16187929,2
-3.5883769989013667,9.842095375061037,1.4519715309143066,-0.05974000319838524,-0.25686884,0.25870144,2
-3.828585147857666,10.014745712280273,1.8860033750534055,-0.015137737616896631,-0.82863873,0.058948494,2
-4.012563228607179,10.069751739501953,1.973947644233704,-0.07394472509622574,-1.9645426,-0.42210788,2
-4.08663272857666,10.141371726989746,1.4166746139526367,-0.06099982187151909,-3.5592062000000007,-0.7883216,2
-4.163221836090088,10.25397777557373,0.05519695207476616,0.32136353850364685,-2.2568417000000003,-1.2993103,2
-4.2458014488220215,10.200833320617676,-1.2036057710647583,0.8472477793693542,0.5369505,-1.6420058000000002,2
-4.341212749481201,9.914056777954102,-1.684079647064209,1.1271016597747805,1.7195857,-2.0583105,2
-4.3427767753601065,9.79218864440918,-1.4700547456741333,1.2276134490966797,1.8170186,-2.5189028,2
-4.186511039733887,10.219661712646484,-0.7399977445602417,1.2875994443893433,0.8173377,-2.4260514,2
-3.829911231994629,11.160894393920898,0.26798850297927856,1.3771125078201294,-0.77396625,-1.8298469,2
-3.260837316513061,12.28443717956543,1.1359800100326538,1.4531457424163818,-2.1731532,-1.1239921,2
-2.6674065589904785,12.886408805847168,1.143347978591919,1.4393407106399536,-1.6203201,-1.2617421,2
-2.395930528640747,12.525638580322266,0.19934868812561035,1.3721972703933716,0.95325524,-1.8784106,2
-2.4826252460479736,11.91541576385498,-0.16256432235240936,1.245302438735962,2.017077,-1.5818355,2
-2.8273835182189937,11.29329776763916,0.11984608322381972,1.090092658996582,1.2996159,-1.3707817,2
-3.2587735652923584,10.706331253051758,0.3829946219921112,0.9443184137344359,0.9056077,-1.4895949,2
-3.38929295539856,10.353900909423828,0.37765595316886896,0.8342348337173462,1.4138476,-1.2220358999999998,2
-3.1674633026123047,10.093000411987305,0.2765691578388214,0.7332874536514282,2.1386392000000005,-0.98746365,2
-2.734181404113769,9.760110855102539,0.2997696697711945,0.6104896664619446,2.47095,-0.6737844,2
-2.249533176422119,9.316502571105957,0.4379191696643829,0.4714762568473816,2.2983804,-0.40500367,2
-1.7785520553588867,8.792922019958496,0.5778560042381287,0.3269527852535248,1.9599612,-0.11728613,2
-1.297744870185852,8.231657981872559,0.7115949392318726,0.18128392100334167,1.2522738000000002,0.12736541,2
-0.7146744132041931,7.6716251373291025,0.9005932211875916,0.03653443232178688,0.21319197,0.3662137,2
-0.07061746716499329,7.216553688049316,0.9302444458007812,-0.12888851761817932,-0.5412266,0.9056077,2
0.473711907863617,7.077187538146973,0.5506935715675354,-0.3404456377029419,-0.43310347,1.6215417,2
0.483471542596817,7.355987548828125,-0.6493591070175171,-0.4990500211715698,0.7806858,1.881465,2
-0.9589198231697084,7.954024791717528,-2.3974428176879883,-0.4050158262252808,0.659429,0.13225232,2
-3.69818377494812,8.769748687744139,-3.0858216285705566,-0.3502494692802429,-0.8216136999999999,-1.8093829,2
-5.791738510131836,9.607693672180176,-3.353299856185913,-0.3342010378837585,-1.1835514,-0.47128254,2
-6.681492328643799,9.678258895874023,-3.704766750335693,-0.29749709367752075,0.29046643,0.5864305999999999,2
-6.651707649230957,9.371474266052246,-3.412275552749634,-0.3482644855976105,-0.48472157,0.70188415,2
-5.969394207000732,9.6397066116333,-2.7282631397247314,-0.4507399201393128,-1.0528263,1.1273518,2
-5.014375686645508,10.4219331741333,-2.31041955947876,-0.6179416179656982,-0.036957346,1.6279559,2
-4.299066066741943,11.07091236114502,-2.5056910514831543,-0.7593130469322205,1.5919148,1.7354681,2
-4.283620357513429,11.104674339294434,-2.75292444229126,-0.6816871166229248,2.52043,0.33353242,2
-4.243429660797118,10.797226905822754,-2.1480627059936523,-0.5371078252792358,0.50976706,0.12217305,2
-3.813443899154663,10.246438026428224,-1.0322861671447754,-0.5693824887275696,-1.4495832,0.5348125,2
-3.082093954086304,9.580547332763672,-0.03456953540444374,-0.7284857630729675,-1.8353447,0.84635377,2
-2.2419028282165527,8.96899700164795,0.6875917911529541,-0.8800986409187317,-2.173764,1.4544701999999998,2
-1.528483748435974,8.640630722045897,1.0921097993850708,-0.9624335765838624,-2.0861049,1.6026049999999998,2
-0.9625372290611268,8.717465400695799,1.2246944904327393,-0.9433812499046326,-0.73761976,1.4584408000000002,2
-0.6005474925041199,9.14724349975586,1.2222492694854736,-0.8541979193687439,1.1942415000000002,0.8750645,2
-0.5060675740242004,9.511216163635254,1.2325631380081177,-0.7836063504219055,2.3057107999999995,0.2968805,2
-0.7037910223007202,9.44092845916748,1.3443603515625,-0.7915443181991577,2.7290404,-0.06841691,2
-1.2014094591140747,9.232081413269043,1.5977535247802734,-0.8440136909484863,0.61911196,-0.35888332,2
-1.7567524909973145,9.188193321228027,1.7048494815826416,-0.8347671031951904,-2.5158484,-0.344528,2
-2.070580005645752,9.292661666870117,1.3727799654006958,-0.8080648183822632,-2.4972172,0.17440203,2
-2.132264852523804,9.393017768859863,0.878433108329773,-0.7788889408111572,-1.361924,0.28802297,2
-2.0337884426116943,9.4730224609375,0.5574572086334229,-0.6950896382331848,-0.65668017,0.25595254,2
-1.8959981203079224,9.499030113220217,0.47454687952995295,-0.5726951360702515,-0.5225952,0.22235495,2
-1.8100608587265012,9.45280647277832,0.5151419639587402,-0.4913849532604218,-0.3659083,0.29565877,2
-1.8051601648330688,9.373957633972168,0.5997267365455627,-0.4718678891658783,-0.109650314,0.49693888,2
-1.897732496261597,9.28955078125,0.7076954245567322,-0.4827569425106049,0.19853121,0.6093381,2
-2.0914468765258794,9.228517532348633,0.8448594808578491,-0.5069308876991272,0.3680463,0.5726861999999999,2
-2.3868639469146733,9.245598793029783,1.0285710096359253,-0.5494332909584045,-0.09162979,0.4636467000000001,2
-2.7175605297088623,9.291955947875977,1.226414918899536,-0.6229846477508545,-1.6853772,0.4266894,2
-2.9553332328796387,9.25987148284912,1.160158395767212,-0.641034722328186,-2.4514022,0.31734450000000003,2
-3.055838823318481,9.244332313537598,0.75493323802948,-0.5627431869506836,-1.7165313999999998,0.28008172,2
-3.061525583267212,9.234182357788086,0.26195406913757324,-0.4401858150959015,-0.014966198,0.30482176,2
-3.1528048515319824,9.205326080322266,0.06144928559660912,-0.32822534441947937,1.4114041000000002,0.2275473,2
-3.4042255878448486,9.398237228393556,0.2498936504125595,-0.2161398082971573,1.9532416,0.019547688,2
-3.733365774154663,9.809447288513184,0.9506918787956238,-0.08273334056138992,0.95203346,0.045814894,2
-4.072462558746338,10.139138221740724,1.755795955657959,0.016120938584208492,-1.0534371,0.07147124,2
-4.3257102966308585,10.177896499633787,2.0208148956298833,0.005154247861355543,-2.1841488,-0.4447099,2
-4.409502983093262,10.17635440826416,1.6025841236114502,0.02709690481424332,-3.5643988,-0.9896017,2
-4.361825466156007,10.293924331665039,0.28777533769607544,0.3806707561016083,-2.7849348,-1.3869696000000002,2
-4.24779224395752,10.202337265014648,-1.145275592803955,0.8962863683700562,-0.17684549,-1.6878206999999998,2
-4.114586353302002,9.797233581542967,-1.7778629064559937,1.1777729988098145,1.2538009,-2.1212296000000004,2
-3.952891826629639,9.663322448730467,-1.6430507898330688,1.2665395736694336,1.2815952,-2.6487117,2
-3.7546415328979488,10.17864990234375,-1.0387966632843018,1.3077620267868042,0.6798930000000001,-2.584571,2
-3.40518569946289,11.211008071899414,-0.19933421909809115,1.3701478242874146,-0.47708577,-1.947133,2
-2.8790528774261475,12.366456985473633,0.5872035622596741,1.4082752466201782,-1.6111571000000002,-1.260215,2
-2.3593127727508545,12.900927543640135,0.5952363610267639,1.3911157846450806,-1.3918563999999998,-1.3118331,2
-2.1151719093322754,12.516359329223633,-0.19894450902938846,1.3418591022491455,0.8356636999999999,-1.7446311999999995,2
-2.1265053749084477,11.936613082885742,-0.6238918900489807,1.1978603601455688,1.4911219999999998,-1.4010195,2
-2.3786866664886475,11.35003662109375,-0.4188611507415772,1.010830640792847,0.86620694,-1.3225232,2
-2.7553062438964844,10.728421211242676,-0.15092293918132782,0.8448895812034607,0.6020076999999999,-1.4062119,2
-2.8809914588928223,10.292491912841797,-0.16675737500190735,0.7250503301620483,1.1728611999999998,-1.2250903,2
-2.730064868927002,9.932048797607422,-0.26528215408325195,0.6076754927635193,1.9663752,-1.0329732,2
-2.4173476696014404,9.54806137084961,-0.2263810187578201,0.4609684348106384,2.384207,-0.7486154,2
-2.0577044486999507,9.103440284729004,-0.04320722073316574,0.3091109097003937,2.3597724,-0.3857614,2
-1.7163898944854736,8.606369972229004,0.1686670184135437,0.16463087499141693,2.1276436000000003,-0.04734206,2
-1.377105474472046,8.081395149230957,0.3506249785423279,0.02566811442375183,1.598329,0.29046643,2
-0.954096496105194,7.592820167541504,0.5113866925239563,-0.1132320910692215,0.6750060999999999,0.59528816,2
-0.4232498705387116,7.247377872467041,0.5617266297340393,-0.2793196737766266,-0.12858713,1.106277,2
0.0518948920071125,7.218545913696289,0.16910074651241302,-0.4769019782543182,0.02321288,1.6942346999999998,2
0.0813627690076828,7.528076648712157,-0.8998844623565674,-0.6058275103569031,0.92057395,1.8173242,2
-1.136308193206787,8.140934944152832,-2.272112369537353,-0.5538334250450134,0.7165449,0.39064834,2
-3.4065427780151367,8.949252128601074,-2.893768310546875,-0.5125365853309631,-1.1050552,-1.2174544,2
-5.1883649826049805,9.710402488708496,-3.2873361110687256,-0.4513660073280335,-1.2565498,-0.020463986,2
-5.896500110626222,9.783493995666504,-3.63655161857605,-0.4190566539764404,0.04886922,0.6933321,2
-5.859783172607423,9.741572380065918,-3.346165895462036,-0.4710261821746826,-0.42638394,0.63041294,2
-5.41055965423584,10.24985408782959,-2.790931940078736,-0.5497996807098389,-0.8707884,0.8918633,2
-4.6612892150878915,10.980301856994627,-2.396612882614136,-0.676480770111084,0.2098322,1.3515393999999998,2
-4.0036444664001465,11.364803314208984,-2.480567216873169,-0.7240883111953735,1.4749341,1.2009611,2
-3.7186086177825928,11.006339073181152,-2.3179192543029785,-0.5818492770195007,1.6227635,0.25534168,2
-3.3809757232666016,10.323389053344727,-1.5111619234085083,-0.4791679382324219,0.13194689,0.27580565,2
-2.8052847385406494,9.549275398254396,-0.4732780754566193,-0.5612678527832031,-0.6432411,0.7110472,2
-2.1235597133636475,8.846731185913086,0.4646975994110107,-0.769647479057312,-0.97127575,1.2269229,2
-1.5758209228515625,8.339140892028809,1.219426512718201,-0.9669711589813232,-1.5470163,1.3313808,2
-1.1929826736450195,8.330942153930664,1.6747018098831177,-1.0440618991851809,-1.2024882,1.2519683,2
-0.9525852799415588,8.852178573608398,1.8271058797836304,-1.0167909860610962,0.09987647,1.0864239,2
-0.9207773208618164,9.379781723022461,1.8188302516937256,-0.9596087336540222,1.3295482,0.58368176,2
-1.046828031539917,9.481038093566896,1.7860321998596191,-0.961412250995636,1.9016235,0.12461651,2
-1.329839825630188,9.274093627929688,1.818966507911682,-0.998548686504364,-0.09621128,-0.14385876,2
-1.8407104015350344,9.10992431640625,1.886422872543335,-0.9705563187599182,-2.9883528,-0.1432479,2
-2.104341983795166,9.2266845703125,1.4247866868972778,-0.9321081042289734,-2.7504208,0.15210545,2
-2.1033313274383545,9.338764190673828,0.8747591972351074,-0.883685827255249,-1.0641272,0.18600847,2
-1.9725416898727417,9.43807888031006,0.6075268387794495,-0.7656355500221252,-0.38026363,0.122478485,2
-1.8387659788131716,9.46177864074707,0.6443987488746643,-0.5978441834449768,-0.5329799,0.121256754,2
-1.800366759300232,9.404438018798828,0.7708327770233154,-0.4689629673957825,-0.59498274,0.22174409,2
-1.8707460165023804,9.320311546325684,0.8890362381935121,-0.4072459042072296,-0.27366763,0.3943135,2
-2.026682138442993,9.241103172302246,0.9989020824432372,-0.4112134277820587,0.26725355,0.5516113,2
-2.26858901977539,9.187820434570312,1.1544902324676514,-0.4629135131835938,0.5271766999999999,0.50671273,2
-2.5333847999572754,9.179625511169434,1.4009515047073364,-0.535331666469574,-0.3631594,0.45814893,2
-2.7440223693847656,9.15101718902588,1.6528215408325195,-0.6377221941947937,-2.0690005,0.3811799,2
-2.8506956100463867,9.14926815032959,1.5386592149734497,-0.6892681121826172,-3.0121765,0.31520647,2
-2.862165689468384,9.282367706298828,0.9710772037506104,-0.590094804763794,-1.8286251,0.35399640000000004,2
-2.884685516357422,9.473758697509766,0.2927064001560211,-0.4355651438236237,0.46517387,0.35796702,2
-3.008152961730957,9.579124450683594,-0.11142108589410782,-0.3079578578472137,1.9559906,0.26022860000000003,2
-3.2755010128021236,9.664414405822754,-0.1065279021859169,-0.17646604776382446,2.3225098,0.12370021,2
-3.706011295318604,9.963022232055664,0.6715158224105835,-0.03323984146118164,0.70707655,0.112399206,2
-4.068016529083252,10.112512588500977,1.3336657285690308,0.051120027899742126,-1.2767084,-0.08063421400000001,2
-4.291232109069823,10.040943145751953,1.4507882595062256,0.09182674437761308,-2.0015,-0.6948592,2
-4.36855411529541,9.9815092086792,0.9061756134033204,0.24613627791404724,-3.461468,-1.3747523,2
-4.311805248260498,9.993637084960938,-0.30936095118522644,0.7208340167999268,-2.3457224,-1.8319849,2
-4.147432327270509,9.83210563659668,-1.3092188835144043,1.181546330451965,0.36254853,-2.303573,2
-3.8911283016204834,9.790247917175293,-1.5115067958831787,1.3294036388397217,1.466382,-2.663067,2
-3.56522536277771,10.155970573425293,-1.0392154455184937,1.359533429145813,1.1313223999999995,-2.510656,2
-3.14650821685791,11.0430908203125,-0.13497497141361234,1.4206947088241575,-0.23823744,-1.9477439,2
-2.605322360992432,12.314698219299315,0.7611362934112549,1.4975225925445557,-1.7235563000000005,-1.3347405,2
-2.108834743499756,13.150336265563965,0.8710089921951294,1.5403469800949097,-1.6826283,-1.432479,2
-1.9090590476989744,12.88195514678955,-0.007310174871236086,1.5274760723114014,1.0760391000000002,-1.8289305,2
-1.935441374778748,12.252187728881836,-0.467446357011795,1.3963338136672974,1.6236799,-1.4556919,2
-2.227200746536255,11.548447608947756,-0.2085578441619873,1.206124782562256,1.0167851,-1.3567317,2
-2.7296605110168457,10.762642860412598,0.21434129774570465,1.0110801458358765,0.6377433000000001,-1.4431691,2
-2.960410118103028,10.20236587524414,0.26302510499954224,0.8506907820701599,1.1649200000000002,-1.1606439,2
-2.869452476501465,9.778630256652832,0.1452726423740387,0.6969466805458069,2.1490240000000003,-0.9728029,2
-2.571849822998047,9.353885650634766,0.15400460362434387,0.5244920253753662,2.636189,-0.68233645,2
-2.222983121871948,8.876832008361816,0.31003764271736145,0.3500848114490509,2.6951375,-0.31123585,2
-1.868131160736084,8.348100662231445,0.5315777063369751,0.1884487271308899,2.4147503,0.024740042,2
-1.4813408851623535,7.841996192932129,0.7406149506568909,0.026785621419548992,1.7721201000000002,0.36835176,2
-0.9748892188072203,7.438572883605957,0.9530203342437744,-0.14629444479942322,0.6774496,0.6346890000000001,2
-0.3750121593475342,7.180859565734862,1.0357184410095217,-0.3566533923149109,-0.20311269,1.0806206,2
0.18378320336341855,7.3083858489990225,0.697648286819458,-0.6145132780075073,-0.064751714,1.7525723999999998,2
-0.13914187252521515,8.064123153686522,-0.9205632209777832,-0.7709004878997803,0.98837996,1.8420641,2
-1.796003341674805,8.834866523742676,-2.4712343215942383,-0.6545998454093933,0.6374379,0.15424347,2
-3.9496750831604,9.328474044799805,-3.275354146957397,-0.5376548767089844,-0.9868528,-1.2654073,2
-5.52878999710083,9.589727401733398,-3.978515148162842,-0.4942266345024109,-0.32986724,-0.42088616,2
-6.2839460372924805,9.652910232543944,-4.046380043029785,-0.4426886439323425,0.204029,0.44257188,2
-6.248244285583496,9.682998657226562,-3.304215669631958,-0.4339928925037384,-0.6047566,0.5128214,2
-5.685781955718994,9.764927864074707,-2.378408908843994,-0.4819987416267395,-1.1863003,0.68233645,2
-4.810114860534668,10.033243179321287,-1.6015442609786987,-0.6050360798835754,-0.52320606,1.1322386999999998,2
-3.870711326599121,10.495599746704102,-1.367929220199585,-0.7815146446228027,0.63346726,1.6639968999999997,2
-3.3765203952789307,10.856684684753418,-1.990714430809021,-0.7902449965476991,2.0457878000000003,1.1288790000000002,2
-3.2724266052246094,10.795903205871582,-2.028226613998413,-0.6809817552566528,1.328021,0.49174652,2
-3.046579599380493,10.430304527282717,-1.223388910293579,-0.6585437059402466,-0.5198463,0.4465425,2
-2.5456080436706543,9.842840194702148,-0.2583684027194977,-0.7413771152496338,-1.1640037,0.68966687,2
-1.935901165008545,9.16769313812256,0.5627254843711853,-0.8303311467170715,-1.4205671999999998,1.0332786,2
-1.4178383350372314,8.652011871337889,1.1603258848190308,-0.8918648958206177,-1.065349,1.0635164,2
-0.9959967732429504,8.67250919342041,1.607976317405701,-0.918992042541504,-0.38240165,1.0595458,2
-0.7575097680091858,9.058954238891602,1.91418719291687,-0.9156368970870972,0.37140608,0.6753115,2
-0.7750696539878845,9.343371391296387,1.9589548110961916,-0.9118627905845642,1.459968,0.2003638,2
-0.9924778342247008,9.271780014038086,1.9070183038711548,-0.945122003555298,1.8597792,0.026267206,2
-1.5191856622695925,9.16946506500244,1.9464094638824463,-0.9596105217933656,-1.5937473999999998,-0.2302962,2
-1.9580235481262207,9.248417854309082,1.5861878395080566,-0.89615797996521,-3.8273761,-0.17531833,2
-2.0642268657684326,9.366291999816896,0.8354634046554565,-0.8058198094367981,-2.4016168,0.0009162979,2
-1.9691367149353027,9.435876846313477,0.298328310251236,-0.7008495926856995,-0.6401868000000001,-0.018936822,2
-1.810760855674744,9.483283042907717,0.1943371295928955,-0.5802538394927979,-0.19700404,0.06566802,2
-1.709683537483215,9.443676948547363,0.35782039165496826,-0.4593100845813751,-0.344528,0.226631,2
-1.7443814277648926,9.331326484680176,0.5389863848686218,-0.36771416664123535,-0.3484986,0.3640757,2
-1.9101929664611816,9.213128089904783,0.6571799516677856,-0.322967529296875,0.0720821,0.45662177,2
-2.191478490829468,9.123605728149414,0.7844517827033997,-0.3429595232009888,0.50640726,0.44959682,2
-2.548115491867065,9.081168174743652,0.9810847640037536,-0.4362442791461945,0.33444872,0.44012842,2
-2.909172534942627,9.100584030151367,1.231176733970642,-0.5695143938064575,-0.6020076999999999,0.49480084,2
-3.160101890563965,9.075626373291016,1.3617169857025146,-0.6694597601890564,-2.0503693,0.5109888,2
-3.2400829792022705,9.007182121276855,1.1763476133346558,-0.6579607725143433,-2.4645357000000003,0.42455134,2
-3.1903793811798096,9.053565979003906,0.6940107345581055,-0.5406084656715393,-1.2046263,0.4184427,2
-3.154609680175781,9.252613067626953,0.1758650690317154,-0.4128865301609039,0.7101309,0.31887165,2
-3.277395486831665,9.465487480163574,-0.014731509611010553,-0.3098215460777283,1.7702875,0.22388211,2
-3.5212013721466064,9.686735153198242,0.25474944710731506,-0.1787731945514679,1.7208074,0.15851954,2
-3.868879556655884,9.91327953338623,0.9532468914985656,-0.036657687276601784,-0.08093964,-0.011301007,2
-4.232267379760741,9.995871543884276,1.4697809219360352,0.034221280366182334,-1.5070046,-0.38026363,2
-4.510573863983153,9.959704399108887,1.4281860589981081,0.1020401492714882,-2.7360654,-1.0830641,2
-4.635849952697754,10.07411289215088,0.5114483833312988,0.3902217447757721,-3.8340957,-1.636508,2
-4.568144798278809,10.099580764770508,-0.8609436154365541,0.9432786107063292,-0.9783007,-2.0024164,2
-4.389893531799316,9.928083419799805,-1.6471916437149048,1.220880389213562,1.5238034,-2.4798074,2
-4.115607261657715,10.05202865600586,-1.5333455801010132,1.2589482069015503,1.9385809,-2.6532931,2
-3.78145170211792,10.742338180541992,-0.7164899706840515,1.3039671182632446,1.0543534,-2.2901337,2
-3.3136374950408936,11.886213302612305,0.34207993745803833,1.392230987548828,-0.76144356,-1.6771306,2
-2.7617526054382324,12.909795761108398,0.9299815893173218,1.4545979499816897,-2.5314255,-1.1798862,2
-2.4891891479492188,12.83370304107666,0.10325146466493608,1.4552463293075562,-0.8155051,-1.7736472,2
-2.413681745529175,12.253173828125,-0.7427553534507751,1.3704837560653689,1.8686367,-1.6896533,2
-2.5117130279541016,11.627123832702635,-0.6906072497367859,1.2032253742218018,1.7922786,-1.2840388,2
-2.8493463993072514,10.894124031066896,-0.18993307650089264,1.0273452997207642,0.97310835,-1.3665055,2
-3.1516230106353764,10.280046463012695,0.1029454618692398,0.8801251649856567,0.95722586,-1.3005321,2
-3.1534886360168457,9.93389129638672,0.11210987716913223,0.7646468281745911,1.609019,-1.0797043,2
-2.8995697498321533,9.660955429077148,0.07540611177682878,0.630134642124176,2.2583687,-0.90224797,2
-2.497657299041748,9.30412483215332,0.1367865949869156,0.4824490547180176,2.5054638,-0.59589905,2
-2.092987298965454,8.829374313354492,0.2688175141811371,0.3443918824195862,2.5240953,-0.2706133,2
-1.7234796285629272,8.244687080383299,0.4091929793357849,0.21406862139701846,2.1994202,0.1328632,2
-1.3323668241500854,7.63603401184082,0.5731425285339355,0.08080822974443436,1.3997977,0.44898596,2
-0.8069511651992798,7.1284356117248535,0.7666628956794739,-0.06913416087627411,0.14049901,0.7302894,2
-0.2247026115655899,6.861435890197754,0.7132015228271484,-0.2583091855049133,-0.45448375,1.0793989,2
0.15636156499385834,7.02116060256958,0.01111084781587124,-0.4689444005489349,0.20616703,1.6447546000000002,2
-0.3182103633880615,7.571767330169678,-1.3398762941360474,-0.5644032955169678,0.86345804,1.2916746,2
-2.4039597511291504,8.358817100524902,-2.47647476196289,-0.4646131694316864,-0.8365799999999999,-1.0571023000000002,2
-4.633054733276367,9.201571464538574,-3.2490413188934326,-0.3835188150405884,-1.2727377,-1.071763,2
-5.895795822143555,9.483280181884766,-4.103750228881837,-0.30752646923065186,0.73884153,0.19700404,2
-6.252227783203125,9.29413604736328,-4.136115550994873,-0.31735914945602417,0.33383787,0.40622538,2
-5.9711527824401855,9.446950912475586,-3.4860310554504395,-0.38517487049102783,-1.058324,0.58123827,2
-5.264739513397217,10.11983585357666,-2.9604060649871826,-0.4829074144363403,-1.2950343,0.8454375,2
-4.367569923400879,11.008915901184082,-2.936821460723877,-0.5705676078796387,0.15913039999999998,0.99082345,2
-3.955906391143799,11.524388313293455,-3.5311887264251713,-0.5334154367446899,1.4630222,-0.0421497,2
-4.260905742645264,11.087692260742188,-2.9235994815826416,-0.3533138930797577,0.50946164,-0.6096435,2
-4.182952404022217,10.147334098815918,-1.5209873914718628,-0.2945123016834259,-0.9654725,-0.12858713,2
-3.6141736507415767,9.10134983062744,-0.0631340816617012,-0.4261634349822998,-1.3429873,0.63499445,2
-2.8249168395996094,8.299585342407228,1.1379131078720093,-0.6664261221885681,-1.4877623,1.491733,2
-2.1091146469116206,7.949186325073242,1.9211310148239136,-0.908970057964325,-1.7085901,1.9895881,2
-1.5740995407104492,8.247883796691895,2.2311198711395264,-1.0965189933776855,-1.0790935,2.3118196,2
-1.4573228359222412,9.028388023376463,1.971070408821106,-1.184173583984375,0.50946164,1.6829338,2
-1.818309307098389,9.676514625549316,1.4675459861755369,-1.0432108640670776,0.9053023,0.28405234,2
-2.0734729766845703,9.899073600769043,1.15020489692688,-0.8436827659606934,0.13133603,-0.0033597588,2
-2.0141310691833496,9.766852378845217,1.0005438327789309,-0.7708470821380615,-0.12522738,0.35521814,2
-1.8015249967575075,9.522504806518556,1.006633758544922,-0.8338190317153931,0.14691310000000002,0.48197266,2
-1.5410139560699463,9.339242935180664,1.2209913730621338,-0.9257213473320008,-0.35277468,0.45020768,2
-1.3001807928085327,9.268792152404783,1.517485737800598,-0.9459035396575928,-1.2464706,0.40317106,2
-1.188499093055725,9.315080642700195,1.6860817670822144,-0.8666243553161621,-1.4443909,0.45753807,2
-1.232110619544983,9.399060249328613,1.5993531942367554,-0.7482544183731079,-0.795652,0.52839845,2
-1.4258874654769895,9.382916450500488,1.3898262977600098,-0.6460162401199341,-0.16218472,0.42180246,2
-1.7854244709014893,9.272871971130373,1.2279869318008425,-0.5887892246246338,-0.5036584,0.16218472,2
-2.192046403884888,9.172833442687988,1.1006057262420654,-0.5848590135574341,-0.37507126,0.21899518,2
-2.526864051818848,9.193941116333008,0.9573392868041992,-0.6153629422187805,0.43004912,0.5317582,2
-2.8408827781677246,9.272669792175293,1.0175925493240356,-0.6440597176551819,0.52748215,0.5644395000000001,2
-3.012519836425781,9.24909782409668,1.2404333353042605,-0.6429641246795654,-1.2180653,0.45204028,2
-3.006694793701172,9.188834190368652,1.2221959829330444,-0.6139065623283386,-2.3921483,0.38453966,2
-2.8951098918914795,9.234308242797852,0.8514793515205383,-0.5366399884223938,-2.118786,0.41722095,2
-2.8154420852661133,9.36670207977295,0.342352956533432,-0.4135558605194092,-0.80909103,0.42760566,2
-2.878018856048584,9.411924362182617,0.002562005305662751,-0.2926056385040283,0.87781334,0.3680463,2
-3.140034914016724,9.369562149047852,-0.057169310748577125,-0.17736873030662534,2.1713204,0.15454891,2
-3.6040966510772714,9.390546798706056,0.24625201523303986,-0.05873413756489754,2.3209825,-0.004276057,2
-4.23486328125,9.588896751403807,1.0952475070953371,0.03748289495706558,-0.86467975,-0.18967366,2
-4.806345939636231,9.650876998901367,1.645287036895752,0.07451923191547394,-2.5054638,-0.6270532,2
-5.109946250915527,9.599268913269043,1.4443515539169312,0.2075263559818268,-3.8594465,-1.2449434,2
-5.127589225769043,9.679849624633787,0.4881940484046936,0.6612526774406433,-3.2669072,-1.6948457,2
-4.913769245147705,9.736639976501463,-0.7347319722175598,1.1339393854141235,-0.16829337,-2.2061398,2
-4.520060062408447,9.79721736907959,-1.4087332487106323,1.248955488204956,1.783421,-2.3420575,2
-4.018117427825929,10.234606742858887,-1.0136231184005735,1.2429192066192627,1.5503759,-2.2449298,2
-3.4914050102233887,11.212307929992676,0.0854124203324318,1.289785861968994,-0.27916542,-1.9877555,2
-3.003901243209839,12.275885581970215,0.8657755255699158,1.3828141689300537,-2.1820107,-1.7119498,2
-2.7094712257385254,12.690301895141602,0.33113497495651245,1.4434552192687988,-1.3793337,-1.8955148,2
-2.489743709564209,12.517518997192385,-0.5451298356056213,1.4072071313858032,1.4737124,-1.8551978,2
-2.332707405090332,12.112444877624512,-0.7188376784324646,1.2727880477905271,1.5653422,-1.4037683,2
-2.416920661926269,11.499463081359865,-0.3127589225769043,1.1082391738891602,0.8179486,-1.2040153999999998,2
-2.776820421218872,10.73419952392578,0.08787540346384047,0.9339148998260498,0.6927211999999999,-1.4025466,2
-3.1153011322021484,10.142391204833984,0.22393497824668884,0.7732097506523132,1.1743883999999998,-1.2437216,2
-3.240303039550781,9.75749969482422,0.19340606033802032,0.6180599331855774,1.887879,-1.1435398,2
-3.142452955245972,9.458406448364258,0.17607280611991882,0.4590960443019867,2.4040601,-0.9285152,2
-2.8862998485565186,9.157297134399414,0.22675807774066925,0.31600624322891235,2.7766879,-0.4746423,2
-2.5712263584136963,8.757153511047362,0.34472110867500305,0.17226099967956546,2.706744,-0.035430185,2
-2.2164459228515625,8.27582836151123,0.462142288684845,0.02480358630418777,2.2143865000000003,0.26175576,2
-1.768895983695984,7.835658550262451,0.5257175564765929,-0.13282161951065066,1.5033393999999998,0.43066,2
-1.179617404937744,7.5238609313964835,0.6096324920654297,-0.30949854850769043,0.5531385,0.5742133,2
-0.5476616024971008,7.387421131134032,0.6042143702507019,-0.5037088990211487,0.0015271631,0.9049969,2
-0.26803097128868103,7.577883720397949,0.06663543730974197,-0.6694243550300598,0.0036651916,1.2198979,2
-1.040724515914917,8.164839744567871,-1.3752264976501465,-0.659475564956665,-0.014660766,0.8744536,2
-2.7915594577789307,8.795027732849121,-2.7514512538909908,-0.5048349499702454,0.19547687,-0.37293324,2
-4.617202758789063,9.253289222717283,-3.3773086071014404,-0.4941611886024475,0.33994650000000004,-0.6178902,2
-5.590965270996094,9.41671085357666,-3.458462238311768,-0.4967710673809052,-0.38759398,0.09560041,2
-5.7716169357299805,9.352635383605957,-3.2218403816223145,-0.4640559256076813,-0.7797695,0.074830994,2
-5.5170865058898935,9.557673454284668,-2.819646120071411,-0.4955081045627594,-1.3338243,0.376293,2
-5.032788276672363,10.173766136169434,-2.6615235805511475,-0.5822518467903137,-1.0564915,0.86284715,2
-4.5593600273132315,10.898982048034668,-2.7825939655303955,-0.6867468953132629,0.10323623,1.1044444,2
-4.545464992523193,11.259551048278807,-3.0612521171569824,-0.6907241344451904,1.0772609,0.5635232,2
-4.758935451507568,10.931272506713867,-2.78454327583313,-0.5472267866134644,0.97066486,0.11056661,2
-4.504455089569092,10.17146110534668,-1.7886613607406616,-0.5060261487960815,0.09285152,0.5766568,2
-3.7721679210662837,9.321518898010254,-0.5986214876174927,-0.6135061979293823,-0.23915374,1.2498302,2
-2.912245273590088,8.57197093963623,0.6192446351051331,-0.7869517207145691,-0.8393288000000001,1.6465873,2
-2.1716151237487797,8.113282203674316,1.7569804191589355,-0.9466338157653807,-1.8597792,1.6325374,2
-1.5751198530197144,8.237793922424316,2.3515658378601074,-0.9996488690376282,-1.1899655,1.5293012,2
-1.1232821941375732,8.906888008117676,2.4417123794555664,-0.9855931997299194,0.464563,1.3738358999999998,2
-0.8936482071876526,9.545186042785645,2.2801735401153564,-0.9961670041084291,1.349096,0.97433007,2
-0.9471206068992616,9.648059844970703,1.9296704530715945,-1.0348445177078247,0.79351395,0.37812558,2
-1.1287268400192259,9.411800384521484,1.4227551221847534,-0.9957824945449828,-0.110872045,0.33108896,2
-1.3264429569244385,9.294325828552246,1.2271909713745115,-0.9303070306777954,-0.5879578000000001,0.2959642,2
-1.4566354751586914,9.401773452758787,1.249608039855957,-0.9021727442741394,-0.9764681,0.01863139,2
-1.5067905187606812,9.628565788269043,1.3047593832015991,-0.8471895456314087,-1.6126842,-0.028405234,2
-1.5595227479934692,9.722031593322754,1.2061494588851929,-0.7146412134170532,-2.0668626,0.08582657,2
-1.69594407081604,9.6737699508667,1.039826273918152,-0.5414853692054749,-1.8484782,-0.023518313,2
-1.854402780532837,9.597797393798828,0.8901629447937012,-0.4304710030555725,-1.0656544,-0.03726278,2
-1.9974843263626096,9.489874839782717,0.7865393161773682,-0.38886666297912603,-0.18112154,0.118507855,2
-2.1564908027648926,9.343782424926758,0.7869773507118225,-0.3819203078746796,0.37323865,0.29749137,2
-2.415329933166504,9.233893394470217,0.9531833529472352,-0.3938127458095551,0.48899764,0.441961,2
-2.7675044536590576,9.20901584625244,1.216877579689026,-0.439374178647995,-0.33475417,0.3680463,2
-3.0735797882080083,9.17682647705078,1.3897604942321775,-0.5139527320861816,-1.3900238,0.34666604,2
-3.199814558029175,9.08646297454834,1.3203474283218384,-0.5706527829170227,-2.1682662999999995,0.2724459,2
-3.1522638797760014,9.003941535949707,0.931278109550476,-0.5698621869087219,-2.2672265,0.2312125,2
-3.0605559349060063,9.05069065093994,0.3367693722248077,-0.4756689369678497,-0.9007208,0.19303341,2
-3.0692155361175537,9.277771949768066,-0.11852537095546722,-0.3595538735389709,0.9434814,0.15607607,2
-3.242060899734497,9.487187385559082,-0.2503012716770172,-0.25724226236343384,2.1181753,0.08735373,2
-3.56925368309021,9.641201972961426,-0.062376096844673164,-0.14111009240150452,2.4098635,0.01863139,2
-3.9958648681640634,9.883689880371094,0.6240436434745789,-0.023422552272677418,0.8011498,0.08368854,2
-4.373729228973389,10.09620189666748,1.4708846807479858,0.017684228718280792,-1.4227052,-0.16798794,2
-4.577250957489014,10.129688262939453,1.7413877248764038,0.0409524142742157,-2.620001,-0.69913524,2
-4.584125995635986,10.167447090148926,1.280194878578186,0.25246846675872797,-4.5222354000000005,-1.1801916,2
-4.386624336242677,10.30142879486084,-0.19918631017208102,0.8767157793045044,-2.182927,-1.5683966,2
-4.14142656326294,10.159584045410156,-1.5130066871643066,1.303154706954956,1.0589349,-1.9737056,2
-3.952515602111816,10.06325912475586,-1.6563022136688232,1.376383662223816,2.8759537,-2.2907448,2
-3.767024755477905,10.417155265808104,-0.803411066532135,1.390942931175232,2.047315,-2.322204,2
-3.496159315109253,11.244396209716797,0.5007149577140808,1.493288278579712,-0.12950343,-2.0060816000000004,2
-3.112377643585205,12.246505737304688,1.5433931350708008,1.6026552915573118,-1.6792686,-1.5818355,2
-2.7904655933380127,12.767415046691895,1.6402111053466797,1.5850266218185425,-2.54517,-1.5552629,2
-2.7008702754974365,12.426070213317873,0.4475078284740448,1.511421799659729,0.015882496,-1.9501873,2
-2.6635072231292725,11.876845359802244,-0.370088666677475,1.3662129640579224,2.0674734,-1.6374242,2
-2.726254463195801,11.345502853393555,-0.2272966057062149,1.1665600538253784,1.2305881,-1.3350459,2
-2.9494702816009517,10.750863075256348,0.1932182013988495,0.9829061627388,0.52442783,-1.4217888,2
-3.0578885078430176,10.286044120788574,0.2366961240768433,0.8293200731277466,1.1285735,-1.2156218,2
-2.9243395328521733,9.950431823730467,0.07456816732883452,0.6895599961280823,1.9523253,-1.0277808000000002,2
-2.636585235595703,9.609042167663574,0.0606187991797924,0.5388911962509155,2.1887302,-0.7644979000000001,2
-2.2774245738983154,9.19479274749756,0.17175553739070892,0.3867665231227875,2.2018638,-0.38515055,2
-1.9224086999893188,8.698586463928223,0.25787097215652466,0.2414762228727341,2.141999,0.016798794,2
-1.585989236831665,8.121147155761719,0.3214209079742432,0.09900587052106856,1.6737707999999998,0.31673363,2
-1.1761300563812256,7.559914112091064,0.3801602423191071,-0.05179301649332047,0.7501425,0.6783658,2
-0.6130262613296509,7.21996545791626,0.2943491041660309,-0.2252185791730881,-0.15393804,1.1053606000000002,2
-0.2411661446094513,7.278413772583008,-0.3122037649154663,-0.41759926080703735,0.110872045,1.7140878000000002,2
-0.6354748010635376,7.7499918937683105,-1.560792088508606,-0.5199971199035645,0.89369583,1.754405,2
-2.515329360961914,8.525339126586914,-2.522738218307495,-0.4541114270687103,-0.09896017,-0.14019357,2
-4.588902473449707,9.433568954467773,-2.9922053813934326,-0.44653940200805664,-2.2660046,-1.2250903,2
-5.764416694641112,9.758825302124023,-3.8731811046600337,-0.4044874012470245,-0.57971114,-0.09712757,2
-6.1333675384521475,9.483603477478027,-4.227978706359863,-0.3966769278049469,0.17348573,0.05009095,2
-6.0388898849487305,9.301790237426758,-3.759900331497192,-0.4207562208175659,-0.7180721,0.052839845,2
-5.7074952125549325,9.581042289733887,-3.1297953128814697,-0.4958730638027191,-0.61422503,0.42149702,2
-5.272472381591797,10.226579666137695,-2.5695114135742188,-0.6504381895065308,0.5207626000000001,0.7968736999999999,2
-5.067857265472412,10.615521430969238,-2.286764621734619,-0.7038860917091371,0.79626286,0.3277292,2
-5.044482707977295,10.554829597473145,-2.2393834590911865,-0.5278557538986206,0.5448918,0.14935656,2
-4.607346057891847,10.161666870117188,-1.7444630861282349,-0.4497811496257782,-0.24678956,0.6591236,2
-3.73106050491333,9.667065620422363,-0.8669295907020569,-0.5851017832756042,-0.49938235,1.3949108,2
-2.712897062301636,9.291193008422852,0.09416893869638444,-0.8203364014625549,-0.5739079,2.0598376,2
-1.8435490131378172,9.009420394897461,0.9353846311569214,-0.9988479018211364,-1.0036516,2.1358902000000004,2
-1.2294673919677734,8.931497573852539,1.4179978370666504,-1.0593652725219729,-0.75686204,1.6554449,2
-0.920034110546112,9.173433303833008,1.4900844097137451,-1.0257885456085205,0.47342056,1.1236867,2
-1.0526217222213743,9.40298557281494,1.3107619285583496,-0.9558284878730774,1.2571607,0.4202753,2
-1.4755723476409912,9.423492431640623,1.1741108894348145,-0.8556791543960571,0.5729916,-0.09773844,2
-1.907429814338684,9.323736190795898,1.1478641033172607,-0.7846052646636963,-0.40775254,-0.06078109,2
-2.2015082836151123,9.257580757141113,1.136736273765564,-0.793950080871582,-0.5864305999999999,0.29352075,2
-2.3282301425933842,9.255727767944336,1.1960313320159912,-0.8446471095085144,-0.9120218,0.2678644,2
-2.3092565536499023,9.31753921508789,1.2592759132385254,-0.8497823476791382,-1.4801265,0.10262536,2
-2.178518772125244,9.392065048217773,1.194255828857422,-0.7694380283355713,-1.4779885,0.24648413,2
-2.03637170791626,9.397024154663086,1.0308809280395508,-0.6437097191810608,-1.1120802,0.37323865,2
-1.99766218662262,9.338164329528807,0.8748158812522888,-0.5357357263565063,-0.67103547,0.42730024,2
-2.107353687286377,9.271586418151855,0.7634979486465454,-0.5025811195373535,-0.26206118,0.4343252,2
-2.2878637313842773,9.22996997833252,0.6731495261192322,-0.5527054667472839,0.44043383,0.49296826,2
-2.5289535522460938,9.238595962524414,0.6301801800727844,-0.634313702583313,0.9401216,0.5216789000000001,2
-2.8538732528686523,9.269376754760742,0.7407153844833374,-0.6877010464668274,-0.06078109,0.3848451,2
-3.1360762119293213,9.269990921020508,0.9233281016349792,-0.6952661871910095,-1.6432275,0.44532076,2
-3.232736349105835,9.185503959655762,0.8434502482414246,-0.6623605489730835,-1.9559906,0.40591997,2
-3.1707680225372314,9.091283798217773,0.5028737187385559,-0.5835407376289368,-1.3179418,0.31429017,2
-3.069579601287842,9.18996524810791,0.18503567576408386,-0.48614594340324396,-0.032070424,0.30298916,2
-3.0936381816864014,9.360440254211426,0.0683135986328125,-0.4014679789543152,1.2709051000000002,0.31642818,2
-3.3174726963043213,9.56429672241211,0.1957414299249649,-0.3170211017131805,2.1383338,0.21502456,2
-3.6570644378662114,9.83022403717041,0.7280550003051758,-0.2182007431983948,1.8848248,0.24831672,2
-4.000932693481444,10.03928279876709,1.6202003955841064,-0.11113797873258592,-0.2706133,0.19639318,2
-4.268595218658446,10.081040382385254,2.1708805561065674,-0.09235295653343199,-2.5396724,-0.355829,2
-4.3469815254211435,10.084360122680664,1.960278034210205,-0.06574967503547667,-4.1618247,-0.8527679,2
-4.2225422859191895,10.1907377243042,0.7231538891792297,0.30834269523620605,-4.1187587,-1.0946705,2
-4.037435531616212,10.092622756958008,-0.8559282422065735,0.904016137123108,-0.947452,-1.5696182,2
-3.935193538665772,9.745611190795898,-1.7657016515731812,1.2215425968170166,1.2925909,-2.1276436000000003,2
-3.8875398635864262,9.645170211791992,-1.8645176887512207,1.288604974746704,1.9367483,-2.6487117,2
-3.764567613601685,10.087224960327148,-1.2974388599395752,1.3339699506759644,1.2049317,-2.5806002999999995,2
-3.4680542945861816,11.06310749053955,-0.2024333029985428,1.4467270374298096,-0.46181414,-2.0552561000000003,2
-2.948316097259521,12.32519817352295,0.8940536975860596,1.5537575483322144,-2.2134702,-1.2840388,2
-2.398221731185913,13.049761772155762,1.139864206314087,1.548007607460022,-2.4419339,-1.3182472,2
-2.2389843463897705,12.509589195251465,0.1236080750823021,1.4963618516921997,0.37904188,-1.9544634,2
-2.2551944255828857,11.921061515808105,-0.2525731027126312,1.365877985954285,1.2812898,-1.5903877,2
-2.4622397422790527,11.32896900177002,0.060945361852645874,1.213059663772583,0.46303585,-1.3967434,2
-2.7745513916015625,10.667241096496582,0.2830837368965149,1.0790928602218628,0.15668693,-1.5402967,2
-2.847370147705078,10.156155586242676,0.08256156742572784,0.9698830842971802,1.1212431,-1.2617421,2
-2.67378306388855,9.728049278259276,-0.1674569845199585,0.8475995063781738,2.0635028,-0.9807441,2
-2.3960630893707275,9.288016319274902,-0.2129303812980652,0.6880987286567688,2.35794,-0.59650993,2
-2.1144037246704097,8.773800849914549,-0.14381270110607147,0.5181982517242432,2.4801128,-0.24404067,2
-1.8359973430633545,8.210405349731445,-0.023183517158031464,0.3515860140323639,2.3441954,0.17654006,2
-1.5178567171096802,7.681687831878662,0.18396928906440732,0.18419617414474487,1.6187929,0.55833083,2
-1.0637874603271484,7.256448268890381,0.4589181840419769,0.01327364146709442,0.28619036,0.9755518,2
-0.4776868522167206,6.951292514801025,0.5737634897232056,-0.17966552078723907,-0.44623706,1.4556919,2
-0.02540457807481289,6.992850303649902,0.07942034304141997,-0.4029234051704407,0.05009095,1.881465,2
-0.9478629231452942,7.686624050140381,-1.288442850112915,-0.5495941638946533,0.6038403,1.2822062,2
-3.6931791305541988,8.853432655334473,-2.1500675678253174,-0.5834994912147522,-1.6875153000000005,-1.7910568999999998,2
-5.8102898597717285,9.806954383850098,-3.114017963409424,-0.5842324495315552,-1.8325957,-1.4947872,2
-6.757857322692871,9.848026275634766,-4.052413940429688,-0.4784078299999237,0.9272934000000002,0.24648413,2
-6.77257251739502,9.418377876281738,-3.745861053466797,-0.44381412863731373,0.44165558,0.46761733,2
-6.313915729522705,9.24598217010498,-2.810307025909424,-0.4492851793766022,-0.97066486,0.54641896,2
-5.6101651191711435,9.641680717468262,-2.010538101196289,-0.5236072540283203,-0.16584991,0.9224065,2
-4.7363481521606445,10.271825790405273,-1.6224838495254517,-0.6498172879219055,0.88514376,1.255328,2
-4.024576187133788,10.61400032043457,-1.6442127227783203,-0.6173703074455261,1.0079277,0.7089091,2
-3.5390079021453857,10.361856460571287,-1.2346904277801514,-0.569016695022583,0.54611355,0.32375857,2
-2.952719688415528,9.91165828704834,-0.4281395971775055,-0.6429014205932617,0.52106804,0.82711154,2
-2.2560811042785645,9.431991577148438,0.4874203503131866,-0.8109512925148009,0.6035349,1.5296066,2
-1.6815532445907593,8.950294494628906,1.2898969650268557,-0.9578473567962646,0.0711658,1.822211,2
-1.324755072593689,8.680171966552733,1.83187472820282,-1.0254800319671629,-0.022296581,1.6597209,2
-1.1737052202224731,8.887621879577637,2.099071741104126,-1.0421377420425415,0.4251622000000001,1.3075571,2
-1.3342242240905762,9.257899284362793,2.14438796043396,-1.0266574621200562,0.052839845,0.37720928,2
-1.6714261770248413,9.39041805267334,2.035158395767212,-0.9294703006744384,-0.88514376,-0.1423316,2
-1.8644206523895264,9.325343132019043,1.7764581441879272,-0.8355478644371033,-1.319469,0.16829337,2
-1.9055418968200684,9.257061958312988,1.4697182178497314,-0.8319788575172424,-1.1404854,0.36254853,2
-1.817148208618164,9.285941123962402,1.2601791620254517,-0.8781034350395203,-0.94959,0.20922135,2
-1.645671010017395,9.386785507202148,1.1393771171569824,-0.8762544393539429,-0.9416488000000002,0.27214047,2
-1.5317398309707642,9.452388763427734,1.0343307256698608,-0.7777243852615356,-0.52748215,0.47983465,2
-1.5920349359512331,9.439603805541992,0.961025059223175,-0.6462770700454712,0.08582657,0.5354234,2
-1.8041033744812007,9.377300262451172,0.9465259313583374,-0.551016092300415,0.45845437,0.47036624,2
-2.116722822189331,9.297805786132812,1.0336484909057615,-0.5325136780738831,0.25717425,0.3848451,2
-2.454782724380493,9.231858253479004,1.116847276687622,-0.6095592975616455,0.106595986,0.3753767,2
-2.7672524452209477,9.200798034667967,1.1559710502624512,-0.700506865978241,-0.09132435,0.41905355,2
-2.9794614315032963,9.223013877868652,1.176210641860962,-0.7314726114273071,-0.8512407,0.45448375,2
-3.0138840675354004,9.2652587890625,1.1210126876831057,-0.701712429523468,-1.6108516000000002,0.39828414,2
-2.8763120174407963,9.307202339172363,0.8796482086181641,-0.6415538191795349,-1.7626517,0.46395215,2
-2.7317485809326167,9.32927131652832,0.5169543623924255,-0.5532541275024414,-0.8918633,0.44532076,2
-2.6809394359588623,9.325700759887695,0.20757438242435453,-0.4721777737140656,0.344528,0.36713,2
-2.802448511123657,9.333762168884276,0.08601871132850647,-0.3965853452682495,1.4025466,0.2751948,2
-3.135960340499878,9.394979476928713,0.13314686715602875,-0.3090493381023407,2.2757785,0.09315695,2
-3.654418468475342,9.551492691040039,0.4369885623455048,-0.20940347015857694,2.4000895,0.02321288,2
-4.2281575202941895,9.794241905212402,1.2260502576828003,-0.10906007885932922,-0.27000242,0.09468412,2
-4.652264595031738,9.96385669708252,1.811026692390442,-0.08129122108221054,-2.1444426,-0.39370266,2
-4.773259162902832,10.100872993469238,1.4778789281845093,-0.0013478683540597556,-2.770274,-0.9114109,2
-4.685361385345459,10.30690860748291,0.5703575015068054,0.28677040338516235,-2.6578746,-1.2983941,2
-4.338579654693604,10.291807174682617,-0.5447456836700441,0.7859299182891846,-1.5100589,-1.5995506000000002,2
-3.8193531036376953,9.96681022644043,-1.3631638288497925,1.166088581085205,0.024740042,-2.008525,2
-3.316972494125366,9.89362907409668,-1.5841351747512815,1.2915674448013306,0.98471475,-2.2855522999999995,2
-2.940993547439575,10.339372634887695,-1.2343380451202393,1.321164846420288,1.1716396,-2.3142629,2
-2.5829992294311523,11.245738983154297,-0.3872191309928894,1.378242015838623,0.28496864,-1.9798143,2
-2.1717448234558105,12.274873733520508,0.5533793568611145,1.4646546840667725,-1.2119566000000002,-1.4398094,2
-1.9316744804382324,12.6814603805542,0.7903578877449036,1.5168131589889526,-1.6450601000000002,-1.4993688,2
-2.015674352645874,12.287769317626953,0.1621265411376953,1.5167042016983032,0.2910773,-1.8060231,2
-2.2555577754974365,11.728292465209961,-0.26152610778808594,1.3785132169723509,1.4062119,-1.5647314,2
-2.58729887008667,11.195969581604004,-0.10624419897794724,1.1782755851745603,0.9761627,-1.4062119,2
-2.941959857940674,10.66089153289795,0.20175431668758392,1.0006382465362549,0.5348125,-1.3603969,2
-3.0640342235565186,10.237529754638672,0.19278448820114136,0.87623131275177,1.2583824,-1.0916162,2
-2.9200308322906494,9.854536056518556,-0.007243757601827383,0.7522843480110168,2.0995438,-0.8564331000000001,2
-2.6300549507141118,9.430959701538086,-0.030380317941308018,0.6023107767105103,2.1545217,-0.59895337,2
-2.286561727523804,8.930269241333008,0.0932660773396492,0.441956102848053,2.0176878,-0.3222314000000001,2
-1.9392081499099727,8.383187294006348,0.2505902647972107,0.28183314204216003,1.751656,0.042760565999999986,2
-1.5483241081237793,7.883269786834718,0.39114287495613104,0.1242416650056839,1.2541064,0.4120286,2
-1.0834674835205078,7.465559482574463,0.4909334182739258,-0.0332799032330513,0.5299255999999999,0.7635816,2
-0.6125771403312683,7.228362083435059,0.4104522168636322,-0.21083936095237726,0.018936822,1.2415836,2
-0.36000335216522217,7.30966854095459,-0.09708113223314284,-0.4053109884262085,-0.034513887,1.6282613,2
-0.7364428639411926,7.734663486480713,-1.233031153678894,-0.5291280150413513,0.2968805,1.4804319,2
-2.3765461444854736,8.426365852355957,-2.3653509616851807,-0.4781555533409119,-0.68386364,-0.4083634,2
-4.459097862243652,9.159387588500977,-3.009096384048462,-0.4681712687015533,-1.9257526000000005,-1.4624114,2
-5.829820156097412,9.569465637207033,-3.665020942687988,-0.4428005218505859,-0.6759224,-0.12156218,2
-6.422987461090088,9.41903018951416,-3.878250122070313,-0.4159688651561737,0.29840767,0.2742785,2
-6.37878942489624,9.299027442932127,-3.4535014629364014,-0.4144451022148132,-0.50885075,0.34483343,2
-5.9110541343688965,9.804461479187012,-2.914738416671753,-0.478998064994812,-0.50243664,0.6985244,2
-5.310576438903809,10.651052474975586,-2.534839391708374,-0.6348533034324646,0.76144356,1.0830641,2
-5.038556098937988,11.200074195861816,-2.4554452896118164,-0.7097464799880981,1.2629639,0.5525276,2
-5.028544425964356,11.047260284423828,-2.218620777130127,-0.5413461327552795,1.0769554,-0.16096300000000002,2
-4.651669979095459,10.39723300933838,-1.347888708114624,-0.3735812306404114,-0.31978795,0.17898351,2
-3.800715446472168,9.526493072509766,-0.2831765413284302,-0.4467390179634094,-0.8567385000000001,0.89644474,2
-2.703534841537476,8.822847366333008,0.6848383545875549,-0.7055882811546326,-1.0748174,1.7449366000000002,2
-1.7098038196563718,8.421184539794924,1.4866743087768557,-0.9501076936721802,-1.9541580000000005,2.2061398,2
-0.8639668226242065,8.535895347595215,1.6247513294219968,-1.0740935802459717,-1.5610662,2.5967882,2
-0.3146888017654419,9.12469482421875,1.0609900951385498,-0.9567577242851256,0.7272350999999999,2.1426098,2
-0.1681724339723587,9.523412704467773,0.8571035861968994,-0.8036687970161438,1.7895297,0.9935723,2
-0.2818787395954132,9.53815460205078,1.050623655319214,-0.7499510049819946,1.7892243000000003,0.13225232,2
-0.5741623640060425,9.361741065979004,1.3342825174331665,-0.7888382077217102,1.3747523,-0.19303341,2
-0.977306604385376,9.228676795959473,1.6559327840805054,-0.8554049730300903,-0.4361577999999999,-0.12950343,2
-1.4751838445663452,9.247465133666992,1.8092550039291384,-0.8846443295478821,-1.9544634,-0.053450707,2
-1.9021185636520384,9.403240203857422,1.7163348197937012,-0.8469901084899902,-2.1126773,0.13255776,2
-2.13155198097229,9.548291206359863,1.501381278038025,-0.7447236776351929,-1.9743165,0.27397305,2
-2.2211573123931885,9.590023040771484,1.243668794631958,-0.6065938472747803,-1.9617938,0.21746802,2
-2.3178904056549072,9.548608779907227,0.9685748219490052,-0.5007703304290771,-1.271516,0.15790866,2
-2.452949523925781,9.460331916809082,0.7389331459999084,-0.4818017184734345,-0.09162979,0.16982053,2
-2.580460786819458,9.364105224609377,0.6362260580062866,-0.5110688805580139,0.60903263,0.29718593,2
-2.7019517421722408,9.258889198303224,0.7314874529838562,-0.5297867655754089,0.1386664,0.3753767,2
-2.786717414855957,9.167499542236328,0.9101704955101012,-0.533398449420929,-0.6032294,0.31581733,2
-2.789814710617065,9.127647399902344,0.986924648284912,-0.53817218542099,-1.0283916,0.29718593,2
-2.747370719909668,9.146523475646973,0.9292778968811036,-0.5521740913391113,-1.2657127,0.34697145,2
-2.7056925296783447,9.170742988586426,0.7145338654518127,-0.5475216507911682,-1.1945469,0.3707952000000001,2
-2.686342000961304,9.17790699005127,0.4219703674316406,-0.495388925075531,-0.56382865,0.35735616,2
-2.6996405124664307,9.253570556640623,0.19732394814491272,-0.4149426519870758,0.18600847,0.35063666,2
-2.7815382480621342,9.376321792602539,0.1248529776930809,-0.3259861171245575,0.97433007,0.31123585,2
-2.971297025680542,9.470502853393556,0.237780824303627,-0.2404443323612213,1.616044,0.16065755,2
-3.2790629863739014,9.64182186126709,0.6709686517715454,-0.1638125628232956,1.3662001,0.1328632,2
-3.6036260128021236,9.901556968688963,1.3553615808486938,-0.08617179095745088,0.18661933,0.18570304,2
-3.8813955783844,10.028501510620117,1.8298571109771729,-0.034974496811628335,-1.8304577,-0.27397305,2
-4.064714431762694,10.069601058959961,1.726697564125061,0.0020882561802864075,-3.363424,-0.9120218,2
-4.121906280517578,10.196907043457033,0.8405020833015442,0.2473549991846085,-3.6019669000000003,-1.312444,2
-4.033091068267821,10.24607753753662,-0.5396375060081482,0.7827939391136169,-1.3545936,-1.6194037,2
-3.848230600357056,10.037915229797363,-1.5639958381652832,1.1608712673187256,0.8063421,-2.0042489,2
-3.625664472579956,9.930753707885742,-1.817249417304993,1.28213632106781,1.9275852,-2.39337,2
-3.371138334274292,10.280003547668457,-1.2631521224975586,1.3214417695999146,1.3200798,-2.3417517999999995,2
-3.0271847248077397,11.114339828491213,-0.12304555624723434,1.4104769229888916,-0.47586402,-1.8423696,2
-2.579009294509888,12.115975379943848,0.9440385699272156,1.4890506267547607,-1.779756,-1.2971723,2
-2.199084758758545,12.660285949707033,1.2380896806716921,1.467216730117798,-2.150551,-1.4126259,2
-2.153497695922852,12.3579740524292,0.3224051594734192,1.4353063106536863,0.39553526,-1.7947221000000002,2
-2.2716224193573,11.82985782623291,-0.5010386705398561,1.3284776210784912,2.005776,-1.4086553,2
-2.496086597442627,11.317896842956545,-0.4539490044116974,1.1613779067993164,1.4556919,-1.2131784,2
-2.8200075626373287,10.76210880279541,-0.024401070550084114,0.998041033744812,0.9306532,-1.2971723,2
-2.9196510314941406,10.37661361694336,0.0941440686583519,0.8658700585365295,1.2366967,-1.1588113000000002,2
-2.7804839611053467,10.06440258026123,0.03671376779675484,0.7425386309623718,2.0549507,-1.0607675,2
-2.5081217288970947,9.716888427734377,0.042379003018140786,0.6068136692047119,2.5677722000000003,-0.8903360999999999,2
-2.188116788864136,9.306828498840332,0.19062495231628415,0.4822141528129578,2.5115724,-0.5326744999999999,2
-1.8798576593399048,8.847195625305176,0.388852208852768,0.3653817772865296,2.1627684,-0.15210545,2
-1.566718578338623,8.375869750976562,0.5211439728736877,0.2376317828893661,1.6991217,0.07666359,2
-1.161845088005066,7.980850696563722,0.5789348483085632,0.09556066989898683,0.9868528,0.34147367,2
-0.6489673256874084,7.685018062591553,0.622477114200592,-0.07675045728683473,-0.008857545999999999,0.6227771,2
-0.15937809646129608,7.536948204040527,0.41648611426353455,-0.2891157269477844,-0.23396139,1.0668761999999998,2
0.053629711270332336,7.657413005828857,-0.25968483090400696,-0.4755035042762756,-0.2706133,1.3118331,2
-1.0496701002120972,8.178474426269531,-1.619066834449768,-0.4879728555679321,-0.53023106,0.7440339,2
-3.09738826751709,8.782599449157715,-2.7767608165740967,-0.3637605011463165,-0.7189884,-0.8237518,2
-4.888602256774902,9.258119583129883,-3.5671083927154537,-0.34241610765457153,-0.28985557,-0.528093,2
-5.889573574066162,9.311760902404783,-3.8964629173278813,-0.34624311327934265,0.0009162979,0.30848694,2
-6.167629718780518,9.119698524475098,-3.641679286956787,-0.3703246116638184,-0.36560285,0.1386664,2
-5.955375671386719,9.222004890441896,-3.111891984939575,-0.4358060359954834,-0.6908886,0.26236662,2
-5.430194854736328,9.781533241271973,-2.689638376235962,-0.5384541153907776,-0.31490102,0.6966918000000001,2
-4.795858383178711,10.541739463806152,-2.5731279850006104,-0.6445774435997009,0.799928,0.97524637,2
-4.64428186416626,10.96737289428711,-2.8449921607971187,-0.6106298565864563,1.2009611,0.09773844,2
-4.73751163482666,10.713502883911133,-2.6173412799835205,-0.4458796679973602,0.4089743,-0.0571159,2
-4.371782302856444,10.007109642028807,-1.6216591596603394,-0.4261162877082825,-0.2846632,0.4361577999999999,2
-3.562684297561645,9.199228286743164,-0.4041361212730408,-0.5763823390007019,-0.22602014,1.1102476,2
-2.605459451675415,8.621081352233888,0.7789289355278015,-0.8167498707771301,-0.8341365,1.7437148,2
-1.7866311073303225,8.385847091674805,1.7597068548202517,-1.00779926776886,-1.7815883999999995,1.9691241,2
-1.155121684074402,8.616917610168457,2.2210519313812256,-1.0974631309509275,-1.2296717,1.9840903000000003,2
-0.8655396103858948,9.175277709960938,1.8915861845016482,-1.082303166389465,0.40194935,1.25319,2
-1.0418051481246948,9.396288871765137,1.333011031150818,-0.9434757232666016,1.3695598999999998,0.24648413,2
-1.2252570390701294,9.324342727661133,1.1869139671325684,-0.8554947376251221,0.93554014,0.03726278,2
-1.3418687582015991,9.251315116882324,1.2210913896560671,-0.8637912273406982,0.5946773,0.33933565,2
-1.4542357921600342,9.24644947052002,1.3374968767166138,-0.905414879322052,0.35796702,0.5439755000000001,2
-1.6093623638153076,9.2410249710083,1.4845579862594604,-0.9390333890914916,-0.40500367,0.3652974,2
-1.7879136800765991,9.268539428710938,1.5864862203598022,-0.9204227924346924,-1.3979651000000002,0.11728613,2
-1.860520601272583,9.353303909301758,1.5406230688095093,-0.8260838985443115,-2.1572707,0.15974127,2
-1.8449093103408811,9.424489974975586,1.3054343461990356,-0.6948287487030029,-2.3170118,0.19181168,2
-1.8977309465408323,9.413697242736816,0.9692801833152772,-0.5917640328407288,-1.4886786,0.17348573,2
-2.0372655391693115,9.344086647033693,0.6563428640365601,-0.5541534423828125,0.23243423,0.16126843,2
-2.1849439144134517,9.281829833984377,0.4956707060337066,-0.5764960050582886,1.5375478,0.33017266,2
-2.3489820957183842,9.23656940460205,0.6228322386741638,-0.6156863570213318,1.2345587,0.48288897,2
-2.573054075241089,9.237424850463867,0.99535471200943,-0.6525634527206421,-0.44623706,0.4700608,2
-2.7463998794555664,9.26654052734375,1.268056869506836,-0.691990077495575,-1.409877,0.43157628,2
-2.7802302837371826,9.255264282226562,1.2842124700546265,-0.7173380851745605,-1.8860464,0.4092797,2
-2.7122738361358643,9.22300910949707,1.0466821193695068,-0.7004193067550659,-1.8402315,0.35979962,2
-2.627801418304444,9.271566390991213,0.6401627659797668,-0.620293378829956,-0.86529064,0.32467487,2
-2.674757719039917,9.359416007995604,0.3728396594524384,-0.5092087984085083,0.35888332,0.2751948,2
-2.8844730854034424,9.47870635986328,0.3329080939292908,-0.3907913565635681,1.2559389,0.14446963,2
-3.2002196311950684,9.66401195526123,0.5751497149467468,-0.2748633921146393,1.6627752,0.06688975,2
-3.563767671585083,9.943379402160645,1.2132585048675537,-0.15398450195789334,0.49877146,0.22632557,2
-3.945966720581055,10.135921478271484,1.8627301454544067,-0.08725741505622864,-1.883603,-0.007330383,2
-4.2659101486206055,10.159035682678224,1.8907527923583984,-0.05096650123596192,-2.9098566000000003,-0.6759224,2
-4.442187309265137,10.201488494873047,1.2569777965545654,0.13106229901313782,-3.3127222,-1.1652255,2
-4.459277629852295,10.281213760375977,0.1070081815123558,0.560743510723114,-2.0112739,-1.5583171999999998,2
-4.3222060203552255,10.069578170776367,-0.9482893347740172,1.016776442527771,0.13500121,-1.9349157,2
-4.107771396636963,9.805039405822754,-1.3887453079223633,1.2175204753875732,1.1976013,-2.4514022,2
-3.861384153366089,10.031208038330078,-1.1663994789123535,1.275076150894165,1.1071932,-2.6325238,2
-3.4958245754241943,10.862407684326172,-0.371029943227768,1.3499338626861572,-0.02443461,-2.1923954,2
-2.94767689704895,12.03913116455078,0.5767739415168762,1.4615474939346311,-1.7217237,-1.3833044,2
-2.3003623485565186,12.984877586364744,0.838312029838562,1.5288211107254028,-2.1407773,-1.0806206,2
-1.878355622291565,12.757583618164062,-0.16477559506893158,1.5515294075012207,0.37782016,-1.704314,2
