timestamp,rel_time,acc_x,acc_y,acc_z,gyro_x,gyro_y,gyro_z,azimuth,pitch,roll,label
0.0,0.0,0.0,0.0,0.0,0.0,0.009468411,0.004276057,276.92847,-167.65097,-18.624325,SIT
20974203000.0,1.2481555131671485e-05,-0.009977909736335278,0.0036855109501630068,-0.027956781908869743,-7.034390728222206e-05,0.004886922,0.009468411,276.8804,-167.7609,-18.682674,SIT
62610460000.0,6.725002458551899e-05,-0.029770970344543457,0.01101592741906643,-0.08349698781967163,-0.0002791051228996366,0.0027488936,0.01038471,276.83142000000004,-167.8638,-18.7375,SIT
124295700000.0,0.00019337380945216864,-0.059143561869859695,0.022023452445864677,-0.1657472401857376,-0.0005911012412980199,0.0061086523,0.01282817,276.7725,-167.97368,-18.794685,SIT
205137690000.0,0.0004171606560703367,-0.09774883091449738,0.03672655299305916,-0.2734299302101135,-0.0009282954270020127,0.013439035,0.014966198,276.71576,-168.07938000000001,-18.849182,SIT
303995880000.0,0.0007616894436068833,-0.14502763748168945,0.05478827282786369,-0.4049987494945526,-0.001407169969752431,0.009773844,0.016187929,276.66205,-168.1789,-18.90277,SIT
419519460000.0,0.0012511765817180276,-0.20031681656837463,0.07581436634063721,-0.5586264729499817,-0.0019246938172727823,0.0070249503,0.011911871999999999,276.60876,-168.27972,-18.952420999999998,SIT
550190100000.0,0.0019041412742808461,-0.262901246547699,0.09950538724660873,-0.7322593331336975,-0.0024979659356176853,0.0061086523,0.010690141499999998,276.5334,-168.38153,-19.006968,SIT
694367500000.0,0.002735595218837261,-0.33200603723526,0.12554244697093964,-0.9236854314804077,-0.0031850093510001898,0.006414085,0.012217305,276.46013999999997,-168.48055,-19.059986,SIT
850334800000.0,0.003759407438337803,-0.40661853551864624,0.1534772664308548,-1.1308493614196777,-0.003913154359906912,0.012217305,0.009162978,276.3686,-168.5859,-19.1164,SIT
1016342200000.0,0.00498506473377347,-0.4856485426425934,0.18282485008239746,-1.3517343997955322,-0.0046388013288378716,0.004886922,0.01740966,276.28452000000004,-168.68678,-19.173451999999997,SIT
1190646900000.0,0.006415295880287886,-0.5682851076126099,0.2135506570339203,-1.5837481021881104,-0.005276413168758154,0.009773844,0.01038471,276.18964,-168.7913,-19.23327,SIT
1371548700000.0,0.008055271580815315,-0.6537536978721619,0.2457347810268402,-1.8242472410202026,-0.005957137793302536,0.004276057,0.015577064,276.1047,-168.8902,-19.294527,SIT
1557418900000.0,0.009906258434057236,-0.7418199181556702,0.27904677391052246,-2.064258337020874,-0.006686750333756208,0.0018325957999999999,0.016798794,276.0032,-168.99754,-19.357470000000003,SIT
1746724200000.0,0.011993596330285072,-0.8326605558395386,0.313165545463562,-2.289970874786377,-0.007652433589100838,0.008857545999999999,0.014660766,275.905,-169.10005,-19.416784,SIT
1938044000000.0,0.014248914085328579,-0.9245533347129822,0.3479847013950348,-2.518716335296631,-0.00821779202669859,0.01038471,0.01863139,275.79077,-169.21016,-19.475697,SIT
2130082500000.0,0.01670646481215954,-1.0158891677856445,0.38365623354911804,-2.768526077270508,-0.009224514476954937,0.002443461,0.0076358155,275.67508,-169.31087,-19.534018,SIT
2321675200000.0,0.019349966198205948,-1.1068223714828491,0.4195990562438965,-3.026327133178711,-0.00991727039217949,0.007941248,0.009162978,275.56586,-169.39978,-19.602423,SIT
2511791200000.0,0.022180113941431046,-1.1982759237289429,0.454915851354599,-3.2681822776794434,-0.010530411265790462,0.010995574,0.010690141499999998,275.45724,-169.48256999999998,-19.671862,SIT
2699532000000.0,0.02518513612449169,-1.2896510362625122,0.4894512891769409,-3.495048999786377,-0.011148631572723389,0.0125227375,0.016493361,275.31818,-169.59155,-19.727228,SIT
2884126000000.0,0.028352810069918633,-1.378875494003296,0.5232014656066895,-3.727299928665161,-0.012096377089619637,0.009162978,0.009773844,275.18,-169.69652,-19.781496,SIT
3064924500000.0,0.03167352452874184,-1.4656306505203247,0.5560461282730103,-3.964184045791626,-0.012877494096755981,0.004886922,0.017715093,275.03522000000004,-169.79575,-19.855473,SIT
3241390000000.0,0.03513893112540245,-1.5496546030044556,0.5878863334655762,-4.2050628662109375,-0.013708159327507019,0.007941248,0.013439035,274.8888,-169.89027,-19.926634,SIT
3413090200000.0,0.03874308988451958,-1.630897045135498,0.6187055110931396,-4.445401191711426,-0.014001849107444286,0.010690141499999998,0.013744468000000001,274.75052,-169.9849,-19.995766,SIT
3579686200000.0,0.04247083142399788,-1.710094690322876,0.6487936973571777,-4.662664890289307,-0.014498859643936157,0.00030543262000000003,0.014966198,274.61578,-170.07224,-20.065392000000003,SIT
3740923600000.0,0.04630360007286072,-1.7871060371398926,0.6780946254730225,-4.857409477233887,-0.015410264022648335,-0.0027488936,0.0125227375,274.46442,-170.18146000000002,-20.111701999999998,SIT
3896622400000.0,0.05024537444114685,-1.861755132675171,0.7060827016830444,-5.034900665283203,-0.015883352607488632,-0.0061086523,0.008552114,274.31793,-170.29054,-20.159054,SIT
4046668200000.0,0.05428234860301018,-1.9339364767074585,0.7325690388679504,-5.197693824768066,-0.016471637412905693,0.0030543262,0.014355333500000001,274.1774,-170.38986,-20.201452,SIT
4191002800000.0,0.05842110142111778,-2.0028157234191895,0.7577747702598572,-5.3504486083984375,-0.017305083572864532,0.003970624,0.016187929,274.03522000000004,-170.47635,-20.265371,SIT
4329616400000.0,0.06262964755296707,-2.068331241607666,0.7817702293395996,-5.49440336227417,-0.018045471981167793,0.0076358155,0.015882496,273.89752000000004,-170.56067,-20.323519,SIT
4462540000000.0,0.06691791862249374,-2.1313412189483643,0.804171621799469,-5.629833221435547,-0.019058119505643845,0.01160644,0.01282817,273.76324,-170.63596,-20.385242,SIT
4589840000000.0,0.07127194106578827,-2.1921725273132324,0.8248937129974365,-5.757094383239746,-0.01934177055954933,0.01038471,0.014049901000000002,273.63397000000003,-170.71393,-20.445028,SIT
4711608500000.0,0.07569075375795364,-2.249941825866699,0.8447374105453491,-5.879014492034912,-0.019981535151600838,0.009773844,0.014966198,273.50607,-170.78201,-20.496054,SIT
4827962700000.0,0.08017097413539886,-2.3044817447662354,0.8639189600944519,-5.996394157409668,-0.020515624433755875,0.005192355,0.0125227375,273.38147000000004,-170.85391,-20.546844,SIT
4939037000000.0,0.08469676226377487,-2.3562090396881104,0.8822534680366516,-6.107204437255859,-0.020963357761502266,0.01038471,0.01160644,273.25525,-170.92477,-20.595764000000003,SIT
5044979600000.0,0.08926883339881897,-2.4054272174835205,0.8996217846870422,-6.21003532409668,-0.0212811678647995,0.004276057,0.010690141499999998,273.13275,-170.99411,-20.647454999999997,SIT
5145950700000.0,0.09387999027967453,-2.4522171020507812,0.9160565733909607,-6.305199146270752,-0.021725129336118698,0.0070249503,0.00580322,273.01153999999997,-171.06013000000002,-20.691643,SIT
5242116600000.0,0.098532535135746,-2.4966585636138916,0.9315875172615051,-6.392912864685059,-0.022116489708423615,0.0070249503,0.014049901000000002,272.8979,-171.12407,-20.736101,SIT
5333649500000.0,0.10321911424398422,-2.5391626358032227,0.9462511539459229,-6.475104808807373,-0.022220546379685402,0.0018325957999999999,0.008552114,272.77744,-171.19006000000002,-20.779985,SIT
5420724000000.0,0.10793324559926987,-2.5801773071289062,0.9600843191146851,-6.5538740158081055,-0.022192807868123055,0.0015271631,0.014049901000000002,272.6659,-171.25127,-20.8201,SIT
5503516000000.0,0.11268206685781479,-2.6197798252105713,0.9731160998344421,-6.6293745040893555,-0.022817743942141533,0.0030543262,0.00580322,272.54962,-171.30806,-20.867064000000003,SIT
5582201300000.0,0.11745825409889221,-2.6580147743225098,0.9853819608688354,-6.70172643661499,-0.023140937089920044,0.010995574,0.013744468000000001,272.4428,-171.3659,-20.909660000000002,SIT
5656953000000.0,0.122267946600914,-2.69482684135437,0.9970217347145081,-6.771823406219482,-0.02379913628101349,0.013744468000000001,0.011301007,272.33365,-171.41711,-20.952582999999997,SIT
5727943000000.0,0.12708434462547302,-2.729942798614502,1.0083110332489014,-6.84129524230957,-0.024376222863793373,0.019242255,0.009162978,272.2295,-171.46893,-20.990675,SIT
5795337500000.0,0.13191820681095123,-2.7634453773498535,1.0192760229110718,-6.910299301147461,-0.025180460885167122,0.018020526000000002,0.01282817,272.1256,-171.51862,-21.022865,SIT
5859301000000.0,0.13676421344280243,-2.795405149459839,1.029927134513855,-6.978804111480713,-0.02526966482400894,0.014966198,0.009773844,272.0219,-171.57217,-21.053318,SIT
5919992700000.0,0.14162425696849823,-2.825895071029663,1.0402811765670776,-7.046861171722412,-0.024759599938988686,0.015271631,0.010995574,271.92337000000003,-171.62129,-21.081749,SIT
5977566000000.0,0.14650142192840576,-2.8549866676330566,1.0503556728363037,-7.114535331726074,-0.02485513500869274,0.013439035,0.01038471,271.82645,-171.66648999999998,-21.110804,SIT
6032170000000.0,0.1513882577419281,-2.8828697204589844,1.0603485107421875,-7.181356430053711,-0.02454291470348835,0.008857545999999999,0.009468411,271.7384,-171.71528999999998,-21.14163,SIT
6083948000000.0,0.15628531575202942,-2.91027569770813,1.0712732076644897,-7.24520206451416,-0.02435976453125477,0.008857545999999999,0.0067195175,271.65198,-171.75711,-21.170732,SIT
6133038000000.0,0.16120322048664093,-2.937107563018799,1.0829730033874512,-7.306696891784668,-0.024169977754354477,0.007941248,0.005497787,271.56854,-171.80213999999998,-21.194712,SIT
6179573000000.0,0.1661200076341629,-2.962052822113037,1.093941330909729,-7.369520664215088,-0.02465258724987507,0.009468411,0.008857545999999999,271.48798,-171.84128,-21.217054,SIT
6223679000000.0,0.1710447072982788,-2.9851880073547363,1.1042101383209229,-7.433767318725586,-0.02481892891228199,0.009773844,0.008552114,271.40808,-171.87896999999998,-21.240688000000002,SIT
6265479000000.0,0.17598214745521545,-3.006593704223633,1.11381196975708,-7.499457836151123,-0.024863295257091522,0.016798794,0.009773844,271.33148,-171.91048,-21.260942,SIT
6305088500000.0,0.18091879785060883,-3.0263872146606445,1.122848391532898,-7.566112518310547,-0.025391098111867905,0.01282817,0.0067195175,271.25607,-171.93951,-21.283623000000002,SIT
6342619000000.0,0.185863196849823,-3.0446972846984863,1.1320770978927612,-7.631712913513184,-0.02546996995806694,0.013439035,0.0076358155,271.1838,-171.97176000000002,-21.302092000000002,SIT
6378176400000.0,0.19081158936023712,-3.0616049766540527,1.1414799690246582,-7.696281909942627,-0.025658156722784042,0.013439035,0.003970624,271.11182,-172.0041,-21.313225,SIT
6411862000000.0,0.19576935470104218,-3.0770885944366455,1.1496620178222656,-7.761913776397705,-0.0260472409427166,0.028405233999999998,0.0067195175,271.04332999999997,-172.0359,-21.31922,SIT
6443771600000.0,0.20072700083255768,-3.091216564178467,1.1563339233398438,-7.828939914703369,-0.025896701961755753,0.017104227,0.0067195175,270.9761,-172.0701,-21.33253,SIT
6473997400000.0,0.20568911731243134,-3.105393886566162,1.161733865737915,-7.890502452850342,-0.025608055293560028,0.014660766,0.004276057,270.91867,-172.09497,-21.333763,SIT
6502626600000.0,0.21065934002399445,-3.119741201400757,1.1659294366836548,-7.946284770965576,-0.025854118168354034,0.021380282999999996,0.008246681,270.86492999999996,-172.11731,-21.335176,SIT
6529742300000.0,0.21563227474689484,-3.1332623958587646,1.1693625450134277,-7.998086452484131,-0.02563251368701458,0.014049901000000002,0.007941248,270.81815,-172.14818,-21.331219,SIT
6555423000000.0,0.2206079065799713,-3.145563840866089,1.1722358465194702,-8.046768188476562,-0.025828681886196136,0.014049901000000002,0.006414085,270.79627841665797,-172.1590238525,-21.3286710425405,SIT
6579744000000.0,0.22558921575546265,-3.156703233718872,1.1745740175247192,-8.092489242553711,-0.02612817846238613,0.004276057,0.008857545999999999,270.77414,-172.17,-21.326092000000003,SIT
6602776600000.0,0.23057392239570618,-3.16674542427063,1.176408052444458,-8.135406494140625,-0.026233067736029625,0.0033597588,0.014355333500000001,270.73282,-172.19846,-21.324324,SIT
6624588000000.0,0.23557689785957336,-3.1755383014678955,1.1782928705215454,-8.17546558380127,-0.026754939928650856,-0.0030543262,0.008857545999999999,270.6904,-172.2214,-21.327254999999997,SIT
6645242400000.0,0.24055923521518707,-3.1831722259521484,1.1804239749908447,-8.212821960449219,-0.0269077830016613,-0.003970624,0.01038471,270.65277000000003,-172.24684,-21.32832,SIT
6664801000000.0,0.245540052652359,-3.189657211303711,1.1828137636184692,-8.247575759887695,-0.026646092534065247,0.004276057,0.009468411,270.61777,-172.27104,-21.32174,SIT
6683321000000.0,0.25052234530448914,-3.1950454711914062,1.1854528188705444,-8.27985668182373,-0.02652836963534355,0.003970624,0.008246681,270.58463,-172.2933,-21.317926,SIT
6700857300000.0,0.25550487637519836,-3.1996850967407227,1.189382791519165,-8.307473182678223,-0.026953507214784622,0.010995574,0.004886922,270.55093,-172.31502,-21.310033999999998,SIT
6717462000000.0,0.26049360632896423,-3.2038254737854004,1.1953791379928589,-8.328819274902344,-0.026965752243995667,0.019242255,0.005497787,270.51904,-172.33961000000002,-21.301964,SIT
6733184400000.0,0.2654798924922943,-3.207693099975586,1.2021636962890625,-8.345304489135742,-0.02658700942993164,0.018020526000000002,0.00580322,270.48694,-172.35765,-21.293118,SIT
6748071000000.0,0.27047106623649597,-3.2114789485931396,1.2087112665176392,-8.357943534851074,-0.025984423235058784,0.027794369,-0.0015271631,270.45288,-172.37695,-21.279495,SIT
6762166500000.0,0.27546748518943787,-3.2151875495910645,1.2150347232818604,-8.36693286895752,-0.02546268329024315,0.026267206,-0.0036651915999999997,270.42334,-172.38398999999998,-21.271729,SIT
6775512000000.0,0.28045663237571716,-3.2188172340393066,1.2211402654647827,-8.372601509094238,-0.025017499923706055,0.02107485,-0.005497787,270.39232999999996,-172.39246,-21.262878,SIT
6788148600000.0,0.28544649481773376,-3.2221508026123047,1.2266346216201782,-8.37384033203125,-0.024709884077310562,0.020158553,-0.009773844,270.36066,-172.40036,-21.253775,SIT
6800112400000.0,0.29043716192245483,-3.2247700691223145,1.2307627201080322,-8.368570327758789,-0.02397935464978218,0.026572637000000003,-0.011301007,270.33,-172.41021999999998,-21.244293,SIT
6811440000000.0,0.2954283654689789,-3.2268364429473877,1.2336176633834839,-8.358619689941406,-0.023157542571425438,0.024129177,-0.004886922,270.30215,-172.41301,-21.244373,SIT
6822165000000.0,0.3004204034805298,-3.2285354137420654,1.2352906465530396,-8.346109390258789,-0.022395744919776917,0.025350908,-0.0076358155,270.27142000000003,-172.41797,-21.242104,SIT
6832319400000.0,0.305437833070755,-3.2304158210754395,1.2361801862716675,-8.333141326904297,-0.021983666345477104,0.02076942,-0.0125227375,270.24313,-172.42197,-21.245363,SIT
6841933000000.0,0.310434490442276,-3.2328855991363525,1.2367925643920898,-8.321783065795898,-0.021284351125359535,0.02565634,-0.009468411,270.21667,-172.42802,-21.245329,SIT
6851035400000.0,0.3154231309890747,-3.2359509468078613,1.237328052520752,-8.310811042785645,-0.02098027616739273,0.018020526000000002,-0.020158553,270.18372,-172.43405,-21.254534,SIT
6859653000000.0,0.3204197585582733,-3.2396321296691895,1.238094687461853,-8.298345565795898,-0.020041460171341896,0.026572637000000003,-0.014966198,270.15637000000004,-172.44421,-21.256823999999998,SIT
6867812000000.0,0.3254162073135376,-3.2435719966888428,1.2393664121627808,-8.285429954528809,-0.01986868679523468,0.014660766,-0.019547688,270.12497,-172.44893000000002,-21.268332,SIT
6875537000000.0,0.3304162621498108,-3.2473018169403076,1.2415716648101807,-8.273452758789062,-0.019509825855493546,0.020158553,-0.019547688,270.09625,-172.45993,-21.271894,SIT
6882851000000.0,0.3354063034057617,-3.250833034515381,1.2446109056472778,-8.262351036071777,-0.01947929337620735,0.026267206,-0.023518313,270.05945,-172.4662,-21.28383,SIT
6889775000000.0,0.3404039442539215,-3.254176139831543,1.2485030889511108,-8.252094268798828,-0.01954803615808487,0.035430185,-0.034208454,270.02112,-172.47467,-21.293210000000002,SIT
6896330700000.0,0.34539613127708435,-3.2572195529937744,1.2535772323608398,-8.242929458618164,-0.02010136842727661,0.04062254,-0.03268129,269.98828,-172.47731000000002,-21.298504,SIT
6902537000000.0,0.350391149520874,-3.259610891342163,1.2610758543014526,-8.235722541809082,-0.019746359437704086,0.04642576,-0.032070424,269.95245,-172.48703,-21.301342,SIT
6908413500000.0,0.3553849458694458,-3.2614858150482178,1.270444631576538,-8.230305671691895,-0.018954548984766006,0.053450707,-0.036957346,269.92114,-172.48283,-21.305870000000002,SIT
6913977000000.0,0.3603847324848175,-3.2633941173553467,1.2794477939605713,-8.226378440856934,-0.017456240952014923,0.06688975,-0.040317107000000005,269.89063,-172.48402,-21.306694,SIT
6919245000000.0,0.36537879705429077,-3.2653286457061768,1.2880991697311401,-8.223811149597168,-0.015370448119938374,0.06169739,-0.046120327,269.85852,-172.4779,-21.308863,SIT
6924232000000.0,0.3703751266002655,-3.267291784286499,1.2964212894439697,-8.222565650939941,-0.012419222854077816,0.06352998,-0.052534412999999995,269.82507000000004,-172.47725,-21.305495999999998,SIT
6928953500000.0,0.3753829896450043,-3.2689208984375,1.3042521476745605,-8.222772598266602,-0.009495030157268047,0.05589417,-0.05467244,269.79053,-172.47646,-21.307482,SIT
6933423600000.0,0.38038545846939087,-3.2693839073181152,1.3111860752105713,-8.224647521972656,-0.0063848416320979595,0.05375614,-0.06566802,269.7519,-172.48276,-21.308022,SIT
6937656000000.0,0.38538384437561035,-3.2687387466430664,1.317268967628479,-8.228107452392578,-0.0029032519087195396,0.04184427,-0.069027774,269.7222,-172.48773,-21.31429,SIT
6941663300000.0,0.39038363099098206,-3.2670226097106934,1.3225364685058594,-8.233102798461914,0.0007183556444942951,0.041233405,-0.064446285,269.692,-172.49324,-21.317959,SIT
6945457000000.0,0.3953797221183777,-3.264434814453125,1.3269057273864746,-8.23945426940918,0.0034633702598512173,0.02687807,-0.07574729,269.65612999999996,-172.49883,-21.332483,SIT
6949049000000.0,0.4003782272338867,-3.2624311447143555,1.328810214996338,-8.246359825134277,0.0051668984815478325,0.02443461,-0.06688975,269.62817,-172.50189,-21.342476,SIT
6952449500000.0,0.40537282824516296,-3.2609703540802,1.3284326791763306,-8.253769874572754,0.007528381422162056,0.021380282999999996,-0.070249505,269.59497000000005,-172.51715,-21.35077,SIT
6955669000000.0,0.41037359833717346,-3.260514974594116,1.3257040977478027,-8.267789840698242,0.010138394311070442,0.021685716,-0.06658431,269.56732,-172.52399,-21.35791,SIT
6958718000000.0,0.4153670072555542,-3.2611000537872314,1.3208341598510742,-8.289446830749512,0.011388561688363552,0.004276057,-0.07086037,269.53796,-172.5273,-21.371113,SIT
6961604000000.0,0.42036712169647217,-3.262441635131836,1.3130338191986084,-8.3141508102417,0.012865094467997551,0.014049901000000002,-0.070554934,269.50787,-172.54985,-21.371261999999998,SIT
6964336700000.0,0.42536237835884094,-3.264404535293579,1.302416443824768,-8.340540885925293,0.014018790796399117,0.018325957,-0.06536258,269.4798,-172.56294,-21.377605,SIT
6966924000000.0,0.43035998940467834,-3.2661728858947754,1.2899943590164185,-8.372763633728027,0.01493196003139019,0.02076942,-0.06963864,269.45026,-172.59094,-21.37811,SIT
6969374000000.0,0.4353559911251068,-3.2673258781433105,1.2764097452163696,-8.412652969360352,0.016154561191797256,0.016798794,-0.061391957000000004,269.42712,-172.61774,-21.37852,SIT
6971693500000.0,0.4403531551361084,-3.2681710720062256,1.2623776197433472,-8.453522682189941,0.016823699697852135,0.017715093,-0.052534412999999995,269.39813,-172.65604,-21.369616,SIT
6973889700000.0,0.4453646242618561,-3.26883864402771,1.2481657266616821,-8.4926118850708,0.01690375804901123,0.02321288,-0.05681047,269.36868,-172.69516000000002,-21.360970000000002,SIT
6975969000000.0,0.4503616690635681,-3.2693514823913574,1.2338759899139404,-8.529975891113281,0.01691444218158722,0.014660766,-0.05955936,269.34012,-172.74513000000002,-21.351961,SIT
6977937700000.0,0.45535776019096375,-3.269711494445801,1.219470739364624,-8.565725326538086,0.016973387449979782,0.025045475,-0.052839845,269.31323,-172.79103,-21.336226,SIT
6979802000000.0,0.46035850048065186,-3.269167900085449,1.2046797275543213,-8.601215362548828,0.01704546809196472,0.03145956,-0.05100725,269.28564,-172.83597,-21.324654000000002,SIT
6981567400000.0,0.46535617113113403,-3.2673964500427246,1.1894201040267944,-8.637076377868652,0.017211372032761574,0.022296581,-0.043066,269.2632,-172.87898,-21.31447,SIT
6983239000000.0,0.47035732865333557,-3.2654268741607666,1.1738673448562622,-8.668753623962402,0.01688011735677719,0.028099801,-0.040011674,269.2404,-172.92519,-21.297964,SIT
6984821600000.0,0.47535932064056396,-3.2638118267059326,1.1581453084945679,-8.694001197814941,0.016371190547943115,0.018325957,-0.028405233999999998,269.22452000000004,-172.97037,-21.288242,SIT
6986320000000.0,0.48035702109336853,-3.2626826763153076,1.1425668001174927,-8.716643333435059,0.016198651865124702,0.002443461,-0.024740042,269.21017,-173.01959,-21.271353,SIT
6987739000000.0,0.48535484075546265,-3.2621257305145264,1.1273066997528076,-8.739102363586426,0.015188891440629959,-0.008246681,-0.03390302,269.1963,-173.06108,-21.256408999999998,SIT
6989082500000.0,0.49035176634788513,-3.262845277786255,1.1122071743011475,-8.760333061218262,0.014053893275558949,0.00061086525,-0.025045475,269.18958,-173.10565,-21.243835,SIT
6990355000000.0,0.49535369873046875,-3.265315532684326,1.0971455574035645,-8.77966594696045,0.013207262381911278,0.0027488936,-0.022296581,269.17957,-173.1486,-21.23696,SIT
6991560000000.0,0.5003517270088196,-3.2692480087280273,1.082709550857544,-8.798357963562012,0.011591886170208454,-0.0033597588,-0.019242255,269.1723,-173.18587,-21.225601,SIT
6992700600000.0,0.5053481459617615,-3.2744719982147217,1.0692931413650513,-8.817305564880371,0.00994865596294403,-0.016493361,-0.014355333500000001,269.16718,-173.22632,-21.2159,SIT
6993780700000.0,0.5103520154953003,-3.2802670001983643,1.0565717220306396,-8.835558891296387,0.008262778632342815,-0.011911871999999999,0.0018325957999999999,269.16202000000004,-173.26485,-21.209486,SIT
6994803600000.0,0.5153498649597168,-3.285996198654175,1.0442852973937988,-8.8523530960083,0.0062760901637375355,-0.01282817,0.013133603,269.15808,-173.30058,-21.208368,SIT
6995772400000.0,0.520348310470581,-3.291790723800659,1.031920075416565,-8.866785049438477,0.00406973110511899,-0.009468411,0.017715093,269.15704,-173.33392,-21.20626,SIT
6996690000000.0,0.5253517031669617,-3.2977864742279053,1.0189390182495117,-8.877898216247559,0.002176281763240695,-0.0021380284,0.018020526000000002,269.15826,-173.36649,-21.203043,SIT
6997558700000.0,0.5303495526313782,-3.304251194000244,1.00566565990448,-8.885308265686035,-0.0003324632125440985,0.010690141499999998,0.025045475,269.15555,-173.39467,-21.197535000000002,SIT
6998381300000.0,0.5353478193283081,-3.3115463256835938,0.9923945665359497,-8.888327598571777,-0.003163276007398963,0.007330383,0.028099801,269.15247,-173.42473999999999,-21.194770000000002,SIT
6999160400000.0,0.54034423828125,-3.319237470626831,0.979678750038147,-8.888126373291016,-0.005599068012088537,0.005497787,0.028405233999999998,269.15063,-173.45723999999998,-21.190695,SIT
6999898000000.0,0.5453471541404724,-3.3262360095977783,0.9690552949905396,-8.887370109558105,-0.007791109383106232,0.0061086523,0.03145956,269.15082,-173.4856,-21.186777,SIT
7000597000000.0,0.5503479838371277,-3.332923173904419,0.9605308175086975,-8.884828567504883,-0.010305819101631641,0.009468411,0.03023783,269.14276,-173.51625,-21.189917,SIT
7001258600000.0,0.5553451776504517,-3.3397483825683594,0.9541912078857422,-8.878960609436035,-0.01294695120304823,0.008857545999999999,0.03940081,269.13934,-173.54623,-21.193394,SIT
7001885600000.0,0.5603431463241577,-3.3462283611297607,0.9498555064201355,-8.869976997375488,-0.01564265787601471,0.00030543262000000003,0.029626964,269.13004,-173.57095,-21.198584,SIT
7002479000000.0,0.5653446316719055,-3.351595878601074,0.9472853541374207,-8.858146667480469,-0.017624996602535248,-0.004581489,0.036957346,269.1289,-173.59499,-21.201904000000003,SIT
7003041000000.0,0.5703417062759399,-3.356295108795166,0.946522057056427,-8.844535827636719,-0.019534246996045113,0.010690141499999998,0.03176499,269.1209,-173.60895,-21.209044,SIT
7003574000000.0,0.575346052646637,-3.361002206802368,0.9478673338890076,-8.83061695098877,-0.02152079902589321,0.005497787,0.03940081,269.12018,-173.62257,-21.222277,SIT
7004078000000.0,0.580341100692749,-3.365784168243408,0.9509653449058533,-8.816424369812012,-0.023206153884530067,0.009162978,0.048258353,269.1103,-173.63397,-21.232807,SIT
7004556000000.0,0.5853389501571655,-3.370821475982666,0.9555566310882568,-8.801840782165527,-0.02445986680686474,0.004581489,0.04734206,269.10052,-173.64514,-21.246792000000003,SIT
7005008300000.0,0.5903359055519104,-3.376093864440918,0.961539626121521,-8.786901473999023,-0.02579326368868351,0.0009162978999999999,0.04153884,269.09436,-173.64543,-21.262304,SIT
7005437000000.0,0.5953379273414612,-3.3815999031066895,0.9688766002655029,-8.771599769592285,-0.026648666709661484,0.0012217305,0.036651913,269.08832,-173.6501,-21.277466,SIT
7005843500000.0,0.6003350615501404,-3.3869457244873047,0.9777472615242004,-8.75870132446289,-0.028190962970256805,0.0012217305,0.030848695,269.082987123412,-173.65028816091998,-21.286981000605,SIT
7006228300000.0,0.6053327322006226,-3.3912668228149414,0.9888576865196228,-8.75462818145752,-0.029569679871201515,-0.008857545999999999,0.01985312,269.07755,-173.65048000000002,-21.296682,SIT
7006592700000.0,0.6103406548500061,-3.3943777084350586,1.0018236637115479,-8.758519172668457,-0.029849447309970856,0.010995574,0.016798794,269.06857,-173.66019,-21.306467,SIT
7006938000000.0,0.6153476238250732,-3.395763397216797,1.0153981447219849,-8.767661094665527,-0.03050496242940426,0.03756821,0.020158553,269.0483,-173.65051,-21.31889,SIT
7007265400000.0,0.6203502416610718,-3.3954238891601562,1.0296484231948853,-8.7811279296875,-0.031223207712173462,0.035124752999999995,0.016187929,269.02542,-173.64166,-21.32656,SIT
7007575700000.0,0.6253527402877808,-3.393141269683838,1.0448552370071411,-8.797308921813965,-0.031447410583496094,0.055588737,0.011301007,269.00192000000004,-173.63336,-21.32011,SIT
7007870000000.0,0.6303752660751343,-3.389211416244507,1.0608242750167847,-8.816239356994629,-0.03195265680551529,0.047647487,-0.00030543262000000003,268.97668,-173.61954,-21.316402,SIT
7008148000000.0,0.6353753805160522,-3.3848230838775635,1.0766103267669678,-8.837055206298828,-0.03244725242257118,0.047036625,-0.008857545999999999,268.95038,-173.60956000000002,-21.305270999999998,SIT
7008412000000.0,0.6403765082359314,-3.3798611164093018,1.0923625230789185,-8.859492301940918,-0.03218301013112068,0.04062254,-0.016493361,268.92383,-173.59694,-21.289845,SIT
7008662000000.0,0.645373523235321,-3.3735830783843994,1.1088557243347168,-8.87915325164795,-0.031737521290779114,0.04337143,-0.018325957,268.89667000000003,-173.58194,-21.272663,SIT
7008899000000.0,0.6503702402114868,-3.366136312484741,1.1256003379821777,-8.897464752197266,-0.03144599124789238,0.017104227,-0.04795292,268.86057,-173.57129,-21.263634,SIT
7009124000000.0,0.6553698778152466,-3.3580703735351562,1.1401824951171875,-8.921151161193848,-0.03120255470275879,0.0015271631,-0.047036625,268.8334,-173.55913,-21.250366,SIT
7009337000000.0,0.6603668928146362,-3.349403142929077,1.1528786420822144,-8.949187278747559,-0.03017450124025345,0.023823743999999997,-0.048563786,268.80182,-173.54553,-21.236103,SIT
7009538700000.0,0.6653632521629333,-3.339933395385742,1.1646453142166138,-8.977499961853027,-0.02941284142434597,0.02443461,-0.054061572999999995,268.7713,-173.52718000000002,-21.232609,SIT
7009730000000.0,0.6703588366508484,-3.329735040664673,1.1756203174591064,-9.005807876586914,-0.029228923842310905,0.02076942,-0.05497787,268.74222000000003,-173.51811,-21.21809,SIT
7009911400000.0,0.675355076789856,-3.319072723388672,1.186514139175415,-9.032102584838867,-0.02858276478946209,0.021685716,-0.052839845,268.71292,-173.51318,-21.202702,SIT
7010083400000.0,0.680352509021759,-3.3079686164855957,1.197309136390686,-9.056794166564941,-0.028557026758790016,0.0015271631,-0.0720821,268.6786,-173.50418,-21.192165,SIT
7010246500000.0,0.6853492259979248,-3.2964491844177246,1.2077805995941162,-9.082940101623535,-0.02784901112318039,0.010079277,-0.07391469,268.64977999999996,-173.50173999999998,-21.173111,SIT
7010401000000.0,0.6903516054153442,-3.2845683097839355,1.2180206775665283,-9.110302925109863,-0.027195004746317863,0.01863139,-0.0720821,268.617205480094,-173.49436122248198,-21.1575039124122,SIT
7010548000000.0,0.6956118941307068,-3.272564172744751,1.2297320365905762,-9.136712074279785,-0.026608407497406006,0.028099801,-0.08704830000000001,268.55438,-173.48013,-21.127403,SIT
7010687400000.0,0.7008577585220337,-3.2608163356781006,1.2418419122695923,-9.161969184875488,-0.026329785585403442,0.025350908,-0.09285152,268.52313,-173.47246,-21.109258999999998,SIT
7010819500000.0,0.7060912251472473,-3.249328136444092,1.2542303800582886,-9.185819625854492,-0.024877766147255898,0.03970624,-0.09468412,268.4926,-173.47194,-21.088009,SIT
7010945000000.0,0.7113119959831238,-3.238325595855713,1.2655788660049438,-9.204347610473633,-0.022884590551257133,0.054367005999999996,-0.09743301,268.45795,-173.46873,-21.065357000000002,SIT
7011064000000.0,0.7165247201919556,-3.227780818939209,1.2759369611740112,-9.21777629852295,-0.02073719911277294,0.04886922,-0.10262536,268.42273,-173.46289,-21.043509,SIT
7011177000000.0,0.7217246294021606,-3.217672109603882,1.2853649854660034,-9.226455688476562,-0.018199650570750237,0.044593163,-0.10751228,268.3871,-173.46143,-21.018164000000002,SIT
7011284500000.0,0.7269200086593628,-3.2080190181732178,1.2938569784164429,-9.230854988098145,-0.014885802753269672,0.053145275,-0.10995574,268.34827,-173.46436,-20.989199,SIT
7011386000000.0,0.7320963144302368,-3.1993448734283447,1.300967812538147,-9.235251426696777,-0.011797390878200531,0.04642576,-0.10293079,268.31256,-173.4642,-20.96649,SIT
7011482700000.0,0.7372638583183289,-3.1916139125823975,1.3067376613616943,-9.239654541015625,-0.008629408665001392,0.062002823,-0.106901415,268.2726,-173.4703,-20.94138,SIT
7011574500000.0,0.7424260377883911,-3.1850380897521973,1.3107140064239502,-9.245016098022461,-0.005418651737272739,0.06017022599999999,-0.10140363,268.2395,-173.47392,-20.923126,SIT
7011661500000.0,0.7475768327713013,-3.1795601844787598,1.312983512878418,-9.251338005065918,-0.002232508733868599,0.06566802,-0.10476339,268.20264,-173.47932,-20.899538,SIT
7011744400000.0,0.7527215480804443,-3.175116539001465,1.3140894174575806,-9.257233619689941,0.00083266815636307,0.061391957000000004,-0.093767814,268.17334,-173.48653000000002,-20.880026,SIT
7011823000000.0,0.7578635215759277,-3.1716582775115967,1.314138412475586,-9.262565612792969,0.004092594608664513,0.05497787,-0.09040806,268.1415,-173.49667,-20.860563,SIT
7011898000000.0,0.7629942893981934,-3.1691091060638428,1.313218355178833,-9.267372131347656,0.007309009786695242,0.053145275,-0.08368854,268.12366000000003,-173.50693,-20.847514999999998,SIT
7011969000000.0,0.7681217789649963,-3.16744065284729,1.3113539218902588,-9.271674156188965,0.0102889034897089,0.063224554,-0.0842994,268.10492,-173.518,-20.833303,SIT
7012036400000.0,0.7732389569282532,-3.166419744491577,1.308403491973877,-9.275497436523438,0.0136959757655859,0.04550946,-0.087659165,268.08905,-173.53223,-20.827631,SIT
7012100300000.0,0.7783467769622803,-3.165956974029541,1.304350733757019,-9.278864860534668,0.017019139602780342,0.039095376,-0.08246681,268.07532000000003,-173.5425,-20.815936999999998,SIT
7012161000000.0,0.783451497554779,-3.1672492027282715,1.2978678941726685,-9.284989356994629,0.020197756588459015,0.046731193,-0.08002335,268.06604,-173.56052,-20.810972,SIT
7012219400000.0,0.7885494232177734,-3.170620918273926,1.28862726688385,-9.294845581054688,0.02341858297586441,0.040927973,-0.08704830000000001,268.0566,-173.57993000000002,-20.811708,SIT
7012274400000.0,0.7936460971832275,-3.1751630306243896,1.2771565914154053,-9.304672241210938,0.026646813377738,0.057421334000000004,-0.09162979,268.04602,-173.60384,-20.807638,SIT
7012327000000.0,0.7987353205680847,-3.180257797241211,1.2639133930206299,-9.312187194824219,0.029800666496157646,0.0580322,-0.08796459400000001,268.03705,-173.62767,-20.809484,SIT
7012376600000.0,0.8038247227668762,-3.1858088970184326,1.248966932296753,-9.317658424377441,0.033193375915288925,0.06658431,-0.08277224,268.02744,-173.66698,-20.805726999999997,SIT
7012424400000.0,0.8089105486869812,-3.190788507461548,1.232886791229248,-9.323389053344727,0.036144841462373734,0.089186326,-0.08307768,268.01727,-173.70273999999998,-20.797857,SIT
7012469400000.0,0.8139880299568176,-3.195180892944336,1.216233730316162,-9.328415870666504,0.03897156938910484,0.10415252,-0.09101892,268.00433,-173.75212,-20.790245000000002,SIT
7012512400000.0,0.8190689086914062,-3.198810338973999,1.2007324695587158,-9.329208374023438,0.04194064438343048,0.12889257,-0.08735373,267.99432,-173.79928999999998,-20.773314000000003,SIT
7012554000000.0,0.8241432309150696,-3.202237606048584,1.1859372854232788,-9.327838897705078,0.0443120002746582,0.09193522,-0.08643743400000001,267.9838,-173.84933,-20.769733,SIT
7012593000000.0,0.8292079567909241,-3.206953763961792,1.1707043647766113,-9.329485893249512,0.04626398906111717,0.076358154,-0.07849618,267.97562,-173.89934,-20.753319,SIT
7012630400000.0,0.8342669606208801,-3.2122740745544434,1.1550878286361694,-9.333072662353516,0.04835611209273338,0.0711658,-0.07880162,267.96667,-173.94713000000002,-20.746579999999998,SIT
7012666000000.0,0.8393276929855347,-3.215285062789917,1.1392905712127686,-9.334189414978027,0.05066228657960892,0.08277224,-0.07452556,267.96204,-173.99164,-20.739107,SIT
7012700000000.0,0.8443797826766968,-3.216062068939209,1.1237396001815796,-9.332866668701172,0.052536290138959885,0.10629055,-0.06811147,267.94604,-174.04378,-20.730093,SIT
7012732600000.0,0.849429726600647,-3.2138278484344482,1.1109973192214966,-9.327901840209961,0.05442436411976814,0.090713486,-0.07880162,267.92798,-174.0997,-20.729366,SIT
7012763600000.0,0.8544834852218628,-3.20835542678833,1.101030945777893,-9.319775581359863,0.05604904145002365,0.06536258,-0.06658431,267.91925,-174.15114,-20.722095,SIT
7012793500000.0,0.8595317006111145,-3.196580410003662,1.0943855047225952,-9.312589645385742,0.05709881708025932,0.070249505,-0.028099801,267.91568,-174.19867,-20.710361,SIT
7012822000000.0,0.8645763397216797,-3.17954683303833,1.0902554988861084,-9.306297302246094,0.05698578432202339,0.11178834,0.00580322,267.9023,-174.23696999999999,-20.694461999999998,SIT
7012849000000.0,0.8696206212043762,-3.1660101413726807,1.081167221069336,-9.300858497619629,0.05632534623146057,0.074830994,0.03481932,267.90222,-174.27127,-20.698632999999997,SIT
7012874700000.0,0.8746654987335205,-3.1558170318603516,1.067635178565979,-9.296859741210938,0.0544467493891716,0.040011674,0.036651913,267.90265,-174.28543,-20.678715,SIT
7012899400000.0,0.8797032237052917,-3.1489009857177734,1.0520905256271362,-9.299038887023926,0.05208228528499603,0.021685716,0.04153884,267.91342000000003,-174.2967,-20.664307,SIT
7012923000000.0,0.8847389817237854,-3.1451151371002197,1.0345534086227417,-9.307012557983398,0.0497949980199337,0.046731193,0.03268129,267.92682,-174.32162,-20.65905,SIT
7012945500000.0,0.8897728323936462,-3.1440372467041016,1.014692783355713,-9.318571090698242,0.04761332646012306,0.061086524,0.033292156,267.94516,-174.34206,-20.661331,SIT
7012967500000.0,0.8948141932487488,-3.1454906463623047,0.9925671815872192,-9.33351993560791,0.045661866664886475,0.06658431,0.025350908,267.9549,-174.37726,-20.655596,SIT
7012988500000.0,0.8998430967330933,-3.1477856636047363,0.9690932631492615,-9.349740028381348,0.04446549713611603,0.077579886,0.01740966,267.96414,-174.41443999999998,-20.644370000000002,SIT
7013008400000.0,0.9048682451248169,-3.1509060859680176,0.9442641139030457,-9.367228507995605,0.04411419853568077,0.08704830000000001,0.025350908,267.97028,-174.4663,-20.625926999999997,SIT
7013028000000.0,0.9099010229110718,-3.1546828746795654,0.9202405214309692,-9.384252548217773,0.04357001557946205,0.09437868,0.018020526000000002,267.96948,-174.5177,-20.606215,SIT
7013046000000.0,0.9149194359779358,-3.15899920463562,0.8972502946853638,-9.400615692138672,0.04331527277827263,0.10720685,0.02107485,267.9742,-174.57246,-20.582338,CHU
7013064000000.0,0.9199490547180176,-3.162688970565796,0.8761600255966187,-9.416595458984375,0.04250440001487732,0.11636983,0.02076942,267.9765,-174.6325,-20.558771,CHU
7013081300000.0,0.9249682426452637,-3.165712594985962,0.8568978905677795,-9.4321928024292,0.04108564555644989,0.11575896,0.018936822,267.97964,-174.692,-20.53507,CHU
7013097500000.0,0.9299889206886292,-3.1699440479278564,0.8374404907226562,-9.449435234069824,0.039433229714632034,0.12156218,0.032375857,267.974,-174.75357,-20.500393,CHU
7013113300000.0,0.9350032806396484,-3.1756649017333984,0.8174275159835815,-9.468576431274414,0.038015373051166534,0.12125675400000001,0.033292156,267.96506,-174.81425,-20.469084,CHU
7013128500000.0,0.9400196075439453,-3.1828479766845703,0.7968401908874512,-9.489601135253906,0.035826656967401505,0.119729586,0.031154128,267.96246,-174.86266,-20.438361999999998,CHU
7013143000000.0,0.945037841796875,-3.191415786743164,0.7757087349891663,-9.512409210205078,0.03311976417899132,0.18906279,0.0070249503,267.95193,-174.91386,-20.389093,CHU
7013157300000.0,0.9500527381896973,-3.1968462467193604,0.7597008347511292,-9.526095390319824,0.03150121495127678,0.19975294,0.010690141499999998,267.95148,-174.9652,-20.357235,CHU
7013171000000.0,0.9551038146018982,-3.1971802711486816,0.7513325810432434,-9.525762557983398,0.02957826852798462,0.14813483,0.03970624,267.9519,-175.00546,-20.324935999999997,CHU
7013184000000.0,0.9601203203201294,-3.197631597518921,0.7439364194869995,-9.524262428283691,0.026992764323949814,0.09315695,0.070554934,267.95203,-175.06116,-20.288926999999997,CHU
7013197000000.0,0.9651291370391846,-3.199282646179199,0.7362001538276672,-9.524065971374512,0.0230149794369936,0.09315695,0.07666359,267.95392000000004,-175.10936,-20.253067,CHU
7013209700000.0,0.9701421856880188,-3.2009572982788086,0.7284425497055054,-9.524158477783203,0.01799582503736019,0.10903945,0.08246681,267.96512,-175.12642,-20.228296,CHU
7013222000000.0,0.9751569628715515,-3.202035665512085,0.7208448648452759,-9.523992538452148,0.013065104372799397,0.11759156,0.08643743400000001,267.97766,-175.14058,-20.206101999999998,CHU
7013233300000.0,0.9801638126373291,-3.2033300399780273,0.7137888669967651,-9.523971557617188,0.00805533118546009,0.12797627,0.093462385,267.98557,-175.15286,-20.185944,CHU
7013245000000.0,0.9851710200309753,-3.205296516418457,0.7074793577194214,-9.524322509765625,0.0028730544727295637,0.14019357,0.10170906,267.99475,-175.16306,-20.163319,CHU
7013256000000.0,0.9901787042617798,-3.207899570465088,0.7018768787384033,-9.525025367736816,-0.0026027520652860403,0.1572978,0.10354166,268.00363,-175.1715,-20.13631,CHU
7013266400000.0,0.9951850175857544,-3.210684061050415,0.6938314437866211,-9.52724838256836,-0.008649437688291073,0.18051068,0.10781772,268.01507999999995,-175.17513,-20.104614,CHU
7013277000000.0,1.0001903772354126,-3.213571071624756,0.6829522848129272,-9.531108856201172,-0.013966944068670273,0.19303341,0.109650314,268.02594,-175.18236000000002,-20.072056,CHU
7013287000000.0,1.005196213722229,-3.2155675888061523,0.6712933778762817,-9.535270690917969,-0.01957077346742153,0.21685717,0.11148291,268.03647,-175.17838999999998,-20.028976,CHU
7013297000000.0,1.010209560394287,-3.216484785079956,0.6592831015586853,-9.539453506469727,-0.02443647012114525,0.29901853,0.08552113,268.03693,-175.18427,-19.967657,CHU
7013306000000.0,1.0152137279510498,-3.2164180278778076,0.6474633812904358,-9.541057586669922,-0.02801738679409027,0.30329459999999997,0.09040806,268.04926,-175.1991,-19.921757,CHU
7013315600000.0,1.020222544670105,-3.2153618335723877,0.6360253691673279,-9.538851737976074,-0.031065642833709717,0.28252518,0.10262536,268.05453,-175.21431,-19.862303,CHU
7013324600000.0,1.0252749919891357,-3.2133407592773438,0.624683141708374,-9.534640312194824,-0.03443976864218712,0.2666427,0.10567969,268.06604,-175.23116000000002,-19.801401000000002,CHU
7013333500000.0,1.0302798748016357,-3.2107436656951904,0.61348956823349,-9.529969215393066,-0.03761780261993408,0.2574797,0.10903945,268.0816,-175.25083999999998,-19.7462,CHU
7013342000000.0,1.0352816581726074,-3.2078797817230225,0.6016731262207031,-9.527812004089355,-0.041179899126291275,0.25411993,0.105374254,268.09604,-175.26515,-19.696379999999998,CHU
7013350000000.0,1.0402872562408447,-3.2049152851104736,0.5889668464660645,-9.529315948486328,-0.04484515264630318,0.23182335,0.11178834,268.11502,-175.27945,-19.655804,CHU
7013358600000.0,1.0452910661697388,-3.2013134956359863,0.5762839913368225,-9.53077220916748,-0.048331353813409805,0.23640485,0.10598512,268.1258,-175.29636000000002,-19.607155,CHU
7013366500000.0,1.0502945184707642,-3.1968462467193604,0.5640127062797546,-9.53056526184082,-0.05223402753472328,0.24770586,0.10445796,268.14,-175.3077,-19.564003,CHU
7013374400000.0,1.0552946329116821,-3.1925346851348877,0.5525139570236206,-9.532008171081543,-0.05630309507250786,0.23457226,0.10873401,268.15952000000004,-175.32423,-19.521563,CHU
7013382000000.0,1.0603002309799194,-3.188710927963257,0.5418858528137207,-9.536211013793945,-0.0603669174015522,0.24342979999999997,0.116675265,268.17852999999997,-175.33823,-19.471204999999998,CHU
7013389600000.0,1.0653010606765747,-3.185676336288452,0.5317182540893555,-9.541272163391113,-0.06421416997909546,0.2574797,0.11484267,268.198,-175.35124,-19.421131,CHU
7013397000000.0,1.070304274559021,-3.1835317611694336,0.5218497514724731,-9.546548843383789,-0.06849120557308197,0.24831672,0.11942416,268.22174,-175.35863999999998,-19.376379999999997,CHU
7013404000000.0,1.075304627418518,-3.182420015335083,0.5122538805007935,-9.551892280578613,-0.07315884530544281,0.24281894,0.11728613,268.24496,-175.36588999999998,-19.33213,CHU
7013411600000.0,1.0803077220916748,-3.1824417114257812,0.5029008388519287,-9.557219505310059,-0.0769103616476059,0.23793201,0.11911872,268.27045,-175.37575,-19.291557,CHU
7013419000000.0,1.0853080749511719,-3.1831204891204834,0.4942881166934967,-9.562021255493164,-0.08052705973386765,0.2510656,0.11484267,268.29717999999997,-175.37866,-19.247053,CHU
7013426000000.0,1.090307593345642,-3.184241771697998,0.48661306500434875,-9.566088676452637,-0.08380451798439026,0.25473082,0.1151481,268.32556,-175.38558999999998,-19.207815,CHU
7013432600000.0,1.095314621925354,-3.185445547103882,0.4793397784233093,-9.56987190246582,-0.08671198040246964,0.26419923,0.11209377,268.3506,-175.39427,-19.16639,CHU
7013439400000.0,1.1003168821334839,-3.186457633972168,0.47207143902778625,-9.573708534240723,-0.08954588323831558,0.26816985,0.10231992599999999,268.37317,-175.40298,-19.126984,CHU
7013446000000.0,1.1053171157836914,-3.187286853790283,0.464804083108902,-9.577597618103027,-0.09234270453453064,0.28344148,0.096516706,268.39185,-175.41165,-19.07797,CHU
7013453000000.0,1.1103216409683228,-3.1879401206970215,0.45752862095832825,-9.581543922424316,-0.09489280730485916,0.29168814,0.096516706,268.40912000000003,-175.42136000000002,-19.031462,CHU
7013459300000.0,1.115321397781372,-3.1895248889923096,0.45003047585487366,-9.58498477935791,-0.09725818037986755,0.30176744,0.08827003,268.42145,-175.43155,-18.982042,CHU
7013465600000.0,1.1203298568725586,-3.1927225589752197,0.4421485662460327,-9.587589263916016,-0.10006719827651978,0.30940324,0.08399397,268.43457,-175.43868999999998,-18.932526,CHU
7013472000000.0,1.1253323554992676,-3.197359561920166,0.4339437186717987,-9.589435577392578,-0.10285674035549164,0.30757064,0.08460484,268.44638,-175.45134,-18.879967,CHU
7013478000000.0,1.1303335428237915,-3.203385829925537,0.4254208505153656,-9.590554237365723,-0.10569294542074203,0.31398472,0.08643743400000001,268.4568,-175.46097,-18.824814,CHU
7013484500000.0,1.1353325843811035,-3.210041046142578,0.416494220495224,-9.59067153930664,-0.1084105595946312,0.310625,0.08307768,268.47263,-175.46797,-18.76919,CHU
7013491000000.0,1.1403313875198364,-3.2168116569519043,0.40710344910621643,-9.589607238769531,-0.11088567972183228,0.30970868,0.09468412,268.493,-175.47318,-18.712622,CHU
7013497000000.0,1.1453328132629395,-3.222709894180298,0.3982885777950287,-9.588273048400879,-0.11389626562595367,0.3115413,0.09101892,268.5146,-175.47787,-18.662092,CHU
7013503000000.0,1.1503318548202515,-3.2264211177825928,0.39144158363342285,-9.587883949279785,-0.11633947491645813,0.32711834,0.09285152,268.54053,-175.4871,-18.609211,CHU
7013508600000.0,1.1553285121917725,-3.2280638217926025,0.38645610213279724,-9.588388442993164,-0.11842459440231323,0.34025195,0.103847094,268.56775,-175.49489,-18.55969,CHU
7013514300000.0,1.1603319644927979,-3.2276833057403564,0.38328489661216736,-9.58976936340332,-0.1213589534163475,0.35185838,0.10598512,268.59213,-175.49944,-18.50804,CHU
7013520000000.0,1.1653378009796143,-3.2253682613372803,0.3818081319332123,-9.591534614562988,-0.12473919242620468,0.37018433,0.1142318,268.62515,-175.50342,-18.449171,CHU
7013526000000.0,1.170336365699768,-3.2212140560150146,0.3818819522857666,-9.592960357666016,-0.12782534956932068,0.39828414,0.124311075,268.65817000000004,-175.50611999999998,-18.386053,CHU
7013531600000.0,1.1753394603729248,-3.2151496410369873,0.3833124041557312,-9.594963073730469,-0.13139812648296356,0.4089743,0.13836098,268.69342,-175.49106,-18.316648,CHU
7013537400000.0,1.1803406476974487,-3.207167148590088,0.3856627643108368,-9.599225044250488,-0.1359362006187439,0.40439278,0.15149458,268.73022000000003,-175.47378999999998,-18.245895,CHU
7013543000000.0,1.1853381395339966,-3.197384834289551,0.3888767957687378,-9.605608940124512,-0.14073702692985535,0.41447207,0.16646078,268.77103,-175.44951,-18.154343,CHU
7013549000000.0,1.1903364658355713,-3.1858623027801514,0.3929246962070465,-9.614039421081543,-0.14635629951953888,0.43188173,0.18234327,268.81473,-175.41621,-18.064646,CHU
7013554700000.0,1.1953340768814087,-3.1735894680023193,0.3979761004447937,-9.625779151916504,-0.15322245657444,0.41935900000000004,0.17715092,268.85573999999997,-175.37958,-17.983734,CHU
7013560500000.0,1.2003333568572998,-3.1632275581359863,0.40464362502098083,-9.644811630249023,-0.15978780388832092,0.41630468,0.17928895,268.9016,-175.34422,-17.89764,CHU
7013566000000.0,1.2053420543670654,-3.1547112464904785,0.41289588809013367,-9.670978546142578,-0.16618232429027557,0.42943826,0.1826487,268.948,-175.29453,-17.789251,CHU
7013572000000.0,1.2103439569473267,-3.1478686332702637,0.4225381910800934,-9.703435897827148,-0.1716989129781723,0.43646320000000005,0.17440203,268.9902,-175.25053,-17.687243,CHU
7013577000000.0,1.2153449058532715,-3.1426942348480225,0.4342396855354309,-9.742527961730957,-0.17612391710281372,0.43096542,0.16371189,269.02582,-175.21062,-17.582514,CHU
7013582500000.0,1.2203432321548462,-3.1393468379974365,0.451005220413208,-9.790136337280273,-0.17883186042308807,0.4456262,0.14782938,269.05548,-175.1794,-17.47407,CHU
7013588000000.0,1.2253446578979492,-3.1382198333740234,0.4725457429885864,-9.844758033752441,-0.1800607442855835,0.45081854,0.12705997,269.07135,-175.1489,-17.362963,CHU
7013593000000.0,1.230345368385315,-3.1407084465026855,0.4980493485927582,-9.901579856872559,-0.18052421510219574,0.45112398,0.11026118,269.08276,-175.12454,-17.25333,CHU
7013598000000.0,1.2353417873382568,-3.146571397781372,0.5272351503372192,-9.96041488647461,-0.1792050302028656,0.4636467000000001,0.07269296,269.0857,-175.09732,-17.133654,CHU
7013603500000.0,1.240339994430542,-3.1518149375915527,0.5507621765136719,-10.015814781188965,-0.17772826552391052,0.50518554,0.044898596,269.08513999999997,-175.06725,-17.009888,CHU
7013608700000.0,1.2453384399414062,-3.1561362743377686,0.5681509375572205,-10.067490577697754,-0.17603720724582672,0.5720753000000001,0.05009095,269.0821,-175.04735,-16.879448,CHU
7013614000000.0,1.2503372430801392,-3.1595842838287354,0.5797256231307983,-10.115640640258789,-0.1753966361284256,0.623388,0.04886922,269.07025,-175.00507,-16.74408,CHU
7013619000000.0,1.2553682327270508,-3.1620771884918213,0.5846409797668457,-10.159083366394043,-0.17435070872306824,0.6261369000000001,0.04428773,269.0671,-174.96797,-16.602386,CHU
7013624400000.0,1.2603695392608643,-3.1632392406463623,0.5780343413352966,-10.184159278869629,-0.17287220060825348,0.6178902,0.03604105,269.061,-174.92758,-16.454754,CHU
7013629700000.0,1.2653738260269165,-3.1632978916168213,0.5594388842582703,-10.190452575683594,-0.1701051890850067,0.6056729000000001,0.014966198,269.05527,-174.92767,-16.307499,CHU
7013635000000.0,1.270370364189148,-3.1661102771759033,0.5347123742103577,-10.188138961791992,-0.16781118512153625,0.6197228,0.027183502999999998,269.05652000000003,-174.91956000000002,-16.159605,CHU
7013640000000.0,1.275391697883606,-3.171872615814209,0.5032960176467896,-10.176650047302246,-0.16682769358158112,0.6386596,0.049480084,269.05582000000004,-174.95125,-16.014809,CHU
7013645400000.0,1.2804161310195923,-3.1793150901794434,0.4712033271789551,-10.156222343444824,-0.1671174019575119,0.6478225999999999,0.05222898,269.05352999999997,-174.98088,-15.873901000000002,CHU
7013650700000.0,1.28541898727417,-3.1881392002105713,0.43878868222236633,-10.128955841064453,-0.17058204114437103,0.6246096999999999,0.03940081,269.05392,-174.99309,-15.741596,CHU
7013656000000.0,1.2904132604599,-3.1982064247131348,0.4061434864997864,-10.103631973266602,-0.17680823802947998,0.6267477,0.032375857,269.05914,-175.02322,-15.614065,CHU
7013661000000.0,1.2954208850860596,-3.2095131874084473,0.3729976713657379,-10.081132888793945,-0.18571393191814423,0.623388,0.04520403,269.06863,-175.03916999999998,-15.487708,CHU
7013666400000.0,1.300415277481079,-3.22090482711792,0.33818021416664124,-10.072209358215332,-0.19720515608787537,0.59437186,0.038789943,269.07135,-175.04148999999998,-15.373097,CHU
7013671600000.0,1.305408239364624,-3.232407331466675,0.3016285002231598,-10.076684951782227,-0.21086740493774414,0.5705481,0.032070424,269.07867000000005,-175.03601,-15.264753,CHU
7013677000000.0,1.3104087114334106,-3.2415502071380615,0.2596263885498047,-10.110373497009277,-0.22487586736679077,0.5558874,0.0030543262,269.07806,-175.02606,-15.166474,CHU
7013682000000.0,1.3154006004333496,-3.248310089111328,0.21251711249351501,-10.171648979187012,-0.23709602653980255,0.61911196,0.040927973,269.0936,-175.00873,-15.054573999999999,CHU
7013687400000.0,1.3203959465026855,-3.247089147567749,0.17912356555461884,-10.231865882873535,-0.24718371033668518,0.70341134,0.04734206,269.099,-175.00766000000002,-14.920101999999998,CHU
7013692600000.0,1.325391411781311,-3.237119674682617,0.1628701537847519,-10.28459358215332,-0.2555943727493286,0.6988298000000001,0.059253927000000005,269.11777,-175.00723,-14.796270999999999,CHU
7013698000000.0,1.3303899765014648,-3.218921184539795,0.15573671460151672,-10.339984893798828,-0.26453346014022827,0.68691796,0.07391469,269.1376,-175.04161000000002,-14.623632,CHU
7013703000000.0,1.3353856801986694,-3.19315242767334,0.1552628129720688,-10.4002103805542,-0.2754865884780884,0.6783658,0.090713486,269.16205,-175.07152,-14.457042999999999,CHU
7013708300000.0,1.3403815031051636,-3.159172534942627,0.1621241569519043,-10.465259552001953,-0.28772789239883423,0.6728681,0.1020145,269.18982,-175.03973,-14.27455,CHU
7013713600000.0,1.3453806638717651,-3.117035388946533,0.17628757655620575,-10.53502082824707,-0.3005213439464569,0.6835581999999999,0.10293079,269.21835,-174.99881000000002,-14.096032000000001,CHU
7013719000000.0,1.3504177331924438,-3.0635266304016113,0.20187333226203918,-10.594019889831543,-0.3134794235229492,0.6954701,0.10018189999999999,269.249,-174.92967,-13.891948999999999,CHU
7013724000000.0,1.3554118871688843,-3.002354621887207,0.23575200140476227,-10.64172077178955,-0.32613757252693176,0.7131852,0.09040806,269.2759,-174.85873,-13.690441,CHU
7013729300000.0,1.3604098558425903,-2.932081937789917,0.27916112542152405,-10.672889709472656,-0.33857691287994385,0.6722571999999999,0.10995574,269.30182,-174.76224,-13.475496,CHU
7013734500000.0,1.3654048442840576,-2.8535659313201904,0.33124610781669617,-10.68741226196289,-0.353413462638855,0.62949663,0.13836098,269.32552999999996,-174.6523,-13.264121,CHU
7013740000000.0,1.370399832725525,-2.7740566730499268,0.3840460479259491,-10.696948051452637,-0.37143099308013916,0.59742624,0.16462818,269.3507,-174.49345,-13.040223,CHU
7013745000000.0,1.3753995895385742,-2.696079969406128,0.4347698390483856,-10.705730438232422,-0.3924925625324249,0.6123924,0.16676621,269.37453999999997,-174.32188,-12.822587,CHU
7013750300000.0,1.3803951740264893,-2.619798421859741,0.4872201681137085,-10.714123725891113,-0.4167126417160034,0.61178154,0.14721853,269.39957000000004,-174.08597,-12.600467,CHU
7013755500000.0,1.3853912353515625,-2.545173406600952,0.5435665249824524,-10.72233772277832,-0.44327181577682495,0.6093381,0.12522738,269.4205,-173.838,-12.382228999999999,CHU
7013761000000.0,1.3903863430023193,-2.4731922149658203,0.6036776900291443,-10.731000900268555,-0.4708409011363983,0.5925393,0.11301007,269.44092,-173.57506999999998,-12.157055999999999,CHU
7013766000000.0,1.3953856229782104,-2.4041218757629395,0.6675254702568054,-10.74035930633545,-0.49920329451560974,0.5537493,0.11178834,269.4553,-173.30074,-11.946828,CHU
7013771000000.0,1.4003820419311523,-2.335293769836426,0.7366068363189697,-10.748046875,-0.5281376838684082,0.52412236,0.095294975,269.46252000000004,-172.99792,-11.731171,CHU
7013776500000.0,1.4053778648376465,-2.2639214992523193,0.8127368092536926,-10.751653671264648,-0.5561323165893555,0.5030475000000001,0.09437868,269.4711,-172.69705,-11.530795,CHU
7013781700000.0,1.4103792905807495,-2.1920416355133057,0.8920025825500488,-10.752117156982422,-0.5842953324317932,0.49205196,0.095294975,269.4623,-172.36566000000002,-11.3299,CHU
7013786500000.0,1.4153761863708496,-2.12077260017395,0.9722453355789185,-10.750079154968262,-0.6132688522338867,0.47983465,0.0983493,269.4511,-172.03488000000002,-11.142016,CHU
7013791000000.0,1.4203710556030273,-2.048309803009033,1.0540705919265747,-10.744382858276367,-0.6429771184921265,0.47403142,0.0983493,269.4305,-171.66962,-10.940482000000001,CHU
7013796400000.0,1.4253718852996826,-1.973584771156311,1.1379141807556152,-10.734397888183594,-0.6719323396682739,0.45906523,0.098043874,269.40778,-171.30778999999998,-10.751728,CHU
7013801700000.0,1.4303691387176514,-1.899257779121399,1.2231401205062866,-10.72149658203125,-0.7006303668022156,0.40591997,0.109650314,269.38802999999996,-170.91818,-10.563104,CHU
7013806400000.0,1.4353680610656738,-1.8267285823822021,1.3095930814743042,-10.706398963928223,-0.7287918925285339,0.3594942,0.11362094,269.36255,-170.53471000000002,-10.383937,CHU
7013811600000.0,1.4403645992279053,-1.7551978826522827,1.3968055248260498,-10.690229415893555,-0.7558920979499817,0.33108896,0.12858713,269.34628,-170.12732,-10.201236999999999,CHU
7013816300000.0,1.4453648328781128,-1.6837027072906494,1.4844955205917358,-10.674112319946289,-0.782882809638977,0.29046643,0.13011430000000002,269.32632,-169.71941999999999,-10.041105,CHU
7013821600000.0,1.450362205505371,-1.6145310401916504,1.5698657035827637,-10.65893268585205,-0.8081746697425842,0.27152961,0.13652839,269.31003,-169.30133,-9.875569,CHU
7013826300000.0,1.4553591012954712,-1.5493029356002808,1.6509435176849365,-10.645334243774414,-0.8339254260063171,0.24770586,0.1432479,269.29276,-168.8745,-9.727587,CHU
7013831500000.0,1.4603623151779175,-1.4905463457107544,1.7259361743927002,-10.6293306350708,-0.859573483467102,0.22602014,0.13927728,269.27475,-168.4424,-9.569364,CHU
7013836000000.0,1.4653600454330444,-1.4396827220916748,1.793837070465088,-10.608465194702148,-0.8846848607063293,0.21838433,0.14538592,269.25806,-168.01187,-9.417701,CHU
7013841500000.0,1.4703576564788818,-1.3952938318252563,1.8558531999588013,-10.581668853759766,-0.9103461503982544,0.19730948,0.13469578,269.24377000000004,-167.5744,-9.270776,CHU
7013846000000.0,1.4753594398498535,-1.355859398841858,1.9132698774337769,-10.547758102416992,-0.9365442991256714,0.172264,0.13622294,269.23126,-167.14127,-9.130746,CHU
7013851500000.0,1.48035728931427,-1.3206274509429932,1.9658435583114624,-10.503772735595703,-0.9644227027893066,0.10170906,0.1441642,269.2244,-166.70477,-9.017428,CHU
7013856000000.0,1.4853551387786865,-1.288948655128479,2.0132217407226562,-10.446094512939453,-0.9938755631446838,0.002443461,0.13836098,269.2135,-166.26838999999998,-8.92406,CHU
7013861400000.0,1.490363359451294,-1.260721206665039,2.05901837348938,-10.381913185119629,-1.0257304906845093,-0.054367005999999996,0.13988814,269.222,-165.8084,-8.833725,CHU
7013866700000.0,1.495363712310791,-1.235687494277954,2.1088905334472656,-10.323806762695312,-1.0591269731521606,-0.06627888,0.16187929,269.23355,-165.34558,-8.759796000000001,CHU
7013871400000.0,1.5003610849380493,-1.2135298252105713,2.162881851196289,-10.270491600036621,-1.0914924144744873,-0.12492194,0.17501289,269.24405,-164.87926000000002,-8.72523,CHU
7013876600000.0,1.5053577423095703,-1.1936638355255127,2.2212157249450684,-10.219184875488281,-1.1247373819351196,-0.18753563,0.18967366,269.25757000000004,-164.39514,-8.694519,CHU
7013881300000.0,1.5103594064712524,-1.1770087480545044,2.283285617828369,-10.169677734375,-1.158342957496643,-0.23182335,0.20280726,269.28652999999997,-163.89165,-8.661522,CHU
7013886600000.0,1.5153599977493286,-1.1645358800888062,2.348129987716675,-10.121794700622559,-1.19228994846344,-0.27336220000000006,0.204029,269.3156,-163.38553000000002,-8.645178,CHU
7013891300000.0,1.5203566551208496,-1.1563891172409058,2.4156901836395264,-10.075798988342285,-1.2262996435165405,-0.2910773,0.21258110000000002,269.35986,-162.8498,-8.629494000000001,CHU
7013896600000.0,1.5253586769104004,-1.1529814004898071,2.486233711242676,-10.032001495361328,-1.25935959815979,-0.32711834,0.21319197,269.4015,-162.32062,-8.630299,CHU
7013901300000.0,1.5303536653518677,-1.152850866317749,2.5599606037139893,-9.992324829101562,-1.2920900583267212,-0.33536503,0.204029,269.4461,-161.76367,-8.625856,CHU
7013906500000.0,1.5353518724441528,-1.1542778015136719,2.6380271911621094,-9.959931373596191,-1.3240203857421875,-0.34269542,0.21991149,269.4948,-161.21631000000002,-8.627791,CHU
7013911000000.0,1.5403482913970947,-1.1576191186904907,2.7194037437438965,-9.935834884643555,-1.3548187017440796,-0.34055737,0.21960606,269.5253,-160.65594,-8.639464,CHU
7013916500000.0,1.5453490018844604,-1.1635706424713135,2.8030343055725098,-9.922147750854492,-1.3834060430526733,-0.31642818,0.21197024,269.55075,-160.10905,-8.645322,CHU
7013921000000.0,1.5503435134887695,-1.1708177328109741,2.888385057449341,-9.914278984069824,-1.4096397161483765,-0.28191432,0.21197024,269.60193,-159.53753999999998,-8.631556,CHU
7013926400000.0,1.5553410053253174,-1.1772123575210571,2.975247859954834,-9.904731750488281,-1.4336940050125122,-0.27305678,0.22266038,269.64763999999997,-158.98206000000002,-8.617334,CHU
7013931700000.0,1.5603450536727905,-1.1827458143234253,3.0632481575012207,-9.892971992492676,-1.4563199281692505,-0.26633725,0.22510384,269.69177,-158.42571999999998,-8.595647999999999,CHU
7013936400000.0,1.5653437376022339,-1.1872315406799316,3.1500720977783203,-9.876067161560059,-1.478488802909851,-0.25259277,0.21685717,269.728,-157.88194,-8.569799,CHU
7013941000000.0,1.5703413486480713,-1.189752459526062,3.2360422611236572,-9.853180885314941,-1.4994111061096191,-0.2593123,0.20341812,269.7801,-157.32158,-8.543012,CHU
7013946400000.0,1.5753432512283325,-1.184295892715454,3.322577953338623,-9.818033218383789,-1.5201135873794556,-0.2706133,0.19364429,269.8235,-156.76575,-8.514565,CHU
7013951600000.0,1.5803582668304443,-1.1714262962341309,3.4096546173095703,-9.771780014038086,-1.539484977722168,-0.29352075,0.19058995,269.88177,-156.2001,-8.4903965,CHU
7013956300000.0,1.5853581428527832,-1.156227707862854,3.495105504989624,-9.725605010986328,-1.5579867362976074,-0.31490102,0.19914207,269.93512000000004,-155.64096,-8.468457,CHU
7013961600000.0,1.5903542041778564,-1.1386982202529907,3.5791432857513428,-9.679404258728027,-1.5755350589752197,-0.33994650000000004,0.21533000000000002,269.99982,-155.0536,-8.435122999999999,CHU
7013966300000.0,1.5953550338745117,-1.118862509727478,3.661942958831787,-9.633100509643555,-1.592685341835022,-0.36713,0.23151793,270.06268,-154.47576999999998,-8.406757,CHU
7013971500000.0,1.6003527641296387,-1.0969406366348267,3.7445743083953857,-9.586347579956055,-1.6087100505828857,-0.38820487,0.2724459,270.15366,-153.90332,-8.376182,CHU
7013977000000.0,1.6053953170776367,-1.0725092887878418,3.833552598953247,-9.536428451538086,-1.624303936958313,-0.39858958,0.29138273,270.2379,-153.33835,-8.350031,CHU
7013981500000.0,1.6103955507278442,-1.0469709634780884,3.9253735542297363,-9.485058784484863,-1.6394411325454712,-0.40286562,0.31031954,270.3488,-152.75021,-8.309161999999999,CHU
7013986000000.0,1.615391492843628,-1.0225335359573364,4.018803596496582,-9.431744575500488,-1.652876377105713,-0.42027529999999996,0.34238997,270.46299999999997,-152.17899,-8.269668,CHU
7013991400000.0,1.6203912496566772,-0.9993261694908142,4.112627983093262,-9.376672744750977,-1.6642446517944336,-0.4266894,0.37904188,270.5937,-151.57352,-8.219897,CHU
7013996700000.0,1.6253920793533325,-0.9783183336257935,4.199767589569092,-9.321166038513184,-1.6746490001678467,-0.44898596,0.40072759999999996,270.72458,-150.98123,-8.175730999999999,CHU
7014002000000.0,1.6304043531417847,-0.959421694278717,4.280918598175049,-9.265454292297363,-1.6837012767791748,-0.47128254,0.46028697,270.88574,-150.37268,-8.123434,CHU
7014006700000.0,1.635402798652649,-0.9423424005508423,4.361102104187012,-9.213638305664062,-1.6908061504364014,-0.47525316,0.4700608,271.03112999999996,-149.78558,-8.075402,CHU
7014012000000.0,1.6404224634170532,-0.9270932674407959,4.440823554992676,-9.165635108947754,-1.6962465047836304,-0.45142943,0.52106804,271.21246,-149.20181000000002,-8.006021,CHU
7014016600000.0,1.645416021347046,-0.9134289026260376,4.519495010375977,-9.121071815490723,-1.7002086639404297,-0.42730024,0.56138515,271.3842,-148.63956000000002,-7.937175,CHU
7014021300000.0,1.6504077911376953,-0.9013378620147705,4.597475051879883,-9.079850196838379,-1.7022993564605713,-0.39950588,0.5910121,271.57599999999996,-148.08737,-7.8605156,CHU
7014026600000.0,1.6554018259048462,-0.8927850127220154,4.672543525695801,-9.037489891052246,-1.7030740976333618,-0.3717115,0.61086524,271.76132,-147.55154,-7.7736807,CHU
7014031300000.0,1.660396695137024,-0.8880253434181213,4.744326591491699,-8.993096351623535,-1.7023588418960571,-0.36132678,0.63316184,271.94287,-147.03769,-7.6802344,CHU
7014036500000.0,1.6653904914855957,-0.8872479796409607,4.8132219314575195,-8.945085525512695,-1.7015352249145508,-0.36010507,0.6429357,272.1328,-146.50894,-7.5847683,CHU
7014041000000.0,1.6703860759735107,-0.8904790878295898,4.8795037269592285,-8.892757415771484,-1.7001370191574097,-0.37843102,0.65148777,272.31924,-146.00273,-7.489451,CHU
7014046500000.0,1.6754035949707031,-0.8947809338569641,4.9431586265563965,-8.835545539855957,-1.6996759176254272,-0.37751472,0.66950834,272.49377000000004,-145.49106,-7.3959985,CHU
7014051000000.0,1.6803982257843018,-0.8990887403488159,5.004127025604248,-8.774796485900879,-1.6992557048797607,-0.39125920000000003,0.68203104,272.66492,-144.9997,-7.3108306,CHU
7014056500000.0,1.6853933334350586,-0.9021779298782349,5.062568664550781,-8.712827682495117,-1.6995415687561035,-0.40469822,0.6942484,272.82602,-144.49671999999998,-7.233097,CHU
7014061700000.0,1.6903942823410034,-0.9036614298820496,5.118616104125977,-8.650558471679688,-1.7006585597991943,-0.42088616,0.72326446,272.98758,-144.00385,-7.154980999999999,CHU
7014066400000.0,1.6953866481781006,-0.9043421745300293,5.1728997230529785,-8.589250564575195,-1.701781153678894,-0.42638394,0.7641924,273.22504,-143.46985,-7.071204700000001,CHU
7014071000000.0,1.7003792524337769,-0.904710054397583,5.225949764251709,-8.529550552368164,-1.7029578685760498,-0.42485678,0.79504114,273.45706,-142.94406,-6.986314299999999,CHU
7014076400000.0,1.7053710222244263,-0.9035214781761169,5.278460502624512,-8.472386360168457,-1.7034207582473755,-0.42149702,0.83016586,273.7129,-142.41095,-6.8997636,CHU
7014081000000.0,1.7103652954101562,-0.9003419280052185,5.330740928649902,-8.418011665344238,-1.703142762184143,-0.40866885,0.8588764999999999,273.96045,-141.89041,-6.806555,CHU
7014086300000.0,1.7153583765029907,-0.8962538242340088,5.38264274597168,-8.366972923278809,-1.7013496160507202,-0.39400807,0.8897252,274.20193,-141.38263,-6.706001799999999,CHU
7014091000000.0,1.7203515768051147,-0.891672670841217,5.43414831161499,-8.319365501403809,-1.6985288858413696,-0.3735441,0.9016371,274.43082000000004,-140.88939,-6.6004076000000005,CHU
7014096300000.0,1.7253468036651611,-0.8874841332435608,5.485785484313965,-8.27491283416748,-1.6945887804031372,-0.34636059999999996,0.91751957,274.65088,-140.40941999999998,-6.481130599999999,CHU
7014101500000.0,1.7303409576416016,-0.8843225836753845,5.537885665893555,-8.233365058898926,-1.6881078481674194,-0.32375857,0.9398162,274.8613,-139.95515,-6.356777,CHU
7014106300000.0,1.735335111618042,-0.8825644850730896,5.589569568634033,-8.191791534423828,-1.6792864799499512,-0.28038713,0.9437868,275.12793,-139.48004,-6.214288,CHU
7014111500000.0,1.7403311729431152,-0.8823578953742981,5.640442848205566,-8.148788452148438,-1.6695516109466553,-0.24862215,0.9502009,275.38568,-139.02475,-6.067334,CHU
7014116000000.0,1.7453343868255615,-0.8835539221763611,5.689152717590332,-8.101806640625,-1.6589683294296265,-0.22571471,0.9550878,275.64813,-138.5792,-5.9108715,CHU
7014121500000.0,1.7503331899642944,-0.8859518766403198,5.734760284423828,-8.049481391906738,-1.647435188293457,-0.20372356,0.9602801999999999,275.89447,-138.15403999999998,-5.7498684,CHU
7014126000000.0,1.7553298473358154,-0.889682412147522,5.776663303375244,-7.992801189422607,-1.6360284090042114,-0.20708331,0.94897914,276.15155,-137.7164,-5.5973496,CHU
7014131400000.0,1.7603328227996826,-0.8948571681976318,5.814455509185791,-7.9323344230651855,-1.6256853342056274,-0.20433442,0.9419542,276.39383,-137.29358,-5.4405265,CHU
7014136000000.0,1.7653319835662842,-0.9026561379432678,5.845991611480713,-7.868244647979736,-1.6162678003311157,-0.21502456,0.9260716999999998,276.64972,-136.85675,-5.289853599999999,CHU
7014141400000.0,1.7703310251235962,-0.9152612090110779,5.8673272132873535,-7.800150394439697,-1.6077427864074707,-0.24190263,0.90316427,276.89398,-136.43008,-5.1479125,CHU
7014146600000.0,1.7753304243087769,-0.9312106370925903,5.879264831542969,-7.729013442993164,-1.6001604795455933,-0.27152961,0.88117313,277.1437,-135.99246000000002,-5.0135164,CHU
7014152000000.0,1.7803528308868408,-0.9493855834007263,5.881898880004883,-7.655236721038818,-1.5936658382415771,-0.2855795,0.8588764999999999,277.37982,-135.56458,-4.8885098,CHU
7014156600000.0,1.7853507995605469,-0.9692410826683044,5.877161502838135,-7.580122947692871,-1.5879567861557007,-0.29138273,0.8323039000000001,277.63525,-135.13613999999998,-4.784991000000001,CHU
7014161300000.0,1.7903482913970947,-0.9909849166870117,5.864819526672363,-7.503364562988281,-1.5830566883087158,-0.30024028,0.8045095,277.8786,-134.71635,-4.691078,CHU
7014166600000.0,1.7953466176986694,-1.013739824295044,5.846897125244141,-7.426583290100098,-1.5785316228866577,-0.3109304,0.7699956,278.13538,-134.30118000000002,-4.609397,CHU
7014171300000.0,1.8003450632095337,-1.0364830493927002,5.82572603225708,-7.351692199707031,-1.5739872455596924,-0.32925636,0.7339545999999999,278.37942999999996,-133.89777,-4.537864,CHU
7014176500000.0,1.805341362953186,-1.0592055320739746,5.801514148712158,-7.278608322143555,-1.5697013139724731,-0.32436943,0.70463306,278.63086,-133.4986,-4.4734697,CHU
7014181000000.0,1.8103435039520264,-1.0801002979278564,5.779882431030273,-7.207447528839111,-1.565204381942749,-0.33261612,0.68233645,278.87436,-133.1148,-4.421453,CHU
7014186500000.0,1.8153584003448486,-1.0989344120025635,5.761640548706055,-7.1381635665893555,-1.5599867105484009,-0.34025195,0.6588182,279.10242,-132.74503,-4.3747997000000005,CHU
7014191000000.0,1.8203558921813965,-1.1149146556854248,5.748995780944824,-7.071646690368652,-1.5541355609893799,-0.34910949999999996,0.64904433,279.3482,-132.38312,-4.329416999999999,CHU
7014196400000.0,1.825379729270935,-1.1277755498886108,5.743504524230957,-7.007489204406738,-1.5479614734649658,-0.38851030000000003,0.625526,279.60397,-132.01862,-4.292322,CHU
7014201700000.0,1.830378532409668,-1.1362265348434448,5.763063430786133,-6.943902492523193,-1.5409443378448486,-0.39370266,0.61941737,279.84802,-131.67157,-4.2486997,CHU
7014206400000.0,1.835371732711792,-1.1402262449264526,5.808174133300781,-6.880645275115967,-1.5345128774642944,-0.38637227,0.61086524,280.1118,-131.30258,-4.2031765,CHU
7014211000000.0,1.840368390083313,-1.1422733068466187,5.863985538482666,-6.819900035858154,-1.5283101797103882,-0.37904188,0.59589905,280.3658,-130.95238,-4.1612763,CHU
7014216400000.0,1.8453681468963623,-1.1430079936981201,5.926705837249756,-6.762048721313477,-1.5231704711914062,-0.36682457,0.605062,280.61197000000004,-130.60617,-4.1136764999999995,CHU
7014221600000.0,1.8503687381744385,-1.1425095796585083,5.995891094207764,-6.706939220428467,-1.5189558267593384,-0.34880406,0.61850107,280.85443,-130.1795,-4.045177,CHU
7014226300000.0,1.855363368988037,-1.1408742666244507,6.070946216583252,-6.6544342041015625,-1.5142658948898315,-0.3381139,0.63316184,281.0886,-129.76779,-3.973582,CHU
7014231600000.0,1.8603655099868774,-1.1381038427352905,6.152041435241699,-6.6043782234191895,-1.508865475654602,-0.3136793,0.6392705,281.32684,-129.35683,-3.8922239999999997,CHU
7014236300000.0,1.8653595447540283,-1.134326457977295,6.238299369812012,-6.556659698486328,-1.5027273893356323,-0.2779437,0.6365215999999999,281.55237,-128.96133,-3.806321,CHU
7014241500000.0,1.8703569173812866,-1.1301243305206299,6.321194648742676,-6.506592273712158,-1.495793342590332,-0.23976462,0.6188064999999999,281.78708,-128.57448,-3.7054910000000003,CHU
7014246000000.0,1.8753597736358643,-1.1256475448608398,6.398924350738525,-6.453210353851318,-1.487421989440918,-0.19364429,0.6020076999999999,282.00287000000003,-128.20786,-3.5990492999999995,CHU
7014251500000.0,1.8803573846817017,-1.1218723058700562,6.470972061157227,-6.400263786315918,-1.4784225225448608,-0.16829337,0.57726765,282.20313,-127.77371000000001,-3.4823089,CHU
7014256000000.0,1.8853540420532227,-1.119086742401123,6.5373406410217285,-6.348824501037598,-1.469056248664856,-0.14630222,0.5522222,282.3821,-127.36065,-3.3640537000000004,CHU
7014261500000.0,1.890351414680481,-1.1152976751327515,6.598299980163574,-6.297611713409424,-1.458626389503479,-0.1255328,0.52015173,282.5575,-126.94492,-3.2447455,CHU
7014266000000.0,1.8953495025634766,-1.110066533088684,6.654131889343262,-6.246309757232666,-1.4474339485168457,-0.10293079,0.5112942,282.7193,-126.54388,-3.1238525000000004,CHU
7014271400000.0,1.9003477096557617,-1.1051840782165527,6.7052531242370605,-6.194281101226807,-1.4358124732971191,-0.08063421400000001,0.49388456,282.88464,-126.14984,-3.0142493,CHU
7014276000000.0,1.9053452014923096,-1.1016589403152466,6.752004146575928,-6.1411848068237305,-1.4233616590499878,-0.06872234,0.47800204,283.0386,-125.77597,-2.9063013,CHU
7014281400000.0,1.910346508026123,-1.0987727642059326,6.794716835021973,-6.085568904876709,-1.410597801208496,-0.07360926,0.45478916,283.2033,-125.400116,-2.7971407999999998,CHU
7014286600000.0,1.9153472185134888,-1.096287727355957,6.833669662475586,-6.027228355407715,-1.3978793621063232,-0.09101892,0.44409904,283.36047,-125.04037,-2.6910286,CHU
7014291300000.0,1.920345664024353,-1.0927621126174927,6.869596004486084,-5.968974590301514,-1.3854968547821045,-0.10659598599999999,0.42058071,283.52299999999997,-124.67871000000001,-2.5954268,CHU
7014296600000.0,1.925349235534668,-1.0876429080963135,6.902844429016113,-5.911789417266846,-1.373725414276123,-0.13164146,0.40042216,283.68408,-124.32871000000002,-2.5076401,CHU
7014301300000.0,1.9303557872772217,-1.0802232027053833,6.934453964233398,-5.8555521965026855,-1.362418532371521,-0.14813483,0.3820962,283.851,-123.968796,-2.423828,CHU
7014306500000.0,1.9353556632995605,-1.0703672170639038,6.964893817901611,-5.800252437591553,-1.3511282205581665,-0.16187929,0.35796702,284.01276,-123.62161,-2.3509004,CHU
7014311300000.0,1.9403530359268188,-1.0577296018600464,6.995487689971924,-5.745163917541504,-1.339935064315796,-0.15577064,0.3378085,284.19345,-123.26652,-2.273231,CHU
7014316500000.0,1.945353388786316,-1.042232632637024,7.026722431182861,-5.689982891082764,-1.3298918008804321,-0.16401732,0.34116822,284.37396,-122.91875,-2.2010913,CHU
7014321000000.0,1.9503512382507324,-1.0261532068252563,7.057407379150391,-5.635882377624512,-1.3203186988830566,-0.172264,0.33383787,284.5631,-122.56995,-2.1230285,CHU
7014326500000.0,1.9553483724594116,-1.0104296207427979,7.087083339691162,-5.583287239074707,-1.3118417263031006,-0.16646078,0.32925636,284.74432,-122.224625,-2.043908,CHU
7014331000000.0,1.960349202156067,-0.995034396648407,7.115814685821533,-5.532093524932861,-1.3038002252578735,-0.16401732,0.33475417,284.9309,-121.87281999999999,-1.9529908999999999,CHU
7014336400000.0,1.9653828144073486,-0.9798949360847473,7.143721103668213,-5.482075214385986,-1.2954548597335815,-0.15149458,0.33658674,285.1046,-121.53201999999999,-1.8632692,CHU
7014341000000.0,1.970379114151001,-0.9655978083610535,7.171543121337891,-5.432981491088867,-1.2863171100616455,-0.14080444,0.33994650000000004,285.29492,-121.19386000000002,-1.7697903999999998,CHU
7014346400000.0,1.9753755331039429,-0.9523124098777771,7.199880599975586,-5.384255886077881,-1.276771068572998,-0.13072516,0.34483343,285.47488,-120.86769,-1.6756262999999998,CHU
7014351600000.0,1.980372667312622,-0.9396885633468628,7.2282938957214355,-5.333275318145752,-1.2656502723693848,-0.13927728,0.34880406,285.66843,-120.5423,-1.5786495,CHU
7014356400000.0,1.9853696823120117,-0.9274802207946777,7.256479263305664,-5.278322219848633,-1.2540967464447021,-0.13041973,0.35369098,285.84827,-120.22561999999999,-1.4783605,CHU
7014361600000.0,1.9903662204742432,-0.9153724312782288,7.284122467041016,-5.22169303894043,-1.2420846223831177,-0.14110987,0.35155296,286.04236000000003,-119.91273999999999,-1.3767368,CHU
7014366300000.0,1.9953666925430298,-0.9031528830528259,7.311049938201904,-5.164801120758057,-1.2298986911773682,-0.1423316,0.3436117,286.22443,-119.613174,-1.2750899,CHU
7014371600000.0,2.000371217727661,-0.889453113079071,7.337879657745361,-5.109309196472168,-1.2177436351776123,-0.1554652,0.34513888,286.40665,-119.298805,-1.1756605,CHU
7014376300000.0,2.0053672790527344,-0.8734531402587891,7.364976406097412,-5.056411266326904,-1.206089973449707,-0.16523905,0.35246924,286.5817,-118.9951,-1.0782994,CHU
7014381500000.0,2.0103671550750732,-0.8551393151283264,7.392402172088623,-5.00595235824585,-1.1945364475250244,-0.15851954,0.35430184,286.75307999999995,-118.68961999999999,-0.9792526,CHU
7014386000000.0,2.015364408493042,-0.8347067832946777,7.420099258422852,-4.95781135559082,-1.183484673500061,-0.13561209,0.35063666,286.91705,-118.39133000000001,-0.88074154,CHU
7014391500000.0,2.02036190032959,-0.8117367625236511,7.449330806732178,-4.911574363708496,-1.1725661754608154,-0.12308934,0.3436117,287.09256,-118.09865,-0.78326607,CHU
7014396000000.0,2.025359630584717,-0.785792887210846,7.481449127197266,-4.866813659667969,-1.1622295379638672,-0.12034045,0.31795537,287.25574,-117.81267,-0.6916724,CHU
7014401400000.0,2.0303561687469482,-0.7567951083183289,7.517785549163818,-4.824326992034912,-1.154331922531128,-0.12461651,0.30329459999999997,287.43484,-117.50493,-0.58210254,CHU
7014406700000.0,2.0353775024414062,-0.7240400314331055,7.561200141906738,-4.785429954528809,-1.14919912815094,-0.1432479,0.30024028,287.60776,-117.20371999999999,-0.48016617,CHU
7014411400000.0,2.040371894836426,-0.6892089247703552,7.609659194946289,-4.7502665519714355,-1.14484441280365,-0.17470746,0.30634892,287.79413,-116.8901,-0.36935177,CHU
7014416600000.0,2.0453715324401855,-0.6532673835754395,7.663626670837402,-4.720213413238525,-1.1400870084762573,-0.21380283,0.30604348,287.97778,-116.57996999999999,-0.26694179999999995,CHU
7014421400000.0,2.0503647327423096,-0.6168769001960754,7.7202863693237305,-4.695797920227051,-1.133532166481018,-0.2415972,0.33353242,288.18352999999996,-116.26438,-0.14044075,CHU
7014426600000.0,2.055365800857544,-0.580817461013794,7.775764465332031,-4.678657054901123,-1.1261546611785889,-0.2415972,0.36560285,288.384,-115.95795,-0.017235985,CHU
7014431300000.0,2.060366630554199,-0.5453782081604004,7.830299377441406,-4.667529106140137,-1.118600606918335,-0.20647246,0.39584067,288.59296,-115.66145,0.12403633,CHU
7014436600000.0,2.065364122390747,-0.5129021406173706,7.885957717895508,-4.655651092529297,-1.1114329099655151,-0.17684549,0.42821655,288.7988,-115.37833400000001,0.26949808,CHU
7014441300000.0,2.0703611373901367,-0.482700377702713,7.943610191345215,-4.642278671264648,-1.1047122478485107,-0.18570304,0.50243664,289.0333,-115.11774,0.43488228,CHU
7014446500000.0,2.0753588676452637,-0.4525850713253021,8.006567001342773,-4.624541759490967,-1.0985125303268433,-0.22815818,0.5870415,289.26526,-114.86635,0.60610527,CHU
7014451000000.0,2.08035945892334,-0.4232739806175232,8.072579383850098,-4.604359149932861,-1.0920084714889526,-0.27305678,0.675617,289.51099999999997,-114.61211399999999,0.78952813,CHU
7014456500000.0,2.085357189178467,-0.39755764603614807,8.133549690246582,-4.588555335998535,-1.0842069387435913,-0.30604348,0.7654141999999999,289.7654,-114.37321000000001,0.9860838,CHU
7014461000000.0,2.09035325050354,-0.3759618401527405,8.189998626708984,-4.57710599899292,-1.0734680891036987,-0.31612277,0.81489426,290.019,-114.12025,1.187949,CHU
7014466500000.0,2.095353841781616,-0.3612191379070282,8.243180274963379,-4.570672988891602,-1.0571650266647339,-0.29321529999999996,0.8344419,290.26953,-113.90247,1.3990557,CHU
7014471000000.0,2.1003518104553223,-0.35325905680656433,8.2913236618042,-4.569013595581055,-1.0373847484588623,-0.24587326,0.8332202,290.53256,-113.71027,1.609845,CHU
7014476400000.0,2.1053619384765625,-0.3538253903388977,8.32670783996582,-4.572669982910156,-1.0189515352249146,-0.19792034,0.7840455,290.77667,-113.53383999999998,1.8088388,CHU
7014481700000.0,2.110368013381958,-0.362175315618515,8.353249549865723,-4.579849720001221,-1.0040562152862549,-0.15332718,0.7180721,291.0073,-113.39034,1.9874919999999998,CHU
7014486400000.0,2.115370750427246,-0.37859198451042175,8.382159233093262,-4.5854644775390625,-0.9931776523590088,-0.1386664,0.6994406999999999,291.2253,-113.24783000000001,2.161448,CHU
7014491600000.0,2.12038254737854,-0.4028988778591156,8.41285514831543,-4.588353633880615,-0.9847182035446167,-0.10567969,0.64812803,291.45288,-113.12153,2.2940593,CHU
7014496300000.0,2.125382423400879,-0.43253475427627563,8.438480377197266,-4.576613426208496,-0.9800464510917664,-0.06536258,0.63407815,291.66946,-112.97634,2.4291997000000003,CHU
7014501600000.0,2.13038969039917,-0.4673662781715393,8.459030151367188,-4.549834728240967,-0.979953408241272,0.0027488936,0.59650993,291.86813,-112.80403000000001,2.5283558,CHU
7014506300000.0,2.1353859901428223,-0.502916693687439,8.474739074707031,-4.50832986831665,-0.986066997051239,0.14599679999999998,0.56505036,292.02936,-112.60991000000001,2.6348696,CHU
7014511500000.0,2.140407085418701,-0.5394521355628967,8.485487937927246,-4.4507927894592285,-0.9996353387832642,0.2312125,0.52534413,292.1566,-112.34658,2.7156053,CHU
7014516000000.0,2.145404815673828,-0.5753010511398315,8.495453834533691,-4.383926868438721,-1.0181288719177246,0.26878070000000004,0.47678033,292.25046000000003,-112.06733,2.79391,CHU
7014521500000.0,2.1503968238830566,-0.6105824708938599,8.504664421081543,-4.3074188232421875,-1.0392340421676636,0.301462,0.41172317,292.29337000000004,-111.706535,2.8586395,CHU
7014526000000.0,2.1553914546966553,-0.642236053943634,8.519063949584961,-4.218942165374756,-1.0587750673294067,0.30451632,0.35185838,292.32712000000004,-111.34423999999999,2.9111485,CHU
7014531500000.0,2.1603903770446777,-0.6691325902938843,8.54088306427002,-4.118039131164551,-1.0751097202301025,0.26175576,0.2855795,292.35474,-110.97809,2.9422287999999996,CHU
7014536000000.0,2.16538667678833,-0.6902773380279541,8.564656257629395,-4.017314910888672,-1.0856744050979614,0.16920967,0.20830505,292.36908,-110.58200000000001,2.9501912999999997,CHU
7014541400000.0,2.170379400253296,-0.7054314017295837,8.588187217712402,-3.9217023849487305,-1.0900928974151611,0.056199603,0.13652839,292.3932,-110.20740500000001,2.9354669999999996,CHU
7014546700000.0,2.175384283065796,-0.7128771543502808,8.61170768737793,-3.834327459335327,-1.0869674682617188,-0.03359759,0.064446285,292.4029,-109.80556000000001,2.9108512,CHU
7014551400000.0,2.1803793907165527,-0.7129414081573486,8.635178565979004,-3.7557034492492676,-1.0792067050933838,-0.099265605,0.03176499,292.433,-109.42766999999999,2.86984,CHU
7014556600000.0,2.185375928878784,-0.7040934562683105,8.65864372253418,-3.684659481048584,-1.0687342882156372,-0.14172074,0.004886922,292.48926,-109.07751499999999,2.821284,CHU
7014561300000.0,2.190371513366699,-0.6861090064048767,8.682089805603027,-3.6203577518463135,-1.0567528009414673,-0.16371189,0.004581489,292.5565,-108.75532,2.7686509999999998,CHU
7014566600000.0,2.195371150970459,-0.658554196357727,8.705180168151855,-3.5624337196350098,-1.045035481452942,-0.14813483,0.004581489,292.63135,-108.46042,2.7296862999999996,CHU
7014571300000.0,2.2003705501556396,-0.6216422319412231,8.727703094482422,-3.5104687213897705,-1.0344960689544678,-0.09773844,0.017104227,292.70215,-108.17981,2.6968967999999998,CHU
7014576600000.0,2.205371141433716,-0.5758521556854248,8.750609397888184,-3.4642105102539062,-1.026943564414978,0.0021380284,0.04337143,292.78177,-107.90399,2.7084305,CHU
7014581300000.0,2.2103724479675293,-0.5217841863632202,8.775790214538574,-3.4234466552734375,-1.0236188173294067,0.047036625,0.08093964,292.8619,-107.62648,2.7266122999999998,CHU
7014586500000.0,2.2153682708740234,-0.46019887924194336,8.80333137512207,-3.387713670730591,-1.0214478969573975,0.16493362,0.09682214,292.9176,-107.363754,2.797069,CHU
7014591000000.0,2.220365524291992,-0.3919427990913391,8.835429191589355,-3.355980396270752,-1.0209877490997314,0.2959642,0.12095132,292.95599999999996,-107.08816999999999,2.8832471,CHU
7014596500000.0,2.22536563873291,-0.3174915611743927,8.87179183959961,-3.3276100158691406,-1.0217729806900024,0.4089743,0.13133603,292.9756,-106.81818999999999,3.0017946,CHU
7014601000000.0,2.230365753173828,-0.23815318942070007,8.911721229553223,-3.3002729415893555,-1.0226465463638306,0.5109888,0.14080444,292.95917000000003,-106.55497,3.1329974999999997,CHU
7014606400000.0,2.235363006591797,-0.15428374707698822,8.954967498779297,-3.2739193439483643,-1.0237503051757812,0.57818395,0.13805555,292.9132,-106.29368000000001,3.2872841,CHU
7014611000000.0,2.2403600215911865,-0.0660414844751358,9.001405715942383,-3.2484922409057617,-1.0234441757202148,0.6178902,0.14569137,292.84467,-106.04916399999999,3.4481559,CHU
7014616400000.0,2.2453548908233643,0.02627326361835003,9.050824165344238,-3.2239458560943604,-1.0208104848861694,0.61575216,0.15393804,292.7959,-105.80747,3.6123182999999996,CHU
7014621600000.0,2.2503528594970703,0.12112147361040115,9.101690292358398,-3.200422525405884,-1.0149965286254883,0.5757405,0.1554652,292.74323,-105.58556999999999,3.771996,CHU
7014627000000.0,2.2553958892822266,0.21897359192371368,9.15407943725586,-3.1777193546295166,-1.0065299272537231,0.5183192,0.16737708,292.69424,-105.38224,3.9305449,CHU
7014631600000.0,2.2603952884674072,0.31383395195007324,9.203899383544922,-3.154447555541992,-0.9948033094406128,0.44990227,0.16798794,292.65448,-105.19099399999999,4.1223683,CHU
7014637000000.0,2.265411376953125,0.40619006752967834,9.251306533813477,-3.1299593448638916,-0.9800066947937012,0.37293324,0.16554448,292.61742999999996,-105.01963,4.317016000000001,CHU
7014641600000.0,2.270406484603882,0.49050667881965637,9.295587539672852,-3.0999414920806885,-0.9626943469047546,0.29260445,0.1563815,292.59744,-104.87136000000001,4.4992985999999995,CHU
7014646300000.0,2.2754087448120117,0.5668702125549316,9.336843490600586,-3.063938856124878,-0.9434886574745178,0.19058995,0.12675454,292.6068,-104.73255999999999,4.669499,CHU
7014651500000.0,2.2804040908813477,0.6358785629272461,9.375268936157227,-3.0226519107818604,-0.9232717752456665,0.096516706,0.1020145,292.63364,-104.61166999999999,4.828795400000001,CHU
7014657000000.0,2.285412073135376,0.6972112655639648,9.410970687866211,-2.9762604236602783,-0.9023255705833435,0.008552114,0.08032878,292.68282999999997,-104.5062,4.9699160000000004,CHU
7014662000000.0,2.290449619293213,0.7448089718818665,9.444099426269531,-2.930328369140625,-0.8813236355781555,-0.034513887,0.054061572999999995,292.7611,-104.402885,5.098953,CHU
7014666700000.0,2.2954628467559814,0.7812455892562866,9.474909782409668,-2.885185718536377,-0.8609526753425598,-0.03573562,0.058643065,292.85086,-104.25778000000001,5.2168455,CHU
7014671500000.0,2.30045485496521,0.8070575594902039,9.503520965576172,-2.8407790660858154,-0.840999960899353,0.00030543262000000003,0.06536258,292.93585,-104.12299,5.324465,CHU
7014676000000.0,2.3054468631744385,0.82210373878479,9.53000545501709,-2.796933174133301,-0.8204665780067444,0.03023783,0.08552113,293.01953,-104.00313,5.43353,CHU
7014681400000.0,2.3104441165924072,0.8274531960487366,9.549503326416016,-2.7522201538085938,-0.7998554706573486,0.081855945,0.089186326,293.08215,-103.888405,5.540462000000001,CHU
7014686000000.0,2.315433979034424,0.8241852521896362,9.561452865600586,-2.7065048217773438,-0.779366135597229,0.13316862,0.096516706,293.13412,-103.788216,5.652634,CHU
7014691400000.0,2.320427417755127,0.8115974068641663,9.565401077270508,-2.653913736343384,-0.7593176364898682,0.15302174,0.099265605,293.20544,-103.66894,5.724166,CHU
7014696600000.0,2.325428009033203,0.7899513840675354,9.561598777770996,-2.593909978866577,-0.7382377982139587,0.14935656,0.08582657,293.2647,-103.56493,5.792788,CHU
7014701300000.0,2.3304224014282227,0.7602671384811401,9.549715995788574,-2.525543451309204,-0.7171419858932495,0.12889257,0.05161811400000001,293.3247,-103.45116999999999,5.840335400000001,CHU
7014706600000.0,2.3354134559631348,0.7229085564613342,9.529754638671875,-2.4485695362091064,-0.6959170699119568,0.09743301,0.026572637000000003,293.38562,-103.35138,5.8843464999999995,CHU
7014711300000.0,2.340407133102417,0.6802597641944885,9.50767993927002,-2.368905544281006,-0.6755465865135193,0.0580322,-0.003970624,293.43576,-103.213326,5.887562,CHU
7014716500000.0,2.3454058170318604,0.6328395009040833,9.484353065490723,-2.287414312362671,-0.6555780172348022,0.025961772999999997,-0.04734206,293.48904,-103.08227,5.878862000000001,CHU
7014721000000.0,2.3504011631011963,0.5836670994758606,9.461912155151367,-2.2063982486724854,-0.6371945142745972,0.011301007,-0.081855945,293.52567,-102.91461,5.8442917,CHU
7014726500000.0,2.3554015159606934,0.5335035920143127,9.440924644470215,-2.1263461112976074,-0.6220858097076416,-0.004276057,-0.11148291,293.56903,-102.74059,5.798033,CHU
7014732000000.0,2.3604395389556885,0.48740318417549133,9.424246788024902,-2.051563024520874,-0.6102076172828674,-0.0027488936,-0.14569137,293.59893999999997,-102.54048,5.7250905,CHU
7014736500000.0,2.3654332160949707,0.44584211707115173,9.411373138427734,-1.982431411743164,-0.6022504568099976,-0.0018325957999999999,-0.17073683,293.63245,-102.32685,5.647060400000001,CHU
7014741000000.0,2.370426893234253,0.41134458780288696,9.404702186584473,-1.9195555448532104,-0.5986564755439758,0.018020526000000002,-0.18600847,293.65157999999997,-102.0887,5.556946,CHU
7014746400000.0,2.375425338745117,0.3847462236881256,9.404973983764648,-1.862929105758667,-0.5992908477783203,0.035430185,-0.18081611,293.6713,-101.83883,5.4674830000000005,CHU
7014751700000.0,2.3804218769073486,0.3670364022254944,9.4093656539917,-1.8133869171142578,-0.6027887463569641,0.06536258,-0.16218472,293.70065,-101.58128,5.3883195,CHU
7014756400000.0,2.385416269302368,0.35831549763679504,9.416790962219238,-1.7710102796554565,-0.6086395382881165,0.08704830000000001,-0.14935656,293.72742,-101.31255999999999,5.311650299999999,CHU
7014761600000.0,2.3904101848602295,0.3578910231590271,9.425331115722656,-1.7346984148025513,-0.6162782907485962,0.08643743400000001,-0.12736541,293.76932,-101.049965,5.2628965,CHU
7014766300000.0,2.3954102993011475,0.3654015064239502,9.434182167053223,-1.7038949728012085,-0.6244214773178101,0.08827003,-0.103847094,293.80444,-100.79044,5.221205,CHU
7014771600000.0,2.4004054069519043,0.3804578185081482,9.441595077514648,-1.679793357849121,-0.6315121650695801,0.08093964,-0.083383106,293.86523,-100.550156,5.2057047,CHU
7014776300000.0,2.405400037765503,0.40296342968940735,9.446779251098633,-1.662935733795166,-0.6367437243461609,0.08582657,-0.059253927000000005,293.9212,-100.32178499999999,5.199674,CHU
7014781600000.0,2.410400629043579,0.4292096197605133,9.450262069702148,-1.6511282920837402,-0.6409639716148376,0.074830994,-0.044593163,293.99835,-100.11704,5.2186027,CHU
7014786300000.0,2.4154019355773926,0.45462068915367126,9.452713966369629,-1.6416409015655518,-0.6425177454948425,0.08643743400000001,-0.015271631,294.06583,-99.94075,5.2497206,CHU
7014791500000.0,2.4203972816467285,0.47753384709358215,9.455182075500488,-1.632066249847412,-0.6407820582389832,0.08979719,0.0036651915999999997,294.1567,-99.80855,5.3087935,CHU
7014796000000.0,2.4253973960876465,0.49702298641204834,9.458252906799316,-1.6210438013076782,-0.6360298991203308,0.12370021,0.01863139,294.23148,-99.697174,5.374916000000001,CHU
7014801500000.0,2.43042254447937,0.5129281282424927,9.461808204650879,-1.6077297925949097,-0.6286824345588684,0.15149458,0.03848451,294.30566,-99.61268000000001,5.4461010000000005,CHU
7014806000000.0,2.4354169368743896,0.5258010029792786,9.465611457824707,-1.5922852754592896,-0.6188780069351196,0.19211712,0.052839845,294.3627,-99.54763,5.519515,CHU
7014811400000.0,2.4404103755950928,0.5362306833267212,9.469158172607422,-1.5735689401626587,-0.6063406467437744,0.24220806,0.07238753,294.404,-99.49682,5.594525,CHU
7014816700000.0,2.4454081058502197,0.5452840924263,9.471695899963379,-1.5503805875778198,-0.5919484496116638,0.312763,0.09010262,294.42514,-99.46003,5.673002200000001,CHU
7014821400000.0,2.4504029750823975,0.5538843274116516,9.474530220031738,-1.5228525400161743,-0.5761420726776123,0.36774087,0.10293079,294.42645,-99.42817,5.747392700000001,CHU
7014826600000.0,2.4554009437561035,0.5627968311309814,9.478754997253418,-1.490883708000183,-0.5590620040893555,0.41905355,0.11301007,294.40765,-99.41094,5.826269,CHU
7014831400000.0,2.4604008197784424,0.5709152221679688,9.484417915344238,-1.4565203189849854,-0.5424201488494873,0.47922380000000003,0.106901415,294.39703,-99.36307,5.896418,CHU
7014836600000.0,2.4653985500335693,0.5773490071296692,9.491532325744629,-1.421484351158142,-0.5262745022773743,0.5296202,0.10659598599999999,294.37307999999996,-99.32859,5.9703608,CHU
7014841300000.0,2.4703938961029053,0.5830557346343994,9.500153541564941,-1.3859957456588745,-0.511412501335144,0.5702427,0.093462385,294.31754,-99.27813,6.041731400000001,CHU
7014846600000.0,2.475395679473877,0.5889496803283691,9.510403633117676,-1.3501876592636108,-0.4981890022754669,0.6044512,0.0888809,294.24887,-99.23143,6.1150374,CHU
7014851300000.0,2.480391263961792,0.5949992537498474,9.522103309631348,-1.3141738176345825,-0.48692357540130615,0.61422503,0.07391469,294.18262000000004,-99.15904,6.1700597,CHU
7014856500000.0,2.4853873252868652,0.6012070775032043,9.535223007202148,-1.277916431427002,-0.4781792163848877,0.605062,0.06078109,294.11148,-99.083466,6.2235192999999995,CHU
7014861000000.0,2.490382671356201,0.6081901788711548,9.54958438873291,-1.2417631149291992,-0.47131702303886414,0.57696223,0.05467244,294.04242,-99.00695,6.27327,CHU
7014866500000.0,2.4953818321228027,0.6178788542747498,9.564858436584473,-1.2066971063613892,-0.46644824743270874,0.5363397,0.03848451,293.97845,-98.92143,6.3147655,CHU
7014871700000.0,2.5003864765167236,0.6297162175178528,9.580975532531738,-1.172720193862915,-0.46323880553245544,0.47861293,0.029932396,293.91472999999996,-98.826645,6.3576236,CHU
7014876400000.0,2.505385160446167,0.6429036855697632,9.597774505615234,-1.139893651008606,-0.4606236219406128,0.4447099,0.02076942,293.8549,-98.73092,6.394476999999999,CHU
7014881700000.0,2.510385751724243,0.6575266718864441,9.615429878234863,-1.1081279516220093,-0.4583105742931366,0.36071593,0.014660766,293.83862,-98.62654,6.427537999999999,CHU
7014886400000.0,2.5153839588165283,0.6740354895591736,9.634809494018555,-1.0773283243179321,-0.45529064536094666,0.27030787,0.010079277,293.83203,-98.52849,6.4568853,CHU
7014891700000.0,2.5203890800476074,0.6922339200973511,9.655865669250488,-1.047734260559082,-0.45173174142837524,0.17989981,0.015882496,293.84448,-98.43741,6.490125,CHU
7014896400000.0,2.525390148162842,0.7097166180610657,9.67783260345459,-1.023020625114441,-0.4467836022377014,0.095294975,0.030848695,293.87894,-98.35868,6.5219135,CHU
7014901600000.0,2.530390739440918,0.7262139916419983,9.700291633605957,-1.0029239654541016,-0.439283162355423,0.05131268,0.044593163,293.92142,-98.294395,6.559454400000001,CHU
7014906300000.0,2.535386800765991,0.7383449673652649,9.7188138961792,-0.9866382479667664,-0.429740846157074,0.03145956,0.053145275,293.97852,-98.24067,6.5973744000000005,CHU
7014911600000.0,2.5403926372528076,0.7462054491043091,9.733880043029785,-0.9740242958068848,-0.4189491271972656,0.03726278,0.04062254,294.05255,-98.188446,6.621183,CHU
7014916300000.0,2.545391082763672,0.7507218718528748,9.750167846679688,-0.9638826251029968,-0.406307190656662,0.07238753,0.048258353,294.12134,-98.15557,6.6526130000000006,CHU
7014921500000.0,2.5503854751586914,0.752041220664978,9.767634391784668,-0.9561007618904114,-0.3920438885688782,0.11362094,0.050701816,294.19208,-98.11646,6.661515,CHU
7014926000000.0,2.5553815364837646,0.7495148777961731,9.783490180969238,-0.9486299753189087,-0.376424640417099,0.17409660000000002,0.04886922,294.2447,-98.08683,6.672324000000001,CHU
7014931500000.0,2.560378074645996,0.7432177066802979,9.797280311584473,-0.9410691261291504,-0.35979846119880676,0.22968534,0.03604105,294.2845,-98.06259,6.681146000000001,CHU
7014936000000.0,2.5653748512268066,0.7340830564498901,9.808236122131348,-0.9319961667060852,-0.3434886336326599,0.27122417,0.0067195175,294.31403,-98.03803,6.679313700000001,CHU
7014941500000.0,2.5703682899475098,0.7225473523139954,9.816246032714844,-0.9210439324378967,-0.3286828100681305,0.31520647,-0.015882496,294.3257,-98.014565,6.676910400000001,CHU
7014946700000.0,2.5753700733184814,0.709362268447876,9.821661949157715,-0.9089407920837402,-0.3160170316696167,0.33628133,-0.03634648,294.33286,-97.97824,6.6586046,CHU
7014951400000.0,2.580364227294922,0.6948991417884827,9.824808120727539,-0.8959971070289612,-0.3057842254638672,0.35399640000000004,-0.053450707,294.32764,-97.935425,6.63633,CHU
7014956000000.0,2.5853617191314697,0.6814424395561218,9.826600074768066,-0.8836659789085388,-0.2980988621711731,0.3622431,-0.06047566,294.31497,-97.88008,6.607237,CHU
7014961400000.0,2.5903584957122803,0.6694367527961731,9.82731819152832,-0.8722366094589233,-0.2918485403060913,0.37110063,-0.069027774,294.29672,-97.819885,6.5743523,CHU
7014966600000.0,2.5953595638275146,0.6589196920394897,9.828574180603027,-0.8632968664169312,-0.2872009575366974,0.3652974,-0.06994407,294.28387000000004,-97.749115,6.5388575,CHU
7014971300000.0,2.6003572940826416,0.6498228907585144,9.830838203430176,-0.8571979403495789,-0.2829800844192505,0.35399640000000004,-0.06811147,294.27013999999997,-97.679535,6.503105000000001,CHU
7014976600000.0,2.6053550243377686,0.6428758502006531,9.834547996520996,-0.8534280061721802,-0.2790655493736267,0.35124752,-0.0711658,294.25662,-97.60961,6.4692063,CHU
7014981300000.0,2.6103568077087402,0.6391898989677429,9.840372085571289,-0.8513044118881226,-0.274627149105072,0.33994650000000004,-0.064751714,294.24896,-97.54664,6.43935,CHU
7014986500000.0,2.615354537963867,0.6388633251190186,9.847040176391602,-0.8507258296012878,-0.2694649398326874,0.33567044,-0.062308256,294.24703999999997,-97.48975,6.410128,STD
7014991300000.0,2.6203525066375732,0.6419851779937744,9.853842735290527,-0.8516485095024109,-0.26340585947036743,0.3210097,-0.06414085,294.25107,-97.43796,6.3821224999999995,STD
7014996500000.0,2.6253550052642822,0.6481191515922546,9.859947204589844,-0.8513742089271545,-0.25610706210136414,0.29779682,-0.06536258,294.2609,-97.40403,6.366708999999999,STD
7015001000000.0,2.6303555965423584,0.6567719578742981,9.864691734313965,-0.8477513790130615,-0.24813920259475708,0.258396,-0.0580322,294.27932999999996,-97.37474,6.353159400000001,STD
7015006500000.0,2.6353535652160645,0.6670175790786743,9.867899894714355,-0.8407813906669617,-0.2386915236711502,0.21624629,-0.06017022599999999,294.30523999999997,-97.35802,6.343943,STD
7015011000000.0,2.640350818634033,0.6781982183456421,9.869455337524414,-0.8304802179336548,-0.22833120822906494,0.16584991,-0.053450707,294.3444,-97.34731,6.3385476999999995,STD
7015016400000.0,2.6453475952148438,0.6912097334861755,9.8699312210083,-0.8166759610176086,-0.21728594601154327,0.11881329,-0.051923547,294.3855,-97.341034,6.3390565,STD
7015021000000.0,2.65034556388855,0.7069119811058044,9.869861602783203,-0.7991819381713867,-0.20565734803676605,0.08521569999999999,-0.053450707,294.43622,-97.339386,6.3396454,STD
7015026400000.0,2.6553430557250977,0.7257763147354126,9.870896339416504,-0.7802132368087769,-0.19458335638046265,0.0571159,-0.061391957000000004,294.47888,-97.337395,6.3435016,STD
7015031600000.0,2.6603457927703857,0.7482779026031494,9.874428749084473,-0.761559009552002,-0.18484829366207123,0.04184427,-0.06536258,294.52646,-97.33686,6.3472795,STD
7015036400000.0,2.665342330932617,0.7732909321784973,9.879842758178711,-0.7436633706092834,-0.17701560258865356,0.03756821,-0.06658431,294.5619,-97.33296,6.356896400000001,STD
7015041600000.0,2.6703383922576904,0.7989718317985535,9.88616943359375,-0.7275217771530151,-0.1710653007030487,0.03145956,-0.06872234,294.60107,-97.32578000000001,6.364428,STD
7015046300000.0,2.67533540725708,0.8252949714660645,9.893364906311035,-0.7130447626113892,-0.16745050251483917,0.028405233999999998,-0.055588737,294.63434,-97.3244,6.387144999999999,STD
7015051600000.0,2.680332660675049,0.8522213697433472,9.90138053894043,-0.7001416683197021,-0.1656235307455063,0.034208454,-0.04153884,294.66565,-97.3204,6.4089627,STD
7015057000000.0,2.685358762741089,0.8803988099098206,9.90997314453125,-0.6881995797157288,-0.1657983660697937,0.02321288,-0.03726278,294.69586,-97.31049,6.428511599999999,STD
7015061500000.0,2.6903555393218994,0.9095818996429443,9.91867733001709,-0.6766659617424011,-0.16614294052124023,-0.011301007,-0.040011674,294.73026,-97.30333,6.4491190000000005,STD
7015066000000.0,2.695347785949707,0.9399623870849609,9.927542686462402,-0.6654967665672302,-0.166192427277565,-0.029321532999999997,-0.026267206,294.762,-97.30609,6.482397,STD
7015071500000.0,2.7003419399261475,0.9715426564216614,9.936576843261719,-0.654666543006897,-0.16672760248184204,-0.07391469,-0.022296581,294.80975,-97.30396999999999,6.5102199999999995,STD
7015076000000.0,2.7053351402282715,1.0026696920394897,9.944955825805664,-0.6480746865272522,-0.16739703714847565,-0.12675454,-0.01282817,294.8662,-97.31121999999999,6.544855999999999,STD
7015081400000.0,2.7103309631347656,1.0314979553222656,9.951736450195312,-0.6502816677093506,-0.16902370750904083,-0.17287487,-0.006414085,294.93185,-97.31596,6.57808,STD
7015086000000.0,2.7153234481811523,1.0581637620925903,9.957029342651367,-0.6606360077857971,-0.17095434665679932,-0.17959438,-0.013133603,294.99414,-97.33038,6.621639699999999,STD
7015091400000.0,2.720323085784912,1.0827581882476807,9.960869789123535,-0.6790217757225037,-0.17214727401733398,-0.15393804,-0.005497787,295.05852999999996,-97.35039,6.669355,STD
7015096000000.0,2.7253167629241943,1.105586051940918,9.963122367858887,-0.7011256217956543,-0.17278830707073212,-0.07147124,0.006414085,295.1009,-97.36361,6.7101625999999985,STD
7015101400000.0,2.7303123474121094,1.1269439458847046,9.963480949401855,-0.7223049402236938,-0.17088846862316132,0.008857545999999999,0.015577064,295.13473999999997,-97.38405999999999,6.751438,STD
7015106000000.0,2.7353053092956543,1.1462379693984985,9.962584495544434,-0.7404653429985046,-0.16694127023220062,0.06597344599999999,0.029932396,295.18167,-97.41994,6.7847550000000005,STD
7015111300000.0,2.740302801132202,1.1625216007232666,9.9612398147583,-0.7524546980857849,-0.1604861170053482,0.08399397,0.02565634,295.21567000000005,-97.45881,6.8147564,STD
7015116600000.0,2.7453033924102783,1.1756727695465088,9.9594144821167,-0.7590014934539795,-0.15216125547885895,0.08582657,0.036651913,295.23334,-97.50579,6.8495507,STD
7015121300000.0,2.75030255317688,1.185304880142212,9.957023620605469,-0.7612208724021912,-0.14284764230251312,0.058643065,0.04795292,295.25394,-97.55454,6.8818545,STD
7015126500000.0,2.755519151687622,1.1891828775405884,9.953620910644531,-0.7560383081436157,-0.13380248844623566,-0.018936822,0.04276056599999999,295.27496,-97.588,6.9023075,STD
7015132000000.0,2.7605292797088623,1.1917469501495361,9.950461387634277,-0.7499631643295288,-0.12523937225341797,-0.018936822,0.04276056599999999,295.2818,-97.62718000000001,6.927306,STD
7015136500000.0,2.765516757965088,1.1904044151306152,9.94767951965332,-0.7402324080467224,-0.11736049503087997,-0.13775012,0.028099801,295.33795,-97.64865,6.937854300000001,STD
7015141700000.0,2.770517587661743,1.1850190162658691,9.945249557495117,-0.7268673777580261,-0.10990150272846222,-0.19700404,0.02321288,295.37674,-97.67232,6.9514002999999995,STD
7015146500000.0,2.775510311126709,1.1783483028411865,9.942724227905273,-0.7148885130882263,-0.10352367162704468,-0.2312125,0.024129177,295.44138,-97.69093000000001,6.960235000000001,STD
7015151000000.0,2.780496835708618,1.1704511642456055,9.940107345581055,-0.7042259573936462,-0.09755084663629532,-0.24923302,0.005497787,295.51147000000003,-97.69175,6.953253999999999,STD
7015156400000.0,2.785484552383423,1.1645469665527344,9.936967849731445,-0.6934283375740051,-0.09282413870096207,-0.24678956,-0.0015271631,295.58426000000003,-97.692116,6.949316499999999,STD
7015161000000.0,2.7904746532440186,1.1612364053726196,9.933236122131348,-0.6821932792663574,-0.08799122273921967,-0.25442538,-0.008246681,295.66333,-97.69055,6.9395156,STD
7015166400000.0,2.795468807220459,1.1614985466003418,9.931977272033691,-0.6732611060142517,-0.08354608714580536,-0.2648101,0.0012217305,295.7425,-97.67784,6.920502000000001,STD
7015171600000.0,2.8004627227783203,1.1653573513031006,9.933758735656738,-0.6671412587165833,-0.07990755140781403,-0.27397305,0.014660766,295.82205,-97.66476999999999,6.900972400000001,STD
7015176300000.0,2.805452585220337,1.1707135438919067,9.937820434570312,-0.6636096835136414,-0.07660941779613495,-0.27916542,0.022296581,295.8985,-97.657166,6.8886449999999995,STD
7015181600000.0,2.8104476928710938,1.174712061882019,9.943273544311523,-0.6625447869300842,-0.07452880591154099,-0.29352075,0.0290161,295.97888,-97.64959,6.879598599999999,STD
7015186300000.0,2.815439462661743,1.1774581670761108,9.949995040893555,-0.6637452244758606,-0.07247768342494965,-0.29779682,0.033292156,296.0671,-97.650215,6.8767815,STD
7015191500000.0,2.8204312324523926,1.179005742073059,9.95793628692627,-0.6671175956726074,-0.07081259042024612,-0.3051272,0.044898596,296.15866,-97.65123,6.877406,STD
7015197000000.0,2.8254358768463135,1.1780649423599243,9.965620040893555,-0.6741586327552795,-0.06977338343858719,-0.28924468,0.049785517,296.2428,-97.6512,6.877337,STD
7015201500000.0,2.8304286003112793,1.1739856004714966,9.971912384033203,-0.6854849457740784,-0.0690988302230835,-0.24465153,0.061391957000000004,296.3192,-97.65571,6.8824644,STD
7015206000000.0,2.835421323776245,1.167190670967102,9.976130485534668,-0.6998518705368042,-0.06847650557756424,-0.19211712,0.069027774,296.39886,-97.655136,6.8768477,STD
7015211500000.0,2.840414047241211,1.1581645011901855,9.977766036987305,-0.7160464525222778,-0.06741530448198318,-0.14141529999999997,0.07391469,296.46472,-97.65729,6.874277,STD
7015216000000.0,2.8454089164733887,1.1471723318099976,9.9765043258667,-0.7321886420249939,-0.06603627651929855,-0.1133155,0.06597344599999999,296.52744,-97.655975,6.859039999999999,STD
7015221400000.0,2.8504061698913574,1.1345958709716797,9.971782684326172,-0.7453004717826843,-0.06333088874816895,-0.09407325,0.06169739,296.57732999999996,-97.66048,6.846977000000001,STD
7015226000000.0,2.8554015159606934,1.1204967498779297,9.965045928955078,-0.7573509216308594,-0.06024880334734917,-0.09896017,0.058643065,296.63662999999997,-97.66568000000001,6.831111,STD
7015231400000.0,2.8604037761688232,1.1048290729522705,9.957636833190918,-0.7703058123588562,-0.056354328989982605,-0.11301007,0.052534412999999995,296.69223,-97.67355,6.813386,STD
7015236600000.0,2.8654024600982666,1.0890586376190186,9.94974422454834,-0.7832350134849548,-0.05243951827287674,-0.12644911,0.05589417,296.74652000000003,-97.67803,6.794919500000001,STD
7015241400000.0,2.8703975677490234,1.074628472328186,9.941522598266602,-0.7952253222465515,-0.04839151352643967,-0.13805555,0.05009095,296.80338,-97.68151,6.7720532,STD
7015246600000.0,2.8753981590270996,1.0621761083602905,9.933082580566406,-0.8056252002716064,-0.044233694672584534,-0.15118915,0.044898596,296.87152000000003,-97.686806,6.746875,STD
7015251300000.0,2.8803963661193848,1.0523771047592163,9.92459487915039,-0.8137298822402954,-0.03953241929411888,-0.14966199,0.052534412999999995,296.93805,-97.69618,6.7239647,STD
7015256600000.0,2.8853890895843506,1.0450671911239624,9.916666984558105,-0.8204805254936218,-0.03488636016845703,-0.16707164,0.050701816,297.01187000000004,-97.70236,6.6979804000000005,STD
7015261300000.0,2.8903844356536865,1.0401744842529297,9.910175323486328,-0.8271248936653137,-0.030113523826003075,-0.18325958,0.0571159,297.08437999999995,-97.71516,6.676685000000001,STD
7015266500000.0,2.8953781127929688,1.0374515056610107,9.904937744140625,-0.8340383172035217,-0.026278693228960037,-0.17715092,0.06719518,297.14993,-97.72776,6.661985400000001,STD
7015271000000.0,2.9003748893737793,1.0366668701171875,9.900748252868652,-0.8418641686439514,-0.023169107735157013,-0.17806722,0.06047566,297.221,-97.73912,6.643778999999999,STD
7015276500000.0,2.905371904373169,1.0372213125228882,9.89717960357666,-0.8505040407180786,-0.020339181646704674,-0.17531833,0.070249505,297.29143999999997,-97.768326,6.646109,STD
7015281700000.0,2.9103758335113525,1.0382243394851685,9.893562316894531,-0.859878659248352,-0.01849021576344967,-0.16340645,0.076052725,297.35822,-97.79089,6.645057700000001,STD
7015286400000.0,2.9153754711151123,1.03921639919281,9.889927864074707,-0.8701080083847046,-0.017602484673261642,-0.16646078,0.08002335,297.42847,-97.818436,6.648550999999999,STD
7015291000000.0,2.920372247695923,1.0384036302566528,9.886362075805664,-0.8820447325706482,-0.017559653148055077,-0.17012598,0.08796459400000001,297.49463,-97.84543000000001,6.654408,STD
7015296400000.0,2.925367832183838,1.0358730554580688,9.88286018371582,-0.8956096768379211,-0.018007425591349602,-0.16187929,0.09132435,297.56143,-97.87683,6.664514,STD
7015301600000.0,2.9303674697875977,1.0316824913024902,9.879416465759277,-0.9107593297958374,-0.019749799743294716,-0.16035213,0.08674286,297.63004,-97.90264,6.673539,STD
7015306400000.0,2.935364007949829,1.0259736776351929,9.876115798950195,-0.9274075031280518,-0.02102493867278099,-0.16035213,0.089186326,297.69754,-97.93087,6.682937599999999,STD
7015311600000.0,2.9403607845306396,1.018862009048462,9.873478889465332,-0.9458510875701904,-0.023111099377274513,-0.15271631,0.08643743400000001,297.76099999999997,-97.948685,6.689087,STD
7015316300000.0,2.9453675746917725,1.0104601383209229,9.871392250061035,-0.9659697413444519,-0.024923309683799744,-0.16126843,0.095294975,297.839,-97.97330500000001,6.6871333,STD
7015321600000.0,2.950364828109741,1.0020599365234375,9.86874771118164,-0.9861314296722412,-0.026427336037158966,-0.16493362,0.092240654,297.91187,-97.99155999999999,6.680876,STD
7015326300000.0,2.955361843109131,0.9936460852622986,9.865551948547363,-1.0063718557357788,-0.027981428429484367,-0.17715092,0.09132435,297.99216,-98.014626,6.6724695999999994,STD
7015331500000.0,2.9603631496429443,0.9849459528923035,9.861534118652344,-1.027040958404541,-0.02902948670089245,-0.1777618,0.10751228,298.06934,-98.04286,6.6678834,STD
7015336000000.0,2.965357542037964,0.9759552478790283,9.856724739074707,-1.04811692237854,-0.029842641204595566,-0.17348573,0.10903945,298.14706,-98.06586999999999,6.658351,STD
7015341500000.0,2.970355272293091,0.9666686654090881,9.851576805114746,-1.0665535926818848,-0.030677570030093193,-0.16493362,0.11911872,298.22897,-98.0978,6.6562023,STD
7015346700000.0,2.9753615856170654,0.9570879936218262,9.846177101135254,-1.0819035768508911,-0.031972602009773254,-0.16157386,0.12644911,298.3099,-98.12796,6.653133,STD
7015351500000.0,2.9803617000579834,0.9477033019065857,9.839860916137695,-1.0959792137145996,-0.03375204652547836,-0.16035213,0.13225232,298.3916,-98.162056,6.651167999999999,STD
7015356000000.0,2.9853556156158447,0.9385602474212646,9.832588195800781,-1.109046220779419,-0.03566454350948334,-0.14813483,0.13347405,298.46808,-98.19546,6.649677799999999,STD
7015361400000.0,2.9903531074523926,0.9294160604476929,9.825125694274902,-1.1223266124725342,-0.037703000009059906,-0.1423316,0.13805555,298.54874,-98.23015,6.6561537,STD
7015366000000.0,2.9953482151031494,0.9202614426612854,9.8175630569458,-1.1358946561813354,-0.039811871945858,-0.13622294,0.14538592,298.6247,-98.26428,6.663241999999999,STD
7015371400000.0,3.0003466606140137,0.9095994234085083,9.81120777130127,-1.150361180305481,-0.042264122515916824,-0.12308934,0.14385876,298.6955,-98.29455,6.668449000000001,STD
7015376600000.0,3.0053439140319824,0.8973562121391296,9.806146621704102,-1.1657285690307617,-0.04533444344997406,-0.12522738,0.14355333,298.768,-98.32435,6.675039999999999,STD
7015382000000.0,3.0103793144226074,0.8813651204109192,9.802066802978516,-1.182374119758606,-0.0479644238948822,-0.118507855,0.14080444,298.84116,-98.362564,6.686594,STD
7015386600000.0,3.0153725147247314,0.8625853657722473,9.798659324645996,-1.1997255086898804,-0.05117044970393181,-0.12675454,0.12950343,298.91776,-98.39211999999999,6.6942067,STD
7015391300000.0,3.020369291305542,0.8422281742095947,9.795187950134277,-1.2170772552490234,-0.05360335484147072,-0.14660765,0.12034045,299.00214,-98.4231,6.693353699999999,STD
7015396500000.0,3.0253655910491943,0.8207064867019653,9.791526794433594,-1.2342541217803955,-0.05619959533214569,-0.18631389999999998,0.099571034,299.09277000000003,-98.443016,6.6846237,STD
7015401000000.0,3.0303657054901123,0.7980477213859558,9.787679672241211,-1.2512768507003784,-0.057599447667598724,-0.21319197,0.08704830000000001,299.1869,-98.46179000000001,6.660263499999999,STD
7015406500000.0,3.035362482070923,0.7743723392486572,9.78366756439209,-1.2681338787078857,-0.058436378836631775,-0.2275473,0.08704830000000001,299.28717,-98.476,6.6328917,STD
7015411000000.0,3.0403592586517334,0.7512866258621216,9.779407501220703,-1.2861604690551758,-0.05887060612440109,-0.23518312,0.06780604,299.39023,-98.481445,6.59165,STD
7015416500000.0,3.0453619956970215,0.7291834354400635,9.77487850189209,-1.3057039976119995,-0.05880964919924736,-0.24923302,0.061391957000000004,299.49802,-98.49218,6.5537534,STD
7015421000000.0,3.0503597259521484,0.7082759737968445,9.770805358886719,-1.3251038789749146,-0.05831244960427284,-0.25625798,0.05955936,299.61044,-98.4977,6.500511,STD
7015426400000.0,3.0553605556488037,0.6886148452758789,9.767477989196777,-1.3437341451644897,-0.05761386454105377,-0.26236662,0.041233405,299.7245,-98.50008000000001,6.441066,STD
7015431700000.0,3.060365676879883,0.6701343655586243,9.764859199523926,-1.3616372346878052,-0.056171197444200516,-0.2443461,0.036957346,299.83545,-98.50926,6.3799486,STD
7015436400000.0,3.0653676986694336,0.6527681946754456,9.762897491455078,-1.378844976425171,-0.054821692407131195,-0.24617869,0.03023783,299.95178,-98.51329,6.313157,STD
7015441600000.0,3.0703649520874023,0.6357640027999878,9.761932373046875,-1.3949917554855347,-0.053120892494916916,-0.23487769,0.02687807,300.0617,-98.52354,6.249841,STD
7015446300000.0,3.0753674507141113,0.618895947933197,9.762045860290527,-1.410021424293518,-0.05103868991136551,-0.22968534,0.015271631,300.17206,-98.53203,6.1829805,STD
7015451600000.0,3.080404281616211,0.6016075015068054,9.763299942016602,-1.424881935119629,-0.048855848610401154,-0.20677789,0.01740966,300.27365,-98.54536,6.1209674000000005,STD
7015456300000.0,3.0854032039642334,0.5841403007507324,9.76536750793457,-1.439610481262207,-0.045959193259477615,-0.18020524,0.0076358155,300.3707,-98.559135,6.053547,STD
7015461600000.0,3.090402126312256,0.5661390423774719,9.76795482635498,-1.4543169736862183,-0.043395958840847015,-0.16493362,0.00061086525,300.47614,-98.56687,5.9882355,STD
7015466300000.0,3.0954017639160156,0.5475674867630005,9.770914077758789,-1.469004511833191,-0.04085538536310196,-0.16462818,-0.005192355,300.57678,-98.5783,5.9218717000000005,STD
7015471500000.0,3.1003990173339844,0.5305496454238892,9.772904396057129,-1.482346773147583,-0.03786422312259674,-0.14660765,-0.003970624,300.66907000000003,-98.59173,5.853934,STD
7015476000000.0,3.1053967475891113,0.5156920552253723,9.773534774780273,-1.493975281715393,-0.03477202728390694,-0.13713925,-0.004581489,300.7624,-98.60409,5.7847753,STD
7015481500000.0,3.110400438308716,0.5038031339645386,9.773042678833008,-1.5025171041488647,-0.03166557475924492,-0.1386664,-0.0015271631,300.86,-98.62815,5.722615,STD
7015486700000.0,3.115402936935425,0.4950183629989624,9.771589279174805,-1.5076390504837036,-0.028545621782541275,-0.15057829,-0.006414085,300.95657,-98.65243000000001,5.6588907,STD
7015491400000.0,3.1203982830047607,0.48967641592025757,9.769115447998047,-1.509811282157898,-0.024957124143838882,-0.15302174,-0.006414085,301.0532,-98.68446999999999,5.607272,STD
7015496700000.0,3.1253979206085205,0.48802414536476135,9.765557289123535,-1.5091924667358398,-0.02099015936255455,-0.15607607,-0.013439035,301.1518,-98.715195,5.552435,STD
7015501400000.0,3.1303958892822266,0.4883202314376831,9.761760711669922,-1.5062605142593384,-0.017657816410064697,-0.16035213,-0.013439035,301.23822,-98.74235999999999,5.506241,STD
7015506600000.0,3.1353936195373535,0.4891282021999359,9.758429527282715,-1.5013742446899414,-0.01455189473927021,-0.15913039999999998,-0.009162978,301.32288,-98.773125,5.459911,STD
7015511400000.0,3.1403937339782715,0.49042603373527527,9.755542755126953,-1.4946166276931763,-0.011513832025229931,-0.15302174,-0.010995574,301.40594,-98.80041,5.426247,STD
7015516600000.0,3.1453921794891357,0.4921799302101135,9.753072738647461,-1.486118197441101,-0.009142274037003517,-0.13622294,-0.010079277,301.4847,-98.826065,5.395179,STD
7015522000000.0,3.1504085063934326,0.49347010254859924,9.751191139221191,-1.4769833087921143,-0.007304036989808083,-0.11728613,-0.017715093,301.5597,-98.85059,5.3616589999999995,STD
7015526600000.0,3.155406951904297,0.4939815104007721,9.749883651733398,-1.4678618907928467,-0.006247413344681263,-0.10629055,-0.008857545999999999,301.6317,-98.87469,5.3336277,STD
7015532000000.0,3.1604106426239014,0.4933602511882782,9.748992919921875,-1.4587123394012451,-0.00537731871008873,-0.0842994,-0.00580322,301.6862,-98.8892,5.308467,STD
7015536500000.0,3.1654112339019775,0.49152639508247375,9.748398780822754,-1.4495521783828735,-0.005595344118773937,-0.057726767000000005,-0.004276057,301.73562999999996,-98.89811,5.286177599999999,STD
7015541000000.0,3.170408010482788,0.48901206254959106,9.748007774353027,-1.4416131973266602,-0.006290071178227663,-0.050396382999999996,0.0036651915999999997,301.78125,-98.90163000000001,5.258382,STD
7015546500000.0,3.175407648086548,0.4861244559288025,9.747763633728027,-1.4356189966201782,-0.007354707922786474,-0.03848451,-0.00061086525,301.81714,-98.89954,5.2292190000000005,STD
7015551000000.0,3.1804046630859375,0.4828934967517853,9.74765682220459,-1.4314359426498413,-0.00919275265187025,-0.03481932,0.0018325957999999999,301.85352,-98.8941,5.2019634,STD
7015556400000.0,3.1854028701782227,0.4793308973312378,9.747681617736816,-1.4289873838424683,-0.01086773257702589,-0.024740042,0.0036651915999999997,301.8841,-98.89041,5.174588,STD
7015561700000.0,3.1904053688049316,0.47666406631469727,9.747761726379395,-1.4268455505371094,-0.012811549939215183,-0.029626964,0.00030543262000000003,301.91553,-98.88129,5.145898000000001,STD
7015566400000.0,3.195404052734375,0.47576361894607544,9.747838020324707,-1.423943281173706,-0.01500987820327282,-0.027794369,0.00030543262000000003,301.92734725509996,-98.87784537467181,5.1324629656635,STD
7015571700000.0,3.2004013061523438,0.4765499532222748,9.747910499572754,-1.4203132390975952,-0.016781780868768692,-0.01863139,-0.004276057,301.93927,-98.87437,5.118908,STD
7015576400000.0,3.2054011821746826,0.47895753383636475,9.747978210449219,-1.4159810543060303,-0.018345313146710396,-0.027183502999999998,-0.0018325957999999999,301.9836,-98.87675,5.094037999999999,STD
7015581600000.0,3.2103967666625977,0.48251888155937195,9.748674392700195,-1.4109562635421753,-0.018897712230682373,-0.02443461,-0.008246681,302.02063,-98.88056999999999,5.066604,STD
7015586300000.0,3.2153944969177246,0.4868822395801544,9.75057315826416,-1.4052073955535889,-0.01870446838438511,-0.022602014,0.005192355,302.0606,-98.88788000000001,5.04558,STD
7015591600000.0,3.2203874588012695,0.4923703074455261,9.753152847290039,-1.399017333984375,-0.018781960010528564,-0.019547688,0.0009162978999999999,302.09222,-98.88985,5.0275517,STD
7015596300000.0,3.225386619567871,0.4995049834251404,9.755837440490723,-1.3926724195480347,-0.0189529862254858,-0.012217305,-0.002443461,302.12216,-98.89793399999999,5.0139084,STD
7015601500000.0,3.2303807735443115,0.5078615546226501,9.758681297302246,-1.3865362405776978,-0.019228840246796608,-0.0076358155,-0.0018325957999999999,302.164,-98.90014000000001,5.006844999999999,STD
7015606000000.0,3.235377311706543,0.5167516469955444,9.761862754821777,-1.3814611434936523,-0.01963648945093155,0.0009162978999999999,0.008246681,302.20212000000004,-98.90281999999999,5.0018706,STD
7015611500000.0,3.2403738498687744,0.5257688760757446,9.765191078186035,-1.3772025108337402,-0.020510733127593994,0.004581489,0.0021380284,302.2259,-98.90245999999999,4.994605,STD
7015616000000.0,3.245374917984009,0.5332617163658142,9.76790714263916,-1.3729099035263062,-0.021289555355906487,0.008246681,0.0036651915999999997,302.24744,-98.90663,4.99257,STD
7015621500000.0,3.2503738403320312,0.5393369197845459,9.77005386352539,-1.368591547012329,-0.021408332511782646,0.016493361,0.009162978,302.26373,-98.91606,4.993669000000001,STD
