timestamp,rel_time,acc_x,acc_y,acc_z,gyro_x,gyro_y,gyro_z,azimuth,pitch,roll,label
0.0,0.0,0.0,0.0,0.0,0.0,0.0036651916,0.009162978,113.36582,16.452131,-17.527372,SIT
11979221.0,4.571529643726535e-08,-2.2473175704362802e-05,-2.1577487132162787e-05,7.948178972583264e-05,-2.4045772306635627e-07,0.0018325958,0.003970624,113.33165,16.412947,-17.432032,SIT
83107504.0,4.889536739938194e-07,-0.0001559935772093013,-0.0001496549230068922,0.0005513316136784852,-1.5815450069567305e-06,0.011301007,0.015577064,113.30319,16.369583,-17.350893,SIT
293034240.0,2.322966565770912e-06,-0.0005503168213181198,-0.0005275321891531348,0.001943682786077261,-5.78843173570931e-06,0.0076358155,0.009773844,113.28045,16.329014,-17.266731,SIT
749331328.0,7.455667400790844e-06,-0.0014079709071666002,-0.0013486073585227132,0.004969537258148193,-1.5148964848776814e-05,0.009468411,0.009162978,113.25473999999998,16.286459,-17.190855,SIT
1581462656.0,1.8928081772173755e-05,-0.00297305965796113,-0.002845455426722765,0.010486633516848087,-3.5057917557423934e-05,0.010690141499999998,0.008857545999999999,113.23078999999998,16.25008,-17.116066,SIT
2933756928.0,4.0993716538650915e-05,-0.005518130958080292,-0.005277145653963089,0.019450774416327477,-6.624512752750888e-05,0.009773844,0.012217305,113.20641,16.207676,-17.04406,SIT
4957910016.0,7.92017817730084e-05,-0.009330163709819317,-0.008915706537663937,0.032866016030311584,-0.0001167540394817479,0.011911872,0.011301007,113.18423,16.177020000000002,-16.975351,SIT
7805536768.0,0.0001402970519848168,-0.014693244360387325,-0.014032889157533646,0.051711615175008774,-0.00018684196402318776,0.007330383,0.0030543262,113.16326,16.136799,-16.90373,SIT
11621242880.0,0.0002321520441910252,-0.021865611895918846,-0.02088817209005356,0.07682514190673828,-0.00028189446311444044,0.009162978,0.014049901000000002,113.13825,16.10284,-16.8384,SIT
16536583168.0,0.0003634199092630297,-0.03107554465532303,-0.02971760556101799,0.10891520977020264,-0.0004045196692459285,0.0067195175,0.009162978,113.118805,16.067509,-16.772543,SIT
22665181184.0,0.0005434533813968301,-0.04251180961728096,-0.04072505235671997,0.14852653443813324,-0.0005544836167246103,0.01160644,0.018020526,113.093544,16.03131,-16.713482,SIT
30099140608.0,0.000781942275352776,-0.05632300674915314,-0.054075099527835846,0.19606022536754608,-0.0007407305529341102,-0.0021380284,0.01282817,113.06683999999998,16.001722,-16.640284,SIT
38906798080.0,0.0010886350646615028,-0.07267656177282333,-0.06988083571195602,0.2522035241127014,-0.0009548285743221641,0.014049901000000002,0.010690141499999998,113.040276,15.966344,-16.579995999999998,SIT
49131720704.0,0.0014732007402926683,-0.09170553833246231,-0.088208869099617,0.3175637423992157,-0.0012031561927869916,0.014049901000000002,0.014049901000000002,113.02313,15.955927,-16.51371,SIT
60792856576.0,0.001944909105077386,-0.11348628252744675,-0.10911668092012405,0.39262205362319946,-0.0015002705622464418,0.0009162979,0.015577064,113.00773,15.945154999999998,-16.449957,SIT
73885614080.0,0.0025122901424765587,-0.13805197179317474,-0.13262782990932465,0.47774040699005127,-0.0018279351061210036,0.008857545999999999,0.015577064,112.99394,15.929384,-16.394092999999998,SIT
88383700992.0,0.0031832025852054358,-0.16531027853488922,-0.15868449211120605,0.5723578929901123,-0.0021904625464230776,0.0076358155,0.012217305,112.964874,15.907685,-16.335852,SIT
104241463296.0,0.0039645167998969555,-0.19509342312812805,-0.18717485666275024,0.6754286885261536,-0.0025907186791300774,0.015882496,0.013133603,112.93656,15.88244,-16.284716,SIT
121396584448.0,0.004862359259277582,-0.22726638615131378,-0.2179882526397705,0.7866525650024414,-0.003022907767444849,0.01038471,0.008246681,112.89921,15.853422,-16.223598000000006,SIT
139772936192.0,0.005881679710000753,-0.26170554757118225,-0.25100693106651306,0.9061260223388672,-0.003499661572277546,0.006414085,0.005192355,112.86249,15.828364,-16.167517,SIT
159283429376.0,0.007026408798992634,-0.29828914999961853,-0.28606241941452026,1.0335848331451416,-0.003995100036263466,0.007330383,0.009162978,112.84067,15.814925,-16.11988,SIT
179832782848.0,0.008299527689814568,-0.33688563108444214,-0.32296448945999146,1.1686491966247559,-0.004513151943683624,0.004276057,0.013744468,112.81925,15.808179999999998,-16.071531,SIT
201320087552.0,0.009703096933662891,-0.3772719204425812,-0.36153700947761536,1.309982419013977,-0.005058355163782835,0.002443461,0.009468411,112.79489,15.786992,-16.022892000000002,SIT
223641124864.0,0.011238212697207928,-0.41920018196105957,-0.4016036093235016,1.4560197591781616,-0.005626621190458536,0.0061086523,0.013133603,112.7676,15.765059,-15.97768,SIT
246690430976.0,0.012905387207865715,-0.4625207781791687,-0.442960649728775,1.6060636043548584,-0.006210461724549532,0.0033597588,0.014049901000000002,112.73514,15.737239,-15.931285,SIT
270363033600.0,0.014703916385769844,-0.5071051716804504,-0.48540064692497253,1.759629487991333,-0.006812904495745897,0.015271631,0.010995574,112.70481,15.711219,-15.891563,SIT
294555975680.0,0.016632700338959694,-0.5527615547180176,-0.5287423133850098,1.9162843227386475,-0.007445333991199732,0.014966198,0.01740966,112.681595,15.704583,-15.851568,SIT
319169462272.0,0.018690036609768867,-0.5992720723152161,-0.5728206038475037,2.0756258964538574,-0.008106999099254608,0.004581489,0.009162978,112.663925,15.698827,-15.811918,SIT
344107810816.0,0.020873676985502243,-0.6464436054229736,-0.6174651384353638,2.2371718883514404,-0.008779375813901424,0.013133603,0.01160644,112.637566,15.685676999999998,-15.782318,SIT
369280155648.0,0.023180942982435226,-0.6940972208976746,-0.6625105738639832,2.4004361629486084,-0.009465123526751995,0.010690141499999998,0.008552114,112.613754,15.676402,-15.746993,SIT
394601005056.0,0.025608869269490242,-0.7420642971992493,-0.707801342010498,2.5649607181549072,-0.010143882595002651,0.007330383,0.018020526,112.58612,15.65938,-15.714585,SIT
419990536192.0,0.028155801817774773,-0.7901866436004639,-0.7531917691230774,2.7303311824798584,-0.010824396274983883,0.005192355,0.009773844,112.56468999999998,15.647914000000002,-15.68139,SIT
445374758912.0,0.030816394835710526,-0.8383185863494873,-0.7985481023788452,2.8961329460144043,-0.011510155163705349,-0.0030543262,0.013744468,112.533195,15.634027,-15.644119,SIT
470685614080.0,0.03358699381351471,-0.886325478553772,-0.8437467217445374,3.061998128890991,-0.012192556634545326,0.0067195175,0.016798794,112.50606,15.620922,-15.61183,SIT
495860973568.0,0.03646387532353401,-0.934093177318573,-0.8886839151382446,3.2274839878082275,-0.012860474176704884,0.010079277,0.008246681,112.480354,15.608862,-15.576261,SIT
520844378112.0,0.03944304585456848,-0.9815251231193542,-0.933272659778595,3.3921029567718506,-0.013505314476788044,0.008246681,0.012217305,112.45102,15.595258,-15.544423000000002,SIT
545585070080.0,0.04252077639102936,-1.0285347700119019,-0.9774414300918579,3.5553972721099854,-0.014157368801534176,0.010995574,0.01863139,112.41963,15.579271,-15.5117655,SIT
570037567488.0,0.04569307342171669,-1.0750447511672974,-1.0211329460144043,3.7169418334960938,-0.014804413542151451,0.016187929,0.009468411,112.39206,15.559660999999998,-15.479648,SIT
594161500160.0,0.048955876380205154,-1.1209861040115356,-1.0642907619476318,3.876314878463745,-0.015436102636158466,0.01740966,0.0143553335,112.357796,15.5487385,-15.45681,SIT
617921314816.0,0.05230548977851868,-1.1662981510162354,-1.1068586111068726,4.033084869384766,-0.01607939787209034,0.0143553335,0.011301007,112.32891,15.541951999999998,-15.433757,SIT
641286078464.0,0.05573863536119461,-1.2109215259552002,-1.1487785577774048,4.186909198760986,-0.016728119924664497,0.005497787,0.016493361,112.29874,15.533125,-15.412475,SIT
664228921344.0,0.05925110727548599,-1.254792332649231,-1.18998384475708,4.337580680847168,-0.01736578345298767,0.01038471,0.014966198,112.27264,15.526711,-15.394162,SIT
686727036928.0,0.06283920258283615,-1.297855019569397,-1.2304160594940186,4.48491907119751,-0.018034406006336212,0.0061086523,0.017715093,112.24351,15.531745,-15.37733,SIT
708761157632.0,0.06649952381849289,-1.3400617837905884,-1.2700246572494507,4.628772258758545,-0.01868206448853016,0.010079277,0.0125227375,112.21852,15.526895,-15.363955,SIT
730315423744.0,0.07022862136363983,-1.381367564201355,-1.3087742328643799,4.768977642059326,-0.019312378019094467,0.010079277,0.0061086523,112.20488572056802,15.5284674205477,-15.358000701179302,SIT
751377055744.0,0.0740232914686203,-1.4217263460159302,-1.34664785861969,4.905340671539307,-0.019904999062418938,-0.003970624,0.012217305,112.19112,15.530055,-15.351989,SIT
771935961088.0,0.07788024097681046,-1.4610998630523682,-1.383633017539978,5.0376996994018555,-0.020467933267354965,0.007941248,0.010995574,112.168236,15.531031,-15.348119,SIT
791984734208.0,0.08179667592048645,-1.4994560480117798,-1.419721245765686,5.165916442871094,-0.021018706262111664,0.009773844,0.010995574,112.14367,15.531508,-15.3390255,SIT
811518132224.0,0.08576934039592743,-1.5367687940597534,-1.4548988342285156,5.289918899536133,-0.021544214338064194,0.01740966,0.0076358155,112.12266499999998,15.528059,-15.331698,SIT
830533140480.0,0.08979564160108566,-1.5730136632919312,-1.4891341924667358,5.409733295440674,-0.022061731666326523,0.014660766,0.016187929,112.09787,15.527968,-15.323339,SIT
849028579328.0,0.09387298673391342,-1.6081745624542236,-1.5224065780639648,5.525385856628418,-0.022548383101820946,0.014049901000000002,0.013133603,112.08523,15.528402,-15.3181925,SIT
867004907520.0,0.09799870103597641,-1.6422687768936157,-1.5547598600387573,5.636783599853516,-0.023047011345624924,0.010079277,0.010995574,112.06963,15.535687,-15.312329,SIT
884464091136.0,0.10217040777206421,-1.675315260887146,-1.5862369537353516,5.743853569030762,-0.023516424000263214,0.014049901000000002,0.014660766,112.05297,15.530153,-15.302824,SIT
901409538048.0,0.1063857302069664,-1.7073339223861694,-1.616878628730774,5.8465447425842285,-0.02398315630853176,0.0076358155,0.009468411,112.03851,15.53555,-15.288945000000002,SIT
917845704704.0,0.11064239591360092,-1.73834228515625,-1.6467193365097046,5.944844722747803,-0.024434136226773262,-0.0012217305,0.013744468,112.020676,15.532431,-15.276929,SIT
933778227200.0,0.11493826657533646,-1.768322229385376,-1.6757454872131348,6.038969039916992,-0.02488604001700878,0.007941248,0.013439035,112.00681000000002,15.535147,-15.267782,SIT
949213528064.0,0.11927135288715363,-1.7972604036331177,-1.7039469480514526,6.129123210906982,-0.025329750031232834,0.01160644,0.014966198,111.998474,15.545275,-15.261456,SIT
964158947328.0,0.12363971024751663,-1.8251888751983643,-1.7313072681427002,6.215570449829102,-0.025780361145734787,0.019242255,0.015577064,111.991745,15.558941,-15.258817,SIT
978622414848.0,0.12804146111011505,-1.8521579504013062,-1.7578095197677612,6.298588275909424,-0.02621951326727867,0.005192355,0.01160644,111.984566,15.56858,-15.251104000000002,SIT
992612515840.0,0.13247543573379517,-1.8782182931900024,-1.7834382057189941,6.378396511077881,-0.02662988379597664,0.010079277,0.009162978,111.97848,15.577958,-15.248975,SIT
1006138294272.0,0.13693943619728088,-1.9034169912338257,-1.808183193206787,6.455167293548584,-0.02700204588472843,0.006414085,0.017715093,111.96871000000002,15.585441,-15.241445,SIT
1019209252864.0,0.14143182337284088,-1.927770972251892,-1.832065463066101,6.529070854187012,-0.027344055473804474,0.010995574,0.013133603,111.96078,15.591587,-15.240407,SIT
1031835156480.0,0.145951047539711,-1.951285481452942,-1.8551191091537476,6.600270748138428,-0.02766495756804943,0.011301007,0.011301007,111.94912,15.595707,-15.238202,SIT
1044026163200.0,0.15049569308757782,-1.9739710092544556,-1.8773773908615112,6.668962478637695,-0.027998868376016617,0.011301007,0.01740966,111.93163,15.601066,-15.235962,SIT
1055792496640.0,0.15506455302238464,-1.9958420991897583,-1.89887273311615,6.735358715057373,-0.028299398720264435,0.0070249503,0.01282817,111.91756399999998,15.600338,-15.231770499999998,SIT
1067144708096.0,0.15965619683265686,-2.016914129257202,-1.9196361303329468,6.799654006958008,-0.028554433956742287,0.010079277,0.013133603,111.901306,15.604304,-15.229224,SIT
1078093348864.0,0.16426964104175568,-2.037203073501587,-1.9396979808807373,6.862032413482666,-0.028772272169589996,0.007330383,0.009773844,111.88679,15.606294,-15.223464000000002,SIT
1088649101312.0,0.16890372335910797,-2.0567328929901123,-1.9590874910354614,6.9227728843688965,-0.02899421751499176,0.002443461,0.010079277,111.87137,15.609689,-15.218456,SIT
1098822582272.0,0.173557311296463,-2.075533866882324,-1.9778329133987427,6.982216835021973,-0.02920190431177616,0.009468411,0.006414085,111.85903,15.608559,-15.215594,SIT
1108624539648.0,0.17822925746440887,-2.093634605407715,-1.995961308479309,7.040672779083252,-0.029406607151031494,0.0061086523,0.012217305,111.84123999999998,15.610397,-15.206233,SIT
1118065524736.0,0.18291857838630676,-2.111063241958618,-2.0134990215301514,7.098421573638916,-0.029591599479317665,0.004276057,0.007941248,111.82826,15.608892,-15.198426,SIT
1127156154368.0,0.18762439489364624,-2.1278467178344727,-2.0304625034332275,7.155526638031006,-0.029764456674456596,0.006414085,0.014049901000000002,111.80438,15.612101,-15.184135,SIT
1135906914304.0,0.1923457831144333,-2.144010543823242,-2.046863079071045,7.211925506591797,-0.029915550723671913,0.01038471,0.014660766,111.78358500000002,15.612637,-15.169691,SIT
1144328159232.0,0.1970820128917694,-2.1595799922943115,-2.0627126693725586,7.26756477355957,-0.03007269650697708,0.0143553335,0.017715093,111.75189,15.609905,-15.149354999999998,SIT
1152429981696.0,0.20183230936527252,-2.174578905105591,-2.0780231952667236,7.322398662567139,-0.030231356620788574,0.010690141499999998,0.010079277,111.723175,15.604017,-15.12805,SIT
1160222605312.0,0.20659586787223816,-2.18904185295105,-2.0927770137786865,7.3763251304626465,-0.0303623229265213,0.011301007,0.006414085,111.693565,15.597528,-15.110335999999998,SIT
1167715991552.0,0.2113720178604126,-2.2030105590820312,-2.106935501098633,7.429203033447266,-0.03048369474709034,0.0030543262,0.004581489,111.66494,15.595326000000002,-15.089498,SIT
1174919839744.0,0.21616007387638092,-2.2165229320526123,-2.1205174922943115,7.480961799621582,-0.030584853142499924,0.013133603,0.010079277,111.63731,15.583224,-15.070231,SIT
1181843718144.0,0.22095942497253418,-2.229614496231079,-2.1335837841033936,7.531583786010742,-0.030674537643790245,0.008857545999999999,0.005497787,111.61158,15.575415,-15.044766,SIT
1188496932864.0,0.22576937079429626,-2.2423179149627686,-2.1461517810821533,7.581068992614746,-0.03073807992041111,0.009468411,0.012217305,111.5801,15.560770000000002,-15.027945,SIT
1194888658944.0,0.23059368133544922,-2.2546725273132324,-2.15818452835083,7.629447937011719,-0.030796214938163757,0.0067195175,0.005497787,111.553505,15.551618,-15.008359,SIT
1201027940352.0,0.2354271411895752,-2.2666702270507812,-2.1696877479553223,7.676593780517578,-0.03085193783044815,0.0027488936,0.01038471,111.52745,15.538610999999998,-14.996448999999998,SIT
1206923558912.0,0.24026919901371002,-2.27828049659729,-2.1806700229644775,7.72226095199585,-0.030898405238986015,0.005192355,0.01038471,111.50534,15.527499,-14.985148,SIT
1212583903232.0,0.2451193481683731,-2.2894771099090576,-2.191141128540039,7.766232490539551,-0.030933842062950134,0.0061086523,0.013439035,111.47358,15.514478,-14.968245,SIT
1218017361920.0,0.24997729063034058,-2.3002374172210693,-2.201110601425171,7.808315753936768,-0.030961893498897552,0.01038471,0.014660766,111.44321,15.50161,-14.953497,SIT
1223232061440.0,0.254842609167099,-2.3105509281158447,-2.21061110496521,7.848412036895752,-0.030994519591331482,0.005497787,0.014660766,111.41204,15.489369,-14.937295,SIT
1228235997184.0,0.2597149908542633,-2.3204212188720703,-2.2197046279907227,7.886532783508301,-0.031047629192471504,0.0015271631,0.011301007,111.382286,15.478216,-14.922949,SIT
1233036640256.0,0.2645938992500305,-2.3298628330230713,-2.228414297103882,7.922707557678223,-0.031109409406781197,0.0012217305,0.013744468,111.350296,15.477654,-14.912742,SIT
1237641592832.0,0.26947909593582153,-2.33890700340271,-2.236708402633667,7.95698881149292,-0.031156236305832863,0.0070249503,0.0076358155,111.32229,15.478007,-14.902682,SIT
1242058063872.0,0.27437013387680054,-2.3475823402404785,-2.244560718536377,7.989429950714111,-0.03119993396103382,0.009162978,0.009468411,111.29478,15.483209,-14.892503,SIT
1246293000192.0,0.2792668044567108,-2.3559157848358154,-2.251948118209839,8.020082473754883,-0.031239837408065796,0.003970624,0.008552114,111.27001,15.485507,-14.881614,SIT
1250353348608.0,0.2841687500476837,-2.363924980163574,-2.2588605880737305,8.048971176147461,-0.03127449005842209,0.00030543262000000003,0.011301007,111.2462,15.484838,-14.86922,SIT
1254245531648.0,0.2890758216381073,-2.371607542037964,-2.2653145790100098,8.076050758361816,-0.031319085508584976,0.0018325958,0.008246681,111.22461,15.486023,-14.85682,SIT
1257976102912.0,0.2939876317977905,-2.378962278366089,-2.2713260650634766,8.101286888122559,-0.03135598450899124,0.004581489,0.008552114,111.19414,15.480378,-14.845239,SIT
1261551091712.0,0.29890409111976624,-2.38598895072937,-2.2769105434417725,8.124651908874512,-0.03138154372572899,0.0070249503,0.004276057,111.16635,15.4777565,-14.833904,SIT
1264976658432.0,0.3038249909877777,-2.392695665359497,-2.282090663909912,8.146137237548828,-0.03144196793437004,0.0027488936,0.007330383,111.14294,15.473036,-14.826381,SIT
1268258439168.0,0.3087523877620697,-2.399127244949341,-2.286924123764038,8.16576862335205,-0.031484030187129974,0.0033597588,0.0067195175,111.12263,15.459404,-14.820545999999998,SIT
1271402201088.0,0.3136833906173706,-2.4053142070770264,-2.2914505004882812,8.183597564697266,-0.03151645511388779,0.00580322,0.011301007,111.10124,15.46107,-14.821967,SIT
1274413187072.0,0.3186178505420685,-2.4112770557403564,-2.2956762313842773,8.199581146240234,-0.03155316412448883,0.002443461,0.01160644,111.08107,15.458815,-14.8216305,SIT
1277296771072.0,0.3235565721988678,-2.41703462600708,-2.299607753753662,8.2136869430542,-0.03160661458969116,0.0033597588,0.01985312,111.06017,15.458801,-14.825722,SIT
1280057933824.0,0.3284982442855835,-2.422577142715454,-2.303269147872925,8.226122856140137,-0.03167665749788284,0.009468411,0.013133603,111.04385,15.459874,-14.829149,SIT
1282701524992.0,0.33344268798828125,-2.4278953075408936,-2.306683301925659,8.23708438873291,-0.03175356239080429,0.01282817,0.008246681,111.02811,15.458742,-14.832406,SIT
1285232263168.0,0.3383900821208954,-2.432981252670288,-2.3098716735839844,8.246752738952637,-0.03181298077106476,0.015271631,0.017104227,111.01095,15.455585500000002,-14.837577,SIT
1287654735872.0,0.343340128660202,-2.437828779220581,-2.3128535747528076,8.255291938781738,-0.03189992904663086,0.0067195175,0.010690141499999998,110.99906,15.459583,-14.838955,SIT
1289973268480.0,0.348292738199234,-2.4424331188201904,-2.315647602081299,8.262852668762207,-0.03198614716529846,0.003970624,0.015271631,110.98235,15.453087,-14.844043,SIT
1292192055296.0,0.35324788093566895,-2.446810722351074,-2.3182942867279053,8.269610404968262,-0.03208881616592407,0.012217305,0.0125227375,110.96992,15.455819,-14.848682,SIT
1294315159552.0,0.35820522904396057,-2.4509809017181396,-2.3208351135253906,8.275731086730957,-0.032195527106523514,0.006414085,0.01282817,110.9541,15.452739,-14.849285,SIT
1296346513408.0,0.3631647527217865,-2.4549622535705566,-2.323308229446411,8.281365394592285,-0.032315969467163086,0.0067195175,0.011301007,110.9377,15.454376000000002,-14.847257999999998,SIT
1298289786880.0,0.36812612414360046,-2.4587204456329346,-2.3257110118865967,8.28662395477295,-0.03241020813584328,0.007330383,0.0125227375,110.920204,15.449907,-14.844133,SIT
1300148781056.0,0.3730893135070801,-2.4621949195861816,-2.328019380569458,8.29159164428711,-0.03253534063696861,0.0125227375,0.008552114,110.905235,15.455824,-14.841997,SIT
1301926772736.0,0.3780563771724701,-2.4653892517089844,-2.3302505016326904,8.296428680419922,-0.03268260508775711,0.004276057,0.016187929,110.88673,15.451982500000002,-14.836144,SIT
1303627300864.0,0.3830248713493347,-2.4683690071105957,-2.332451581954956,8.301304817199707,-0.03282499685883522,0.005192355,0.015271631,110.87313,15.452342000000002,-14.833408,SIT
1305253511168.0,0.3879947364330292,-2.4711802005767822,-2.3346495628356934,8.306408882141113,-0.03296175226569176,0.010079277,0.009162978,110.857475,15.455561,-14.833145000000002,SIT
1306808549376.0,0.39296600222587585,-2.4738261699676514,-2.3368256092071533,8.311923027038574,-0.03310607746243477,-0.0018325958,0.005192355,110.84039,15.457491,-14.828695000000002,SIT
1308295299072.0,0.39793843030929565,-2.4763100147247314,-2.338963270187378,8.318005561828613,-0.03323769196867943,0.010995574,0.010079277,110.82493,15.455617000000002,-14.832646,SIT
1309716774912.0,0.4029121398925781,-2.478634834289551,-2.3410470485687256,8.324801445007324,-0.0333358533680439,0.008246681,0.009468411,110.810104,15.455279999999998,-14.828458,SIT
1311075598336.0,0.40788692235946655,-2.4808084964752197,-2.3430674076080322,8.332440376281738,-0.0334315150976181,0.00580322,0.0067195175,110.795746,15.457557,-14.828143,SIT
1312374521856.0,0.41286271810531616,-2.4828693866729736,-2.3450396060943604,8.34108829498291,-0.033554159104824066,0.0070249503,0.0143553335,110.77884,15.4570875,-14.828926999999998,SIT
1313616035840.0,0.4178394675254822,-2.484842300415039,-2.346980571746826,8.350871086120605,-0.03367634490132332,0.0067195175,0.012217305,110.754845,15.451892,-14.826014,SIT
1314802630656.0,0.4228171408176422,-2.4867167472839355,-2.3489153385162354,8.361835479736328,-0.03379257023334503,0.0015271631,0.015271631,110.72721,15.450211,-14.823267,SIT
1315936665600.0,0.427798867225647,-2.4884815216064453,-2.350865602493286,8.373964309692383,-0.03390572592616081,0.0012217305,0.009468411,110.70342,15.442954,-14.822391,SIT
1317020237824.0,0.43278107047080994,-2.490133047103882,-2.3528342247009277,8.387093544006348,-0.03399499133229256,0.0012217305,0.002443461,110.69137085882,15.4380735731859,-14.822485871684899,SIT
1318055706624.0,0.4377637207508087,-2.4916679859161377,-2.3548190593719482,8.401066780090332,-0.034061722457408905,0.005497787,0.014660766,110.67586,15.431791,-14.822608,SIT
1319045038080.0,0.4427469074726105,-2.49310040473938,-2.356762170791626,8.415731430053711,-0.03414016589522362,0.00030543262000000003,0.009468411,110.65196,15.426468,-14.816651,SIT
1319990198272.0,0.44773122668266296,-2.494443416595459,-2.358609437942505,8.430948257446289,-0.0341959185898304,0.010690141499999998,0.009468411,110.62811,15.413177,-14.816589000000002,SIT
1320893153280.0,0.4527159631252289,-2.495708465576172,-2.3603174686431885,8.446592330932617,-0.03424418717622757,0.005192355,0.010690141499999998,110.60395,15.407775,-14.810657999999998,SIT
1321755738112.0,0.45770129561424255,-2.496906280517578,-2.361844539642334,8.462549209594727,-0.034280404448509216,0.008552114,0.015577064,110.580536,15.397225,-14.810463,SIT
1322579656704.0,0.4626871943473816,-2.4980533123016357,-2.3632192611694336,8.478679656982422,-0.03431699797511101,0.007941248,0.01282817,110.55842,15.390092,-14.807342000000002,SIT
1323366612992.0,0.4676734507083893,-2.4991652965545654,-2.364481210708618,8.494850158691406,-0.03435209020972252,0.003970624,0.013439035,110.5342,15.380636,-14.805005,SIT
1324118179840.0,0.47266021370887756,-2.500200033187866,-2.3656647205352783,8.510890007019043,-0.034384001046419144,0.011911872,0.014966198,110.5122,15.361975,-14.810394,SIT
1324835930112.0,0.4776473939418793,-2.5011117458343506,-2.366799831390381,8.526639938354492,-0.0344112366437912,0.008246681,0.010690141499999998,110.49061,15.34393,-14.811105,SIT
1325521436672.0,0.4826350808143616,-2.501922130584717,-2.367879867553711,8.541887283325195,-0.03443680331110954,0.006414085,0.015271631,110.468994,15.329616,-14.819776999999998,SIT
1326176010240.0,0.48762330412864685,-2.5026731491088867,-2.368887424468994,8.556419372558594,-0.03447381779551506,0.0021380284,0.01282817,110.45027,15.317267,-14.825698,SIT
1326801092608.0,0.4926120340824127,-2.5034022331237793,-2.369807004928589,8.570046424865723,-0.03451404348015785,0.005497787,0.01160644,110.43435,15.307023999999998,-14.83215,SIT
1327397863424.0,0.4976012408733368,-2.504143476486206,-2.3706250190734863,8.582603454589844,-0.03454749658703804,0.0036651916,0.0076358155,110.4193,15.298288,-14.835501,SIT
1327967633408.0,0.5025910139083862,-2.5049123764038086,-2.371361494064331,8.594025611877441,-0.034592997282743454,-0.00030543262000000003,0.007330383,110.39988,15.294534,-14.837853,SIT
1328511713280.0,0.5075815320014954,-2.5057170391082764,-2.3720486164093018,8.604294776916504,-0.03464309498667717,0.0033597588,0.010995574,110.38114,15.287503,-14.841775,SIT
1329031151616.0,0.5125724673271179,-2.5065252780914307,-2.372704029083252,8.613420486450195,-0.03469977155327797,-0.00030543262000000003,0.013744468,110.36783,15.283096,-14.851315,SIT
1329526996992.0,0.5175644755363464,-2.5072765350341797,-2.3733365535736084,8.621421813964844,-0.03473963215947151,0.0076358155,0.0033597588,110.35852,15.27639,-14.863993,SIT
1330000297984.0,0.5225568413734436,-2.5079214572906494,-2.373953342437744,8.628327369689941,-0.03475736454129219,0.004886922,0.010079277,110.34496,15.272876,-14.875103,SIT
1330452103168.0,0.527549684047699,-2.508413076400757,-2.374561071395874,8.634160995483398,-0.03477516770362854,0.009773844,0.008857545999999999,110.337906,15.271197,-14.888685,SIT
1330883461120.0,0.532542884349823,-2.5087616443634033,-2.37516450881958,8.639013290405273,-0.03477737307548523,0.006414085,0.014660766,110.330666,15.262923,-14.9071,SIT
1331295158272.0,0.5375363826751709,-2.509002923965454,-2.3757667541503906,8.643003463745117,-0.0347759984433651,0.006414085,0.015577064,110.32578,15.259639000000002,-14.926664,SIT
1331688112128.0,0.542530357837677,-2.5091702938079834,-2.376370906829834,8.646241188049316,-0.03476708009839058,0.01160644,0.01160644,110.3167,15.261587,-14.934955,SIT
1332063240192.0,0.5475249290466309,-2.5092933177948,-2.376979351043701,8.64882755279541,-0.03474101796746254,0.009162978,0.009773844,110.30625,15.263516,-14.9411745,SIT
1332421197824.0,0.5525198578834534,-2.5093984603881836,-2.377594470977783,8.650853157043457,-0.03473523259162903,-0.004886922,0.010995574,110.29564,15.269376,-14.945307,SIT
1332762902528.0,0.5575150847434998,-2.509509325027466,-2.378218173980713,8.6524019241333,-0.03472074493765831,0.0027488936,0.01160644,110.28736,15.268194,-14.9543495,SIT
1333089009664.0,0.5625104904174805,-2.5096418857574463,-2.378870964050293,8.653581619262695,-0.03472452238202095,0.008857545999999999,0.015882496,110.27822,15.27044,-14.951685,SIT
1333400174592.0,0.5675060749053955,-2.5098063945770264,-2.3795862197875977,8.65451717376709,-0.03471429646015167,0.0061086523,0.010690141499999998,110.2716,15.26528,-14.94811,SIT
1333697183744.0,0.5725017786026001,-2.510000228881836,-2.380371570587158,8.655336380004883,-0.03472277894616127,0.004276057,0.016493361,110.25988999999998,15.26619,-14.949506,SIT
1333980692480.0,0.5774977207183838,-2.510205030441284,-2.3812026977539062,8.656181335449219,-0.03473586216568947,0.0009162979,0.009468411,110.25305,15.26136,-14.948349,SIT
1334251225088.0,0.5824937224388123,-2.510420083999634,-2.382051467895508,8.657134056091309,-0.03476690873503685,-0.0015271631,0.004581489,110.2469,15.260972,-14.947978,SIT
1334509436928.0,0.5874899625778198,-2.51065731048584,-2.3828866481781006,8.658235549926758,-0.03480442613363266,-0.0018325958,0.0036651916,110.24159,15.2574005,-14.947095,SIT
1334755852288.0,0.5924863815307617,-2.5109269618988037,-2.383680582046509,8.659520149230957,-0.034821610897779465,-0.0076358155,0.014049901000000002,110.23199,15.250749,-14.943215,SIT
1334990995456.0,0.5974829196929932,-2.5112383365631104,-2.3844082355499268,8.661019325256348,-0.03482833132147789,0.0015271631,0.010079277,110.22799,15.247717000000002,-14.942332,SIT
1335215390720.0,0.6024795174598694,-2.5115864276885986,-2.3850481510162354,8.662785530090332,-0.034820448607206345,0.005192355,0.009162978,110.226974,15.232043,-14.937385,SIT
1335429562368.0,0.6074762344360352,-2.511953353881836,-2.3855812549591064,8.664891242980957,-0.034790828824043274,0.0015271631,0.005497787,110.22127354801201,15.2178337260274,-14.933090239826301,SIT
1335633903616.0,0.6124870777130127,-2.5123097896575928,-2.3859641551971436,8.667506217956543,-0.034789517521858215,0.010079277,0.016493361,110.20995,15.189607999999998,-14.924559,SIT
1335828938752.0,0.6175105571746826,-2.5126383304595947,-2.3862085342407227,8.670687675476074,-0.03479189798235893,0.009468411,0.014049901000000002,110.19915,15.170457,-14.918924,SIT
1336015060992.0,0.6225485801696777,-2.512909173965454,-2.3863754272460938,8.674541473388672,-0.03478803485631943,0.00030543262000000003,0.00580322,110.18851,15.155593,-14.912039000000002,SIT
1336192663552.0,0.6275960803031921,-2.5131075382232666,-2.386512041091919,8.679059028625488,-0.03479507192969322,0.0067195175,0.013133603,110.17309,15.137841,-14.909491,SIT
1336362270720.0,0.6326520442962646,-2.513211727142334,-2.386706829071045,8.684144020080566,-0.03483354300260544,0.00580322,0.007330383,110.16256,15.121815,-14.901081,SIT
1336524144640.0,0.6377153396606445,-2.51322865486145,-2.38700532913208,8.68972396850586,-0.034889671951532364,0.0012217305,0.009773844,110.148994,15.104174,-14.892176999999998,SIT
1336678678528.0,0.6427851319313049,-2.5132205486297607,-2.387375831604004,8.695765495300293,-0.03496146202087402,0.005192355,0.010995574,110.13815,15.090551,-14.885185,SIT
1336826134528.0,0.6478605270385742,-2.5132434368133545,-2.387789726257324,8.70223617553711,-0.0350332073867321,0.004886922,0.01282817,110.13429,15.078478,-14.878991,SIT
1336966905856.0,0.6529409289360046,-2.51334810256958,-2.388221263885498,8.709107398986816,-0.03510557860136032,0.018325957,0.014049901000000002,110.13174,15.068116,-14.877925,SIT
1337101254656.0,0.6580256223678589,-2.5135505199432373,-2.388645887374878,8.71634578704834,-0.03519304841756821,0.005192355,0.017715093,110.12581000000002,15.057787,-14.869963,SIT
1337229574144.0,0.6631138324737549,-2.5137760639190674,-2.389037847518921,8.723905563354492,-0.035279057919979095,0.008246681,0.017715093,110.12294,15.0452,-14.870043,SIT
1337351995392.0,0.6682049036026001,-2.5139644145965576,-2.389378547668457,8.731735229492188,-0.03538086265325546,0.0030543262,0.011911872,110.11431,15.033224,-14.8684,SIT
1337468911616.0,0.6732984185218811,-2.5141143798828125,-2.389690637588501,8.739706993103027,-0.035468775779008865,0.0067195175,0.009773844,110.10564,15.015560999999998,-14.870342,SIT
1337580584960.0,0.6783937215805054,-2.5142250061035156,-2.3899943828582764,8.747706413269043,-0.035530976951122284,0.0018325958,0.008552114,110.09571,15.000654999999998,-14.862959,SIT
1337687146496.0,0.6834903955459595,-2.5142955780029297,-2.390307903289795,8.755630493164062,-0.0355742946267128,0.0012217305,0.019242255,110.08368,14.984439000000002,-14.85874,SIT
1337788858368.0,0.6885881423950195,-2.5143253803253174,-2.3906476497650146,8.763386726379395,-0.03562832251191139,0.01282817,0.016798794,110.07805,14.967772,-14.851712,SIT
1337885982720.0,0.6936864852905273,-2.5143141746520996,-2.3910279273986816,8.770893096923828,-0.035682253539562225,0.004581489,0.016798794,110.06712,14.947455,-14.840416,SIT
1337978781696.0,0.6987863779067993,-2.514254093170166,-2.3914647102355957,8.77807903289795,-0.03573421388864517,0.0009162979,0.009162978,110.067314,14.927268,-14.837579000000002,SIT
1338067386368.0,0.7038862109184265,-2.514115333557129,-2.3919742107391357,8.78492259979248,-0.03578772768378258,0.0036651916,0.012217305,110.06423999999998,14.906516,-14.835207999999998,SIT
1338152058880.0,0.7089865803718567,-2.513869047164917,-2.3925704956054688,8.791399002075195,-0.03585115447640419,0.0030543262,0.013439035,110.06845,14.895353,-14.834129,SIT
1338232930304.0,0.7140861749649048,-2.5135509967803955,-2.393183469772339,8.797468185424805,-0.03590680658817291,0.010690141499999998,0.02107485,110.07072,14.881775,-14.83682,SIT
1338310262784.0,0.7191847562789917,-2.5131947994232178,-2.3937461376190186,8.803092002868652,-0.0359640046954155,0.009162978,0.009468411,110.0836,14.874254999999998,-14.838994,SIT
1338384056320.0,0.7242821455001831,-2.512798309326172,-2.394285202026367,8.808283805847168,-0.03601375222206116,0.008857545999999999,0.009773844,110.09141499999998,14.862389000000002,-14.844884,SIT
1338454573056.0,0.7293781042098999,-2.5123536586761475,-2.394841432571411,8.813067436218262,-0.03604106605052948,0.0012217305,0.0070249503,110.10255,14.852189,-14.847032999999998,SIT
1338522075136.0,0.7344726324081421,-2.5118539333343506,-2.395451545715332,8.817464828491211,-0.036067280918359756,0.0033597588,0.011911872,110.10852,14.841005,-14.854546,SIT
1338586562560.0,0.7395654916763306,-2.5112926959991455,-2.3961479663848877,8.821497917175293,-0.036081161350011826,0.010690141499999998,0.01282817,110.11609,14.826359,-14.860729,SIT
1338648166400.0,0.7446567416191101,-2.5106849670410156,-2.396909236907959,8.825193405151367,-0.0360761396586895,0.008857545999999999,0.015577064,110.121025,14.813817000000002,-14.865314,SIT
1338707148800.0,0.7497462630271912,-2.5100510120391846,-2.3976993560791016,8.828580856323242,-0.03608715161681175,0.0036651916,0.013133603,110.12732,14.804914000000002,-14.870439,SIT
1338763509760.0,0.7548340559005737,-2.509408712387085,-2.3984861373901367,8.831687927246094,-0.03607867285609245,0.007330383,0.013439035,110.13749,14.79396,-14.87591,SIT
1338817380352.0,0.7599198222160339,-2.5087740421295166,-2.3992409706115723,8.834538459777832,-0.036070968955755234,0.004276057,0.008857545999999999,110.148674,14.792057000000002,-14.877414000000002,SIT
1338868891648.0,0.7650036811828613,-2.508161783218384,-2.399937868118286,8.83715534210205,-0.03606311231851578,-0.00061086525,0.008857545999999999,110.14887,14.79267,-14.877073,SIT
1338918174720.0,0.7700862288475037,-2.5075855255126953,-2.400552272796631,8.839560508728027,-0.03603779152035713,0.0070249503,0.014966198,110.14938,14.793269,-14.87947,SIT
1338965360640.0,0.7751666903495789,-2.5070364475250244,-2.401099443435669,8.841760635375977,-0.03602638095617294,0.0076358155,0.015271631,110.1506,14.798715,-14.878187,SIT
1339010580480.0,0.7802450656890869,-2.506499767303467,-2.4016053676605225,8.843756675720215,-0.03600318357348442,0.007941248,0.018325957,110.14987,14.796556,-14.879571,SIT
1339053834240.0,0.7853212952613831,-2.5059621334075928,-2.402092933654785,8.845550537109375,-0.035952139645814896,0.011301007,0.009468411,110.147644,14.791903,-14.879692000000002,SIT
1339095252992.0,0.7903954982757568,-2.5054116249084473,-2.402583122253418,8.847145080566406,-0.03589450195431709,0.0036651916,0.012217305,110.14043,14.787375,-14.878004,SIT
1339134967808.0,0.7954676747322083,-2.504856824874878,-2.403108835220337,8.848599433898926,-0.03583371639251709,0.010995574,0.015271631,110.13709,14.780485,-14.880749,SIT
1339172978688.0,0.8005380630493164,-2.5043132305145264,-2.4037060737609863,8.849993705749512,-0.03575120121240616,0.006414085,0.014660766,110.13252,14.773457,-14.878104,SIT
1339209416704.0,0.8056064248085022,-2.5038230419158936,-2.4043493270874023,8.851311683654785,-0.035641636699438095,0.013439035,0.014049901000000002,110.13273,14.769176000000002,-14.878669,SIT
1339244281856.0,0.8106728196144104,-2.503436326980591,-2.404991388320923,8.852502822875977,-0.035541970282793045,0.007330383,0.016493361,110.13087,14.767073000000002,-14.874634,SIT
1339277705216.0,0.8157373070716858,-2.5031325817108154,-2.405590057373047,8.853550910949707,-0.0354427844285965,0.0036651916,0.008552114,110.13325,14.765558,-14.878009,SIT
1339309817856.0,0.8207998275756836,-2.502864360809326,-2.4061083793640137,8.85445499420166,-0.03532348945736885,0.007330383,0.01863139,110.129875,14.764528,-14.883159,SIT
1339340619776.0,0.8258645534515381,-2.5026397705078125,-2.406564474105835,8.855273246765137,-0.035196054726839066,0.008857545999999999,0.004581489,110.132675,14.765804,-14.887229,SIT
1339370110976.0,0.8309268951416016,-2.502473831176758,-2.406982183456421,8.856049537658691,-0.03506429120898247,0.010690141499999998,0.009162978,110.12761,14.76226,-14.894378,SIT
1339398422528.0,0.8359869122505188,-2.5023622512817383,-2.407418966293335,8.856833457946777,-0.03490646556019783,0.008552114,0.01282817,110.129,14.751757,-14.894904,SIT
1339425685504.0,0.8410451412200928,-2.5022850036621094,-2.4079463481903076,8.857666969299316,-0.034745682030916214,-0.00061086525,0.013439035,110.12948,14.74579,-14.8940735,SIT
1339451899904.0,0.8461012840270996,-2.502216339111328,-2.4085328578948975,8.858514785766602,-0.03456535190343857,0.0070249503,0.018020526,110.12936,14.734348,-14.898220000000002,SIT
1339477065728.0,0.8511552810668945,-2.5021305084228516,-2.4091203212738037,8.859322547912598,-0.03434980288147926,0.003970624,0.010995574,110.1308,14.725829999999998,-14.896088,SIT
1339501182976.0,0.8562071919441223,-2.5020227432250977,-2.4096860885620117,8.860060691833496,-0.03413105756044388,0.011911872,0.013133603,110.13197,14.726057,-14.903888,SIT
1339524382720.0,0.8612571358680725,-2.501901865005493,-2.410230875015259,8.86071491241455,-0.03390920162200928,0.0125227375,0.015882496,110.134125,14.722355,-14.908195999999998,SIT
1339546796032.0,0.8663049936294556,-2.5017757415771484,-2.410755157470703,8.861273765563965,-0.03366870805621147,0.003970624,0.01863139,110.13355,14.717545499999998,-14.912036,SIT
1339568291840.0,0.8713509440422058,-2.5016517639160156,-2.411259651184082,8.861726760864258,-0.03343040868639946,0.002443461,0.014966198,110.13458,14.716397,-14.917502,SIT
1339589001216.0,0.8763949871063232,-2.5015313625335693,-2.4117414951324463,8.862071990966797,-0.033188678324222565,0.010079277,0.015577064,110.12989,14.7106695,-14.914101,SIT
1339608924160.0,0.8814374208450317,-2.5014007091522217,-2.4121882915496826,8.862334251403809,-0.032972320914268494,0.0067195175,0.015882496,110.12541,14.710379,-14.907182999999998,SIT
1339628191744.0,0.886478066444397,-2.5012543201446533,-2.412590503692627,8.862529754638672,-0.03275502845644951,-0.005497787,0.02107485,110.11953,14.704494,-14.901367,SIT
1339646672896.0,0.8915170431137085,-2.501107692718506,-2.412944793701172,8.862658500671387,-0.032552264630794525,-0.00030543262000000003,0.02076942,110.11628,14.705494,-14.899204,SIT
1339664498688.0,0.8965544104576111,-2.5009748935699463,-2.413248300552368,8.862719535827637,-0.03236222639679909,-0.0036651916,0.019547688,110.10961,14.70152,-14.891379999999998,SIT
1339681800192.0,0.9015902876853943,-2.500868558883667,-2.413498640060425,8.862713813781738,-0.03216158226132393,-0.0015271631,0.013439035,110.10535,14.697302,-14.886339,SIT
1339698446336.0,0.9066247940063477,-2.500802755355835,-2.4137015342712402,8.862645149230957,-0.031948529183864594,-0.004276057,0.008552114,110.10475,14.690166,-14.877052,SIT
1339714568192.0,0.9116578102111816,-2.5007989406585693,-2.413886785507202,8.862533569335938,-0.031727567315101624,-0.0033597588,0.01160644,110.10408,14.681592000000002,-14.869808,SIT
1339730165760.0,0.916689395904541,-2.500875234603882,-2.4140818119049072,8.862396240234375,-0.03146717697381973,0.0015271631,0.00580322,110.10638,14.669679,-14.863515,SIT
1339745239040.0,0.9217196702957153,-2.5010368824005127,-2.4143126010894775,8.862250328063965,-0.031167851760983467,0.0033597588,0.004581489,110.10633,14.660518,-14.857468,SIT
1339759788032.0,0.9267485737800598,-2.5012919902801514,-2.414600133895874,8.862102508544922,-0.0308353491127491,0.005192355,0.004581489,110.10636984833401,14.6561018084215,-14.856766171223304,SIT
1339773812736.0,0.9317762851715088,-2.5016703605651855,-2.4149513244628906,8.861907005310059,-0.030472319573163986,0.00030543262000000003,0.01038471,110.10641,14.651652,-14.856059,SIT
1339787444224.0,0.9368029236793518,-2.5021984577178955,-2.415371894836426,8.861620903015137,-0.030099444091320038,-0.004276057,-0.0021380284,110.11205,14.645835,-14.8533125,SIT
1339800682496.0,0.9418284893035889,-2.502898693084717,-2.4158666133880615,8.861209869384766,-0.029717935249209404,-0.01985312,-0.01038471,110.11481,14.639035,-14.847648,SIT
1339813527552.0,0.9468531608581543,-2.503779649734497,-2.4164412021636963,8.860647201538086,-0.029310688376426697,0.008552114,0.009162978,110.11953,14.627836,-14.8536005,SIT
1339825979392.0,0.9518768191337585,-2.5046963691711426,-2.417116641998291,8.859999656677246,-0.028928373008966446,0.010079277,0.0125227375,110.12784,14.625155,-14.84627,SIT
1339838038016.0,0.9568997621536255,-2.5055150985717773,-2.417912244796753,8.859328269958496,-0.028584234416484833,0.018020526,0.013439035,110.13235,14.62006,-14.851120000000002,SIT
1339849834496.0,0.961921751499176,-2.5061211585998535,-2.418843984603882,8.858687400817871,-0.02830478362739086,0.019242255,0.025350908,110.13229,14.619969,-14.855534,SIT
1339861237760.0,0.9669426083564758,-2.5064117908477783,-2.4199259281158447,8.858124732971191,-0.02809624932706356,0.018936822,0.0421497,110.13098,14.619243,-14.862006,SIT
1339872378880.0,0.971962571144104,-2.5062618255615234,-2.4213411808013916,8.857611656188965,-0.02796400897204876,0.013439035,0.048258353,110.12902,14.621253,-14.867293,SIT
1339883126784.0,0.9769816994667053,-2.505547523498535,-2.423325538635254,8.85709285736084,-0.027884041890501976,0.013439035,0.05589417,110.12258807964199,14.619789062916901,-14.8689124835241,SIT
1339893612544.0,0.9820001125335693,-2.5042734146118164,-2.42596173286438,8.85651683807373,-0.02784421294927597,-0.0076358155,0.07147124,110.11616,14.618326,-14.870531,SIT
1339903836160.0,0.9870176315307617,-2.502514600753784,-2.4292428493499756,8.855835914611816,-0.027815314009785652,-0.0070249503,0.07941248,110.11412,14.622260999999998,-14.865126,SIT
1339913797632.0,0.992034375667572,-2.5003573894500732,-2.4330310821533203,8.854938507080078,-0.027747714892029762,-0.014049901000000002,0.07727446,110.12708,14.636425,-14.840421,SIT
1339923496960.0,0.997050404548645,-2.497889757156372,-2.4371278285980225,8.85368824005127,-0.027637816965579987,-0.0143553335,0.09040806,110.13398,14.650011,-14.82017,SIT
1339933065216.0,1.002065658569336,-2.495208978652954,-2.441373109817505,8.852095603942871,-0.0274512842297554,-0.033292156,0.10140363,110.14414,14.660482,-14.793524,SIT
1339942371328.0,1.007080316543579,-2.49241304397583,-2.44563364982605,8.850251197814941,-0.027128932997584343,-0.022907447,0.100792766,110.15611,14.667026000000002,-14.775685,SIT
1339951415296.0,1.012094259262085,-2.4895901679992676,-2.4497904777526855,8.848235130310059,-0.02667015604674816,-0.019547688,0.0983493,110.15418,14.669378,-14.753386,SIT
1339960328192.0,1.017107605934143,-2.4868199825286865,-2.453735589981079,8.846121788024902,-0.026037495583295822,-0.018936822,0.09865474,110.15231,14.661472,-14.734043,SIT
1339968978944.0,1.0221202373504639,-2.484166145324707,-2.4573841094970703,8.84397029876709,-0.025277677923440933,-0.028405234,0.09865474,110.15075,14.660185999999998,-14.713284,SIT
1339977498624.0,1.0271323919296265,-2.4816670417785645,-2.4606852531433105,8.841819763183594,-0.024386968463659286,-0.028710667,0.093462385,110.15137,14.649957,-14.695479999999998,SIT
1339985887232.0,1.0321438312530518,-2.4793460369110107,-2.463602066040039,8.839707374572754,-0.023415308445692062,-0.029932396,0.09132435,110.134476,14.631334,-14.683716,SIT
1339994013696.0,1.0371546745300293,-2.4772050380706787,-2.466111183166504,8.837676048278809,-0.022375591099262238,-0.028710667,0.092240654,110.118484,14.608501,-14.672863,SIT
1340002009088.0,1.0421651601791382,-2.475208044052124,-2.4682133197784424,8.835774421691895,-0.021287372335791588,-0.043676864,0.087659165,110.102325,14.584661,-14.663612,SIT
1340009873408.0,1.0471751689910889,-2.4732418060302734,-2.4699552059173584,8.834067344665527,-0.02018653228878975,-0.03756821,0.089186326,110.08596,14.562865,-14.661287,SIT
1340017606656.0,1.0521847009658813,-2.4712045192718506,-2.4713797569274902,8.832612037658691,-0.019100060686469078,-0.03756821,0.093462385,110.06507,14.538401,-14.654123,SIT
1340025208832.0,1.0571938753128052,-2.4689807891845703,-2.472548246383667,8.831477165222168,-0.0180364940315485,-0.030543262,0.099265605,110.04447,14.51546,-14.651115,SIT
1340032679936.0,1.0622024536132812,-2.4664599895477295,-2.473524808883667,8.830727577209473,-0.017038114368915558,-0.03268129,0.102319926,110.0229,14.498464000000002,-14.645963,SIT
1340040019968.0,1.0672106742858887,-2.463599920272827,-2.4743547439575195,8.830360412597656,-0.016106197610497475,-0.024129177,0.10842858,110.003,14.479378,-14.642307999999998,SIT
1340047228928.0,1.072218418121338,-2.4603872299194336,-2.4750735759735107,8.83034896850586,-0.01525558065623045,-0.026267206,0.11575896,109.98107,14.465683,-14.635726000000002,SIT
1340054306816.0,1.077225923538208,-2.456852436065674,-2.4756810665130615,8.830599784851074,-0.014457691460847855,-0.026267206,0.13011430000000002,109.959755,14.450234,-14.626739,SIT
1340061253632.0,1.0822330713272095,-2.453101873397827,-2.4761173725128174,8.830903053283691,-0.013707590289413929,-0.02565634,0.12644911,109.941605,14.439641,-14.616928,SIT
1340068200448.0,1.0872398614883423,-2.4492311477661133,-2.4763293266296387,8.831071853637695,-0.012952136807143688,-0.027183503,0.13194689,109.92246000000002,14.418066,-14.601246,SIT
1340075016192.0,1.092246413230896,-2.445327043533325,-2.476269245147705,8.830936431884766,-0.012156730517745018,-0.027794369,0.12858713,109.907196,14.398905,-14.585636,SIT
1340081700864.0,1.0972537994384766,-2.441495895385742,-2.4758408069610596,8.830329895019531,-0.011292209848761559,-0.013439035,0.12034045,109.89558999999998,14.37214,-14.571846,SIT
1340088385536.0,1.1022608280181885,-2.437840700149536,-2.4749341011047363,8.82912826538086,-0.010286658070981503,-0.013133603,0.118507855,109.88212,14.337792000000002,-14.554865,SIT
1340094939136.0,1.1072674989700317,-2.4344491958618164,-2.473440408706665,8.827285766601562,-0.009125467389822006,-0.0033597588,0.10629055,109.86362,14.308735999999998,-14.553688,SIT
1340101361664.0,1.1122738122940063,-2.4313840866088867,-2.471263885498047,8.824860572814941,-0.00782721396535635,-0.00030543262000000003,0.10476339,109.8422,14.274981,-14.551586,SIT
1340107784192.0,1.1172796487808228,-2.428698778152466,-2.468334674835205,8.821943283081055,-0.006378576159477234,0.002443461,0.09987647,109.81438,14.230614,-14.555382,SIT
1340114075648.0,1.1222851276397705,-2.426440477371216,-2.4646074771881104,8.818673133850098,-0.004780185874551535,0.005497787,0.08460484,109.79033,14.18922,-14.55923,CHU
1340120367104.0,1.12729012966156,-2.424652576446533,-2.460075616836548,8.815184593200684,-0.0030365046113729477,0.015271631,0.07880162,109.76036,14.13436,-14.578152,CHU
1340126527488.0,1.1322948932647705,-2.423382520675659,-2.454796552658081,8.811627388000488,-0.0011753648286685348,0.011911872,0.07086037,109.734604,14.082577,-14.592612,CHU
1340132687872.0,1.1372992992401123,-2.4226653575897217,-2.4488234519958496,8.808148384094238,0.0007666775491088629,0.006414085,0.070249505,109.69947,14.021875,-14.612721,CHU
1340138848256.0,1.1423035860061646,-2.422518730163574,-2.442201852798462,8.804938316345215,0.0027436173986643553,0.003970624,0.058643065,109.66975,13.966128,-14.630872,CHU
1340144877568.0,1.1473073959350586,-2.4229652881622314,-2.4350459575653076,8.802210807800293,0.00473060505464673,0.00030543262000000003,0.06169739,109.63299,13.904727,-14.652622,CHU
1340150906880.0,1.152311086654663,-2.4240503311157227,-2.4276206493377686,8.800275802612305,0.006727027241140604,0.00030543262000000003,0.049785517,109.619301859147,13.8761610815677,-14.662802050034802,CHU
1340156805120.0,1.157314658164978,-2.4257774353027344,-2.420128107070923,8.799327850341797,0.008727102540433407,0.0036651916,0.043982297,109.60587,13.84813,-14.6727915,CHU
1340162703360.0,1.1623179912567139,-2.4280612468719482,-2.4126648902893066,8.799349784851074,0.010713494382798672,-0.01038471,0.041233405,109.56565,13.791322,-14.690415,CHU
1340168601600.0,1.1673213243484497,-2.4308204650878906,-2.4052786827087402,8.800287246704102,0.012695860117673874,-0.010995574,0.038179077,109.53723,13.739937,-14.710404,CHU
1340174368768.0,1.172324538230896,-2.4339725971221924,-2.3979198932647705,8.802005767822266,0.014681999571621418,-0.01740966,0.034208454,109.50854,13.691262,-14.724199,CHU
1340180135936.0,1.1773275136947632,-2.4374423027038574,-2.39054274559021,8.804380416870117,0.016693638637661934,-0.013744468,0.03848451,109.482254,13.643781,-14.738725,CHU
1340185903104.0,1.1823303699493408,-2.4411613941192627,-2.383106231689453,8.80729866027832,0.018762322142720222,-0.026572637000000003,0.04337143,109.45537,13.595295000000002,-14.746372,CHU
1340191670272.0,1.1873338222503662,-2.4450643062591553,-2.375567674636841,8.810647964477539,0.02085890807211399,-0.036651913,0.038789943,109.43232,13.549612,-14.754955,CHU
1340197306368.0,1.192337155342102,-2.449069023132324,-2.367868423461914,8.814258575439453,0.02300664223730564,-0.03268129,0.040317107000000005,109.40628,13.495797,-14.764471,CHU
1340202942464.0,1.197340965270996,-2.4530997276306152,-2.359951972961426,8.817968368530273,0.025236625224351883,-0.03176499,0.040317107000000005,109.37835,13.436495,-14.7728405,CHU
1340208578560.0,1.202344536781311,-2.4571313858032227,-2.351830005645752,8.82168960571289,0.027529653161764145,-0.039095376,0.0421497,109.349205,13.379944,-14.780065,CHU
1340214083584.0,1.2073478698730469,-2.4611406326293945,-2.3435118198394775,8.82534122467041,0.029880478978157043,-0.041233405,0.043066,109.31759,13.316181,-14.788510999999998,CHU
1340219588608.0,1.2123509645462036,-2.465121269226074,-2.335012435913086,8.828904151916504,0.032278165221214294,-0.03726278,0.04428773,109.285355,13.254922,-14.796676,CHU
1340225093632.0,1.2173537015914917,-2.469073534011841,-2.3263485431671143,8.83238697052002,0.03468935564160347,-0.03604105,0.040927973,109.25392,13.197075,-14.8031645,CHU
1340230598656.0,1.2223562002182007,-2.4729981422424316,-2.317535161972046,8.835797309875488,0.03711273893713951,-0.041233405,0.03756821,109.223526,13.135022,-14.811941,CHU
1340236103680.0,1.227362871170044,-2.476898431777954,-2.3085782527923584,8.839144706726074,0.039560120552778244,-0.04337143,0.03145956,109.19522,13.075819,-14.82129,CHU
1340241477632.0,1.2323689460754395,-2.480772018432617,-2.299499750137329,8.84243106842041,0.042006444185972214,-0.04886922,0.029626964,109.16611,13.020855,-14.828170000000002,CHU
1340246851584.0,1.2373747825622559,-2.484619379043579,-2.290310859680176,8.845663070678711,0.044422317296266556,-0.05375614,0.019242255,109.14117,12.967267,-14.833531,CHU
1340252225536.0,1.242380142211914,-2.488443374633789,-2.2810235023498535,8.848883628845215,0.04680924490094185,-0.055588737,0.02321288,109.111084,12.914412,-14.839356,CHU
1340257599488.0,1.247385025024414,-2.492248773574829,-2.271648406982422,8.85216236114502,0.049183402210474014,-0.063224554,0.0143553335,109.08704,12.865344,-14.84065,CHU
1340262973440.0,1.2523894309997559,-2.496011257171631,-2.262178897857666,8.8555326461792,0.05152202025055885,-0.07544186,0.008857545999999999,109.05548,12.814794,-14.842204,CHU
1340268347392.0,1.2573935985565186,-2.4996747970581055,-2.252589225769043,8.858987808227539,0.053822144865989685,-0.08643743400000001,0.004581489,109.02578,12.762584,-14.84152,CHU
1340273721344.0,1.262397050857544,-2.5032386779785156,-2.2428996562957764,8.86252212524414,0.05609164386987686,-0.09407325,-0.006414085,108.99674,12.710649,-14.837817,CHU
1340278964224.0,1.2674001455307007,-2.506859540939331,-2.233261823654175,8.866130828857422,0.058334190398454666,-0.093767814,-0.0033597588,108.96485,12.659639,-14.834178,CHU
1340284207104.0,1.2724027633666992,-2.510619878768921,-2.223771333694458,8.869810104370117,0.060556624084711075,-0.09193522,-0.011911872,108.94847,12.597895,-14.831285,CHU
1340289449984.0,1.2774051427841187,-2.514467239379883,-2.214426279067993,8.873556137084961,0.06275732070207596,-0.084910266,-0.00061086525,108.92585,12.536282,-14.831601,CHU
1340294692864.0,1.2824071645736694,-2.5183401107788086,-2.205217123031616,8.877364158630371,0.06493575125932693,-0.08277224,-0.0012217305,108.91264,12.481745,-14.834657,CHU
1340299935744.0,1.2874088287353516,-2.5221457481384277,-2.1961166858673096,8.881230354309082,0.06708717346191406,-0.076358154,-0.0021380284,108.89693,12.428125,-14.841503,CHU
1340305178624.0,1.292410135269165,-2.525801181793213,-2.187105655670166,8.885162353515625,0.06919613480567932,-0.07819075,-0.005497787,108.881035,12.374643,-14.840910999999998,CHU
1340310421504.0,1.297411322593689,-2.529231548309326,-2.1781868934631348,8.889208793640137,0.07129748910665512,-0.07422013,-0.010079277,108.86652,12.318236,-14.843642,CHU
1340315664384.0,1.3024123907089233,-2.532369613647461,-2.169373035430908,8.893426895141602,0.07338084280490875,-0.083383106,-0.01038471,108.84947,12.266648,-14.839395,CHU
1340320907264.0,1.3074134588241577,-2.535151958465576,-2.1607205867767334,8.897928237915039,0.0754360780119896,-0.08582657,-0.008552114,108.833786,12.213365,-14.838107,CHU
1340326019072.0,1.3124144077301025,-2.5375261306762695,-2.152256727218628,8.902771949768066,0.07743078470230103,-0.08704830000000001,-0.0009162979,108.81576499999998,12.163145,-14.831531,CHU
1340331130880.0,1.3174152374267578,-2.539450168609619,-2.1439342498779297,8.907896041870117,0.07933347672224045,-0.09682214,-0.009773844,108.80127,12.116353,-14.821307,CHU
1340336242688.0,1.322416067123413,-2.540898561477661,-2.1357107162475586,8.913241386413574,0.08113962411880493,-0.111177474,-0.008552114,108.78453,12.068429,-14.800257,CHU
1340341354496.0,1.3274166584014893,-2.5419209003448486,-2.1275577545166016,8.91873550415039,0.08283763378858566,-0.10323623,-0.008857545999999999,108.77165,12.026481,-14.782831,CHU
1340346466304.0,1.332417368888855,-2.54256272315979,-2.119448184967041,8.92431354522705,0.0844070091843605,-0.09987647,-0.013133603,108.75671,11.985504,-14.758246,CHU
1340351578112.0,1.3374178409576416,-2.5428659915924072,-2.111358880996704,8.929917335510254,0.08586183935403824,-0.093767814,-0.008552114,108.740074,11.943578,-14.738038,CHU
1340356689920.0,1.3424193859100342,-2.5428693294525146,-2.103264808654785,8.935492515563965,0.0871482864022255,-0.1020145,-0.009773844,108.725746,11.912612,-14.714934,CHU
1340361801728.0,1.3474206924438477,-2.5426077842712402,-2.095150947570801,8.940994262695312,0.08828017115592957,-0.10415252,-0.020158553,108.7136,11.876545,-14.695679,CHU
1340366913536.0,1.3524270057678223,-2.542117118835449,-2.086982250213623,8.946367263793945,0.08927378058433533,-0.09590584,-0.015271631,108.69764,11.84594,-14.67864,CHU
1340372025344.0,1.3574326038360596,-2.5414388179779053,-2.078747272491455,8.951581954956055,0.09011894464492798,-0.08643743400000001,-0.016798794,108.68659,11.819856,-14.661079999999998,CHU
1340377137152.0,1.3624374866485596,-2.5406203269958496,-2.07041072845459,8.95659351348877,0.09082433581352234,-0.09560041,-0.02321288,108.68149,11.773705,-14.641673999999998,CHU
1340382248960.0,1.3674416542053223,-2.5397043228149414,-2.0619421005249023,8.961363792419434,0.0913911685347557,-0.12858713,-0.030543262,108.676125,11.731867,-14.618624,CHU
1340387360768.0,1.3724452257156372,-2.538729667663574,-2.053314208984375,8.965858459472656,0.09188512712717056,-0.13469578,-0.031154128,108.67171,11.685463,-14.601148,CHU
1340392472576.0,1.377448320388794,-2.537691831588745,-2.044569969177246,8.97008991241455,0.09230629354715347,-0.1432479,-0.040317107000000005,108.66967,11.648303,-14.573698,CHU
1340397584384.0,1.382450819015503,-2.5365514755249023,-2.03580904006958,8.974108695983887,0.09266883879899979,-0.14691310000000002,-0.05009095,108.66789,11.606062,-14.546765,CHU
1340402696192.0,1.3874529600143433,-2.535273313522339,-2.0271213054656982,8.977960586547852,0.09295004606246948,-0.15485434,-0.050396383,108.65786,11.560047,-14.51686,CHU
1340407808000.0,1.3924546241760254,-2.5338265895843506,-2.0185863971710205,8.98168659210205,0.09314107894897461,-0.16554448,-0.058948494,108.652664,11.514973,-14.485147,CHU
1340412919808.0,1.3974559307098389,-2.532219409942627,-2.0102577209472656,8.985366821289062,0.09325335174798965,-0.17043139999999998,-0.06047566,108.64544,11.471595,-14.454334,CHU
1340418031616.0,1.4024572372436523,-2.530479669570923,-2.002171516418457,8.98909854888916,0.09327302873134613,-0.17165314,-0.07147124,108.64301,11.434769,-14.421665,CHU
1340423143424.0,1.4074581861495972,-2.528632879257202,-1.9943588972091675,8.992965698242188,0.09318537265062332,-0.19120082,-0.07086037,108.64905,11.399351,-14.374465,CHU
1340428255232.0,1.4124587774276733,-2.5267021656036377,-1.9868474006652832,8.99704360961914,0.09300003200769424,-0.1957823,-0.07299839999999999,108.6598,11.366085,-14.3317585,CHU
1340433235968.0,1.4174590110778809,-2.524689197540283,-1.9796626567840576,9.001391410827637,0.09268776327371597,-0.19181168,-0.08307768,108.67196,11.340559,-14.287115,CHU
1340438347776.0,1.422461748123169,-2.5225794315338135,-1.9728344678878784,9.006070137023926,0.09220189601182938,-0.19181168,-0.0842994,108.68164,11.317823,-14.242034,CHU
1340443459584.0,1.4274682998657227,-2.5203826427459717,-1.9664198160171509,9.011076927185059,0.09149762988090515,-0.18661933,-0.09468412,108.69932,11.301658,-14.19365,CHU
1340448440320.0,1.4324740171432495,-2.5181190967559814,-1.9604547023773193,9.016373634338379,0.09055624902248383,-0.18967366,-0.10476339,108.71672,11.290197,-14.144538,CHU
1340453421056.0,1.4374788999557495,-2.515808582305908,-1.954994797706604,9.021927833557129,0.0893876850605011,-0.17745635,-0.11209377,108.7417,11.281986,-14.09678,CHU
1340458401792.0,1.4424830675125122,-2.5134692192077637,-1.9500890970230103,9.027710914611816,0.08794248104095459,-0.18142697,-0.111177474,108.76594,11.284388,-14.045198,CHU
1340463382528.0,1.447486400604248,-2.5111300945281982,-1.945745825767517,9.033665657043457,0.08623262494802475,-0.18173242,-0.12583824,108.79761,11.285103,-13.998266,CHU
1340468363264.0,1.4524892568588257,-2.5088553428649902,-1.9418758153915405,9.039657592773438,0.08426093310117722,-0.17684549,-0.12492194,108.82447,11.293122,-13.954114,CHU
1340473344000.0,1.4574915170669556,-2.5066394805908203,-1.9383764266967773,9.045639038085938,0.08202461153268814,-0.1908954,-0.13744467,108.868286,11.314024,-13.901698,CHU
1340478324736.0,1.4624933004379272,-2.504361867904663,-1.93511164188385,9.051700592041016,0.0795062780380249,-0.19303341,-0.14905111,108.91232,11.33905,-13.855491,CHU
1340483305472.0,1.4674946069717407,-2.5019612312316895,-1.9319815635681152,9.057862281799316,0.07668855786323547,-0.2049453,-0.15515977,108.9545,11.366197,-13.806931,CHU
1340488286208.0,1.472495436668396,-2.4994823932647705,-1.928943157196045,9.064008712768555,0.07357668876647949,-0.21899518,-0.16310102,109.00002,11.396964,-13.757751999999998,CHU
1340493266944.0,1.477495789527893,-2.4969680309295654,-1.9259514808654785,9.07004451751709,0.07017966359853745,-0.24098633,-0.17012598,109.04579,11.419871,-13.692742,CHU
1340498247680.0,1.4824957847595215,-2.494468927383423,-1.9229296445846558,9.07593822479248,0.06657140702009201,-0.25900686,-0.17715092,109.09302,11.440072,-13.626363,CHU
1340503228416.0,1.4874954223632812,-2.492027759552002,-1.9198004007339478,9.081668853759766,0.06278755515813828,-0.28313604,-0.18173242,109.137886,11.464709,-13.556074,CHU
1340508340224.0,1.4924969673156738,-2.4896609783172607,-1.916409969329834,9.087284088134766,0.05879981815814972,-0.32650748,-0.19517145,109.18488,11.492828,-13.476528,CHU
1340513320960.0,1.4974980354309082,-2.4873969554901123,-1.9126580953598022,9.092799186706543,0.054608575999736786,-0.3387248,-0.19242255,109.22385,11.510664,-13.398617000000002,CHU
1340518301696.0,1.502498984336853,-2.4853782653808594,-1.9083662033081055,9.098128318786621,0.05022602900862694,-0.37782016,-0.20005837,109.26538,11.534468,-13.3023815,CHU
1340523413504.0,1.5074999332427979,-2.4837238788604736,-1.9033732414245605,9.103204727172852,0.04562634974718094,-0.410196,-0.21105394,109.293,11.558587,-13.204159,CHU
1340528394240.0,1.512500524520874,-2.4824671745300293,-1.897500991821289,9.108053207397461,0.04085814207792282,-0.42943826,-0.22907446,109.32346,11.578514,-13.1010475,CHU
1340533374976.0,1.517500877380371,-2.481640577316284,-1.890567421913147,9.11269760131836,0.03593074157834053,-0.45814893,-0.24678956,109.3414,11.594379,-12.997559,CHU
1340538355712.0,1.52250075340271,-2.4812819957733154,-1.8822604417800903,9.117158889770508,0.03087119199335575,-0.46303585,-0.26297748,109.364655,11.608214,-12.8977165,CHU
1340543336448.0,1.5275006294250488,-2.4814326763153076,-1.8722944259643555,9.121468544006348,0.02569716051220894,-0.4718934,-0.27122417,109.375244,11.60781,-12.79383,CHU
1340548317184.0,1.532500147819519,-2.4822022914886475,-1.8604562282562256,9.12579345703125,0.020436087623238564,-0.45448375,-0.29718593,109.39723,11.609152,-12.697402,CHU
1340553297920.0,1.5374995470046997,-2.4836909770965576,-1.846550703048706,9.130285263061523,0.015107609331607819,-0.43676865,-0.3213151,109.39748,11.585052,-12.603529,CHU
1340558278656.0,1.5424985885620117,-2.4859821796417236,-1.8305705785751343,9.135308265686035,0.009848356246948242,-0.37720928,-0.33261612,109.40548,11.550943,-12.528763,CHU
1340563259392.0,1.5474973917007446,-2.489149570465088,-1.8125249147415161,9.141207695007324,0.004851721227169037,-0.25259277,-0.3115413,109.41633600000002,11.510633,-12.480693,CHU
1340568371200.0,1.552496314048767,-2.493727207183838,-1.7924304008483887,9.148518562316895,0.0002928898320533335,-0.15363261,-0.2660318,109.39969,11.431082,-12.454838,CHU
1340573351936.0,1.5574949979782104,-2.5003104209899902,-1.7703182697296143,9.15776252746582,-0.0035535276401787996,-0.048258353,-0.21410827,109.382675,11.322175,-12.468224,CHU
1340578332672.0,1.5624934434890747,-2.5090343952178955,-1.7460559606552124,9.169710159301758,-0.006449506618082523,0.06352998,-0.11636983,109.320045,11.174185,-12.516137,CHU
1340583313408.0,1.5674916505813599,-2.519871711730957,-1.719469666481018,9.185155868530273,-0.008369185030460358,0.22999077,-0.016187929,109.250534,11.014659,-12.610838,CHU
1340588294144.0,1.572489619255066,-2.5328269004821777,-1.6904854774475098,9.204602241516113,-0.009457843378186226,0.35643986,0.07299839999999999,109.132195,10.81307,-12.752109,CHU
1340593274880.0,1.577487587928772,-2.5479114055633545,-1.6590678691864014,9.228425979614258,-0.010012867860496044,0.40133846,0.12675454,108.99955,10.617641,-12.9157,CHU
1340598255616.0,1.5824854373931885,-2.564877986907959,-1.6251939535140991,9.25660228729248,-0.010263272561132908,0.41080686,0.14446963,108.823975,10.388055,-13.105131,CHU
1340603236352.0,1.5874831676483154,-2.5834429264068604,-1.5888502597808838,9.289018630981445,-0.010366598144173622,0.3323107,0.13133603,108.63974,10.17875,-13.27674,CHU
1340608217088.0,1.5924808979034424,-2.6032187938690186,-1.5507621765136719,9.325526237487793,-0.010636218823492527,0.20922135,0.06383542,108.43871,9.978892,-13.42273,CHU
1340613328896.0,1.5974786281585693,-2.623821496963501,-1.5117720365524292,9.365975379943848,-0.011255367659032345,0.10567969,-0.027794369,108.247215,9.790156,-13.544705,CHU
1340618309632.0,1.6024763584136963,-2.6451914310455322,-1.47225821018219,9.409669876098633,-0.012385541573166847,0.03604105,-0.14538592,108.06123999999998,9.616751,-13.625689499999998,CHU
1340623421440.0,1.6075022220611572,-2.667691230773926,-1.4325857162475586,9.455156326293945,-0.014602028764784336,-0.11759156,-0.52320606,107.74996000000002,9.3459835,-13.654239000000002,CHU
1340628533248.0,1.612553358078003,-2.691307544708252,-1.3929499387741089,9.501788139343262,-0.017970604822039604,-0.044898596,-0.59528816,107.718605,9.321926,-13.636271,CHU
1340633645056.0,1.6176302433013916,-2.7160654067993164,-1.3535417318344116,9.548904418945312,-0.02242550253868103,0.050701816,-0.6096435,107.707466,9.31124,-13.628046,CHU
1340638756864.0,1.622726559638977,-2.742178201675415,-1.3149974346160889,9.596521377563477,-0.027804935351014137,0.10293079,-0.62125,107.719215,9.314513,-13.625395,CHU
1340643868672.0,1.6278400421142578,-2.7700421810150146,-1.2782100439071655,9.64486026763916,-0.034026335924863815,0.12156218,-0.6301074999999999,107.73836,9.331762,-13.6393,CHU
1340649111552.0,1.6329686641693115,-2.7996113300323486,-1.2439067363739014,9.693660736083984,-0.041079238057136536,0.06261369,-0.63438356,107.75943,9.369194,-13.661117,CHU
1340654354432.0,1.6381105184555054,-2.830705404281616,-1.212704062461853,9.742534637451172,-0.04897098243236542,-0.095294975,-0.627664,107.77661,9.410891,-13.658692000000002,CHU
1340659597312.0,1.6432636976242065,-2.8625900745391846,-1.1851049661636353,9.791376113891602,-0.0576927550137043,-0.17562376,-0.6084218000000001,107.82266,9.4952,-13.677346,CHU
1340664840192.0,1.64842689037323,-2.8943800926208496,-1.1615402698516846,9.840185165405273,-0.06739131361246109,-0.3115413,-0.5766568,107.85334,9.603057000000002,-13.636329000000002,CHU
1340670083072.0,1.653598427772522,-2.9250974655151367,-1.1422438621520996,9.888615608215332,-0.0781615823507309,-0.49602258,-0.5626069,107.91125,9.757397,-13.556733,CHU
1340675325952.0,1.6587769985198975,-2.953777313232422,-1.127355933189392,9.936203956604004,-0.08999016880989075,-0.5910121,-0.52626044,107.95116000000002,9.920398,-13.468202,CHU
1340680568832.0,1.6639612913131714,-2.979721784591675,-1.1170070171356201,9.982507705688477,-0.10289156436920166,-0.64873886,-0.516792,108.025986,10.146433,-13.301282,CHU
1340685811712.0,1.669150471687317,-3.0023624897003174,-1.111329436302185,10.027105331420898,-0.11676987260580063,-0.6621779000000001,-0.50335294,108.08631,10.366213,-13.126976,CHU
1340691054592.0,1.674343228340149,-3.0214052200317383,-1.1102994680404663,10.069483757019043,-0.13153637945652008,-0.6951646,-0.48502702,108.16886,10.633039,-12.886387,CHU
1340696297472.0,1.679538607597351,-3.0366830825805664,-1.113831877708435,10.109097480773926,-0.14711424708366394,-0.6945538,-0.45234573,108.24384,10.896785,-12.659353,CHU
1340701540352.0,1.684735655784607,-3.048285961151123,-1.1218202114105225,10.145598411560059,-0.16361187398433685,-0.68630713,-0.43035457,108.34984,11.212784,-12.396721,CHU
1340706783232.0,1.6899338960647583,-3.0564770698547363,-1.1341474056243896,10.178780555725098,-0.18116632103919983,-0.6817255999999999,-0.40103304,108.443825,11.528242,-12.142982,CHU
1340712026112.0,1.6951324939727783,-3.0613303184509277,-1.150636911392212,10.208373069763184,-0.19981412589550018,-0.69058317,-0.37843102,108.55944,11.87921,-11.877145,CHU
1340717268992.0,1.7003309726715088,-3.0628206729888916,-1.1710879802703857,10.234081268310547,-0.21950167417526245,-0.6969972,-0.3567453,108.66751,12.23846,-11.622071,CHU
1340722511872.0,1.7055301666259766,-3.061018228530884,-1.195317029953003,10.255857467651367,-0.2400868535041809,-0.6921103,-0.35308012,108.77796,12.62841,-11.365668,CHU
1340727754752.0,1.7107280492782593,-3.0561025142669678,-1.2230902910232544,10.2738676071167,-0.2614458501338959,-0.6914994999999999,-0.34483343,108.879036,13.019224,-11.113672,CHU
1340732997632.0,1.7159242630004883,-3.048166513442993,-1.2542511224746704,10.288307189941406,-0.28347069025039673,-0.6798930000000001,-0.3286455,108.98965,13.429593,-10.854827,CHU
1340738240512.0,1.721118450164795,-3.037240743637085,-1.288692593574524,10.299407958984375,-0.30603232979774475,-0.6817255999999999,-0.31245756,109.09565,13.830111,-10.598472,CHU
1340743483392.0,1.726310133934021,-3.0233542919158936,-1.3262218236923218,10.30750560760498,-0.32903268933296204,-0.66798115,-0.30940324,109.20631000000002,14.248165,-10.341345,CHU
1340748726272.0,1.731499195098877,-3.006530284881592,-1.3665870428085327,10.313010215759277,-0.3523574769496918,-0.6762278,-0.3023783,109.307976,14.653846,-10.084305,CHU
1340753969152.0,1.7366851568222046,-2.986814498901367,-1.409505009651184,10.31617259979248,-0.375872939825058,-0.66553766,-0.30451632,109.41651,15.077964,-9.8234005,CHU
1340759080960.0,1.7418681383132935,-2.964261293411255,-1.4546712636947632,10.317102432250977,-0.39946821331977844,-0.65484756,-0.31215215,109.52243,15.493291,-9.565704,CHU
1340764192768.0,1.747047781944275,-2.9390275478363037,-1.5017391443252563,10.315814018249512,-0.4230281114578247,-0.63224554,-0.31612277,109.6403,15.90314,-9.301831,CHU
1340769304576.0,1.752224087715149,-2.9113478660583496,-1.5503265857696533,10.31222152709961,-0.44648680090904236,-0.6215554,-0.33505958,109.763245,16.30604,-9.041527,CHU
1340774416384.0,1.7573966979980469,-2.8814473152160645,-1.6001482009887695,10.306282997131348,-0.4698098301887512,-0.5873469,-0.32925636,109.86809,16.721275,-8.781632,CHU
1340779528192.0,1.7625656127929688,-2.849543809890747,-1.6510597467422485,10.29800796508789,-0.49297887086868286,-0.5635232,-0.35643986,109.98629,17.130625,-8.523124000000001,CHU
1340784640000.0,1.7677305936813354,-2.8159074783325195,-1.7029532194137573,10.28748893737793,-0.5160091519355774,-0.5375614000000001,-0.37384954,110.088875,17.548414,-8.26593,CHU
1340789751808.0,1.772891879081726,-2.7808964252471924,-1.755772352218628,10.274932861328125,-0.5389372706413269,-0.52412236,-0.38973203,110.198494,17.963951,-8.014693,CHU
1340794863616.0,1.7780506610870361,-2.7447826862335205,-1.8093279600143433,10.26059341430664,-0.5617772340774536,-0.49754974,-0.3943135,110.309555,18.39215,-7.769054400000001,CHU
1340799975424.0,1.783205270767212,-2.7077479362487793,-1.8632861375808716,10.244765281677246,-0.5845479369163513,-0.4810564000000001,-0.40286562,110.42549,18.821255,-7.5272913,CHU
1340805087232.0,1.7883557081222534,-2.6699576377868652,-1.9174072742462158,10.22767448425293,-0.6072274446487427,-0.47983465,-0.41691554,110.539345,19.259985,-7.2889667,CHU
1340810199040.0,1.7935019731521606,-2.63157057762146,-1.9716415405273438,10.209405899047852,-0.6298120021820068,-0.45845437,-0.41233405,110.65294,19.697908,-7.0657954,CHU
1340815310848.0,1.7986440658569336,-2.5927438735961914,-2.0259175300598145,10.190054893493652,-0.6523461937904358,-0.4538729,-0.4089743,110.75556,20.134120000000006,-6.83293,CHU
1340820422656.0,1.8037821054458618,-2.5536539554595947,-2.080103874206543,10.169748306274414,-0.6748415231704712,-0.4474588,-0.4083634,110.85941,20.563072,-6.610834,CHU
1340825534464.0,1.8089159727096558,-2.5144591331481934,-2.134082794189453,10.148603439331055,-0.6973031759262085,-0.44135013,-0.41386122,110.95305,21.009968,-6.383924,CHU
1340830646272.0,1.814045786857605,-2.47530198097229,-2.1877498626708984,10.126725196838379,-0.7197853326797485,-0.43554693,-0.4120286,111.04479,21.458738,-6.1637793,CHU
1340835758080.0,1.8191715478897095,-2.436311721801758,-2.2410216331481934,10.104188919067383,-0.7422940731048584,-0.43218717,-0.41508293,111.12501,21.910036,-5.943674,CHU
1340840869888.0,1.8242992162704468,-2.3976192474365234,-2.293882131576538,10.080938339233398,-0.76483553647995,-0.43493605,-0.4184427,111.20464,22.362688,-5.7278970000000005,CHU
1340845981696.0,1.8294224739074707,-2.3593084812164307,-2.3462517261505127,10.057014465332031,-0.7874247431755066,-0.43401974,-0.41905355,111.274055,22.82573,-5.516923,CHU
1340851093504.0,1.8345412015914917,-2.3214221000671387,-2.398045778274536,10.032319068908691,-0.8100212216377258,-0.4343252,-0.43768495,111.34879,23.280924,-5.3066883,CHU
1340856205312.0,1.8396557569503784,-2.28397536277771,-2.449199914932251,10.006773948669434,-0.8326337337493896,-0.4437936,-0.43799037,111.404076,23.755056,-5.0974092,CHU
1340861317120.0,1.8447662591934204,-2.2468442916870117,-2.499720811843872,9.980369567871094,-0.8552007675170898,-0.4269948,-0.44409904,111.469025,24.215227,-4.896305,CHU
1340866428928.0,1.8498741388320923,-2.209911823272705,-2.549689769744873,9.95311450958252,-0.8777262568473816,-0.408058,-0.43676865,111.52286,24.690641,-4.692265,CHU
1340871540736.0,1.8549779653549194,-2.1731338500976562,-2.599278688430786,9.92510986328125,-0.9002302885055542,-0.40469822,-0.4373795,111.58111,25.157825,-4.4910445,CHU
1340876652544.0,1.8600777387619019,-2.1364591121673584,-2.6486659049987793,9.896443367004395,-0.9226928949356079,-0.40286562,-0.42730024,111.6264,25.637775,-4.282674,CHU
1340881764352.0,1.8651736974716187,-2.0998239517211914,-2.697925090789795,9.867137908935547,-0.9451274275779724,-0.39706242,-0.4297437,111.677216,26.117893,-4.0789475,CHU
1340886876160.0,1.8702658414840698,-2.063173532485962,-2.74711012840271,9.837213516235352,-0.9675242304801941,-0.39400807,-0.4120286,111.72144,26.588118,-3.8830295,CHU
1340891987968.0,1.875354528427124,-2.0265085697174072,-2.7962093353271484,9.806663513183594,-0.9898531436920166,-0.39492437,-0.40591997,111.78211,27.071905,-3.6781144,CHU
1340897099776.0,1.8804396390914917,-1.9898439645767212,-2.84519624710083,9.775484085083008,-1.0120490789413452,-0.38789943,-0.39828414,111.84069,27.545065,-3.4827044000000003,CHU
1340902211584.0,1.885521411895752,-1.953139305114746,-2.894028902053833,9.74370002746582,-1.0341227054595947,-0.38759398,-0.3848451,111.878555,28.048742,-3.2663832000000004,CHU
1340907323392.0,1.8905999660491943,-1.9163446426391602,-2.9426639080047607,9.711345672607422,-1.0560057163238525,-0.39370266,-0.3747658,111.91786,28.531134,-3.0558643,CHU
1340912435200.0,1.8956754207611084,-1.8794018030166626,-2.991142511367798,9.678319931030273,-1.0776687860488892,-0.40653083,-0.3735441,111.94768,29.031412,-2.8363285,CHU
1340917547008.0,1.9007478952407837,-1.8422541618347168,-3.0395326614379883,9.644482612609863,-1.099057674407959,-0.410196,-0.3659083,111.97678,29.513859000000004,-2.6252296000000004,CHU
1340922658816.0,1.9058176279067993,-1.804893136024475,-3.0878639221191406,9.609825134277344,-1.1201121807098389,-0.42302418,-0.3717115,112.00204,30.001719,-2.397563,CHU
1340927770624.0,1.9108846187591553,-1.7673476934432983,-3.1361327171325684,9.574431419372559,-1.1408029794692993,-0.4364632000000001,-0.36285394,112.02472,30.476885,-2.1779969,CHU
1340932882432.0,1.9159489870071411,-1.7296770811080933,-3.184387683868408,9.538333892822266,-1.1610872745513916,-0.43554693,-0.36041048,112.04833,30.967226,-1.9426695,CHU
1340937994240.0,1.9210107326507568,-1.6919502019882202,-3.232697010040283,9.501542091369629,-1.1809548139572144,-0.45204028,-0.36285394,112.0706,31.446115,-1.7070221999999995,CHU
1340943106048.0,1.9260700941085815,-1.6542015075683594,-3.281066417694092,9.46392822265625,-1.200382947921753,-0.46883908,-0.3830125,112.08886,31.929535,-1.4618958,CHU
1340948217856.0,1.9311269521713257,-1.616438627243042,-3.329454183578491,9.425262451171875,-1.2193577289581299,-0.45814893,-0.4089743,112.11548,32.400009999999995,-1.2254235,CHU
1340953198592.0,1.9361814260482788,-1.5786104202270508,-3.377835750579834,9.385391235351562,-1.23790442943573,-0.4437936,-0.44165558,112.14577,32.884754,-0.9845758,CHU
1340958310400.0,1.94123375415802,-1.5406408309936523,-3.426196575164795,9.344199180603027,-1.2560051679611206,-0.43982297,-0.47036624,112.18632,33.350716,-0.7476963000000001,CHU
1340963291136.0,1.9462839365005493,-1.502466082572937,-3.4745731353759766,9.301657676696777,-1.273561954498291,-0.44409904,-0.50610185,112.23638,33.82478,-0.50289613,CHU
1340968271872.0,1.9513320922851562,-1.4640285968780518,-3.5230259895324707,9.257779121398926,-1.290501594543457,-0.4474588,-0.5174029,112.29293,34.285007,-0.26573113,CHU
1340973252608.0,1.9563783407211304,-1.4252558946609497,-3.5716640949249268,9.212577819824219,-1.3067524433135986,-0.4569272,-0.52687126,112.34701499999998,34.757328,-0.017061815,CHU
1340978233344.0,1.9614226818084717,-1.386061191558838,-3.6206436157226562,9.1660737991333,-1.3222712278366089,-0.46761733,-0.5506949999999999,112.410835,35.209618,0.22962984,CHU
1340983214080.0,1.9664651155471802,-1.3464409112930298,-3.6699976921081543,9.118317604064941,-1.3370290994644165,-0.47403142,-0.56382865,112.47108500000002,35.673782,0.48527873,CHU
1340988194816.0,1.9715057611465454,-1.3064731359481812,-3.7196388244628906,9.069392204284668,-1.3509607315063477,-0.45906523,-0.5684100999999999,112.540726,36.11323,0.7333893,CHU
1340993175552.0,1.9765446186065674,-1.2662557363510132,-3.769500255584717,9.019387245178223,-1.3641027212142944,-0.41813725,-0.5748241999999999,112.61517,36.580788,0.9853749,CHU
1340998287360.0,1.9815819263458252,-1.2259150743484497,-3.8195409774780273,8.96840763092041,-1.3765257596969604,-0.38545597,-0.5671884,112.69249,37.028244,1.2267716999999998,CHU
1341003268096.0,1.9866174459457397,-1.18563711643219,-3.8698153495788574,8.916472434997559,-1.388288974761963,-0.35185838,-0.57879484,112.7744,37.48512,1.4654248,CHU
1341008248832.0,1.9916514158248901,-1.1456936597824097,-3.9205117225646973,8.863487243652344,-1.3994778394699097,-0.33383787,-0.5839871999999999,112.85992,37.934586,1.691387,CHU
1341013229568.0,1.9966838359832764,-1.1062757968902588,-3.971693754196167,8.809457778930664,-1.41008460521698,-0.34116822,-0.6068946,112.93989,38.390842,1.9157112,CHU
1341018341376.0,2.0017149448394775,-1.067481517791748,-4.023273944854736,8.754509925842285,-1.4200778007507324,-0.35643986,-0.6383542,113.02866000000002,38.836018,2.1347861,CHU
1341023322112.0,2.006744623184204,-1.0293854475021362,-4.075161457061768,8.698718070983887,-1.4293869733810425,-0.36651915,-0.65026605,113.11506,39.29504,2.346423,CHU
1341028302848.0,2.011773109436035,-0.9920355081558228,-4.127262115478516,8.642074584960938,-1.4379569292068481,-0.376293,-0.6612616,113.209305,39.734764,2.5615783,CHU
1341033283584.0,2.0168004035949707,-0.9554649591445923,-4.179484844207764,8.584583282470703,-1.4457818269729614,-0.35613444,-0.6630941999999999,113.29349,40.179245,2.7694483,CHU
1341038264320.0,2.0218265056610107,-0.9196444749832153,-4.231710433959961,8.526296615600586,-1.452928066253662,-0.33322698,-0.66523224,113.38248,40.607746,2.9755638,CHU
1341043376128.0,2.026855707168579,-0.8845298886299133,-4.283844470977783,8.467203140258789,-1.4593719244003296,-0.31856623,-0.6646214,113.46357,41.037483,3.175071,CHU
1341048356864.0,2.031883478164673,-0.8501101136207581,-4.335805416107178,8.407490730285645,-1.4651298522949219,-0.310625,-0.6621779000000001,113.55138999999998,41.459442,3.3665152000000003,CHU
1341053468672.0,2.0369114875793457,-0.8163506984710693,-4.387568950653076,8.347332954406738,-1.4702003002166748,-0.32284227,-0.66339964,113.64206,41.860287,3.5553384,CHU
1341058449408.0,2.041938066482544,-0.7832223176956177,-4.4391021728515625,8.286824226379395,-1.474610686302185,-0.34147367,-0.6646214,113.7208,42.27601,3.746543,CHU
1341063430144.0,2.0469632148742676,-0.750679075717926,-4.490401744842529,8.22596549987793,-1.4783406257629395,-0.36743546,-0.67164636,113.80062,42.669445,3.9388168,CHU
1341068410880.0,2.0519869327545166,-0.7185508012771606,-4.541328430175781,8.164667129516602,-1.4813798666000366,-0.37201694,-0.6649268,113.86613,43.06998400000001,4.124911,CHU
1341073391616.0,2.05700945854187,-0.6866169571876526,-4.591686725616455,8.102803230285645,-1.4836986064910889,-0.3744604,-0.64568454,113.9293,43.44923,4.310189,CHU
1341078372352.0,2.0620310306549072,-0.6547889113426208,-4.641383171081543,8.040294647216797,-1.485266089439392,-0.3747658,-0.6478225999999999,114.00436,43.820824,4.499932299999998,CHU
1341083353088.0,2.0670511722564697,-0.6230865120887756,-4.690405368804932,7.977110862731934,-1.4860682487487793,-0.3735441,-0.64599,114.07738,44.17432,4.6807947,CHU
1341088333824.0,2.072070598602295,-0.591534435749054,-4.738804340362549,7.913243770599365,-1.4861258268356323,-0.36926803,-0.65148777,114.139175,44.54216,4.8795347,CHU
1341093314560.0,2.0770888328552246,-0.5601776838302612,-4.7867536544799805,7.848756790161133,-1.485438585281372,-0.3680463,-0.65484756,114.20296,44.888737,5.072826999999998,CHU
1341098295296.0,2.082106113433838,-0.5290457606315613,-4.834417343139648,7.783865928649902,-1.4840667247772217,-0.37659842,-0.657291,114.25629,45.253864,5.277182,CHU
1341103276032.0,2.0871222019195557,-0.4981520175933838,-4.881948471069336,7.718965530395508,-1.4820340871810913,-0.4089743,-0.659429,114.308685,45.597546,5.4814224000000005,CHU
1341108256768.0,2.092137336730957,-0.46748217940330505,-4.929525852203369,7.654399871826172,-1.4794374704360962,-0.4642576,-0.66614854,114.350914,45.961464,5.695814,CHU
1341113237504.0,2.097151756286621,-0.43697455525398254,-4.977386474609375,7.590457439422607,-1.4763063192367554,-0.52442783,-0.66798115,114.38792,46.30395,5.9113760000000015,CHU
1341118218240.0,2.1021652221679688,-0.40655550360679626,-5.025696277618408,7.527225017547607,-1.4726893901824951,-0.5546656,-0.6762278,114.40749,46.65691,6.132038,CHU
1341123330048.0,2.10718035697937,-0.3760969042778015,-5.074587821960449,7.464461326599121,-1.468622088432312,-0.5561928,-0.6771441,114.42274,46.994564,6.351209,CHU
1341128310784.0,2.112194299697876,-0.3454505503177643,-5.124216556549072,7.4020280838012695,-1.4641445875167847,-0.5308419,-0.66920286,114.42236,47.344975,6.572596000000001,CHU
1341133291520.0,2.1172075271606445,-0.3142618238925934,-5.175036430358887,7.339686393737793,-1.4592722654342651,-0.4978552,-0.6762278,114.42993,47.67874000000001,6.7893605,CHU
1341138272256.0,2.1222195625305176,-0.2821654975414276,-5.227284908294678,7.277459144592285,-1.4539965391159058,-0.45020768,-0.6740898,114.44454,48.028847,7.0045943,CHU
1341143252992.0,2.1272308826446533,-0.24864475429058075,-5.28074312210083,7.216031551361084,-1.4484012126922607,-0.40958515,-0.6640105,114.46805,48.372906,7.2083673,CHU
1341148233728.0,2.1322414875030518,-0.21326878666877747,-5.335169792175293,7.155957221984863,-1.442601203918457,-0.40378192,-0.64476824,114.5083,48.75135,7.435267,CHU
1341153214464.0,2.137251377105713,-0.1757449060678482,-5.390106201171875,7.097444534301758,-1.4367305040359497,-0.41508293,-0.5693264,114.54434,49.12756,7.63703,CHU
1341158326272.0,2.142261505126953,-0.13583101332187653,-5.44512414932251,7.0406694412231445,-1.4310022592544556,-0.40042216,-0.47128254,114.57282,49.505764,7.848570299999999,CHU
1341163307008.0,2.147270917892456,-0.0940139964222908,-5.499839782714844,6.985538959503174,-1.4255722761154175,-0.37812558,-0.38515055,114.59247,49.88217,8.040263000000001,CHU
1341168418816.0,2.1522810459136963,-0.05075659230351448,-5.553872108459473,6.9319539070129395,-1.4206359386444092,-0.36010507,-0.31398472,114.592155,50.27606,8.23382,CHU
1341173399552.0,2.157290458679199,-0.006564812269061804,-5.606832027435303,6.879667282104492,-1.4163658618927002,-0.35002577,-0.29016098,114.59283,50.675217,8.410638,CHU
1341178380288.0,2.162299156188965,0.03800096735358238,-5.6582722663879395,6.828312873840332,-1.4129081964492798,-0.3555236,-0.28405234,114.58952,51.085373,8.5705805,CHU
1341183361024.0,2.167307138442993,0.08250077813863754,-5.7078537940979,6.777533531188965,-1.4103775024414062,-0.36193767,-0.28924468,114.579025,51.501957,8.719273,CHU
1341188341760.0,2.172314405441284,0.12657754123210907,-5.755311965942383,6.726991653442383,-1.4088261127471924,-0.34208453,-0.29016098,114.57708999999998,51.921726,8.858317999999997,CHU
1341193453568.0,2.1773223876953125,0.1699838787317276,-5.800460338592529,6.676326274871826,-1.4082255363464355,-0.31306845,-0.27977628,114.55828,52.354233,8.984458,CHU
1341198434304.0,2.1823298931121826,0.21257852017879486,-5.843222141265869,6.625281810760498,-1.4085325002670288,-0.30726522,-0.27366763,114.54569,52.785656,9.109402,CHU
1341203415040.0,2.1873366832733154,0.254262775182724,-5.883652687072754,6.573678016662598,-1.4096693992614746,-0.29932398,-0.269697,114.52955,53.22606999999999,9.217985,CHU
1341208395776.0,2.19234299659729,0.29497477412223816,-5.921904563903809,6.521416187286377,-1.4115225076675415,-0.30115658,-0.258396,114.516396,53.65574300000001,9.322069,CHU
1341213376512.0,2.1973485946655273,0.3347015678882599,-5.958250522613525,6.468445301055908,-1.4140479564666748,-0.3051272,-0.25259277,114.49843,54.102016000000006,9.431004,CHU
1341218357248.0,2.2023537158966064,0.3734884560108185,-5.9931206703186035,6.414765357971191,-1.417197346687317,-0.31184670000000003,-0.24617869,114.48358,54.533386,9.535893,CHU
1341223337984.0,2.2073585987091064,0.4114038050174713,-6.026919364929199,6.360394477844238,-1.4209915399551392,-0.32070425,-0.2406809,114.46123500000002,54.98674000000001,9.644708,CHU
1341228318720.0,2.2123630046844482,0.448538213968277,-6.060026168823242,6.305370330810547,-1.4254701137542725,-0.32406402,-0.23243423,114.44339,55.43268199999999,9.749472,CHU
1341233299456.0,2.217366933822632,0.4849432408809662,-6.092794418334961,6.249719142913818,-1.4306740760803223,-0.32498032,-0.23579398,114.42523,55.900326,9.865966,CHU
1341238280192.0,2.2223706245422363,0.5206300616264343,-6.12555456161499,6.193456649780273,-1.436605453491211,-0.31826079999999995,-0.24404067,114.413994,56.3623,9.978797,CHU
1341243392000.0,2.2273781299591064,0.5556285977363586,-6.15864896774292,6.136439323425293,-1.4432379007339478,-0.30909783,-0.26267207,114.3985,56.84906,10.106559,CHU
1341248372736.0,2.2323849201202393,0.5899450778961182,-6.192148685455322,6.0786566734313965,-1.4504971504211426,-0.30879238,-0.27397305,114.38916,57.32471999999999,10.2323065,CHU
1341253353472.0,2.2373909950256348,0.6236011385917664,-6.226198196411133,6.019997596740723,-1.4582931995391846,-0.31734450000000003,-0.27916542,114.38449,57.81554000000001,10.364068,CHU
1341258465280.0,2.2423973083496094,0.6566225290298462,-6.260927200317383,5.960350513458252,-1.4665238857269287,-0.32467487,-0.3032946,114.39085,58.287575,10.500285,CHU
1341263446016.0,2.247403383255005,0.689049482345581,-6.296154499053955,5.899782657623291,-1.4751416444778442,-0.33994650000000004,-0.31887165,114.398315,58.74851999999999,10.635317,CHU
1341268426752.0,2.252408742904663,0.7209213376045227,-6.331717014312744,5.838352680206299,-1.4840774536132812,-0.34666604,-0.31215215,114.41421499999998,59.23559,10.779689,CHU
1341273407488.0,2.257413387298584,0.7522451877593994,-6.3674468994140625,5.775995254516602,-1.4932929277420044,-0.36896262,-0.29901853,114.42919,59.70976,10.927215,CHU
1341278388224.0,2.2624175548553467,0.7830158472061157,-6.4031853675842285,5.712606906890869,-1.5027050971984863,-0.37384954,-0.28985557,114.45192,60.16359,11.06926,CHU
1341283368960.0,2.267421007156372,0.8132163286209106,-6.438830375671387,5.648129940032959,-1.5122607946395874,-0.37873647,-0.28741209999999995,114.463554,60.626587,11.2189045,CHU
1341288349696.0,2.2724239826202393,0.8428266048431396,-6.474310398101807,5.582528114318848,-1.521898865699768,-0.38973203,-0.28405234,114.47647,61.07102,11.364,CHU
1341293330432.0,2.2774264812469482,0.8718304634094238,-6.509561538696289,5.51577615737915,-1.5315712690353394,-0.41508293,-0.28099802,114.47764,61.52721999999999,11.517698,CHU
1341298311168.0,2.282428741455078,0.9002150297164917,-6.544527530670166,5.447850227355957,-1.5412122011184692,-0.43676865,-0.28893927,114.48341,61.962498,11.670569,CHU
1341303291904.0,2.28743052482605,0.9279781579971313,-6.579226493835449,5.378779888153076,-1.550704002380371,-0.45356745,-0.3032946,114.473595,62.38612,11.823209,CHU
1341308272640.0,2.2924320697784424,0.9551255702972412,-6.613728046417236,5.308626174926758,-1.5599907636642456,-0.47739118,-0.32559118,114.46365,62.79320500000001,11.97956,CHU
1341313253376.0,2.297433614730835,0.9816638827323914,-6.648094177246094,5.237448215484619,-1.5689443349838257,-0.48716503,-0.3463606,114.47369,63.19489300000001,12.147335,CHU
1341318234112.0,2.3024349212646484,1.0076006650924683,-6.682379245758057,5.165304660797119,-1.5774879455566406,-0.5006041,-0.37995818,114.48552,63.575428,12.323101,CHU
1341323214848.0,2.3074357509613037,1.0330095291137695,-6.716527938842773,5.092308521270752,-1.585521936416626,-0.52015173,-0.4111123,114.45783,63.95608000000001,12.493731,CHU
1341328195584.0,2.312436103820801,1.05803644657135,-6.750368595123291,5.0186262130737305,-1.5929591655731201,-0.571159,-0.43188173,114.425835,64.31043000000001,12.670528,CHU
1341333176320.0,2.3174359798431396,1.0828136205673218,-6.783748626708984,4.944408893585205,-1.5997381210327148,-0.6151413,-0.43768495,114.39211,64.67179,12.860577,CHU
1341338157056.0,2.3224356174468994,1.1074610948562622,-6.816532135009766,4.869792461395264,-1.6058270931243896,-0.65240407,-0.4447099,114.35347,65.00589000000001,13.055134,CHU
1341343137792.0,2.327434778213501,1.1321228742599487,-6.848577499389648,4.794885635375977,-1.6112171411514282,-0.6627888000000001,-0.44623706,114.29762,65.3282,13.2464905,CHU
1341348118528.0,2.3324337005615234,1.156975507736206,-6.879732131958008,4.719765663146973,-1.6159298419952393,-0.67011917,-0.43096542,114.236404,65.63266,13.43232,CHU
1341353099264.0,2.337432384490967,1.1821728944778442,-6.909916400909424,4.644525051116943,-1.6199517250061035,-0.6936375,-0.4196644000000001,114.16004,65.93130500000001,13.63681,CHU
1341358211072.0,2.342430830001831,1.2078498601913452,-6.939117908477783,4.569268703460693,-1.623260736465454,-0.7315111,-0.38973203,114.07955,66.2167,13.827341,CHU
1341363191808.0,2.347429037094116,1.234109878540039,-6.9674248695373535,4.494128227233887,-1.6258217096328735,-0.7870999,-0.3491095,113.98231,66.49381,14.02537,CHU
1341368172544.0,2.3524270057678223,1.2610300779342651,-6.995035171508789,4.4192657470703125,-1.6275678873062134,-0.8127562,-0.301462,113.88496,66.75361,14.207026,CHU
1341373284352.0,2.3574249744415283,1.2886838912963867,-7.022155284881592,4.34475040435791,-1.6285042762756348,-0.81092364,-0.23732115,113.76652,67.01968000000001,14.381976000000002,CHU
1341378396160.0,2.362424850463867,1.3171720504760742,-7.049045085906982,4.27050256729126,-1.628678321838379,-0.79198676,-0.1777618,113.648155,67.27258,14.539249,CHU
1341383376896.0,2.367424488067627,1.3465303182601929,-7.075946807861328,4.196441173553467,-1.628151297569275,-0.77091193,-0.07696902,113.514114,67.54095,14.667775,CHU
1341388357632.0,2.3724241256713867,1.3768415451049805,-7.103270053863525,4.122321128845215,-1.6270147562026978,-0.700357,-0.032070424,113.40609,67.79727,14.784179,CHU
1341393338368.0,2.3774235248565674,1.4081484079360962,-7.131326675415039,4.047924995422363,-1.6253013610839844,-0.6068946,0.058948494,113.29362,68.08124000000001,14.865767000000002,CHU
1341398319104.0,2.382422924041748,1.4403955936431885,-7.160222053527832,3.97301983833313,-1.6230281591415405,-0.5332854,0.14874569,113.19946000000002,68.36121999999999,14.927737,CHU
1341403430912.0,2.387423276901245,1.4734735488891602,-7.190067291259766,3.897371530532837,-1.6201876401901245,-0.44990227,0.24404067,113.12651,68.66811,14.97127,CHU
1341408411648.0,2.392423391342163,1.5065040588378906,-7.220953464508057,3.8208730220794678,-1.6167876720428467,-0.39553526,0.310625,113.06908,68.97125,14.9931555,CHU
1341413523456.0,2.3974244594573975,1.5386167764663696,-7.252980709075928,3.743389844894409,-1.6127989292144775,-0.37110063,0.33536503,113.02517,69.29195,15.002606,CHU
1341418504192.0,2.4024252891540527,1.56952965259552,-7.28579044342041,3.665231704711914,-1.6082096099853516,-0.3915646,0.3371976,112.98813,69.6042,14.999882,CHU
1341423484928.0,2.407425880432129,1.5989750623703003,-7.319049835205078,3.586677312850952,-1.603016972541809,-0.43066,0.3100141,112.92255,69.94484,14.966169,CHU
1341428465664.0,2.412426471710205,1.626975417137146,-7.352547645568848,3.5079784393310547,-1.597242832183838,-0.50335294,0.29077184,112.84828,70.26886,14.935019,CHU
1341433446400.0,2.417426824569702,1.653576374053955,-7.386101722717285,3.42936110496521,-1.5908962488174438,-0.58093286,0.2593123,112.77113,70.56451,14.918765,CHU
1341438427136.0,2.42242693901062,1.6789742708206177,-7.419550895690918,3.3509480953216553,-1.583954930305481,-0.67164636,0.22357668,112.66763,70.844505,14.902196,CHU
1341443407872.0,2.427426815032959,1.7033989429473877,-7.452751636505127,3.272822856903076,-1.5764516592025757,-0.75625116,0.19303341,112.551575,71.10514,14.897395,CHU
1341448519680.0,2.4324285984039307,1.7271485328674316,-7.485620021820068,3.1949939727783203,-1.568359375,-0.83016586,0.17715092,112.377754,71.3649,14.895268,CHU
1341453500416.0,2.4374301433563232,1.750468373298645,-7.518121242523193,3.1174819469451904,-1.5596458911895752,-0.9126327,0.16676621,112.1864,71.602646,14.904195,CHU
1341458481152.0,2.4424312114715576,1.7735735177993774,-7.5502424240112305,3.040374279022217,-1.5502711534500122,-0.9831876,0.15882497,111.99389,71.81342,14.930928,CHU
1341463461888.0,2.447432279586792,1.7966233491897583,-7.5819854736328125,2.963834762573242,-1.5401673316955566,-1.0497719,0.15577064,111.78672,72.00296,14.960925,CHU
1341468442624.0,2.4524331092834473,1.8198515176773071,-7.613448619842529,2.88785457611084,-1.5293285846710205,-1.1016954,0.14263703,111.53657,72.19306999999998,15.004577,CHU
1341473423360.0,2.4574337005615234,1.8435572385787964,-7.6448140144348145,2.8122718334198,-1.5176962614059448,-1.0751228000000002,0.13652839,111.29839,72.36106,15.043047,CHU
1341478404096.0,2.4624338150024414,1.8679516315460205,-7.676187515258789,2.7370553016662598,-1.505181908607483,-0.97341377,0.12186762,111.06272,72.511635,15.087091,CHU
1341483384832.0,2.4674339294433594,1.8931372165679932,-7.707568645477295,2.662368059158325,-1.49173903465271,-0.91446525,0.09712757,110.83138999999998,72.6419,15.132964,CHU
1341488365568.0,2.4724338054656982,1.9191577434539795,-7.738945007324219,2.5883965492248535,-1.4773894548416138,-0.83077675,0.090713486,110.640076,72.76035999999998,15.188267000000002,CHU
1341493346304.0,2.477433443069458,1.9459093809127808,-7.770270347595215,2.515460729598999,-1.462162971496582,-0.75991637,0.07849618,110.47056,72.8555,15.246512,CHU
1341498327040.0,2.4824328422546387,1.9733014106750488,-7.801505088806152,2.44382905960083,-1.4461461305618286,-0.7089091,0.05955936,110.31162,72.94304,15.306565,CHU
1341503307776.0,2.4874322414398193,2.001265525817871,-7.832620143890381,2.373708963394165,-1.4295088052749634,-0.6453791,0.047036625,110.183304,73.02189,15.36173,CHU
1341508288512.0,2.492431640625,2.029721260070801,-7.863594055175781,2.3052849769592285,-1.4124720096588135,-0.57635134,0.022296581,110.05618,73.09654,15.413131,CHU
1341513269248.0,2.4974310398101807,2.058474540710449,-7.89442777633667,2.2387373447418213,-1.3951481580734253,-0.52015173,0.010079277,109.94936,73.16356999999998,15.460167000000002,CHU
1341518381056.0,2.502432107925415,2.0873327255249023,-7.925138473510742,2.1742405891418457,-1.3776344060897827,-0.47158796,-0.013439035,109.85491,73.22187,15.510942000000002,CHU
1341523361792.0,2.5074329376220703,2.1160480976104736,-7.95577335357666,2.1118645668029785,-1.3599212169647217,-0.42119157,-0.018020526,109.78209,73.27403000000002,15.555771,CHU
1341528342528.0,2.5124335289001465,2.144378185272217,-7.986391067504883,2.0516796112060547,-1.3419339656829834,-0.3998113,-0.022296581,109.69901000000002,73.32395,15.594166,CHU
1341533323264.0,2.5174341201782227,2.172058582305908,-8.016987800598145,1.9937984943389893,-1.3236244916915894,-0.40133846,-0.02321288,109.62827,73.36725600000003,15.630493,CHU
1341538304000.0,2.5224342346191406,2.198850154876709,-8.047540664672852,1.938323974609375,-1.3050410747528076,-0.4092797,-0.014049901000000002,109.56552,73.40666999999998,15.663262,CHU
1341543284736.0,2.5274343490600586,2.2244138717651367,-8.078367233276367,1.8850188255310059,-1.2862058877944946,-0.44226643,-0.010995574,109.47534,73.45201,15.681906,CHU
1341548265472.0,2.5324342250823975,2.248399019241333,-8.109896659851074,1.8335177898406982,-1.2671663761138916,-0.45662177,-0.019242255,109.392204,73.49316,15.700145999999998,CHU
1341553246208.0,2.5374338626861572,2.270631790161133,-8.142298698425293,1.7832728624343872,-1.2479822635650635,-0.44409904,-0.01985312,109.28486,73.54761500000002,15.699106,CHU
1341558226944.0,2.542433500289917,2.291071653366089,-8.175549507141113,1.7336010932922363,-1.2286674976348877,-0.42730024,-0.020463986,109.178894,73.59455,15.700462,CHU
1341563207680.0,2.5474331378936768,2.3097164630889893,-8.209486961364746,1.6840614080429077,-1.2092046737670898,-0.38515055,-0.021685716,109.06928,73.664185,15.679972,CHU
1341568319488.0,2.5524327754974365,2.3265833854675293,-8.243891716003418,1.6343426704406738,-1.1895455121994019,-0.3390302,-0.008857545999999999,108.96991,73.73132,15.6558,CHU
1341573300224.0,2.5574324131011963,2.3416924476623535,-8.278514862060547,1.5842456817626953,-1.1695901155471802,-0.27305678,-0.00030543262000000003,108.88828,73.813034,15.620935,CHU
1341578280960.0,2.562431812286377,2.355069398880005,-8.313092231750488,1.5336679220199585,-1.1493010520935059,-0.23243423,0.009162978,108.81675,73.89245,15.583047,CHU
1341583261696.0,2.5674309730529785,2.3667900562286377,-8.347464561462402,1.482893943786621,-1.1286455392837524,-0.15943582,0.016798794,108.768974,73.97242,15.544629999999998,CHU
1341588373504.0,2.5724308490753174,2.3769514560699463,-8.381525993347168,1.4323936700820923,-1.1076873540878296,-0.10751228,0.022296581,108.73054,74.04947,15.505271,CHU
1341593354240.0,2.577430486679077,2.3856558799743652,-8.41502857208252,1.3824760913848877,-1.086467981338501,-0.081855945,0.030848695,108.71263,74.124596,15.464681,CHU
1341598334976.0,2.582430124282837,2.3930022716522217,-8.447649002075195,1.3333728313446045,-1.0650643110275269,-0.10598512,0.04428773,108.69778,74.199135,15.42265,CHU
1341603315712.0,2.5874297618865967,2.399050235748291,-8.479242324829102,1.2853212356567383,-1.0435372591018677,-0.105068825,0.054367006,108.67261,74.27806,15.371613,CHU
1341608296448.0,2.5924293994903564,2.403836965560913,-8.509772300720215,1.2385497093200684,-1.021957278251648,-0.11026118,0.053145275,108.641335,74.35394000000002,15.322524,CHU
1341613277184.0,2.597429037094116,2.4074738025665283,-8.5392484664917,1.1931939125061035,-1.000374674797058,-0.1142318,0.064751714,108.603546,74.43137,15.268769,CHU
1341618257920.0,2.602428436279297,2.4101152420043945,-8.567710876464844,1.1493265628814697,-0.9788570404052734,-0.13408493,0.0711658,108.56234,74.50403,15.219085,CHU
1341623369728.0,2.6074419021606445,2.4119467735290527,-8.595210075378418,1.1070976257324219,-0.9575064778327942,-0.17959438,0.08093964,108.45218,74.64003000000002,15.12283,CHU
1341628481536.0,2.6124677658081055,2.413092851638794,-8.621781349182129,1.0665477514266968,-0.9363741278648376,-0.19211712,0.08857546,108.39,74.70926,15.068767,CHU
1341633593344.0,2.617504835128784,2.413666248321533,-8.647459983825684,1.0277081727981567,-0.9154808521270752,-0.19730948,0.1001819,108.323746,74.77807,15.014862,CHU
1341638705152.0,2.6225550174713135,2.4138970375061035,-8.672358512878418,0.9905065894126892,-0.894921064376831,-0.17562376,0.11056661,108.26425,74.84725999999998,14.960788,STD
1341643816960.0,2.6276133060455322,2.413966178894043,-8.696569442749023,0.9548371434211731,-0.8747488856315613,-0.15760323,0.11575896,108.204544,74.914734,14.90686,STD
1341648928768.0,2.632678985595703,2.414045810699463,-8.720158576965332,0.9205449223518372,-0.8549840450286865,-0.15424347,0.110872045,108.12644,74.980804,14.856863,STD
1341654040576.0,2.6377508640289307,2.4142651557922363,-8.743148803710938,0.8874539136886597,-0.835675060749054,-0.16187929,0.10354166,108.05323,75.04554,14.807799,STD
1341659152384.0,2.6428282260894775,2.4147279262542725,-8.765575408935547,0.8553128242492676,-0.8168382048606873,-0.172264,0.09621128,107.9863,75.09957,14.768654000000002,STD
1341664264192.0,2.6479103565216064,2.4155139923095703,-8.787487030029297,0.8237940669059753,-0.7984805703163147,-0.17318029999999998,0.08460484,107.92268,75.148125,14.734146,STD
1341669376000.0,2.65299654006958,2.416715145111084,-8.80889892578125,0.7926307916641235,-0.7805785536766052,-0.16676621,0.07971791,107.86529,75.18871999999998,14.707326,STD
1341674487808.0,2.6580862998962402,2.4184370040893555,-8.829790115356445,0.7616208791732788,-0.7631470561027527,-0.16096300000000002,0.0693332,107.81012,75.22282,14.686258,STD
1341679599616.0,2.6631786823272705,2.420759677886963,-8.850162506103516,0.7306140065193176,-0.7462031841278076,-0.13408493,0.06688975,107.74802,75.25518000000002,14.669182,STD
1341684711424.0,2.668273448944092,2.4237306118011475,-8.87006950378418,0.6995382905006409,-0.7297046184539795,-0.118202426,0.047647487,107.68755,75.27711,14.660393,STD
1341689823232.0,2.673369884490967,2.427309513092041,-8.889547348022461,0.6683417558670044,-0.7136337757110596,-0.10262536,0.05467244,107.63915,75.30195,14.649051,STD
1341694935040.0,2.6784677505493164,2.4313337802886963,-8.908610343933105,0.6369848847389221,-0.6979901790618896,-0.11484267,0.04795292,107.59016,75.31512,14.64735,STD
1341700046848.0,2.6835663318634033,2.435640573501587,-8.927298545837402,0.6054390072822571,-0.6827149987220764,-0.109650314,0.03940081,107.55639,75.32749,14.644727,STD
1341705158656.0,2.6886656284332275,2.440009832382202,-8.945746421813965,0.5736793875694275,-0.6677578091621399,-0.08582657,0.031154128,107.52709,75.3362,14.64407,STD
1341710270464.0,2.6937649250030518,2.444317102432251,-8.964025497436523,0.5417543649673462,-0.6531038284301758,-0.0693332,0.02076942,107.50151,75.34303,14.643949,STD
1341715382272.0,2.698864221572876,2.4485702514648438,-8.982121467590332,0.509826123714447,-0.6387727856636047,-0.056505036,0.009468411,107.48404,75.345566,14.646496,STD
1341720494080.0,2.703963279724121,2.4527761936187744,-9.000021934509277,0.47803911566734314,-0.6247553825378418,-0.05467244,0.009468411,107.47031,75.35354,14.642268,STD
1341725605888.0,2.709061861038208,2.4569411277770996,-9.017716407775879,0.44652268290519714,-0.6110424399375916,-0.04734206,0.00580322,107.46386,75.35583000000003,14.642475,STD
1341730717696.0,2.7141594886779785,2.461045503616333,-9.035201072692871,0.41540437936782837,-0.5976690649986267,-0.04428773,0.004886922,107.45441,75.36237,14.637337,STD
1341735829504.0,2.7192561626434326,2.465009927749634,-9.052484512329102,0.3848300874233246,-0.5846111178398132,-0.043982297,0.009162978,107.44803,104.632095,14.632066,STD
1341740941312.0,2.724351644515991,2.468777656555176,-9.069568634033203,0.35491272807121277,-0.5718937516212463,-0.054061573,0.009162978,107.443236918384,104.633232044909,14.6328636807361,STD
1341746053120.0,2.7294459342956543,2.472454071044922,-9.086370468139648,0.3255734443664551,-0.5594908595085144,-0.05589417,-0.009468411,107.43844,104.63437,14.633662,STD
1341751164928.0,2.7345387935638428,2.4761455059051514,-9.102826118469238,0.2967497408390045,-0.5473842620849609,-0.05955936,-0.007941248,107.43288,104.63075,14.62859,STD
1341756276736.0,2.7396302223205566,2.4800660610198975,-9.118964195251465,0.26848331093788147,-0.5355116724967957,-0.04550946,-0.013133603,107.417366,104.62663,14.622405,STD
1341761388544.0,2.744719982147217,2.484395742416382,-9.134809494018555,0.2408110797405243,-0.5238556265830994,-0.056505036,-0.018020526,107.392975,104.62846,14.621153,STD
1341766500352.0,2.7498080730438232,2.489035129547119,-9.150341987609863,0.21381346881389618,-0.5123798847198486,-0.0720821,-0.0125227375,107.37296,104.62932,14.618564,STD
1341771612160.0,2.7548959255218506,2.4938902854919434,-9.165541648864746,0.18756654858589172,-0.5010462999343872,-0.0888809,-0.019547688,107.35133,104.639244,14.624484,STD
1341776723968.0,2.759981632232666,2.4988853931427,-9.180395126342773,0.16212373971939087,-0.48984113335609436,-0.092240654,-0.026267206,107.33063,104.647865,14.628735999999998,STD
1341781835776.0,2.7650651931762695,2.5039479732513428,-9.194890022277832,0.13753648102283478,-0.47876638174057007,-0.09773844,-0.030848695,107.3058,104.65799,14.634209,STD
1341786947584.0,2.7701468467712402,2.5089516639709473,-9.209001541137695,0.11385461688041687,-0.46783995628356934,-0.11484267,-0.034513887,107.27288,104.66267,14.633602,STD
1341792059392.0,2.775226354598999,2.5137600898742676,-9.22270393371582,0.09112214297056198,-0.45706015825271606,-0.11026118,-0.03573562,107.24629,104.668106,14.63372,STD
1341797171200.0,2.780303716659546,2.518251657485962,-9.23597526550293,0.06937547028064728,-0.446452796459198,-0.10903945,-0.04337143,107.21112,104.671875,14.632210999999998,STD
1341802283008.0,2.785378932952881,2.5223186016082764,-9.248796463012695,0.04864448681473732,-0.43604397773742676,-0.13164146,-0.034513887,107.171776,104.67151,14.626344,STD
1341807394816.0,2.790452480316162,2.5258936882019043,-9.261171340942383,0.028828322887420654,-0.4258609116077423,-0.14782938,-0.04062254,107.1263,104.67895,14.627537,STD
1341812506624.0,2.7955238819122314,2.5289525985717773,-9.273123741149902,0.009706410579383373,-0.4158995449542999,-0.15424347,-0.025045475,107.07892,104.6778,14.619979,STD
1341817618432.0,2.800593137741089,2.5314626693725586,-9.284565925598145,-0.00892471894621849,-0.406164288520813,-0.1685988,-0.032986723,107.01708,104.678444,14.614529999999998,STD
1341822730240.0,2.8056604862213135,2.5333807468414307,-9.295265197753906,-0.027248872444033623,-0.39666369557380676,-0.16615535,-0.033292156,106.960205,104.67283,14.602837,STD
1341827842048.0,2.810725688934326,2.534679651260376,-9.305069923400879,-0.04542262852191925,-0.3874116539955139,-0.17073683,-0.032070424,106.89692,104.668686,14.590924,STD
1341832953856.0,2.815788984298706,2.5353498458862305,-9.313933372497559,-0.06357793509960175,-0.37840259075164795,-0.17440203,-0.030848695,106.83655,104.66493,14.579435,STD
1341838065664.0,2.820850133895874,2.535386085510254,-9.321828842163086,-0.08182378113269806,-0.36963167786598206,-0.17715092,-0.027183503,106.7812,104.662285,14.567552,STD
1341843177472.0,2.8259146213531494,2.534761667251587,-9.328723907470703,-0.10030277073383331,-0.36112862825393677,-0.19303341,-0.022296581,106.72284,104.65976,14.555148,STD
1341848289280.0,2.8309764862060547,2.533540964126587,-9.334637641906738,-0.11900406330823898,-0.3529123365879059,-0.1966986,-0.01282817,106.67371,104.6633,14.548041,STD
1341853270016.0,2.836035966873169,2.5318164825439453,-9.339532852172852,-0.13793276250362396,-0.34497466683387756,-0.20311269,-0.015271631,106.62098,104.669205,14.542907,STD
1341858250752.0,2.841093063354492,2.529709577560425,-9.343400955200195,-0.15707209706306458,-0.3373560905456543,-0.20463985,-0.013439035,106.57364,104.673004,14.533401,STD
1341863231488.0,2.8461480140686035,2.527393341064453,-9.346273422241211,-0.17637135088443756,-0.3300529718399048,-0.19975294,-0.004276057,106.52832,104.675316,14.522721,STD
1341868212224.0,2.851200580596924,2.525024890899658,-9.348214149475098,-0.19576965272426605,-0.3230697810649872,-0.19730948,0.004886922,106.47941000000002,104.68338,14.51535,STD
1341873324032.0,2.8562512397766113,2.522761344909668,-9.34938907623291,-0.21516023576259613,-0.31640616059303284,-0.18417588,0.0070249503,106.4372,104.691376,14.507767,STD
1341878304768.0,2.861299514770508,2.520738363265991,-9.349947929382324,-0.23444876074790955,-0.3100782632827759,-0.18753563,0.006414085,106.39532,104.70491,14.504392,STD
1341883285504.0,2.8663458824157715,2.5190818309783936,-9.350029945373535,-0.25354957580566406,-0.3040570914745331,-0.1853976,0.0070249503,106.36088,104.717354,14.500429,STD
1341888266240.0,2.8713903427124023,2.517893075942993,-9.34974479675293,-0.2723754048347473,-0.29831579327583313,-0.17043139999999998,0.008857545999999999,106.31732,104.72754,14.491856,STD
1341893378048.0,2.8764331340789795,2.5172433853149414,-9.349149703979492,-0.2908035218715668,-0.29286935925483704,-0.18173242,0.0033597588,106.26872,104.74061,14.485172,STD
1341898358784.0,2.881474494934082,2.517192840576172,-9.348297119140625,-0.30872654914855957,-0.28771743178367615,-0.18478674,0.009468411,106.22975,104.75758,14.483755,STD
1341903339520.0,2.886514186859131,2.5177910327911377,-9.347233772277832,-0.3260520398616791,-0.2828449606895447,-0.18081611,0.011911872,106.19134,104.777435,14.484882999999998,STD
1341908320256.0,2.891552209854126,2.5190837383270264,-9.346002578735352,-0.34269601106643677,-0.27827757596969604,-0.183565,0.02107485,106.147224,104.79793,14.48482,STD
1341913432064.0,2.896589756011963,2.5210299491882324,-9.344780921936035,-0.35864225029945374,-0.2740173935890198,-0.18081611,0.016187929,106.107666,104.8213,14.488184,STD
1341918412800.0,2.901625633239746,2.5235564708709717,-9.343756675720215,-0.37390512228012085,-0.27004116773605347,-0.19700404,-0.0061086523,106.06348,104.84737,14.493639000000002,STD
1341923393536.0,2.9066600799560547,2.5265958309173584,-9.343110084533691,-0.3884984850883484,-0.2663342356681824,-0.18936823,-0.0143553335,106.01908,104.881,14.508267000000002,STD
1341928374272.0,2.9116928577423096,2.5300862789154053,-9.343001365661621,-0.4024367332458496,-0.2628687620162964,-0.17287487,-0.022907447,105.97409,104.91978,14.528625,STD
1341933355008.0,2.91672420501709,2.533942461013794,-9.343546867370605,-0.4157634377479553,-0.2596651017665863,-0.15118915,-0.01985312,105.936325,104.95602,14.545799,STD
1341938335744.0,2.9217543601989746,2.5380752086639404,-9.344837188720703,-0.4285309314727783,-0.25666528940200806,-0.12767084,-0.023518313,105.90531,104.99365,14.566993,STD
1341943316480.0,2.926783323287964,2.542382001876831,-9.346829414367676,-0.4407695233821869,-0.253834992647171,-0.11178834,-0.025961773,105.87393,105.02299,14.579028,STD
1341948297216.0,2.9318108558654785,2.5467615127563477,-9.34942626953125,-0.4524993300437927,-0.251145601272583,-0.09773844,-0.018936822,105.85043,105.04917,14.589393,STD
1341953277952.0,2.9368371963500977,2.551121950149536,-9.352537155151367,-0.463739812374115,-0.2485588937997818,-0.08277224,-0.015271631,105.82749,105.07577,14.60081,STD
1341958258688.0,2.9418625831604004,2.555380344390869,-9.356080055236816,-0.4745098054409027,-0.2460932582616806,-0.06811147,0.004886922,105.81024,105.09613,14.605456,STD
1341963239424.0,2.9468870162963867,2.5594475269317627,-9.360029220581055,-0.484835147857666,-0.2437014877796173,-0.057421334,0.013744468,105.79709,105.11573,14.612229999999998,STD
1341968351232.0,2.9519102573394775,2.56322979927063,-9.364404678344727,-0.49474722146987915,-0.2413419485092163,-0.053450707,-0.0036651916,105.78705,105.13728,14.620845999999998,STD
1341973331968.0,2.956932544708252,2.5666584968566895,-9.369095802307129,-0.5041787028312683,-0.23897896707057953,-0.048258353,-0.00061086525,105.785255,105.1428,14.615415,STD
1341978312704.0,2.96195387840271,2.5696792602539062,-9.373933792114258,-0.5130169987678528,-0.23662827908992767,-0.028099801,0.014966198,105.78953,105.14973,14.611828,STD
1341983293440.0,2.9669742584228516,2.5723090171813965,-9.378829002380371,-0.5212020874023438,-0.23426319658756256,-0.006414085,0.01863139,105.795006,105.15294,14.606938,STD
1341988274176.0,2.9719936847686768,2.574601173400879,-9.383734703063965,-0.5287045836448669,-0.23188064992427826,0.008857545999999999,0.02443461,105.805275,105.15224,14.597646,STD
1341993254912.0,2.9770123958587646,2.5766046047210693,-9.388608932495117,-0.5354992151260376,-0.22947794198989868,0.017104227,0.0290161,105.80638,105.14411,14.582118,STD
1341998235648.0,2.982030153274536,2.5783638954162598,-9.393413543701172,-0.5415651798248291,-0.22702060639858246,0.025961773,0.030543262,105.81249,105.13454,14.5667515,STD
1342003216384.0,2.987046957015991,2.5799474716186523,-9.398123741149902,-0.5468440651893616,-0.2245013415813446,0.037873644,0.03145956,105.82218,105.12469,14.551117,STD
1342008197120.0,2.992063045501709,2.5814342498779297,-9.402722358703613,-0.5512589812278748,-0.221906840801239,0.042760565999999986,0.032986723,105.83253,105.11341000000002,14.535529,STD
1342013308928.0,2.9970784187316895,2.582853078842163,-9.407217025756836,-0.5548272132873535,-0.21923233568668365,0.043066,0.02565634,105.84189,105.10334,14.524051,STD
1342018289664.0,3.0020930767059326,2.584193229675293,-9.41163444519043,-0.5576403737068176,-0.21651452779769897,0.042760565999999986,0.03023783,105.852615,105.090454,14.509342000000002,STD
1342023270400.0,3.0071072578430176,2.585413932800293,-9.416020393371582,-0.5597354173660278,-0.21373873949050903,0.039095376,0.027183503,105.84745,105.08025,14.49938,STD
1342028251136.0,3.0121207237243652,2.5864574909210205,-9.420432090759277,-0.561114490032196,-0.21088936924934387,0.040927973,0.021991149,105.84393,105.070244,14.489253,STD
1342033231872.0,3.0171337127685547,2.587270498275757,-9.424877166748047,-0.5618224740028381,-0.20796392858028412,0.046731193,0.018020526,105.83588,105.06037,14.478685999999998,STD
1342038212608.0,3.022145986557007,2.587804079055786,-9.429326057434082,-0.5619357824325562,-0.20495954155921936,0.051923547,0.018325957,105.828285,105.050224,14.468758,STD
1342043193344.0,3.0271575450897217,2.5880165100097656,-9.43375301361084,-0.5615243911743164,-0.2019120156764984,0.045814894,0.015271631,105.8152,105.03443,14.453193,STD
1342048305152.0,3.0321686267852783,2.58786940574646,-9.438135147094727,-0.5606528520584106,-0.1988353431224823,0.05131268,0.01282817,105.80713,105.0179,14.438252,STD
1342053285888.0,3.0371789932250977,2.5873312950134277,-9.442451477050781,-0.559380054473877,-0.1957048624753952,0.063224554,0.010690141499999998,105.79917,105.00212,14.424612,STD
1342058266624.0,3.042188882827759,2.5863733291625977,-9.446682929992676,-0.5577600002288818,-0.19250814616680145,0.053145275,0.011911872,105.78645,104.98682,14.410822,STD
1342063247360.0,3.0471982955932617,2.58500337600708,-9.450807571411133,-0.5558247566223145,-0.18929323554039001,0.046731193,0.0061086523,105.77051000000002,104.98125,14.405748,STD
1342068359168.0,3.0522074699401855,2.5832879543304443,-9.454798698425293,-0.553572416305542,-0.18606162071228027,0.03604105,0.00580322,105.750626,104.97216,14.398676000000002,STD
1342073339904.0,3.057216167449951,2.5812876224517822,-9.458632469177246,-0.5510028600692749,-0.18282680213451385,0.04062254,0.0067195175,105.732124,104.958786,14.385971,STD
1342078320640.0,3.0622243881225586,2.5790579319000244,-9.462287902832031,-0.5481157898902893,-0.17959743738174438,0.034513887,-0.0012217305,105.70745,104.94792,14.375826000000002,STD
1342083301376.0,3.067232131958008,2.5766398906707764,-9.465749740600586,-0.544916570186615,-0.1763821393251419,0.031154128,-0.00580322,105.6896,104.929665,14.3584385,STD
1342088282112.0,3.072239398956299,2.5740466117858887,-9.469015121459961,-0.5414204001426697,-0.1731686294078827,0.024129177,-0.004581489,105.66904,104.91193,14.341993,STD
1342093262848.0,3.0772461891174316,2.5712954998016357,-9.472086906433105,-0.5376490950584412,-0.1699771136045456,0.016493361,-0.007330383,105.64594,104.898125,14.329872,STD
1342098374656.0,3.08225417137146,2.568424940109253,-9.474990844726562,-0.533656120300293,-0.1668117791414261,0.020463986,-0.01038471,105.624435,104.88354,14.317974,STD
1342103355392.0,3.0872621536254883,2.5654666423797607,-9.477744102478027,-0.5294904112815857,-0.1637188047170639,0.024740042,-0.009468411,105.599205,104.86879,14.304436,STD
1342108336128.0,3.0922698974609375,2.5624442100524902,-9.480324745178223,-0.5252305269241333,-0.16066910326480865,0.023823744,-0.01160644,105.57373,104.85409,14.29297,STD
1342113316864.0,3.0972771644592285,2.5593791007995605,-9.482711791992188,-0.5209475755691528,-0.15766598284244537,0.028710667,-0.008552114,105.55205,104.840546,14.280763,STD
1342118297600.0,3.1022841930389404,2.556290626525879,-9.48488712310791,-0.5167056918144226,-0.1547391563653946,0.032070424,-0.010995574,105.52975,104.8293,14.270983,STD
1342123278336.0,3.107290744781494,2.5531959533691406,-9.486837387084961,-0.5125614404678345,-0.15187513828277588,0.03390302,-0.013133603,105.50212,104.82625,14.270393,STD
1342128259072.0,3.1122968196868896,2.550097703933716,-9.488540649414062,-0.5085979700088501,-0.14907729625701904,0.03726278,-0.01282817,105.4763,104.824234,14.269854,STD
1342133239808.0,3.117302656173706,2.5469908714294434,-9.48997688293457,-0.5049063563346863,-0.14635364711284637,0.047036625,-0.013439035,105.45319,104.822754,14.270292,STD
1342138220544.0,3.1223082542419434,2.5438437461853027,-9.491166114807129,-0.501477837562561,-0.14369121193885803,0.046120327,-0.016187929,105.429016,104.82332,14.270787,STD
1342143332352.0,3.1273133754730225,2.5406172275543213,-9.492143630981445,-0.49826866388320923,-0.1410990059375763,0.04917465,-0.015577064,105.409325,104.82377,14.270732999999998,STD
1342148313088.0,3.1323182582855225,2.537271738052368,-9.492911338806152,-0.49524807929992676,-0.13857191801071167,0.050396383,-0.01282817,105.39159,104.82555,14.271187,STD
1342153293824.0,3.1373229026794434,2.533769369125366,-9.493453025817871,-0.4923931360244751,-0.13612596690654755,0.044593163,-0.011301007,105.37303,104.828125,14.271681,STD
1342158274560.0,3.142327308654785,2.530092716217041,-9.493772506713867,-0.4896766245365143,-0.133757084608078,0.044898596,-0.009162978,105.36117,104.82345,14.266892000000002,STD
1342163255296.0,3.1473312377929688,2.5262560844421387,-9.493906021118164,-0.4870632588863373,-0.13145792484283447,0.036957346,-0.007941248,105.345406,104.81901,14.261788,STD
1342168367104.0,3.152336835861206,2.5224149227142334,-9.493792533874512,-0.4844905436038971,-0.12922172248363495,0.034513887,-0.01160644,105.32769,104.81433,14.256468,STD
1342173347840.0,3.1573421955108643,2.51878023147583,-9.493329048156738,-0.4818969964981079,-0.1270378828048706,0.02565634,-0.005497787,105.306305,104.806465,14.247922,STD
1342178328576.0,3.162346839904785,2.5155656337738037,-9.49240779876709,-0.4792194962501526,-0.124925397336483,0.024129177,-0.012217305,105.28544,104.80263,14.24358,STD
1342183309312.0,3.167351245880127,2.512965679168701,-9.490930557250977,-0.4764002561569214,-0.12288979440927505,0.010690141499999998,-0.006414085,105.2592,104.79324,14.2337265,STD
1342188290048.0,3.1723551750183105,2.510887384414673,-9.488990783691406,-0.4734649956226349,-0.12090112268924713,-0.02107485,0.010995574,105.227394,104.78358,14.223802,STD
1342193270784.0,3.177358627319336,2.508838415145874,-9.486952781677246,-0.47055530548095703,-0.11895842850208282,-0.03481932,-0.00061086525,105.1969,104.781296,14.220772,STD
1342198251520.0,3.182361602783203,2.506507635116577,-9.48504638671875,-0.4677674174308777,-0.11705725640058517,-0.040011674,-0.018936822,105.16743999999998,104.79075,14.232575,STD
1342203232256.0,3.187364339828491,2.503838062286377,-9.483316421508789,-0.46513649821281433,-0.11521951109170914,-0.010079277,-0.007941248,105.1451,104.795555,14.239364000000002,STD
1342208212992.0,3.1923668384552,2.5008153915405273,-9.481790542602539,-0.4626699686050415,-0.11340653896331787,0.009162978,-0.005192355,105.11688999999998,104.792274,14.238992,STD
1342213324800.0,3.19736909866333,2.4975104331970215,-9.480464935302734,-0.46031904220581055,-0.11159662157297134,0.01282817,-0.00061086525,105.09354,104.786354,14.235260999999998,STD
1342218305536.0,3.202371120452881,2.493990182876587,-9.479330062866211,-0.45805174112319946,-0.10984577238559723,0.015271631,-0.004581489,105.07835,104.77706,14.227185999999998,STD
1342223286272.0,3.2073731422424316,2.490326404571533,-9.47835636138916,-0.4558922350406647,-0.10816583782434464,0.017104227,0.0018325958,105.06445,104.76227,14.215169,STD
1342228267008.0,3.2123749256134033,2.4865808486938477,-9.477514266967773,-0.45386311411857605,-0.10653688758611679,0.025045475,-0.0021380284,105.05205,104.75225,14.208316,STD
1342233247744.0,3.217376708984375,2.482785224914551,-9.476754188537598,-0.4519951343536377,-0.10496433079242706,0.03176499,0.00061086525,105.04021000000002,104.73988,14.197998000000002,STD
1342238359552.0,3.222379446029663,2.4789717197418213,-9.476033210754395,-0.45031458139419556,-0.10346934199333191,0.025350908,0.0061086523,105.01774,104.73651,14.1949,STD
1342243471360.0,3.2273828983306885,2.4751925468444824,-9.475375175476074,-0.4487936198711395,-0.10201861709356308,0.034513887,0.005192355,105.00205,104.73291,14.19331,STD
1342248583168.0,3.232387065887451,2.471491575241089,-9.474802017211914,-0.44740432500839233,-0.10062210261821747,0.012217305,0.0036651916,104.97462,104.730034,14.188732,STD
1342253563904.0,3.2373907566070557,2.467825412750244,-9.47431755065918,-0.4460795819759369,-0.0992477685213089,0.016798794,0.013133603,104.95831,104.722534,14.182093,STD
