timestamp,rel_time,acc_x,acc_y,acc_z,gyro_x,gyro_y,gyro_z,azimuth,pitch,roll,label
0.0,0.0,0.0,0.0,0.0,0.0,-0.005192355,0.028099801,7.083066499999999,76.68384,-4.792863400000001,STD
358750620000.0,1.4524427569995169e-05,0.001406210707500577,0.02937285415828228,-0.0011454035993665457,-0.00010231840860797092,0.0015271631,0.027183502999999998,7.0565643,76.55098000000001,-4.8183812999999995,STD
1070912300000.0,7.328273204620928e-05,0.004177639726549387,0.08769714087247849,-0.003422028850764036,-0.0003472683602012694,0.011911871999999999,0.02565634,7.034919,76.4185,-4.844563,STD
2125998300000.0,0.000204811614821665,0.008253766223788261,0.17412951588630676,-0.006799167953431606,-0.0007345668273046613,-0.0033597588,0.017104227,7.008144000000001,76.28634,-4.8678327,STD
3508747000000.0,0.00043584645027294755,0.013556431978940964,0.287434846162796,-0.011230714619159698,-0.0011596947442740202,-0.021991148999999998,0.009468411,6.983066,76.15021,-4.8918777,STD
5199650400000.0,0.0007909811683930457,0.019992148503661156,0.4260292053222656,-0.01665681228041649,-0.0016618225490674376,-0.04153884,-0.004276057,6.9540880000000005,76.01453000000001,-4.91125,STD
7175601700000.0,0.001292001223191619,0.02745511755347252,0.5880327820777893,-0.02300586737692356,-0.00202768761664629,-0.070249505,-0.004581489,6.916637,75.8699,-4.93083,STD
9410632000000.0,0.00195888290181756,0.03582944720983505,0.7713303565979004,-0.03019697777926922,-0.002641294151544571,-0.10934488,-0.0076358155,6.8715877999999995,75.72936999999999,-4.9441404,STD
11876683000000.0,0.002805201569572091,0.044995296746492386,0.9736325144767761,-0.038141973316669464,-0.0032638097181916237,-0.14660765,-0.005192355,6.8183746,75.57806,-4.9573480000000005,STD
14544391000000.0,0.0038448472041636705,0.05482744798064232,1.1925427913665771,-0.04674853757023811,-0.00392968999221921,-0.17654006,-0.013133603,6.7569103,75.42787,-4.9648465999999996,STD
17383826000000.0,0.005085713695734739,0.0652024894952774,1.425615668296814,-0.05592198669910431,-0.004416267853230238,-0.19486602,-0.014660766,6.687411,75.27049,-4.9731760000000005,STD
20365179000000.0,0.006543774623423815,0.07599205523729324,1.6704195737838745,-0.06556879729032516,-0.004980438854545355,-0.19792034,-0.015271631,6.6140419999999995,75.11287,-4.978572,STD
23459367000000.0,0.00820048339664936,0.0870937928557396,1.924564003944397,-0.0755944475531578,-0.00548054464161396,-0.19486602,-0.010995574,6.5367746,74.947845,-4.9840290000000005,STD
26638532000000.0,0.01006718073040247,0.09839015454053879,2.185774803161621,-0.08591119945049286,-0.005722652655094862,-0.19792034,-0.014966198,6.457332,74.77901,-4.986328599999999,STD
29876449000000.0,0.012142340652644634,0.10977864265441895,2.451904535293579,-0.09643526375293732,-0.0054710628464818,-0.17165314,-0.016187929,6.386158,74.60341,-4.992854,STD
33148820000000.0,0.014420848339796066,0.12116679549217224,2.720961570739746,-0.10708867758512497,-0.004817292559891939,-0.14080444,-0.01038471,6.31492,74.42242399999999,-5.000305,STD
36433480000000.0,0.01689649187028408,0.13247129321098328,2.991128444671631,-0.11780015379190445,-0.004057036712765694,-0.12370021,-0.014966198,6.2477374,74.237,-5.005427,STD
39710517000000.0,0.019565850496292114,0.14361581206321716,3.260772705078125,-0.1285058557987213,-0.002831103978678584,-0.087659165,-0.017715093,6.193533,74.04145,-5.0163910000000005,STD
42962290000000.0,0.02241460606455803,0.15454035997390747,3.5284438133239746,-0.13914819061756134,-0.0006614318699575961,-0.063224554,-0.02443461,6.1411843,73.838776,-5.025482,STD
46173428000000.0,0.025437962263822556,0.16518747806549072,3.7928810119628906,-0.14967766404151917,0.0021054274402558804,-0.03940081,-0.021685716,6.097817,73.63049000000001,-5.039231299999999,STD
49330750000000.0,0.028626786544919014,0.17551125586032867,4.052999973297119,-0.1600513756275177,0.005048147402703762,-0.01160644,-0.016798794,6.062296,73.41469000000001,-5.0540449999999995,STD
52423138000000.0,0.03196646273136139,0.1854776293039322,4.3078837394714355,-0.17023247480392456,0.008706171065568924,0.008246681,-0.018325957,6.031068299999999,73.1874,-5.0692900000000005,STD
55441418000000.0,0.03544827550649643,0.1948121190071106,4.556642055511475,-0.18019869923591614,0.013082091696560383,0.032986722999999996,-0.02107485,6.008173,72.95391,-5.088410400000001,STD
58378185000000.0,0.03906357288360596,0.20340541005134583,4.798616886138916,-0.18992838263511658,0.017979534342885017,0.046731193,-0.01985312,5.9870806,72.71197,-5.109229599999999,STD
61227650000000.0,0.04280323162674904,0.21124482154846191,5.033331871032715,-0.19940203428268433,0.02308480069041252,0.062002823,-0.015577064,5.9746337,72.457245,-5.148225,STD
63985454000000.0,0.046675387769937515,0.2182886302471161,5.2604241371154785,-0.20860718190670013,0.028714457526803017,0.06536258,-0.016187929,5.962458,72.19247,-5.187052700000001,STD
66648522000000.0,0.0506332591176033,0.2246202528476715,5.4796528816223145,-0.21752747893333435,0.033874545246362686,0.06169739,-0.013133603,5.9513273,71.92578,-5.2294717,STD
69214900000000.0,0.054694220423698425,0.2301914244890213,5.690850734710693,-0.2261592447757721,0.03918556123971939,0.06963864,-0.009773844,5.94374,71.64678,-5.273836599999999,STD
71683590000000.0,0.058840181678533554,0.2350354939699173,5.8939409255981445,-0.23449678719043732,0.04398227110505104,0.06750060599999999,-0.010079277,5.9318347000000005,71.36825,-5.31762,STD
74054420000000.0,0.06306871771812439,0.23915673792362213,6.088910102844238,-0.24253922700881958,0.047703541815280914,0.06811147,-0.0015271631,5.9211364,71.084946,-5.3664613,STD
76327936000000.0,0.06736952066421509,0.24258030951023102,6.275805473327637,-0.2502867579460144,0.04983446002006531,0.06780604,0.004276057,5.909207,70.80163,-5.414998000000001,STD
78505250000000.0,0.0717373937368393,0.24532358348369598,6.454720973968506,-0.25774216651916504,0.05175322666764259,0.08032878,0.011911871999999999,5.8993125,70.510056,-5.468431,STD
80587960000000.0,0.07616613805294037,0.24740882217884064,6.625790596008301,-0.264909565448761,0.05243725702166557,0.07971791,0.010690141499999998,5.8853480000000005,70.22731999999999,-5.5206865999999994,STD
82578050000000.0,0.08065023273229599,0.2488589733839035,6.789181232452393,-0.2717943787574768,0.0516081266105175,0.09132435,0.021685716,5.875522,69.94033,-5.5815682,STD
84477840000000.0,0.0851861834526062,0.24969439208507538,6.9450836181640625,-0.2784033715724945,0.0492325983941555,0.09437868,0.024740042,5.863318,69.65583000000001,-5.6400676,STD
86289850000000.0,0.08976763486862183,0.24994288384914398,7.093710422515869,-0.2847435772418976,0.04549988731741905,0.10476339,0.028405233999999998,5.8543644,69.37278,-5.704553,STD
88016820000000.0,0.0943898856639862,0.24962976574897766,7.235288619995117,-0.2908228933811188,0.04081382974982262,0.12767084,0.02443461,5.849287,69.09186,-5.7704244000000005,STD
89661610000000.0,0.09905171394348145,0.24877357482910156,7.370054721832275,-0.29665008187294006,0.034682802855968475,0.12767084,0.022296581,5.839477,68.81631,-5.8376790000000005,STD
91227150000000.0,0.10374634712934494,0.2474052459001541,7.49825382232666,-0.30223339796066284,0.02879980392754078,0.12736541,0.018325957,5.835535,68.53373,-5.9067955,STD
92716430000000.0,0.10849490761756897,0.24549603462219238,7.620127201080322,-0.3075852692127228,0.022490529343485832,0.12705997,0.015577064,5.8308644,68.25883499999999,-5.97686,STD
94132460000000.0,0.11324707418680191,0.2431708723306656,7.73593807220459,-0.31270790100097656,0.01609443500638008,0.12308934,0.022907447,5.8236422999999995,67.97716,-6.0493364000000005,STD
95478250000000.0,0.11802404373884201,0.24040092527866364,7.845929145812988,-0.31761372089385986,0.010493425652384758,0.1142318,0.014355333500000001,5.8161225,67.69128,-6.1174774,STD
96756755000000.0,0.12282302975654602,0.23720873892307281,7.950346946716309,-0.3223116993904114,0.005715126171708107,0.1151481,0.015271631,5.8075294,67.40092,-6.19193,STD
97970905000000.0,0.1276419311761856,0.23361513018608093,8.049433708190918,-0.32681065797805786,0.0015612002462148666,0.10598512,0.01282817,5.7942540000000005,67.104866,-6.262373,STD
99123575000000.0,0.13248026371002197,0.22963711619377136,8.143426895141602,-0.331119567155838,-0.0019337119301781058,0.10262536,0.011911871999999999,5.7816095,66.80038499999999,-6.335364,STD
100217560000000.0,0.13733425736427307,0.22529840469360352,8.232560157775879,-0.33524662256240845,-0.005058084148913622,0.11026118,0.014355333500000001,5.7684182999999996,66.49003,-6.40998,STD
101255565000000.0,0.1422021985054016,0.22061783075332642,8.317057609558105,-0.33920013904571533,-0.00712251290678978,0.10812314599999999,0.020463986,5.7504625,66.168175,-6.485040000000001,STD
102240240000000.0,0.1470882147550583,0.21560116112232208,8.397136688232422,-0.3429889380931854,-0.008453192189335823,0.11636983,0.013133603,5.7375484000000005,65.842354,-6.5604186,STD
103174120000000.0,0.1519821286201477,0.21028447151184082,8.473011016845703,-0.346619576215744,-0.010005271062254906,0.12217305,0.016187929,5.720512,65.50988000000001,-6.640871499999999,STD
104059676000000.0,0.15688785910606384,0.20467303693294525,8.544881820678711,-0.3501002788543701,-0.01175122894346714,0.12034045,0.02321288,5.702939499999999,65.16881,-6.7217345,STD
104899250000000.0,0.16180320084095,0.1987847536802292,8.612945556640625,-0.3534381687641144,-0.012906037271022797,0.12522738,0.018325957,5.688606,64.82039,-6.803006,STD
105695120000000.0,0.16672654449939728,0.1926357001066208,8.677390098571777,-0.356640100479126,-0.014210793189704418,0.13194689,0.016798794,5.6719127,64.47069,-6.8883233,STD
106449460000000.0,0.1716570407152176,0.1862398087978363,8.738395690917969,-0.35971277952194214,-0.015835566446185112,0.1441642,0.01038471,5.657943700000001,64.1144,-6.9736753,STD
107164330000000.0,0.17660033702850342,0.17959654331207275,8.796133041381836,-0.36266353726387024,-0.017245901748538017,0.15943582,0.010995574,5.644647,63.75039,-7.0630174,STD
107841750000000.0,0.18154434859752655,0.17274297773838043,8.850770950317383,-0.3654969036579132,-0.01903570629656315,0.16615535,0.005192355,5.6326485,63.386715,-7.150877,STD
108483600000000.0,0.18649381399154663,0.16567951440811157,8.902463912963867,-0.3682194948196411,-0.020277926698327065,0.19181168,0.003970624,5.627599,63.01144,-7.245809599999999,STD
109091710000000.0,0.19144690036773682,0.15842022001743317,8.951363563537598,-0.3708367645740509,-0.02200593240559101,0.19608775,-0.002443461,5.6188097,62.63881,-7.337565400000001,STD
109667796000000.0,0.19640815258026123,0.15096494555473328,8.997611045837402,-0.3733547627925873,-0.023578088730573654,0.19058995,-0.0030543262,5.612166,62.25436800000001,-7.434048,STD
110213520000000.0,0.2013717144727707,0.1433354616165161,9.04134464263916,-0.37577784061431885,-0.024077802896499634,0.18417588,-0.004886922,5.6059665999999995,61.86269,-7.5305586,STD
110730430000000.0,0.206337571144104,0.13554053008556366,9.082695007324219,-0.3781108856201172,-0.024307724088430405,0.16432275,-0.0076358155,5.593676,61.468704,-7.6257267,STD
111220040000000.0,0.2113129198551178,0.12757299840450287,9.121782302856445,-0.3803596496582031,-0.022837257012724876,0.15088372,-0.002443461,5.579095,61.055530000000005,-7.7239428,STD
111683754000000.0,0.21628886461257935,0.11945992708206177,9.158726692199707,-0.38252729177474976,-0.020372863858938217,0.11484267,-0.004581489,5.5535746,60.638940000000005,-7.8153048,STD
112122930000000.0,0.22126421332359314,0.11043187230825424,9.193599700927734,-0.3826993703842163,-0.017275530844926834,0.0842994,-0.008246681,5.524067400000001,60.208569999999995,-7.907853599999999,STD
112538850000000.0,0.2262420505285263,0.10009993612766266,9.226486206054688,-0.3799220025539398,-0.01249025296419859,0.03726278,0.0030543262,5.4779735,59.759552,-7.997555,STD
112932720000000.0,0.2312225103378296,0.08853066712617874,9.257489204406738,-0.3743467628955841,-0.006512433290481567,0.007330383,0.013744468000000001,5.4549127,59.294415,-8.145318,STD
113305710000000.0,0.23620469868183136,0.07579395920038223,9.28670883178711,-0.3661286532878876,0.0011798692867159843,-0.04337143,0.024740042,5.4110746,58.80866999999999,-8.288402,STD
113658910000000.0,0.24118715524673462,0.06196032464504242,9.314238548278809,-0.35542166233062744,0.009796923026442528,-0.09590584,0.03940081,5.3551497,58.310756999999995,-8.432342,STD
113993365000000.0,0.24617420136928558,0.04705844819545746,9.340165138244629,-0.34230881929397583,0.01842803880572319,-0.14660765,0.05100725,5.2838125,57.798805,-8.572819,STD
114310060000000.0,0.2511611580848694,0.031174372881650925,9.36457633972168,-0.3269660174846649,0.0264545027166605,-0.18509217,0.055588737,5.199254,57.274937,-8.710745,STD
114609930000000.0,0.25615260004997253,0.014329326339066029,9.387548446655273,-0.3094604015350342,0.03247729316353798,-0.20983220000000002,0.070249505,5.1001663,56.746548,-8.849776,STD
114893865000000.0,0.2611488997936249,-0.0034301672130823135,9.409157752990723,-0.28989920020103455,0.0367651991546154,-0.24648413,0.083383106,4.986136,56.210037,-8.983004,STD
115162710000000.0,0.266144335269928,-0.02201901748776436,9.429479598999023,-0.2684517502784729,0.04056495800614357,-0.22540927,0.0888809,4.8769293,55.667404000000005,-9.124171,STD
115417260000000.0,0.2711368203163147,-0.041379109025001526,9.448582649230957,-0.24524129927158356,0.04201564937829971,-0.1432479,0.09865474,4.768592400000001,55.13268000000001,-9.274633999999999,STD
115658280000000.0,0.2761300206184387,-0.061493225395679474,9.46652889251709,-0.22032223641872406,0.0405750535428524,-0.008857545999999999,0.11056661,4.674185,54.594364,-9.440045,STD
115886470000000.0,0.28112414479255676,-0.08232294023036957,9.483380317687988,-0.19378256797790527,0.03459103778004646,0.13347405,0.110872045,4.598902,54.068863,-9.621429,STD
116102520000000.0,0.2861185073852539,-0.10382615774869919,9.499195098876953,-0.1657150685787201,0.024305058643221855,0.24801129,0.10995574,4.544159,53.549347,-9.8251095,STD
116307080000000.0,0.2911350727081299,-0.12611432373523712,9.514017105102539,-0.13595794141292572,0.010873213410377502,0.32620203,0.09987647,4.51262,53.04213000000001,-10.04711,STD
116500745000000.0,0.2961318790912628,-0.14887258410453796,9.52791976928711,-0.10505165159702301,-0.0033731975127011538,0.33505958,0.08674286,4.4887805,52.54064,-10.278966,STD
116684100000000.0,0.3011246919631958,-0.17217466235160828,9.540945053100586,-0.07289434969425201,-0.016633495688438416,0.30909783,0.09132435,4.4699855,52.041378,-10.523305,STD
116857705000000.0,0.306118369102478,-0.19602258503437042,9.553136825561523,-0.03950149938464165,-0.0270074512809515,0.25625798,0.10140363,4.444362,51.533559999999994,-10.766169999999999,STD
117022060000000.0,0.3111160695552826,-0.22040899097919464,9.564537048339844,-0.004903040360659361,-0.03427431732416153,0.18509217,0.12278391400000001,4.401660400000001,51.01422,-11.008235,STD
117177670000000.0,0.31611546874046326,-0.24529121816158295,9.575189590454102,0.030813777819275856,-0.03835530951619148,0.093462385,0.14019357,4.336917400000001,50.47468,-11.241845,STD
117324990000000.0,0.32110971212387085,-0.2705974578857422,9.585137367248535,0.06751452386379242,-0.03894803300499916,0.0070249503,0.1685988,4.2471557,49.909393,-11.4737625,STD
117464470000000.0,0.32610413432121277,-0.2963389754295349,9.594414710998535,0.10520266741514206,-0.03666127845644951,-0.08552113,0.18997909,4.129194,49.323425,-11.69277,STD
117596515000000.0,0.3311011493206024,-0.32250896096229553,9.603056907653809,0.14385263621807098,-0.03148559853434563,-0.18845193,0.21410827,3.979627,48.709312,-11.902947,STD
117721530000000.0,0.3360983729362488,-0.3490695357322693,9.611098289489746,0.18338841199874878,-0.021182460710406303,-0.29138273,0.23365596,3.8023012,48.058895,-12.101104,STD
117839885000000.0,0.34109529852867126,-0.3759966492652893,9.618571281433105,0.22375743091106415,-0.00595980416983366,-0.37904188,0.25350907,3.5971262000000004,47.38241,-12.289036,STD
117951930000000.0,0.34609541296958923,-0.4032939374446869,9.625504493713379,0.26495352387428284,0.017012635245919228,-0.47128254,0.26908615,3.3617668,46.6527,-12.460063,STD
118058014000000.0,0.3510930836200714,-0.43090519309043884,9.631929397583008,0.30687248706817627,0.04864040017127991,-0.51923543,0.29962940000000005,3.1067016,45.8764,-12.62968,STD
118158440000000.0,0.35609138011932373,-0.4588333070278168,9.637871742248535,0.3495081961154938,0.08904839307069778,-0.52503866,0.35094208,2.8300354,45.040890000000005,-12.796041,STD
118253520000000.0,0.3611297309398651,-0.48732590675354004,9.643336296081543,0.39325886964797974,0.13210496306419373,-0.46028697,0.3924809,2.5501847,44.172165,-12.969582,STD
118343540000000.0,0.36612656712532043,-0.5158206224441528,9.648390769958496,0.4371867775917053,0.18509076535701752,-0.40683624,0.4120286,2.2566066000000005,43.199062,-13.143801999999999,STD
118428760000000.0,0.371123343706131,-0.5445803999900818,9.653035163879395,0.4817165732383728,0.23769493401050568,-0.27000242,0.42088616,1.9825736,42.237904,-13.352792,STD
118509440000000.0,0.37612026929855347,-0.573592483997345,9.657292366027832,0.5268185138702393,0.28949829936027527,-0.09162979,0.40591997,1.7229514,41.205616,-13.579262,STD
118585820000000.0,0.3811175227165222,-0.6028445363044739,9.661182403564453,0.572463870048523,0.3371580243110657,0.1282817,0.35430184,1.4983735,40.169261999999996,-13.837376999999998,STD
118658130000000.0,0.3861148953437805,-0.6323226690292358,9.664724349975586,0.618621826171875,0.37689080834388733,0.344528,0.25350907,1.3146001,39.137512,-14.121264000000002,STD
118726590000000.0,0.39111143350601196,-0.6620083451271057,9.667938232421875,0.6652544736862183,0.4064333438873291,0.5558874,0.13286320000000001,1.1797115,38.12188,-14.440332999999999,STD
118791400000000.0,0.3961106836795807,-0.6919140815734863,9.670839309692383,0.7123754024505615,0.422650009393692,0.7318166,0.0061086523,1.0939752,37.151604,-14.782603,STD
118852750000000.0,0.40110811591148376,-0.7219988703727722,9.673446655273438,0.7599102258682251,0.4249812364578247,0.8536841999999999,-0.110872045,1.0532385,36.229176,-15.143941,STD
118910840000000.0,0.40610602498054504,-0.7522677779197693,9.675774574279785,0.8078610301017761,0.4128321707248688,0.94714653,-0.20219639,1.0530293,35.373634,-15.525339,STD
118965840000000.0,0.41110578179359436,-0.7827202677726746,9.677837371826172,0.8562209606170654,0.3885532021522522,1.0015136,-0.26175576,1.0777736999999998,34.57597,-15.915828,STD
119017900000000.0,0.4161023795604706,-0.8133137226104736,9.679651260375977,0.9049139618873596,0.3551996350288391,1.0146471,-0.29260445,1.116892,33.837456,-16.312737,STD
119067190000000.0,0.42110002040863037,-0.8340935707092285,9.682580947875977,0.9446920156478882,0.31631508469581604,0.9816604,-0.29565877,1.1555284,33.14447,-16.711182,STD
119113855000000.0,0.4260983169078827,-0.839553952217102,9.687384605407715,0.9704222679138184,0.2750427722930908,0.93645644,-0.29657507,1.1919684,32.48608,-17.109947000000002,STD
119158030000000.0,0.4311007261276245,-0.8335745930671692,9.691694259643555,0.9788782000541687,0.23284462094306946,0.8781188,-0.26847526,1.2138790000000002,31.709826,-17.657394,STD
119199855000000.0,0.43609893321990967,-0.8190518021583557,9.69416332244873,0.9691594243049622,0.19252082705497742,0.818254,-0.24556783,1.213092,30.938910999999997,-18.19264,STD
119239450000000.0,0.4410964250564575,-0.7999181151390076,9.692851066589355,0.9468606114387512,0.15421564877033234,0.75900006,-0.22815818,1.1460907,30.196281,-18.623255,STD
119276930000000.0,0.44609832763671875,-0.7776068449020386,9.687165260314941,0.9141460061073303,0.11975852400064468,0.7021896,-0.20647246,1.0505806,29.438240000000004,-19.044687,STD
119312410000000.0,0.4510963559150696,-0.756193995475769,9.677322387695312,0.8772484064102173,0.08913971483707428,0.66675943,-0.18631389999999998,0.9343725,28.707297999999998,-19.43544,STD
119346010000000.0,0.4560958743095398,-0.7377226948738098,9.663373947143555,0.8392306566238403,0.06366846710443497,0.59223384,-0.17470746,0.7889913000000001,27.952555,-19.805481,STD
119377820000000.0,0.4610964059829712,-0.724258542060852,9.644649505615234,0.8036893010139465,0.040840499103069305,0.505491,-0.16218472,0.62997144,27.221829999999997,-20.165262,STD
119407930000000.0,0.46609577536582947,-0.7166900038719177,9.620967864990234,0.7723720669746399,0.022191504016518593,0.41080686,-0.15118915,0.44561496,26.457418,-20.506662,STD
119436440000000.0,0.4710937440395355,-0.7165593504905701,9.59617805480957,0.7495136857032776,0.007270907051861286,0.31031954,-0.14752395,0.24782182,25.691057,-20.851995000000002,STD
119463425000000.0,0.47609251737594604,-0.7243947386741638,9.571985244750977,0.7367973327636719,-0.0040385909378528595,0.2144137,-0.14049901,0.022887743999999998,24.900768,-21.176323,STD
119488980000000.0,0.48109152913093567,-0.7400211095809937,9.550537109375,0.7378191947937012,-0.01210847683250904,0.12858713,-0.14508049,359.77237,24.084429,-21.519928,STD
119513160000000.0,0.48609012365341187,-0.7632102966308594,9.533380508422852,0.7550529837608337,-0.01756715402007103,0.048258353,-0.1432479,359.49506,23.24728,-21.840935,STD
119536060000000.0,0.491087943315506,-0.7931937575340271,9.520984649658203,0.7906476259231567,-0.021676907315850258,-0.010995574,-0.13347405,359.1805,22.352873000000002,-22.190468,STD
119557740000000.0,0.49608898162841797,-0.8295057415962219,9.513596534729004,0.8458234071731567,-0.02465611696243286,-0.06383542,-0.13775012,358.8482,21.442678,-22.516045000000002,STD
119578265000000.0,0.5010854601860046,-0.8715094327926636,9.511371612548828,0.9182846546173096,-0.02770444005727768,-0.110872045,-0.14874569,358.47397,20.473808,-22.83539,STD
119597690000000.0,0.5060839056968689,-0.9190305471420288,9.514518737792969,1.0071496963500977,-0.031664613634347916,-0.14752395,-0.1695151,358.08752000000004,19.500889,-23.135916,JOG
119616090000000.0,0.5110847353935242,-0.9720751047134399,9.523284912109375,1.1078423261642456,-0.03860408812761307,-0.16096300000000002,-0.18539760000000002,357.6415,18.46325,-23.40315,JOG
119633500000000.0,0.5160821080207825,-1.0304077863693237,9.537670135498047,1.2163556814193726,-0.04868964105844498,-0.15699236,-0.20463985,357.19174,17.433027,-23.654132999999998,JOG
119650000000000.0,0.5210807919502258,-1.092485785484314,9.557639122009277,1.3303102254867554,-0.06206287816166878,-0.10629055,-0.22143865,356.67783,16.329667999999998,-23.884386,JOG
119665610000000.0,0.5260806679725647,-1.1569827795028687,9.583017349243164,1.4476542472839355,-0.07967172563076019,-0.04337143,-0.2556471,356.1706,15.255314000000002,-24.105032,JOG
119680390000000.0,0.5310798287391663,-1.2228105068206787,9.614760398864746,1.5631681680679321,-0.1013881266117096,0.023518313,-0.29229903,355.5976,14.098092999999999,-24.34311,JOG
119694380000000.0,0.5360792279243469,-1.288996934890747,9.653834342956543,1.6720104217529297,-0.12642346322536469,0.09254608,-0.34697145,355.04126,12.975373,-24.580942,JOG
119707626000000.0,0.541077733039856,-1.3532501459121704,9.697234153747559,1.7711615562438965,-0.15437299013137817,0.18203785,-0.37659842,354.38684,11.737917999999999,-24.823488,JOG
119720170000000.0,0.5460795164108276,-1.413569450378418,9.742398262023926,1.8578940629959106,-0.18410475552082062,0.2761111,-0.41325033,353.75473,10.538211,-25.0647,JOG
119732040000000.0,0.5510784387588501,-1.4684325456619263,9.784051895141602,1.930519461631775,-0.215230792760849,0.32070425,-0.4456262,353.00256,9.185428,-25.305494,JOG
119743280000000.0,0.5560782551765442,-1.5163074731826782,9.817134857177734,1.9870814085006714,-0.2464722841978073,0.40256020000000003,-0.46578476,352.2672,7.866958599999999,-25.557985000000002,JOG
119753910000000.0,0.5610785484313965,-1.5543595552444458,9.840476036071777,2.0273358821868896,-0.2777416706085205,0.48166725,-0.5128214,351.53528,6.5645213,-25.829060000000002,JOG
119763990000000.0,0.5660789012908936,-1.579641580581665,9.85283088684082,2.0509555339813232,-0.3095746338367462,0.5421429,-0.5705481,350.81604,5.2976627,-26.092434,JOG
119773530000000.0,0.5710771679878235,-1.590543270111084,9.857526779174805,2.0606064796447754,-0.3416806757450104,0.5864305999999999,-0.6365215999999999,350.11542000000003,4.078646,-26.375158000000003,JOG
119782550000000.0,0.5760766267776489,-1.5845175981521606,9.858418464660645,2.059082508087158,-0.3743545413017273,0.61269784,-0.6771441,349.42447000000004,2.892534,-26.645770000000002,JOG
119791100000000.0,0.5810725688934326,-1.5605155229568481,9.857526779174805,2.0467183589935303,-0.4069962501525879,0.6072,-0.7101309,348.7473,1.743416,-26.863915999999996,JOG
119799196000000.0,0.5860722064971924,-1.5124763250350952,9.860020637512207,2.022494077682495,-0.4394935667514801,0.58001655,-0.72601336,348.07745,0.6202055000000001,-27.063786999999998,JOG
119806854000000.0,0.5910671353340149,-1.4448378086090088,9.86782169342041,1.9895941019058228,-0.47099149227142334,0.53786683,-0.72234815,347.3941,-0.52894753,-27.113909999999997,JOG
119814110000000.0,0.5960667729377747,-1.3615596294403076,9.884249687194824,1.9514917135238647,-0.5008596777915955,0.49938235,-0.70738196,346.7185,-1.6620741,-27.144707,JOG
119820980000000.0,0.601062536239624,-1.2645763158798218,9.908828735351562,1.909671664237976,-0.5287779569625854,0.46578476,-0.6621779000000001,346.0005,-2.8958904999999997,-26.9586,JOG
119827480000000.0,0.6060606241226196,-1.1569284200668335,9.942744255065918,1.8695343732833862,-0.5547526478767395,0.41477749999999997,-0.6026186,345.29117,-4.121082299999999,-26.751352,JOG
119833640000000.0,0.6110606789588928,-1.0430411100387573,9.98497486114502,1.8323770761489868,-0.5787733793258667,0.36041048,-0.54275376,344.51162999999997,-5.5160860000000005,-26.33105,JOG
119839470000000.0,0.616073489189148,-0.9327379465103149,10.034150123596191,1.801673412322998,-0.5997071862220764,0.29749137,-0.47678033,343.74335,-6.9092607,-25.895573000000002,JOG
119844990000000.0,0.6210713386535645,-0.8270990252494812,10.088001251220703,1.7765694856643677,-0.617946445941925,0.258396,-0.40378192,342.9465,-8.413081,-25.305517000000002,JOG
119850215000000.0,0.6260713338851929,-0.732652485370636,10.140042304992676,1.7565118074417114,-0.6334394812583923,0.24740042,-0.33414328,342.1693,-9.9103365,-24.715726999999998,JOG
119855160000000.0,0.6310710906982422,-0.6496540904045105,10.189422607421875,1.7422444820404053,-0.646804690361023,0.25992316,-0.27458394,341.40155,-11.435497,-24.087851999999998,JOG
119859840000000.0,0.6360706686973572,-0.5811975598335266,10.23243236541748,1.737756371498108,-0.6574555039405823,0.28313604,-0.24923302,340.65848,-12.950055,-23.474068,JOG
119864270000000.0,0.6410704851150513,-0.5265220999717712,10.269405364990234,1.7425388097763062,-0.6669690012931824,0.32223140000000006,-0.22999077,339.9399,-14.411745999999999,-22.914807999999997,JOG
119868460000000.0,0.646070659160614,-0.49204152822494507,10.301727294921875,1.7681593894958496,-0.6758452653884888,0.32895094,-0.23457226,339.24987999999996,-15.855854999999998,-22.365778,JOG
119872440000000.0,0.6510745286941528,-0.4778901934623718,10.329972267150879,1.8151620626449585,-0.6848182082176208,0.35460728,-0.23060162,338.57205,-17.27741,-21.842356,JOG
119876195000000.0,0.6560726761817932,-0.48206472396850586,10.356952667236328,1.8777129650115967,-0.6937361359596252,0.4098906,-0.23243423,337.95206,-18.564032,-21.421715,JOG
119879760000000.0,0.6611111760139465,-0.5062477588653564,10.382137298583984,1.954917311668396,-0.7041972279548645,0.45142943,-0.24678956,337.40244,-19.682270000000003,-21.097416,JOG
119883130000000.0,0.6661117076873779,-0.5418381690979004,10.401912689208984,2.0223371982574463,-0.7158750295639038,0.4841107,-0.26267207,336.85986,-20.782124,-20.790357999999998,JOG
119886330000000.0,0.6711123585700989,-0.5902085900306702,10.415931701660156,2.0796093940734863,-0.7268654108047485,0.56505036,-0.28710666,336.3404,-21.764807,-20.606041,JOG
119889350000000.0,0.6761104464530945,-0.6505341529846191,10.42454719543457,2.1273388862609863,-0.7368631362915039,0.6218608,-0.32192600000000005,335.83432,-22.722054,-20.42688,JOG
119892210000000.0,0.6811025142669678,-0.7219338417053223,10.430668830871582,2.1589977741241455,-0.7439678311347961,0.657291,-0.37720928,335.3397,-23.669294,-20.268095000000002,JOG
119894920000000.0,0.6861175298690796,-0.8053135275840759,10.438674926757812,2.161503314971924,-0.7485452890396118,0.68844515,-0.4334089,334.85376,-24.598667000000003,-20.126484,JOG
119897485000000.0,0.6911081671714783,-0.8920754194259644,10.442282676696777,2.1479029655456543,-0.7508441209793091,0.6704246,-0.4642576,334.2814,-25.476267,-20.187542,JOG
119899920000000.0,0.696100652217865,-0.980055570602417,10.438332557678223,2.1210572719573975,-0.7514089941978455,0.56321776,-0.49663344,333.74026000000003,-26.343882,-20.225635999999998,JOG
119902220000000.0,0.7010926008224487,-1.0668540000915527,10.42726993560791,2.0851285457611084,-0.7505438923835754,0.39278635,-0.52534413,333.11206,-27.25858,-20.347664,JOG
119904400000000.0,0.7060850858688354,-1.1510578393936157,10.40943431854248,2.042736291885376,-0.7489761710166931,0.18387043,-0.5552765000000001,332.5279,-28.160942,-20.414375,JOG
119906460000000.0,0.7110793590545654,-1.2326581478118896,10.388197898864746,1.9967801570892334,-0.7475408315658569,-0.03359759,-0.5748241999999999,331.92746,-29.074270000000002,-20.477022,JOG
119908415000000.0,0.7160726189613342,-1.311669111251831,10.365830421447754,1.9492515325546265,-0.7456122636795044,-0.21655174,-0.57757306,331.37665,-29.979984,-20.47543,JOG
119910260000000.0,0.7210659384727478,-1.3904967308044434,10.34482479095459,1.9021055698394775,-0.7443561553955078,-0.3817908,-0.57451874,330.84402,-30.877691,-20.436220000000002,JOG
119912010000000.0,0.7260603904724121,-1.4708560705184937,10.326931953430176,1.8567243814468384,-0.7417346239089966,-0.48044549999999997,-0.56382865,330.35177999999996,-31.77642,-20.348461,JOG
119913675000000.0,0.7310558557510376,-1.5535712242126465,10.309487342834473,1.8167152404785156,-0.7375436425209045,-0.51251596,-0.56382865,329.8845,-32.665993,-20.236734,JOG
119915240000000.0,0.7360530495643616,-1.6393623352050781,10.290181159973145,1.785180687904358,-0.7323877811431885,-0.5170974,-0.5723807,329.45288,-33.54821,-20.09202,JOG
119916730000000.0,0.7410491704940796,-1.727989673614502,10.26914119720459,1.761604905128479,-0.7274090051651001,-0.48380527,-0.5852089,329.01215,-34.42322,-19.96836,JOG
119918140000000.0,0.7460469007492065,-1.819374918937683,10.24643325805664,1.7456254959106445,-0.7246977090835571,-0.4700608,-0.5891795,328.60114,-35.281033,-19.824036,JOG
119919470000000.0,0.7510442733764648,-1.9140628576278687,10.226978302001953,1.7396979331970215,-0.7236121296882629,-0.44868052,-0.6114761,328.2136,-36.129146999999996,-19.678963,JOG
119920730000000.0,0.756044864654541,-2.0127906799316406,10.215828895568848,1.7465471029281616,-0.7252376079559326,-0.47311515,-0.6392705,327.85882999999995,-36.9479,-19.516685,JOG
119921920000000.0,0.7610433101654053,-2.1079275608062744,10.211087226867676,1.769553542137146,-0.7296901345252991,-0.49816059999999995,-0.6609562,327.52597000000003,-37.643772,-19.434160000000002,JOG
119923050000000.0,0.7660411596298218,-2.192453622817993,10.21113109588623,1.8122378587722778,-0.7350773215293884,-0.6038403,-0.6606508000000001,327.23676,-38.324646,-19.318897,JOG
119924130000000.0,0.7710379958152771,-2.2666945457458496,10.21398639678955,1.8709747791290283,-0.7405843138694763,-0.7318166,-0.65668017,326.9813,-38.946728,-19.218404999999997,JOG
119925140000000.0,0.776036262512207,-2.3308658599853516,10.217595100402832,1.9422038793563843,-0.7457816004753113,-0.84207773,-0.65668017,326.76482999999996,-39.554882,-19.092041000000002,JOG
119926100000000.0,0.781036913394928,-2.3847265243530273,10.220866203308105,2.025047779083252,-0.7513366937637329,-0.90224797,-0.6426301999999999,326.64056,-40.104237,-18.904072,JOG
119927004000000.0,0.7860367894172668,-2.4262049198150635,10.220046043395996,2.1177446842193604,-0.7565143704414368,-0.9288206,-0.6398814,326.5487,-40.64648,-18.70231,JOG
119927870000000.0,0.7910342216491699,-2.4565255641937256,10.21515941619873,2.2169406414031982,-0.7610905766487122,-0.9184359000000001,-0.63163465,326.5227,-41.144424,-18.455404,JOG
119928680000000.0,0.7960333824157715,-2.4769434928894043,10.206012725830078,2.3181326389312744,-0.7650973200798035,-0.91232723,-0.636827,326.51412999999997,-41.632698,-18.20932,JOG
119929450000000.0,0.8010294437408447,-2.488515615463257,10.192205429077148,2.416426181793213,-0.768906831741333,-0.9056076999999999,-0.6426301999999999,326.55417,-42.085117,-17.9311,JOG
119930180000000.0,0.8060299158096313,-2.4922568798065186,10.172435760498047,2.5027825832366943,-0.7729039788246155,-0.8903360999999999,-0.6612616,326.59906,-42.527058000000004,-17.66743,JOG
119930880000000.0,0.8110289573669434,-2.490196704864502,10.14745044708252,2.577934741973877,-0.7767695188522339,-0.88025683,-0.68203104,326.68753,-42.957703,-17.370604,JOG
119931534000000.0,0.8160294890403748,-2.48549222946167,10.11803913116455,2.642322301864624,-0.7809661626815796,-0.8524625,-0.6924158,326.7713,-43.375240000000005,-17.092178,JOG
119932155000000.0,0.821027398109436,-2.4795665740966797,10.084990501403809,2.69709849357605,-0.7852159142494202,-0.8350528,-0.7162395,326.8685,-43.79736,-16.809992,JOG
119932740000000.0,0.8260416984558105,-2.4757320880889893,10.04939079284668,2.743629217147827,-0.7897111773490906,-0.8026769,-0.7266241999999999,326.9558,-44.209084000000004,-16.545204000000002,JOG
119933300000000.0,0.8310394883155823,-2.473881959915161,10.011786460876465,2.783057928085327,-0.7942436337471008,-0.75655663,-0.73823065,327.03775,-44.62057,-16.296963,JOG
119933824000000.0,0.836039125919342,-2.4752094745635986,9.97156810760498,2.816023349761963,-0.7990879416465759,-0.70707655,-0.75961095,327.11618,-45.01975,-16.068089,JOG
119934330000000.0,0.841038167476654,-2.4788007736206055,9.927802085876465,2.8434863090515137,-0.8045530915260315,-0.6713409,-0.7788531999999999,327.18762000000004,-45.414925,-15.861135500000001,JOG
119934800000000.0,0.846042275428772,-2.4804553985595703,9.874151229858398,2.8689870834350586,-0.8103780746459961,-0.6221663000000001,-0.81092364,327.25284,-45.79868,-15.680225,JOG
119935250000000.0,0.8510441184043884,-2.480055570602417,9.81171703338623,2.892977714538574,-0.816494882106781,-0.5549710999999999,-0.8216136999999999,327.29717999999997,-46.17481,-15.527307,JOG
119935680000000.0,0.8560463786125183,-2.4744229316711426,9.743940353393555,2.919630527496338,-0.8226926326751709,-0.49754974,-0.8414669,327.3426,-46.538666,-15.395551999999999,JOG
119936080000000.0,0.8610475659370422,-2.4640369415283203,9.671481132507324,2.9492428302764893,-0.8286577463150024,-0.46211955,-0.86620694,327.38757000000004,-46.864758,-15.286885999999999,JOG
119936460000000.0,0.8660484552383423,-2.4503092765808105,9.596797943115234,2.984823703765869,-0.8344026207923889,-0.4456262,-0.8747590000000001,327.42566,-47.184566,-15.189573999999999,JOG
119936820000000.0,0.8710613250732422,-2.4334020614624023,9.51978588104248,3.0260093212127686,-0.8392065167427063,-0.44379359999999995,-0.88270026,327.48465,-47.47729,-15.092293,JOG
119937160000000.0,0.8760607838630676,-2.415696620941162,9.441781044006348,3.0673365592956543,-0.8434125781059265,-0.464563,-0.8961393,327.54724,-47.763329999999996,-15.000425,JOG
119937490000000.0,0.8810628056526184,-2.3971340656280518,9.362530708312988,3.1089372634887695,-0.8473456501960754,-0.48685959999999995,-0.91446525,327.63815,-48.010483,-14.905031,JOG
119937800000000.0,0.8860628008842468,-2.3796772956848145,9.283539772033691,3.1506221294403076,-0.8506133556365967,-0.4908302,-0.9184359000000001,327.7272,-48.258835,-14.812885000000001,JOG
119938094000000.0,0.8910622596740723,-2.3639068603515625,9.205230712890625,3.1923534870147705,-0.8536906242370605,-0.46486846,-0.91874135,327.81503,-48.501003000000004,-14.729159,JOG
119938370000000.0,0.8960654735565186,-2.3493735790252686,9.128628730773926,3.234710216522217,-0.8570271134376526,-0.43890667,-0.92149025,327.9175,-48.723735999999995,-14.643784,JOG
119938630000000.0,0.9010674953460693,-2.3358652591705322,9.054106712341309,3.2778139114379883,-0.8600392937660217,-0.40256020000000003,-0.9211848,328.0083,-48.947277,-14.568043,JOG
119938880000000.0,0.90606689453125,-2.323840618133545,8.98398208618164,3.3209052085876465,-0.8628421425819397,-0.35460728,-0.9300423000000001,328.10638,-49.145123,-14.5083885,JOG
119939120000000.0,0.9110660552978516,-2.3134536743164062,8.919090270996094,3.3636937141418457,-0.8664234280586243,-0.28283059999999993,-0.93615097,328.18716,-49.337097,-14.461815,JOG
119939336000000.0,0.9160641431808472,-2.3030779361724854,8.858354568481445,3.4051601886749268,-0.8702695965766907,-0.21563543,-0.9257663,328.26507999999995,-49.518105,-14.423019,JOG
119939545000000.0,0.9210628271102905,-2.2918450832366943,8.801112174987793,3.4448013305664062,-0.8748874664306641,-0.15363261,-0.9077458,328.3246,-49.69011,-14.397835999999998,JOG
119939750000000.0,0.9260603189468384,-2.2798104286193848,8.747175216674805,3.4827117919921875,-0.879975438117981,-0.11789699,-0.9007208000000001,328.39197,-49.85439,-14.379648000000001,JOG
119939940000000.0,0.9310592412948608,-2.267003059387207,8.696370124816895,3.5189876556396484,-0.8861595392227173,-0.09010262,-0.8863655,328.43973,-50.011265,-14.366904000000002,JOG
119940120000000.0,0.9360577464103699,-2.256716012954712,8.64603328704834,3.5540850162506104,-0.8923559188842773,-0.06566802,-0.87109387,328.47638,-50.168453,-14.359419,JOG
119940280000000.0,0.9410552978515625,-2.250546455383301,8.594809532165527,3.588263511657715,-0.8988568782806396,-0.05681047,-0.86193085,328.50677,-50.316326000000004,-14.353342999999999,JOG
119940440000000.0,0.9460541605949402,-2.2487032413482666,8.542318344116211,3.6201012134552,-0.9047509431838989,-0.05375614,-0.85062987,328.54285,-50.471676,-14.334519,JOG
119940590000000.0,0.9510529041290283,-2.251314878463745,8.48826789855957,3.648320436477661,-0.9102983474731445,-0.07422013,-0.8362745,328.5779,-50.621753999999996,-14.311926000000001,JOG
119940740000000.0,0.9560520648956299,-2.2581515312194824,8.432733535766602,3.673110246658325,-0.9155175685882568,-0.09773844,-0.8210029000000001,328.61096000000003,-50.757263,-14.3010845,JOG
119940880000000.0,0.9610550403594971,-2.269044876098633,8.375737190246582,3.6946284770965576,-0.9194819927215576,-0.13347405,-0.79534656,328.64566,-50.898247,-14.280215,JOG
119941010000000.0,0.9660520553588867,-2.284421443939209,8.317086219787598,3.7106666564941406,-0.9224375486373901,-0.15974127,-0.77671516,328.68564,-51.03622,-14.255991,JOG
119941140000000.0,0.9710507392883301,-2.304892063140869,8.256357192993164,3.7192270755767822,-0.923900842666626,-0.18448131,-0.7367035,328.72366,-51.184563,-14.2168255,JOG
119941260000000.0,0.9760480523109436,-2.3297829627990723,8.193618774414062,3.720536947250366,-0.922860860824585,-0.19272798,-0.6966918000000001,328.75973999999997,-51.311737,-14.211723000000001,JOG
119941366000000.0,0.9810477495193481,-2.358323574066162,8.12872314453125,3.7144434452056885,-0.9202648401260376,-0.22021692,-0.65668017,328.7989,-51.444454,-14.190866,JOG
119941475000000.0,0.986045777797699,-2.390381097793579,8.061936378479004,3.703221321105957,-0.9159026741981506,-0.23487769,-0.61208695,328.83038,-51.588561999999996,-14.187814000000001,JOG
119941575000000.0,0.9910444617271423,-2.426017999649048,7.9934210777282715,3.6898276805877686,-0.9094453454017639,-0.25228736,-0.56199604,328.86203,-51.746155,-14.169979999999999,JOG
119941670000000.0,0.9960441589355469,-2.4639761447906494,7.923375129699707,3.6750056743621826,-0.9013463258743286,-0.2773328,-0.5170974,328.89417000000003,-51.915226000000004,-14.160054999999998,JOG
119941760000000.0,1.001043677330017,-2.5022623538970947,7.852099418640137,3.659928798675537,-0.8916442394256592,-0.30909783,-0.47555858,328.92602999999997,-52.099182,-14.136319,JOG
119941840000000.0,1.0060404539108276,-2.5400893688201904,7.780592918395996,3.646573066711426,-0.8795455694198608,-0.34025195,-0.42913285,328.95667000000003,-52.28454,-14.121827,JOG
119941930000000.0,1.0110992193222046,-2.576521873474121,7.709479808807373,3.638589382171631,-0.8658291101455688,-0.39431350000000004,-0.3857614,328.99655,-52.479023,-14.090491,JOG
119942000000000.0,1.0160919427871704,-2.6108288764953613,7.639470100402832,3.6332552433013916,-0.8501253128051758,-0.43127087,-0.34697145,329.04965,-52.679375,-14.0586405,JOG
119942080000000.0,1.0210888385772705,-2.642285108566284,7.568845272064209,3.6302504539489746,-0.831693708896637,-0.46028697,-0.31764993,329.11062999999996,-52.896324,-14.013384,JOG
119942150000000.0,1.026082992553711,-2.6701149940490723,7.497873306274414,3.627702474594116,-0.8106470704078674,-0.46395215,-0.28955013,329.18387,-53.105064,-13.963795000000001,JOG
119942210000000.0,1.0310806035995483,-2.6927237510681152,7.4267120361328125,3.6224868297576904,-0.7874828577041626,-0.44379359999999995,-0.28221974,329.2586,-53.327606,-13.914107000000001,JOG
119942280000000.0,1.0360748767852783,-2.7097878456115723,7.355152130126953,3.6155927181243896,-0.7624604105949402,-0.43982297,-0.28221974,329.3433,-53.544940000000004,-13.861595999999999,JOG
119942340000000.0,1.0410736799240112,-2.717273712158203,7.281175136566162,3.6117749214172363,-0.7348974943161011,-0.4334089,-0.28221974,329.4227,-53.779630000000004,-13.813849,JOG
119942400000000.0,1.0460727214813232,-2.715528726577759,7.2051897048950195,3.61275315284729,-0.7068502306938171,-0.45173484,-0.2959642,329.5088,-54.02128199999999,-13.759306,JOG
119942460000000.0,1.051072359085083,-2.70414662361145,7.1278767585754395,3.6241774559020996,-0.6772212386131287,-0.50915617,-0.30665436,329.60382000000004,-54.283733,-13.702141000000001,JOG
119942510000000.0,1.0560696125030518,-2.68387508392334,7.050047397613525,3.6466684341430664,-0.6452809572219849,-0.59864795,-0.32162055,329.71814,-54.53572,-13.625801000000001,JOG
119942560000000.0,1.0610716342926025,-2.655331611633301,6.9737677574157715,3.6840672492980957,-0.6115269660949707,-0.7189884,-0.33536503,329.85565,-54.795876,-13.541682000000002,JOG
119942610000000.0,1.0660691261291504,-2.6206398010253906,6.899913311004639,3.734727621078491,-0.5758605599403381,-0.84788096,-0.34086279999999997,330.01456,-55.03058000000001,-13.422894,JOG
119942650000000.0,1.0710688829421997,-2.5841915607452393,6.831025123596191,3.797366142272949,-0.5381557941436768,-0.9660834,-0.33292156,330.19824,-55.27997,-13.291606,JOG
119942690000000.0,1.076066493988037,-2.547882318496704,6.767251014709473,3.86926531791687,-0.49863526225090027,-1.0745120000000001,-0.31215215,330.4084,-55.491955000000004,-13.116875,JOG
119942730000000.0,1.0810831785202026,-2.517289400100708,6.709846496582031,3.9448955059051514,-0.4569399654865265,-1.1578951000000002,-0.28619036,330.63434,-55.723319999999994,-12.929843,JOG
119942775000000.0,1.0860825777053833,-2.4927468299865723,6.65791654586792,4.020869731903076,-0.4131857752799988,-1.2043208,-0.23609942,330.86127,-55.93365,-12.711178,JOG
119942810000000.0,1.0910816192626953,-2.477815866470337,6.610707759857178,4.090108871459961,-0.36691272258758545,-1.2162327,-0.1826487,331.08917,-56.167004000000006,-12.483597999999999,JOG
119942840000000.0,1.0960825681686401,-2.47255539894104,6.567910194396973,4.151823043823242,-0.318694531917572,-1.1963795,-0.12889257,331.30756,-56.398185999999995,-12.255977,JOG
119942876000000.0,1.1010816097259521,-2.479133367538452,6.528838157653809,4.200135231018066,-0.26756054162979126,-1.1389582,-0.06505715,331.50378,-56.660790000000006,-12.022546,JOG
119942910000000.0,1.1060985326766968,-2.4976277351379395,6.493134498596191,4.23387336730957,-0.2148544043302536,-1.0732902,-0.003970624,331.7005,-56.935787,-11.817679,JOG
119942940000000.0,1.1110986471176147,-2.524778127670288,6.458318710327148,4.246022701263428,-0.15992741286754608,-0.98807454,0.06841691,331.86267000000004,-57.243935,-11.611546,JOG
119942970000000.0,1.1160941123962402,-2.560258626937866,6.423861026763916,4.2368268966674805,-0.10172596573829651,-0.90041536,0.13897185,332.0205,-57.598835,-11.452401,JOG
119942990000000.0,1.1210923194885254,-2.6020028591156006,6.386907577514648,4.2067155838012695,-0.0407663956284523,-0.7858781,0.22052236,332.13699999999994,-57.97894,-11.294458,JOG
119943020000000.0,1.1260907649993896,-2.648656129837036,6.347087383270264,4.154636383056641,0.022202054038643837,-0.67073005,0.28985557,332.24905,-58.441612,-11.179597,JOG
119943040000000.0,1.1310895681381226,-2.6932661533355713,6.300747394561768,4.065225124359131,0.08804897218942642,-0.5112942,0.36468655,332.311,-58.938187,-11.071201,JOG
119943070000000.0,1.1360830068588257,-2.7359323501586914,6.248423099517822,3.9413442611694336,0.15541642904281616,-0.41172317,0.40561453,332.38122999999996,-59.5167,-11.000457,JOG
119943090000000.0,1.14108145236969,-2.7679011821746826,6.191697597503662,3.795504331588745,0.2212609052658081,-0.20586158,0.48472157,332.3741,-60.111107,-10.943371,JOG
119943120000000.0,1.146079421043396,-2.7877702713012695,6.131330966949463,3.6323790550231934,0.2878447473049164,0.025045475,0.56230146,332.33633,-60.732535999999996,-10.897455,JOG
119943140000000.0,1.1510978937149048,-2.7889862060546875,6.071834087371826,3.4582161903381348,0.35555174946784973,0.2302962,0.711658,332.2498,-61.608208,-10.8273115,JOG
119943160000000.0,1.1560941934585571,-2.774564504623413,6.013905048370361,3.2770750522613525,0.4253963530063629,0.4370741,0.76083267,332.1215,-62.482452,-10.799528,JOG
119943180000000.0,1.1610952615737915,-2.7435460090637207,5.960171222686768,3.118912696838379,0.4979645609855652,0.64873886,0.84757555,331.91143999999997,-63.628117,-10.66431,JOG
119943194000000.0,1.1660887002944946,-2.697561025619507,5.910835266113281,2.987077236175537,0.5724113583564758,0.8723155999999999,0.9114109,331.66647,-64.753265,-10.560148,JOG
119943210000000.0,1.1710870265960693,-2.636976480484009,5.88983154296875,2.934951066970825,0.6472204327583313,1.0855075,0.9236283000000002,331.33557,-66.12571,-10.343826,JOG
119943230000000.0,1.176081895828247,-2.563112735748291,5.897459983825684,2.961888551712036,0.7196704745292664,1.2925909,0.8579602,330.9849,-67.42746,-10.175751,JOG
119943245000000.0,1.181079626083374,-2.4776461124420166,5.964574813842773,3.102942943572998,0.7842389345169067,1.4792101,0.7528914000000001,330.58246,-68.56599,-9.989744,JOG
119943260000000.0,1.186073660850525,-2.3817365169525146,6.090353488922119,3.3537120819091797,0.8362347483634949,1.5274686000000002,0.6026186,330.1975,-69.61426999999999,-9.850124000000001,JOG
119943280000000.0,1.1910701990127563,-2.264274835586548,6.299622058868408,3.6537106037139893,0.8739189505577087,1.2421944999999999,0.41844269999999995,329.77637000000004,-70.193405,-9.680811,JOG
119943295000000.0,1.196068525314331,-2.1248316764831543,6.5915727615356445,3.991926670074463,0.8999586701393127,0.6252206,0.24404067,329.45428,-70.70579000000001,-9.523716,JOG
119943310000000.0,1.2010667324066162,-1.9746508598327637,6.961851119995117,4.2707133293151855,0.9212249517440796,-0.14721853,0.13103059,329.09915,-70.93679,-9.146980000000001,JOG
119943330000000.0,1.2060644626617432,-1.8200676441192627,7.406580448150635,4.437926769256592,0.9465991854667664,-0.73853606,0.095294975,328.87747,-71.14245600000001,-8.76798,JOG
119943345000000.0,1.211064338684082,-1.693139672279358,7.866551399230957,4.439025402069092,0.9827803373336792,-0.80848014,0.105374254,328.60645,-71.37946,-8.155671,JOG
119943360000000.0,1.2160617113113403,-1.6112569570541382,8.306560516357422,4.249731063842773,1.0293878316879272,-0.34025195,0.10720685,328.3603,-71.62153,-7.583753,JOG
119943370000000.0,1.221063494682312,-1.559711217880249,8.688286781311035,3.969226837158203,1.0809828042984009,0.3136793,0.06688975,328.1795,-72.352036,-7.024411,JOG
119943380000000.0,1.226062536239624,-1.5314823389053345,9.001590728759766,3.6384925842285156,1.1325626373291016,0.8536841999999999,0.024129177,327.91003,-73.07423,-6.531496499999999,JOG
119943390000000.0,1.2310612201690674,-1.4937413930892944,9.242578506469727,3.362481117248535,1.1800915002822876,1.1621711000000001,0.020463986,327.76282000000003,-74.27374,-6.304537,JOG
119943396000000.0,1.2360605001449585,-1.4328787326812744,9.411726951599121,3.183985948562622,1.2183486223220825,1.187522,0.03145956,327.56088,-75.37044,-6.1233153,JOG
119943400000000.0,1.241058111190796,-1.3286654949188232,9.518722534179688,3.1176464557647705,1.249390721321106,1.022283,0.086132,327.40297999999996,-76.36833,-6.157099,JOG
119943410000000.0,1.2460603713989258,-1.1752991676330566,9.567354202270508,3.1665570735931396,1.2649915218353271,0.5839871999999999,0.18906279,327.30957,-77.247734,-6.152742,JOG
119943420000000.0,1.25105881690979,-0.9843459725379944,9.569252967834473,3.2231252193450928,1.2646392583847046,0.038789943,0.3109304,327.2459,-78.0066,-5.9251184,JOG
119943430000000.0,1.256057858467102,-0.7597006559371948,9.528694152832031,3.2517189979553223,1.2521140575408936,-0.28802297,0.4288274,327.246,-78.68943,-5.672793,JOG
119943440000000.0,1.2610567808151245,-0.5193178653717041,9.461297035217285,3.20133113861084,1.234445333480835,-0.17134771,0.54519725,327.06046000000003,-79.14909,-5.1308074,JOG
119943450000000.0,1.266055703163147,-0.2708614766597748,9.374120712280273,3.053682327270508,1.217099666595459,0.3903429,0.66553766,326.8337,-79.56232,-4.574511,JOG
119943455000000.0,1.2710548639297485,-0.01866222359240055,9.281668663024902,2.852853536605835,1.2048454284667969,1.1749994,0.7831292,326.44757000000004,-80.09352,-3.8372053999999998,JOG
119943460000000.0,1.276053786277771,0.23492135107517242,9.191542625427246,2.6229348182678223,1.1979484558105469,1.92392,0.8924741,325.91074,-80.574326,-3.1102552000000006,JOG
119943470000000.0,1.2810529470443726,0.4843415915966034,9.115002632141113,2.405552625656128,1.19569993019104,2.4627032000000004,0.99082345,325.23126,-81.130585,-2.4777741,JOG
119943480000000.0,1.286051869392395,0.7273069024085999,9.056469917297363,2.2182414531707764,1.1946618556976318,2.7608054,1.0867293,324.4178,-81.66136,-1.8384936,JOG
119943490000000.0,1.2910511493682861,0.9598968029022217,9.022151947021484,2.058718681335449,1.1938581466674805,2.8454102999999997,1.176221,323.51892000000004,-82.24371,-1.1789651,JOG
119943500000000.0,1.2960513830184937,1.180598497390747,9.014256477355957,1.925191879272461,1.1924299001693726,2.7812696,1.2663236999999998,322.58997,-82.77351999999999,-0.49642947,JOG
119943505000000.0,1.3010503053665161,1.381591558456421,9.032709121704102,1.7846804857254028,1.1915661096572876,2.6835310000000003,1.3573426000000002,321.63602000000003,-83.19379,0.25861743,JOG
119943510000000.0,1.306050181388855,1.5594099760055542,9.077139854431152,1.6208808422088623,1.1933852434158325,2.652377,1.4456125,320.69604,-83.51496999999999,1.0346419,JOG
119943520000000.0,1.3110508918762207,1.705617070198059,9.142911911010742,1.4292113780975342,1.1990302801132202,2.720183,1.5329663999999998,319.76328,-83.68261,1.858771,JOG
119943530000000.0,1.3160548210144043,1.8163018226623535,9.227312088012695,1.2075600624084473,1.2100226879119873,2.8554895,1.6139059999999998,318.83624,-83.720726,2.6946383,JOG
119943540000000.0,1.3210550546646118,1.8886661529541016,9.326000213623047,0.9648860692977905,1.2257357835769653,3.0268373,1.6765196,317.92966,-83.75811999999999,3.4631515,JOG
119943550000000.0,1.326055645942688,1.9209765195846558,9.436774253845215,0.705734372138977,1.2460968494415283,3.186884,1.7165313999999998,317.0056,-83.66658000000001,4.2359605,JOG
119943555000000.0,1.3310561180114746,1.9146617650985718,9.560867309570312,0.4378846287727356,1.2694096565246582,3.249803,1.7495180000000001,316.1408,-83.64268,4.880955,JOG
119943560000000.0,1.3360933065414429,1.866087555885315,9.701760292053223,0.16428077220916748,1.2959238290786743,3.35701,1.7626517,315.23587000000003,-83.49384,5.5241914,JOG
119943570000000.0,1.3410910367965698,1.78697669506073,9.857223510742188,-0.10188762098550797,1.3230595588684082,3.3887748999999996,1.7901406000000002,314.41772000000003,-83.396774,6.0316105,JOG
119943580000000.0,1.3460936546325684,1.6721035242080688,10.033927917480469,-0.35622283816337585,1.351711630821228,3.3502905,1.8106046000000002,313.60663,-83.17613,6.542599,JOG
119943590000000.0,1.3510918617248535,1.527740240097046,10.230744361877441,-0.5957571864128113,1.381994605064392,3.2314773,1.8194622,312.88638,-82.988625,6.9226913,JOG
119943600000000.0,1.3560903072357178,1.3574399948120117,10.447941780090332,-0.8182595372200012,1.4135122299194336,3.0641,1.8258762,312.20865,-82.68018000000001,7.3136597000000005,JOG
119943606000000.0,1.3610895872116089,1.1713619232177734,10.680401802062988,-1.0232927799224854,1.4452383518218994,2.8710666000000002,1.8194622,311.6634,-97.615234,7.5964417,JOG
119943610000000.0,1.3660885095596313,0.9791639447212219,10.923171043395996,-1.2104912996292114,1.4770804643630981,2.7033842,1.8329011000000002,311.17792000000003,-98.006325,7.891405000000001,JOG
119943620000000.0,1.3710857629776,0.7876306772232056,11.16559886932373,-1.3800063133239746,1.5078442096710205,2.5891523,1.8603901000000003,310.83252000000005,-98.40135,8.121084,JOG
119943630000000.0,1.3760850429534912,0.6050649881362915,11.394611358642578,-1.531561255455017,1.5351942777633667,2.5185974,1.9281962,310.53997999999996,-98.860504,8.367295,JOG
119943640000000.0,1.381080985069275,0.42978915572166443,11.60567569732666,-1.6644316911697388,1.5577661991119385,2.4593434,2.0140228,310.27047999999996,-99.33564,8.590935,JOG
119943650000000.0,1.3860803842544556,0.2590763568878174,11.789831161499023,-1.775887370109558,1.5729172229766846,2.3854287,2.084883,310.0398,-99.83901,8.831189,JOG
119943660000000.0,1.391074776649475,0.09129776805639267,11.951539039611816,-1.8665244579315186,1.5782920122146606,2.2492058,2.1361957,309.81836,-100.37405,9.107343,JOG
119943664000000.0,1.3960771560668945,-0.07636158913373947,12.095288276672363,-1.9352059364318848,1.5732232332229614,2.0598376,2.1704042,309.64627,-100.90396,9.393849000000001,JOG
119943670000000.0,1.4010732173919678,-0.24470815062522888,12.22930908203125,-1.987511157989502,1.5571444034576416,1.8280143,2.1923953999999997,309.49133,-101.42649,9.701836,JOG
119943680000000.0,1.4060724973678589,-0.41608041524887085,12.365121841430664,-2.0296263694763184,1.5308213233947754,1.6380351999999998,2.2226331000000004,309.38852,-101.92101,10.012086,JOG
119943690000000.0,1.411073088645935,-0.5935189127922058,12.50912094116211,-2.0673859119415283,1.494734764099121,1.5241088,2.2757785,309.25973999999997,-102.37911,10.3204975,JOG
119943700000000.0,1.4160710573196411,-0.7819448709487915,12.671554565429688,-2.109783411026001,1.4517327547073364,1.5476271000000001,2.3283129000000002,309.15268,-102.80869,10.631343,JOG
119943710000000.0,1.421065330505371,-0.9838405847549438,12.85545825958252,-2.157287359237671,1.4061881303787231,1.6798794,2.3667974,309.00302,-103.20785,10.928308,JOG
119943715000000.0,1.4260656833648682,-1.2069432735443115,13.07072639465332,-2.211688756942749,1.3638356924057007,1.8594738000000002,2.3628267999999997,308.83704,-103.59221,11.228213,JOG
119943720000000.0,1.4310718774795532,-1.4514086246490479,13.314797401428223,-2.2712669372558594,1.330316424369812,1.9498819,2.278833,308.67642,-103.92295,11.450999000000001,JOG
119943730000000.0,1.4360716342926025,-1.7301372289657593,13.573155403137207,-2.3187520503997803,1.3081382513046265,1.9242256000000002,2.2030854,308.50116,-104.26226,11.678749,JOG
119943740000000.0,1.4410691261291504,-2.0391361713409424,13.84237003326416,-2.3530428409576416,1.292529821395874,1.7394387999999998,1.9721785,308.32242,-104.520744,11.755813,JOG
119943750000000.0,1.4460731744766235,-2.3663439750671387,14.109892845153809,-2.367788314819336,1.2897984981536865,1.4156802,1.6942346999999998,308.18906,-104.80619,11.800508,JOG
119943750000000.0,1.4510712623596191,-2.7082924842834473,14.37446117401123,-2.365539312362671,1.2981185913085938,1.0299188,1.391551,308.10706,-104.98363,11.675683,JOG
119943760000000.0,1.4560719728469849,-3.0590546131134033,14.631491661071777,-2.351335287094116,1.3173242807388306,0.64476824,1.1151345,308.10672,-105.16526,11.481353,JOG
119943760000000.0,1.4610713720321655,-3.416257858276367,14.880717277526855,-2.3270866870880127,1.3473888635635376,0.37232238,0.88025683,308.15332,-105.29401000000001,11.1539545,JOG
119943765000000.0,1.4660711288452148,-3.7725980281829834,15.11989688873291,-2.2984046936035156,1.3908915519714355,0.23854288,0.7318166,308.25977,-105.46954,10.780515,JOG
119943770000000.0,1.4710694551467896,-4.126448154449463,15.346098899841309,-2.2647697925567627,1.449020504951477,0.2773328,0.68508536,308.37408,-105.67236000000001,10.339756,JOG
119943770000000.0,1.4760936498641968,-4.467227458953857,15.532413482666016,-2.2194244861602783,1.5220706462860107,0.40622538,0.71868294,308.4965,-105.96978,9.898386,JOG
119943780000000.0,1.4810906648635864,-4.793893814086914,15.684025764465332,-2.162583827972412,1.6084980964660645,0.6041456999999999,0.80878556,308.58444,-106.35973999999999,9.455033,JOG
119943780000000.0,1.4860892295837402,-5.100357532501221,15.781081199645996,-2.0648345947265625,1.7045296430587769,0.8060366999999999,0.9450084999999999,308.64178,-106.86706000000001,9.061697,JOG
119943790000000.0,1.4910882711410522,-5.382113933563232,15.82294750213623,-1.9115872383117676,1.8038750886917114,0.9388999,1.0946705,308.65963999999997,-107.46743000000001,8.722017,JOG
119943800000000.0,1.496091604232788,-5.570676326751709,15.765436172485352,-1.4937796592712402,1.8995050191879272,0.9117164000000001,1.2339478000000002,308.68023999999997,-108.14151000000001,8.431964,JOG
119943800000000.0,1.501096487045288,-5.673425674438477,15.618400573730469,-0.845641553401947,1.9778143167495728,0.59589905,1.3326025,308.70162999999997,-108.76723500000001,8.19867,JOG
119943810000000.0,1.506095290184021,-5.7173380851745605,15.433258056640625,-0.19902296364307404,2.022830009460449,-0.10140363,1.3234396000000002,308.8454,-109.32698,7.9411570000000005,JOG
119943810000000.0,1.5111149549484253,-5.701117515563965,15.208664894104004,0.4444590210914612,2.0240046977996826,-1.0711522,1.1890492,308.76157,-109.33483999999999,7.971957700000001,JOG
119943815000000.0,1.516111135482788,-5.656722545623779,14.980070114135742,0.9808435440063477,1.9868649244308472,-1.9352211,0.98899084,308.84406,-109.20666000000001,7.9294009999999995,JOG
119943815000000.0,1.5211033821105957,-5.583473205566406,14.746485710144043,1.4103686809539795,1.9260839223861694,-2.506991,0.79901177,309.03902999999997,-108.92237,7.9648156000000006,JOG
119943820000000.0,1.5261017084121704,-5.514650344848633,14.509495735168457,1.7268686294555664,1.856106162071228,-2.6468792000000003,0.6261369000000001,309.3452,-108.50036999999999,7.913975200000001,JOG
119943830000000.0,1.5310949087142944,-5.463655471801758,14.270722389221191,1.9362282752990723,1.7890113592147827,-2.6875017000000003,0.5375614000000001,309.78107,-108.005356,7.797063400000001,JOG
119943830000000.0,1.5360932350158691,-5.435504913330078,14.029991149902344,2.0720841884613037,1.7282918691635132,-2.4868324,0.36560285,310.25266,-107.63586399999998,7.644514599999999,JOG
119943840000000.0,1.5410908460617065,-5.430646896362305,13.787811279296875,2.151603937149048,1.6802654266357422,-2.1160371,0.24251351,310.6873,-107.28936000000002,7.491293400000001,JOG
119943840000000.0,1.5461058616638184,-5.439752101898193,13.54807186126709,2.1909029483795166,1.645639181137085,-1.6887368999999999,0.20066923,311.1676,-107.125206,7.2279935,JOG
119943850000000.0,1.551103949546814,-5.457110404968262,13.31355094909668,2.2021281719207764,1.623910665512085,-1.2431108,0.19272798,311.53366,-106.99456,6.968241,JOG
119943860000000.0,1.5561027526855469,-5.475622653961182,13.080638885498047,2.195112943649292,1.6126832962036133,-0.7770206000000001,0.20525073,311.85907000000003,-107.00962,6.643759299999999,JOG
119943860000000.0,1.5611069202423096,-5.491680145263672,12.847660064697266,2.175502300262451,1.608695387840271,-0.32223140000000006,0.21044308,312.06363,-107.06493,6.3459406,JOG
119943866000000.0,1.566104769706726,-5.500387668609619,12.608736038208008,2.147468090057373,1.6070361137390137,0.04184427,0.19486602,312.20977999999997,-107.21376000000001,6.032024,JOG
119943866000000.0,1.5711028575897217,-5.497829914093018,12.358512878417969,2.1136372089385986,1.6042118072509766,0.32986724,0.1160644,312.24792,-107.37534,5.730065,JOG
119943870000000.0,1.5761005878448486,-5.483395576477051,12.089330673217773,2.0787453651428223,1.5950922966003418,0.57604593,0.031154128,312.2147,-107.56801999999999,5.446925599999999,JOG
119943880000000.0,1.581099033355713,-5.457009315490723,11.797628402709961,2.045193672180176,1.5788897275924683,0.84696466,-0.039095376,312.09207000000004,-107.744576,5.1711617,JOG
119943880000000.0,1.5860968828201294,-5.4218831062316895,11.484055519104004,2.0149950981140137,1.5532796382904053,1.1636983,-0.10476339,311.88922,-107.90902,4.9274025,JOG
119943890000000.0,1.5910942554473877,-5.379654884338379,11.149458885192871,1.9889367818832397,1.5167124271392822,1.5515976999999999,-0.17287487,311.58878,-108.01896,4.692893499999999,JOG
119943890000000.0,1.5960935354232788,-5.331977367401123,10.789844512939453,1.9697052240371704,1.466907262802124,2.0329595,-0.25137106,311.16818,-108.09311000000001,4.516578,JOG
119943900000000.0,1.6010921001434326,-5.280723571777344,10.401566505432129,1.9601187705993652,1.401021122932434,2.5683830000000003,-0.33933565,310.6224,-108.07851000000001,4.357145,JOG
119943910000000.0,1.6060919761657715,-5.22344970703125,9.994575500488281,1.9580531120300293,1.317322850227356,3.0610456000000004,-0.46944994,309.94693,-108.00246399999999,4.2484975,JOG
119943910000000.0,1.6110960245132446,-5.158904552459717,9.574370384216309,1.9622424840927124,1.2152317762374878,3.399465,-0.61850107,309.1603,-107.811195,4.1424,JOG
119943920000000.0,1.6160919666290283,-5.086113452911377,9.148923873901367,1.9697514772415161,1.0976487398147583,3.5472943999999997,-0.77457714,308.28067000000004,-107.56526000000001,4.094332,JOG
119943920000000.0,1.6210907697677612,-5.003397464752197,8.72252368927002,1.9784530401229858,0.969078004360199,3.5729508,-0.9398162,307.33063,-107.20515,4.020162600000001,JOG
119943924000000.0,1.6260889768600464,-4.914123058319092,8.294381141662598,1.9920895099639893,0.8345163464546204,3.5616498,-1.0989466,306.33977999999996,-106.85828400000001,4.07378,JOG
119943930000000.0,1.631088376045227,-4.820456027984619,7.863637924194336,2.0131328105926514,0.7017217874526978,3.5191946000000005,-1.183246,305.3452,-106.44908999999998,4.103699,JOG
119943930000000.0,1.6360870599746704,-4.728482723236084,7.425454139709473,2.064696788787842,0.5671167373657227,3.4846809999999997,-1.3454306999999999,304.34533999999996,-106.16275,4.387514599999999,JOG
119943940000000.0,1.6410866975784302,-4.642429828643799,6.97622013092041,2.162950038909912,0.42964205145835876,3.4385605000000004,-1.5308283999999999,303.35402999999997,-105.82343999999999,4.6375470000000005,JOG
119943940000000.0,1.646087646484375,-4.574931621551514,6.508560657501221,2.3602428436279297,0.2895320653915405,3.2039883,-1.7220291,302.41074,-105.49803999999999,4.9692326,JOG
119943950000000.0,1.6510862112045288,-4.534523010253906,6.018089294433594,2.6909751892089844,0.14959664642810822,1.8881843999999997,-1.8478674,301.77237,-105.11526,5.183312,JOG
119943960000000.0,1.6560853719711304,-4.504570484161377,5.525130271911621,3.0604665279388428,0.03829561918973923,0.8002335,-1.9346101999999998,300.99405,-104.29955,4.886731,JOG
119943960000000.0,1.6611292362213135,-4.4704718589782715,5.044661521911621,3.3870112895965576,-0.05987928807735443,0.23579398,-2.0103576000000003,300.4332,-103.36389,4.50129,JOG
119943970000000.0,1.6661264896392822,-4.42759895324707,4.595790386199951,3.6561007499694824,-0.15829136967658997,-0.10995574,-2.0405953,299.93118,-102.02431999999999,4.0214989999999995,JOG
119943970000000.0,1.6711249351501465,-4.36805534362793,4.193171501159668,3.840221881866455,-0.2602322995662689,-0.30879238,-2.0457878000000003,299.56198,-100.69839499999999,3.4937877999999998,JOG
119943975000000.0,1.676121711730957,-4.288222789764404,3.857891798019409,3.9493188858032227,-0.36320263147354126,-0.37140608,-2.0005836,299.29312000000004,-99.40429,2.9291009999999997,JOG
119943980000000.0,1.6811192035675049,-4.184093475341797,3.6114790439605713,3.9917092323303223,-0.4643152356147766,-0.39461896,-1.9004018,299.08917,-98.08373,2.3644695,JOG
119943980000000.0,1.6861144304275513,-4.06724739074707,3.439661741256714,3.988473892211914,-0.5599578619003296,-0.52564955,-1.8035796999999998,299.01636,-96.952736,1.8168168999999998,JOG
119943990000000.0,1.6911118030548096,-3.9498484134674072,3.3291213512420654,3.9612576961517334,-0.6470689177513123,-0.93554014,-1.6817119999999999,299.04376,-95.83424000000001,1.2959186000000003,JOG
119944000000000.0,1.6969091892242432,-3.811769723892212,3.4315452575683594,3.839531183242798,-0.6908788681030273,-1.9666806000000001,-1.38025,299.76153999999997,-93.89471400000001,1.5081892,JOG
119944010000000.0,1.7026597261428833,-3.6821720600128174,3.592552661895752,3.713683843612671,-0.7337701916694641,-2.1887302,-1.3439035,300.20218,-93.36526500000001,1.2535711999999999,JOG
119944020000000.0,1.7083743810653687,-3.5730643272399902,3.8321592807769775,3.604421854019165,-0.7782171964645386,-2.2766947999999996,-1.3237450000000002,300.66382000000004,-92.84213000000001,1.0112005,JOG
119944025000000.0,1.7140460014343262,-3.4856173992156982,4.157477378845215,3.519792318344116,-0.82867830991745,-2.3970351,-1.3399329,301.22427000000005,-92.30966,0.7154314,JOG
119944030000000.0,1.7197332382202148,-3.430238723754883,4.6277971267700195,3.490272045135498,-0.8835633993148804,-2.1661282,-1.5683966,301.707,-91.76728,0.37526184,JOG
119944030000000.0,1.7253320217132568,-3.3944270610809326,5.164771556854248,3.4865524768829346,-0.9735473990440369,-1.9816468999999997,-1.7143933,302.23337000000004,-91.01517,0.017920708,JOG
119944040000000.0,1.7309033870697021,-3.3765203952789307,5.74168586730957,3.4873476028442383,-1.0754364728927612,-1.500285,-2.1038197999999997,302.60675,-90.603065,-0.46176678,JOG
119944040000000.0,1.736446499824524,-3.37304425239563,6.34749698638916,3.4854838848114014,-1.2003158330917358,-0.9789116,-2.6151142000000003,302.8825,-88.77923,-1.0514333,JOG
119944050000000.0,1.7419592142105103,-3.3755650520324707,6.953714370727539,3.459503412246704,-1.3336454629898071,-0.5891795,-3.2122349999999997,303.06985,-87.605675,-1.7614572,JOG
119944050000000.0,1.747441053390503,-3.380051851272583,7.558084964752197,3.41005539894104,-1.459267258644104,-0.49327368,-3.8331795,303.22357,-86.24172,-2.6467464,JOG
119944060000000.0,1.7529027462005615,-3.360703706741333,8.147812843322754,3.3317816257476807,-1.5645214319229126,-0.66248333,-4.295299,303.36557,-84.8181,-3.6303258,JOG
119944070000000.0,1.7583465576171875,-3.3167972564697266,8.72217845916748,3.2229104042053223,-1.6454473733901978,-0.9089674999999999,-4.4180827,303.55014,-83.44152,-4.680089499999999,JOG
119944070000000.0,1.7637581825256348,-3.243079423904419,9.274343490600586,3.0735929012298584,-1.705750584602356,-1.1142181999999998,-4.1703773,303.78506,-82.12305500000001,-5.7189336,JOG
119944075000000.0,1.7691465616226196,-3.1416287422180176,9.805061340332031,2.8780477046966553,-1.7503715753555298,-1.2977833,-3.764457,304.09995,-81.00778000000001,-6.6417747,JOG
119944075000000.0,1.7745158672332764,-3.0214736461639404,10.311810493469238,2.601048231124878,-1.7838085889816284,-1.2681563,-3.2968397000000005,304.4069,-80.02502,-7.452042999999999,JOG
119944080000000.0,1.779863715171814,-2.8850231170654297,10.795509338378906,2.2379868030548096,-1.811133861541748,-0.7672467,-2.844494,304.6124,-79.33856,-8.040431,JOG
119944090000000.0,1.7851938009262085,-2.740476131439209,11.255352020263672,1.7237828969955444,-1.837442398071289,0.20250183,-2.4410176,304.65857,-78.76373000000001,-8.519763000000001,JOG
119944090000000.0,1.79051673412323,-2.5893137454986572,11.692645072937012,1.0654748678207397,-1.8585399389266968,1.2376129999999999,-2.0491474,304.4866,-78.58683,-8.764474,JOG
119944100000000.0,1.795812726020813,-2.4715468883514404,12.107657432556152,0.40564799308776855,-1.8717092275619507,1.8695531000000003,-1.8460348000000002,304.1486,-78.452415,-8.971732000000001,JOG
119944100000000.0,1.8010960817337036,-2.3914945125579834,12.50048542022705,-0.2528248131275177,-1.8760055303573608,2.1881194,-1.8732183,303.4098,-79.07935,-8.752832000000001,JOG
119944110000000.0,1.806361436843872,-2.393960475921631,12.861128807067871,-0.8642054200172424,-1.8663347959518433,2.5192082,-2.0839667,302.56406,-79.65834,-8.575453999999999,JOG
119944120000000.0,1.8116155862808228,-2.4837169647216797,13.183286666870117,-1.4239858388900757,-1.8349119424819946,2.82403,-2.3307564,301.685,-80.27729000000001,-8.409903,JOG
119944120000000.0,1.8168526887893677,-2.7489681243896484,13.370810508728027,-1.8495755195617676,-1.7749041318893433,2.9028316000000003,-2.5873199000000002,300.8599,-80.7903,-8.324154,JOG
119944126000000.0,1.8220926523208618,-3.1831469535827637,13.428857803344727,-2.1401665210723877,-1.6857349872589111,2.9220737999999997,-2.9205468,300.05505,-80.81567,-8.662241,JOG
119944126000000.0,1.8273049592971802,-3.646777391433716,13.447151184082031,-2.3100905418395996,-1.5767552852630615,2.8893926,-3.1251867,299.28326,-80.74467,-9.016548,JOG
119944130000000.0,1.8325165510177612,-4.143591403961182,13.424113273620605,-2.355175495147705,-1.4675120115280151,2.7650816000000003,-3.606243,298.51302999999996,-79.711136,-10.189876,JOG
119944140000000.0,1.8377041816711426,-4.577838897705078,13.43635082244873,-2.308929681777954,-1.3692668676376343,2.4663684,-4.002389,297.80634,-78.62250999999999,-11.356128,JOG
119944140000000.0,1.842905879020691,-4.928504467010498,13.499711990356445,-2.1701319217681885,-1.2952368259429932,1.9062048999999999,-4.067752,297.21515,-77.47503,-12.524925999999999,JOG
119944150000000.0,1.8480743169784546,-5.196734428405762,13.57706069946289,-2.007657051086426,-1.2480868101119995,1.1527027,-3.7592647000000006,296.73486,-103.897766,-13.894824,JOG
119944150000000.0,1.8532288074493408,-5.382354736328125,13.668896675109863,-1.820540428161621,-1.2257494926452637,0.258396,-3.1841352,296.4682,-105.10597,-15.1031,JOG
119944160000000.0,1.8583831787109375,-5.497604846954346,13.741971969604492,-1.6391650438308716,-1.2207660675048828,-0.6075055,-2.5384505,296.42892,-106.17976000000002,-16.17895,JOG
119944170000000.0,1.8635246753692627,-5.55007266998291,13.794865608215332,-1.4662401676177979,-1.2216476202011108,-1.4110987,-1.9462167000000001,296.64783,-72.91490999999999,-17.084812,JOG
119944170000000.0,1.8686600923538208,-5.544673442840576,13.820019721984863,-1.3218196630477905,-1.2180709838867188,-2.0528126,-1.4966198,297.10712,-72.2996,-17.692863,JOG
119944180000000.0,1.8737844228744507,-5.486021518707275,13.818082809448242,-1.2072768211364746,-1.206171989440918,-2.4416285,-1.1731668,297.73306,-71.821625,-18.15158,JOG
119944180000000.0,1.87890625,-5.388211727142334,13.786164283752441,-1.1120877265930176,-1.1861498355865479,-2.665205,-0.9285152,298.51138,-71.55675,-18.384783,JOG
119944184000000.0,1.8840162754058838,-5.256527900695801,13.726451873779297,-1.0334815979003906,-1.1577050685882568,-2.8093692999999997,-0.7171558000000001,299.3738,-71.37749000000001,-18.52345,JOG
119944190000000.0,1.8891247510910034,-5.097636699676514,13.638381004333496,-0.9712162613868713,-1.1228327751159668,-2.9611692,-0.5674938,300.30582000000004,-71.37084,-18.488564,JOG
119944190000000.0,1.8942281007766724,-4.915122032165527,13.523664474487305,-0.9243032932281494,-1.0833243131637573,-3.1306844,-0.46303585,301.2701,-71.414764,-18.400973999999998,JOG
119944200000000.0,1.8993260860443115,-4.707658767700195,13.380167961120605,-0.9037768244743347,-1.042291522026062,-3.2436945,-0.36010507,302.2498,-71.61018,-18.166655,JOG
119944200000000.0,1.9044156074523926,-4.476234436035156,13.208793640136719,-0.9114953875541687,-1.000808596611023,-3.242778,-0.24007004,303.22144,-71.83980600000001,-17.900093,JOG
119944210000000.0,1.9095090627670288,-4.219479560852051,13.013282775878906,-0.9495156407356262,-0.958232045173645,-3.121827,-0.13103059,304.16415,-72.231636,-17.486760999999998,JOG
119944220000000.0,1.9145926237106323,-3.940296173095703,12.797616004943848,-1.015362024307251,-0.9140993356704712,-2.8875601000000004,0.002443461,305.03722999999997,-72.655556,-17.047514000000003,JOG
119944220000000.0,1.9196709394454956,-3.64007568359375,12.561201095581055,-1.1039462089538574,-0.8679400086402893,-2.7666087000000004,0.054061572999999995,305.82052999999996,-73.290405,-16.431135,JOG
119944230000000.0,1.9247455596923828,-3.3200747966766357,12.304457664489746,-1.2124407291412354,-0.8218478560447693,-2.5112669999999997,0.16371189,306.45422,-73.94916500000001,-15.799238,JOG
119944230000000.0,1.9298160076141357,-2.9821953773498535,12.032458305358887,-1.3301388025283813,-0.7741101980209351,-2.2626447999999995,0.2764165,307.06842,-74.48881999999999,-15.284286499999999,JOG
119944235000000.0,1.9348825216293335,-2.627671241760254,11.747481346130371,-1.4529497623443604,-0.7243426442146301,-2.0433443,0.3924809,307.5957,-75.04782,-14.755818,JOG
119944240000000.0,1.939943790435791,-2.263101816177368,11.44934368133545,-1.5781469345092773,-0.6726208925247192,-1.8832976000000003,0.54336464,308.14477999999997,-75.533615,-14.293111999999999,JOG
119944240000000.0,1.9450052976608276,-1.8913217782974243,11.137664794921875,-1.704537034034729,-0.6193094849586487,-1.7800613999999997,0.69027776,308.63782000000003,-76.05122,-13.803815,JOG
119944250000000.0,1.9500609636306763,-1.5183415412902832,10.814112663269043,-1.8353420495986938,-0.5642977952957153,-1.7079792,0.82924956,309.1201,-76.62471,-13.259473000000002,JOG
119944250000000.0,1.955118179321289,-1.146679401397705,10.478710174560547,-1.9727193117141724,-0.5082298517227173,-1.6484199000000002,0.9495899999999999,309.57187000000005,-77.23453,-12.680338,JOG
119944260000000.0,1.96017587184906,-0.784101665019989,10.133813858032227,-2.1184017658233643,-0.4516991674900055,-1.5384641000000001,1.0464121,310.00006,-77.904045,-12.041053999999999,JOG
119944270000000.0,1.965224266052246,-0.43599963188171387,9.782042503356934,-2.272902488708496,-0.3971882164478302,-1.3542882,1.1301007,310.38828,-78.59994,-11.371546,JOG
119944270000000.0,1.9702688455581665,-0.10844694823026657,9.422907829284668,-2.4331576824188232,-0.3450288772583008,-1.1191051,1.2046263000000001,310.73947000000004,-79.337234,-10.655165,JOG
119944280000000.0,1.9753116369247437,0.19507500529289246,9.056370735168457,-2.5970473289489746,-0.2940540909767151,-0.82253003,1.2709051000000002,311.0212,-99.91624,-9.916186,JOG
119944280000000.0,1.9803516864776611,0.4748353958129883,8.680084228515625,-2.7545597553253174,-0.24350076913833618,-0.4596761,1.3423764,311.22565,-99.17318,-9.1575165,JOG
119944285000000.0,1.985392451286316,0.730968713760376,8.291357040405273,-2.8962810039520264,-0.19373713433742523,-0.07360926,1.4187346,311.34235,-98.442406,-8.374811,JOG
119944290000000.0,1.9904277324676514,0.9656444787979126,7.892900466918945,-3.012934684753418,-0.14551867544651031,0.2843578,1.4984524,311.3761,-97.77635,-7.5966496,JOG
119944290000000.0,1.9954646825790405,1.1803810596466064,7.485483169555664,-3.0968925952911377,-0.09807940572500229,0.5720753000000001,1.5738943,311.3268,-97.16609,-6.7911234,JOG
119944300000000.0,2.0004966259002686,1.3784258365631104,7.069088459014893,-3.1363890171051025,-0.05347757413983345,0.7296785,1.6154331,311.22632000000004,-96.6625,-5.997455,JOG
119944300000000.0,2.005528211593628,1.5647891759872437,6.641073703765869,-3.1033403873443604,-0.012522329576313496,0.68691796,1.6710218000000001,311.11105,-96.25938000000001,-5.17171,JOG
119944310000000.0,2.0105600357055664,1.7436449527740479,6.206974029541016,-2.998640537261963,0.023727307096123695,0.44287730000000003,1.7290541000000001,311.01355,-95.95429,-4.353209,JOG
119944310000000.0,2.0155904293060303,1.9187664985656738,5.7720627784729,-2.8239011764526367,0.0540245920419693,0.24892759999999997,1.8017471,310.92395,-95.77608000000001,-3.508714,JOG
119944320000000.0,2.0206470489501953,2.0922350883483887,5.332024097442627,-2.5784053802490234,0.07979360967874527,-0.2648101,1.8414533,310.97577,-95.57245999999999,-2.6539422999999998,JOG
119944330000000.0,2.0256693363189697,2.2634799480438232,4.891521453857422,-2.284341335296631,0.0978899896144867,-0.91415983,1.9230038,311.12866,-95.466736,-1.7683537,JOG
119944330000000.0,2.0306894779205322,2.4347195625305176,4.442355632781982,-1.925835132598877,0.11057824641466141,-1.6982054,1.9950858,311.42413,-95.247986,-0.8441991,JOG
119944335000000.0,2.035709857940674,2.6076741218566895,3.977635145187378,-1.49118971824646,0.11967666447162628,-2.5751022999999997,2.0448713,311.92953,-95.16337,0.0864873,JOG
119944335000000.0,2.0407254695892334,2.7790820598602295,3.4904818534851074,-0.990513026714325,0.1251649558544159,-3.5775322999999997,2.0595322,312.62915,-94.9866,1.0608468,JOG
119944340000000.0,2.045747756958008,2.9452404975891113,2.968421697616577,-0.42948979139328003,0.12987244129180908,-4.5350637,2.0479257,313.55463,-95.02391,2.0345228,JOG
119944350000000.0,2.0507590770721436,3.096259593963623,2.407374858856201,0.16152125597000122,0.1349150389432907,-5.309641,1.9617938000000001,314.59817999999996,-95.00874,3.0499482,JOG
119944350000000.0,2.0557806491851807,3.216597318649292,1.7883270978927612,0.7513008713722229,0.13758911192417145,-5.622403599999999,1.7617353,315.75827000000004,-95.24824,4.0352254,JOG
119944360000000.0,2.060792922973633,3.286733627319336,1.1166858673095703,1.2828741073608398,0.13377252221107483,-5.255579,1.4193453999999999,316.8178,-95.564255,5.0127773,JOG
119944360000000.0,2.0658087730407715,3.270207643508911,0.3848865032196045,1.668621301651001,0.12102773040533066,-3.9794817000000005,0.8393288000000001,317.67722000000003,-96.05391999999999,5.8774809999999995,JOG
119944370000000.0,2.070817232131958,3.1679842472076416,-0.35864120721817017,1.8728090524673462,0.10114901512861252,-1.6441438000000002,0.053450707,318.07196,-96.572464,6.564812,JOG
119944380000000.0,2.0758302211761475,2.9644253253936768,-1.0187357664108276,1.7850934267044067,0.0842178612947464,1.4462235,-0.61391956,317.8709,-82.84246,7.104547500000001,JOG
119944380000000.0,2.080838918685913,2.6872122287750244,-1.5712039470672607,1.445433259010315,0.09170978516340256,4.4706173,-0.7858781,317.1768,-82.49382,7.327153,JOG
119944386000000.0,2.0858511924743652,2.4065756797790527,-1.909851312637329,0.9156795740127563,0.1469508558511734,6.738454300000001,-0.5540548000000001,315.81317,-82.20770999999999,7.434222,JOG
119944386000000.0,2.090860366821289,2.134432554244995,-2.0653953552246094,0.2781118154525757,0.2532562017440796,7.9583525999999996,-0.18845193,314.2468,-82.57772,7.1852636,JOG
119944390000000.0,2.0958733558654785,1.8986213207244873,-2.080965995788574,-0.29581958055496216,0.39392226934432983,8.2210245,0.12583824,312.30508,-82.90544,6.985496,JOG
119944400000000.0,2.1008801460266113,1.6954686641693115,-1.9761252403259277,-0.800602376461029,0.5460549592971802,7.830070500000001,0.26145032,310.43008,-96.78448,6.779883,JOG
119944400000000.0,2.1058902740478516,1.5148851871490479,-1.8229628801345825,-1.1450462341308594,0.6903730630874634,7.064046,0.21502456,308.5869,-96.9124,6.656808,JOG
119944410000000.0,2.110901355743408,1.3676358461380005,-1.6107654571533203,-1.3133723735809326,0.8154757022857666,6.0564237,0.16615535,306.89337,-97.456726,6.630247,JOG
119944410000000.0,2.115908622741699,1.3065320253372192,-1.281362771987915,-1.2021349668502808,0.8985080122947693,5.467549299999999,0.20738874,305.3089,-98.22691999999999,6.6492243,JOG
119944420000000.0,2.1209235191345215,1.322624683380127,-0.843893826007843,-0.8369632363319397,0.946448802947998,4.593096,0.17104226,303.9818,-98.83969,6.648956,JOG
119944430000000.0,2.1259305477142334,1.3182272911071777,-0.4080928564071655,-0.5043407678604126,0.9489927291870117,3.9828415,0.09040806,302.76044,-99.34111,6.6515164,JOG
119944430000000.0,2.130936622619629,1.293534517288208,0.02949569746851921,-0.20180362462997437,0.9330076575279236,3.4926220999999997,-0.09407325,301.62085,-99.08867,6.7777042000000005,JOG
119944440000000.0,2.135943651199341,1.244431495666504,0.5042204856872559,0.08538226783275604,0.9046897888183594,3.2791247,-0.34330627,300.5908,-98.710884,6.855842599999999,JOG
119944440000000.0,2.1409478187561035,1.1786530017852783,1.0190963745117188,0.3435978591442108,0.8650708198547363,3.1569517000000005,-0.6224717,299.6225,-98.31558000000001,6.835142599999999,JOG
119944444000000.0,2.145956516265869,1.1704479455947876,1.6438605785369873,0.39919549226760864,0.829337477684021,3.137404,-0.8762861999999999,298.69574,-97.90977,6.7504029999999995,JOG
119944450000000.0,2.1509714126586914,1.2168056964874268,2.3672800064086914,0.2748153507709503,0.8029634952545166,2.8933632,-1.0296134,297.83902,-97.408264,6.517027,JOG
119944450000000.0,2.1559762954711914,1.307483434677124,3.099142074584961,0.15029147267341614,0.780387818813324,2.4605650000000003,-1.0042624,297.0593,-96.91946,6.266934,JOG
119944460000000.0,2.1610076427459717,1.4466732740402222,3.8455798625946045,0.02468288131058216,0.7531554102897644,1.8707749,-0.8552113000000001,296.73572,-96.779976,6.124032,JOG
119944460000000.0,2.166010856628418,1.6323961019515991,4.584085941314697,-0.10588975995779037,0.7152476906776428,1.2125676,-0.6032294,296.56537000000003,-96.67102,6.017103,JOG
119944470000000.0,2.171011447906494,1.8721917867660522,5.312898635864258,-0.2447226196527481,0.6643198728561401,0.45234573,-0.22021692,296.59906,-96.61771,5.9834247000000005,JOG
119944480000000.0,2.1760141849517822,2.1384379863739014,6.022576332092285,-0.41003620624542236,0.5984940528869629,-0.29657507,0.33475417,296.72784,-96.78079,6.200603,JOG
119944480000000.0,2.181015729904175,2.4168365001678467,6.708869934082031,-0.6088374853134155,0.5184828042984009,-0.86162543,1.0228939000000001,297.02197,-97.03935,6.541363700000001,JOG
119944490000000.0,2.186018466949463,2.673346996307373,7.3682966232299805,-0.8121744394302368,0.4284277856349945,-1.2910636999999998,1.8075503000000002,297.37878,-97.56687,7.159561599999999,JOG
119944490000000.0,2.1910202503204346,2.8926665782928467,7.9998369216918945,-1.0061763525009155,0.33483803272247314,-1.5247196,2.5546384,297.8427,-98.243835,7.9290943,JOG
119944495000000.0,2.19602370262146,3.0556740760803223,8.60273265838623,-1.179113745689392,0.24589411914348602,-1.6453656000000003,2.9895744,298.38312,-99.093475,8.833596,JOG
119944500000000.0,2.201026201248169,3.1539573669433594,9.177165031433105,-1.3252904415130615,0.17275887727737427,-1.6966782,3.2143729,298.97235,-100.07121,9.8509445,JOG
119944500000000.0,2.2060294151306152,3.1964151859283447,9.660492897033691,-1.4577792882919312,0.12175184488296509,-1.6255124,3.3099732000000004,299.561,-101.06187,10.862471000000001,JOG
119944510000000.0,2.2110326290130615,3.1886305809020996,10.029600143432617,-1.5824577808380127,0.0965932309627533,-1.5045611,3.339295,300.14337,-102.07858,11.880381,JOG
119944510000000.0,2.2160327434539795,3.1408395767211914,10.278274536132812,-1.6938238143920898,0.09971440583467484,-1.0726794,3.3347135000000003,300.58727999999996,-102.96771,12.755699,JOG
119944520000000.0,2.2210347652435303,3.0582261085510254,10.40364933013916,-1.7892037630081177,0.11790484189987183,-0.4465425,3.309057,300.92535,-103.8348,13.601961,JOG
119944530000000.0,2.226036310195923,2.945354700088501,10.439762115478516,-1.8505609035491943,0.1645878553390503,0.18570304,3.2467487,301.10297,-104.64285,14.347156,JOG
119944530000000.0,2.23103928565979,2.804910898208618,10.404993057250977,-1.8694623708724976,0.23098531365394592,0.60231316,3.114802,301.15814,-105.40648999999999,15.042645000000002,JOG
119944540000000.0,2.2360403537750244,2.6360316276550293,10.326882362365723,-1.8492839336395264,0.3051081895828247,0.64599,2.9324586,301.11395,-106.12629,15.671117,JOG
119944540000000.0,2.2410411834716797,2.4384539127349854,10.220399856567383,-1.7922242879867554,0.3727904260158539,0.38881573,2.715296,301.04900000000004,-106.79081000000001,16.230610000000002,JOG
119944545000000.0,2.246044397354126,2.2137844562530518,10.101221084594727,-1.715781807899475,0.42478787899017334,-0.049480084,2.4608707,300.971,-107.34926999999999,16.689089000000003,JOG
119944550000000.0,2.2510457038879395,1.964249849319458,9.977543830871582,-1.6292833089828491,0.4566625952720642,-0.53786683,2.1395555,300.99237,-107.80317,17.041477,JOG
119944550000000.0,2.2560465335845947,1.6911015510559082,9.874405860900879,-1.539873719215393,0.46836382150650024,-1.0665708,1.7421877000000001,301.16708,-108.17094399999999,17.321587,JOG
119944560000000.0,2.2610526084899902,1.3948785066604614,9.804546356201172,-1.4511879682540894,0.4624316394329071,-1.598329,1.287093,301.47867,-108.39934,17.467348,JOG
119944560000000.0,2.2660536766052246,1.0740015506744385,9.78544807434082,-1.3665984869003296,0.4414660632610321,-2.1270328,0.7669413,301.9514,-108.43524,17.42707,JOG
119944570000000.0,2.27105450630188,0.7262934446334839,9.828768730163574,-1.2880585193634033,0.4099632203578949,-2.6539040000000003,0.18112154,302.5619,-108.30035,17.213410999999997,JOG
119944570000000.0,2.2760536670684814,0.35477563738822937,9.943290710449219,-1.2228143215179443,0.37125182151794434,-3.1453452,-0.4392121,303.3033,-107.92295,16.744726,JOG
119944580000000.0,2.281054735183716,-0.03896959125995636,10.134489059448242,-1.175310730934143,0.3281901776790619,-3.5555413000000002,-1.0787879999999999,304.14975,-107.366165,16.085810000000002,JOG
119944590000000.0,2.286055088043213,-0.4592212736606598,10.391058921813965,-1.1492491960525513,0.2838098406791687,-3.8707476,-1.7088956000000002,305.09763,-106.53178,15.117334,JOG
119944590000000.0,2.2910549640655518,-0.9086951017379761,10.705057144165039,-1.146843433380127,0.24119238555431366,-4.0280457,-2.3218987,306.08847000000003,-105.54368999999998,13.970284,JOG
119944595000000.0,2.2960598468780518,-1.3834103345870972,11.053290367126465,-1.1713738441467285,0.20468758046627045,-3.977649,-2.8643472,307.10537999999997,-104.343346,12.541088,JOG
119944595000000.0,2.301060199737549,-1.877960205078125,11.417120933532715,-1.2233848571777344,0.17603689432144165,-3.7870589999999997,-3.2788190000000004,308.09888,-103.0831,10.998573,JOG
119944600000000.0,2.3060598373413086,-2.3849642276763916,11.787311553955078,-1.3007053136825562,0.15879344940185547,-3.4116824,-3.4868187999999996,309.04224,-101.77365999999999,9.264693,JOG
119944610000000.0,2.311070680618286,-2.8986504077911377,12.15592098236084,-1.402162790298462,0.1556047648191452,-3.1251867,-3.4596352999999995,309.9378,-100.59434499999999,7.527212,JOG
119944610000000.0,2.316068410873413,-3.406069040298462,12.517374038696289,-1.5049943923950195,0.16083863377571106,-2.4236077999999996,-3.4040464999999998,310.6366,-99.57831,5.7089300000000005,JOG
119944620000000.0,2.321068286895752,-3.89756441116333,12.868023872375488,-1.587601900100708,0.18374748528003693,-1.8154916,-3.1978796000000003,311.2734,-98.958626,3.9995928,JOG
119944620000000.0,2.3260669708251953,-4.367528438568115,13.189543724060059,-1.6530994176864624,0.22710062563419342,-1.3121386,-2.892447,311.77448,-98.75539,2.3404974999999997,JOG
119944630000000.0,2.3310673236846924,-4.804409980773926,13.445441246032715,-1.7059983015060425,0.29537534713745117,-0.81092364,-2.6484063,312.09662000000003,-98.98594,0.7977132,JOG
119944640000000.0,2.3360660076141357,-5.203535079956055,13.635509490966797,-1.7505192756652832,0.3899455666542053,-0.24312437,-2.4150557999999998,312.25214,-99.55254000000001,-0.6099730999999999,JOG
119944640000000.0,2.3410654067993164,-5.557625770568848,13.756813049316406,-1.791892647743225,0.5061056017875671,0.4120286,-2.1536055,312.24677,-100.399635,-1.8708038,JOG
119944646000000.0,2.346085548400879,-5.861832618713379,13.805731773376465,-1.8311461210250854,0.6375449895858765,1.1081096000000001,-1.8884900000000002,312.08752000000004,-101.451256,-2.990272,JOG
119944646000000.0,2.3510847091674805,-6.118093013763428,13.792774200439453,-1.8692409992218018,0.7804543972015381,1.8350391,-1.6713273999999998,311.74457,-102.64574,-3.979999,JOG
119944650000000.0,2.3560791015625,-6.327262878417969,13.722501754760742,-1.902285099029541,0.9327576160430908,2.5830436000000003,-1.4969252,311.2229,-103.941376,-4.8063426,JOG
119944660000000.0,2.3610832691192627,-6.490389823913574,13.602328300476074,-1.924193263053894,1.0930912494659424,3.3111951,-1.2852603999999999,310.52365,-105.2894,-5.4881325,JOG
119944660000000.0,2.366076946258545,-6.5961432456970215,13.444609642028809,-1.9496991634368896,1.263859748840332,4.1566324,-0.9963211999999999,309.61206,-106.707214,-5.9620175,JOG
119944670000000.0,2.3710763454437256,-6.6162824630737305,13.258661270141602,-2.002224922180176,1.4453696012496948,5.6627207,-0.5555819000000001,308.35904,-108.15207,-6.1962779999999995,JOG
119944670000000.0,2.3760712146759033,-6.572905540466309,13.058671951293945,-2.0632777214050293,1.6294142007827759,7.778147,0.036651913,306.75847999999996,-109.58023999999999,-6.093764299999999,JOG
119944680000000.0,2.381077289581299,-6.493626594543457,12.865701675415039,-2.1023600101470947,1.798816204071045,9.804082000000001,0.68875057,304.85638,-110.96184,-5.678744,JOG
119944690000000.0,2.386070966720581,-6.4083099365234375,12.67680835723877,-2.103628396987915,1.9365811347961426,9.963212,1.2290609,302.9905,-112.29438999999999,-4.900015,JOG
119944690000000.0,2.3910701274871826,-6.374002456665039,12.48470687866211,-2.0236477851867676,2.0360934734344482,9.963212,1.6022996,300.73737,-113.52373,-3.7671297,JOG
119944700000000.0,2.396070957183838,-6.394413948059082,12.280917167663574,-1.8576645851135254,2.0936946868896484,9.963212,1.7608191000000002,298.48816,-114.51566000000001,-2.4115615000000004,JOG
119944700000000.0,2.4010708332061768,-6.483569622039795,12.044466018676758,-1.585943579673767,2.102470636367798,9.963212,1.6853772,296.3065,-115.28656000000001,-1.0044494000000002,JOG
119944704000000.0,2.4060680866241455,-6.634024620056152,11.769532203674316,-1.1973693370819092,2.054361581802368,9.963212,1.357648,294.03033,-115.64865,0.28585827,JOG
119944710000000.0,2.411069393157959,-6.831210136413574,11.42633056640625,-0.6267209053039551,1.9431047439575195,9.913121,1.0922271000000001,291.77862999999996,-115.70450600000001,1.5557306,JOG
119944710000000.0,2.416107416152954,-7.064278602600098,11.023104667663574,0.09614873677492142,1.8022924661636353,3.1542027000000004,-0.019242255,291.05573,-115.37071,1.5498239,JOG
119944720000000.0,2.421104907989502,-7.299790382385254,10.602069854736328,0.8580726385116577,1.5980640649795532,0.25259277,-0.31978795,289.40698,-114.47948500000001,2.1395807000000002,JOG
119944720000000.0,2.4261016845703125,-7.534843921661377,10.160392761230469,1.6495126485824585,1.4175134897232056,-3.5054502,-0.6942484,289.5013,-113.40900400000001,1.5264973999999998,JOG
119944730000000.0,2.4311001300811768,-7.7303080558776855,9.718984603881836,2.317333459854126,1.2717009782791138,-5.1492887000000005,-0.87017757,289.8037,-112.04099,0.8241368,JOG
119944740000000.0,2.436096668243408,-7.888124465942383,9.277055740356445,2.8619985580444336,1.147006630897522,-5.41135,-0.9211848,290.7231,-110.51578,-0.09815499,JOG
119944740000000.0,2.4410948753356934,-8.004695892333984,8.823188781738281,3.2141904830932617,1.0379101037979126,-4.732678400000001,-0.9309586,291.8321,-109.17407,-1.0865945,JOG
119944750000000.0,2.4461147785186768,-8.079712867736816,8.354830741882324,3.3744964599609375,0.9409432411193848,-3.6566392999999997,-0.99112886,292.94305,-108.18494,-2.0468962,JOG
119944750000000.0,2.4511122703552246,-8.120070457458496,7.869242191314697,3.426914691925049,0.852545976638794,-2.5613580000000002,-1.1074986,293.86322,-107.2938,-2.9322432999999997,JOG
119944755000000.0,2.4561190605163574,-8.119196891784668,7.368041515350342,3.371060848236084,0.7709431648254395,-1.5613716,-1.2229522,294.5896,-106.953445,-3.7796112999999996,JOG
119944760000000.0,2.4611167907714844,-8.035806655883789,6.9140095710754395,3.281407356262207,0.6942589282989502,-0.691194,-1.2779301,295.0459,-106.670616,-4.5510864,JOG
119944760000000.0,2.4661266803741455,-7.871860504150391,6.505497455596924,3.1623198986053467,0.6173804402351379,-0.05681047,-1.2336423,295.39307,-106.67492,-5.0790877,JOG
119944770000000.0,2.471123695373535,-7.689898490905762,6.128699779510498,3.0839083194732666,0.5348814129829407,0.33200526,-1.1013899999999999,295.56784,-106.67083000000001,-5.5384154,JOG
119944770000000.0,2.476139783859253,-7.488330364227295,5.782869338989258,3.0486748218536377,0.4434315860271454,0.52626044,-0.9602801999999999,295.50296000000003,-106.631454,-5.7995844000000005,JOG
119944780000000.0,2.4811363220214844,-7.28722620010376,5.459187030792236,3.0575265884399414,0.3422708809375763,0.5140431,-0.8918633,295.395,-106.53567,-6.0237083,JOG
119944790000000.0,2.4861550331115723,-7.084876537322998,5.157081604003906,3.115030527114868,0.23372358083724976,0.30543262,-0.9059132,295.2176,-106.23511,-6.123926,JOG
119944790000000.0,2.491149663925171,-6.880944728851318,4.88221549987793,3.183798313140869,0.12168298661708832,-0.00580322,-0.9575313,295.07452,-105.87756999999999,-6.2186785,JOG
119944800000000.0,2.496143102645874,-6.674075603485107,4.63527250289917,3.26031756401062,0.00957444217056036,-0.2779437,-1.0134254999999999,294.97565,-105.4786,-6.3249059999999995,JOG
119944800000000.0,2.501138925552368,-6.459521770477295,4.438150405883789,3.3096179962158203,-0.10225658863782883,-0.48288897,-1.0781771999999998,294.84512,-104.88954,-6.309591,JOG
119944805000000.0,2.506129503250122,-6.237637519836426,4.2900776863098145,3.329411268234253,-0.21411791443824768,-0.5626069,-1.1004738,294.74658,-104.27614,-6.3033233,JOG
119944810000000.0,2.5111277103424072,-6.01379919052124,4.188724040985107,3.3086495399475098,-0.3234035074710846,-0.67256266,-1.1438452,294.6402,-103.61069,-6.2765949999999995,JOG
119944810000000.0,2.5161194801330566,-5.789417743682861,4.129454612731934,3.2503552436828613,-0.43226906657218933,-0.77213365,-1.1881329,294.54236000000003,-102.91805,-6.2557116,JOG
119944820000000.0,2.5211167335510254,-5.569013595581055,4.100330829620361,3.1535398960113525,-0.5395812392234802,-0.8613200000000001,-1.2229522,294.49054,-102.270744,-6.361382,JOG
119944820000000.0,2.526109457015991,-5.35338830947876,4.097144603729248,3.021573781967163,-0.6443648338317871,-0.9495899999999999,-1.2684617,294.45712000000003,-101.63351,-6.479523,JOG
119944830000000.0,2.5311076641082764,-5.151517391204834,4.114452838897705,2.8596646785736084,-0.7448827028274536,-1.0140363000000001,-1.3158038,294.53082,-101.11968,-6.7706385,JOG
119944830000000.0,2.536100149154663,-4.964096546173096,4.1495442390441895,2.671679973602295,-0.8379439115524292,-1.0128145,-1.3521502,294.6089,-100.66144,-7.0649104000000005,JOG
119944840000000.0,2.541097640991211,-4.80686616897583,4.211289882659912,2.463547945022583,-0.9236202836036682,-0.9669996999999999,-1.4095715,294.72327,-100.352905,-7.3907623,JOG
119944850000000.0,2.546093702316284,-4.681106090545654,4.299468040466309,2.2382583618164062,-1.0021263360977173,-0.91232723,-1.5198327,294.83154,-100.12473,-7.7339009999999995,JOG
119944850000000.0,2.5510921478271484,-4.598849296569824,4.41511344909668,2.0154454708099365,-1.0710445642471313,-0.7629706999999999,-1.6377298,294.9105,-100.06024000000001,-8.0926,JOG
119944855000000.0,2.556091785430908,-4.561509609222412,4.55717658996582,1.800658941268921,-1.1306579113006592,-0.57543504,-1.7690656999999999,294.95797999999996,-100.0744,-8.47575,JOG
119944855000000.0,2.561091661453247,-4.572413921356201,4.721066474914551,1.6104748249053955,-1.1855642795562744,-0.5271766999999999,-1.9138408,295.02563,-100.26610600000001,-8.953704,JOG
119944860000000.0,2.5660881996154785,-4.62994384765625,4.904397964477539,1.4479740858078003,-1.2408976554870605,-0.6337727,-2.0891593,295.07825,-100.52975500000001,-9.466764,JOG
119944870000000.0,2.571086883544922,-4.7395429611206055,5.109814643859863,1.3089818954467773,-1.298718810081482,-0.820392,-2.2898283,295.1675,-100.97041999999999,-10.134994500000001,JOG
119944870000000.0,2.5760858058929443,-4.900485038757324,5.3369975090026855,1.1910489797592163,-1.3595136404037476,-0.9443976999999999,-2.5497514999999997,295.26297,-101.49344,-10.857992,JOG
119944880000000.0,2.581084728240967,-5.10896110534668,5.595006465911865,1.0913453102111816,-1.4265094995498657,-0.8164214,-2.866485,295.35573999999997,-102.204666,-11.769572,JOG
119944880000000.0,2.5860846042633057,-5.3622727394104,5.885548114776611,1.0083986520767212,-1.5038357973098755,-0.5681046999999999,-3.232088,295.44498,-103.02306999999999,-12.752485,JOG
119944890000000.0,2.5910837650299072,-5.664275646209717,6.21964693069458,0.9359076023101807,-1.5935463905334473,-0.28955013,-3.6435058,295.50595,-104.09031999999999,-13.953745000000001,JOG
119944900000000.0,2.5960872173309326,-6.015799522399902,6.600534915924072,0.8716201186180115,-1.6908631324768066,0.005497787,-4.0888267,295.48907,-105.29186999999999,-15.2409315,JOG
119944900000000.0,2.601086139678955,-6.42478609085083,7.033606052398682,0.8115365505218506,-1.7883976697921753,0.19058995,-4.583627,295.44138,-106.74766000000001,-16.74105,JOG
119944906000000.0,2.6060850620269775,-6.894221782684326,7.5210347175598145,0.7541489005088806,-1.877576470375061,0.6301074999999999,-4.8450775,295.23712,-71.73463000000001,-18.26339,JOG
119944906000000.0,2.6110851764678955,-7.398852825164795,8.032905578613281,0.7097964882850647,-1.9559475183486938,0.9233228000000001,-5.3899693,295.0411,-69.90453000000001,-20.069986,JOG
119944910000000.0,2.6160824298858643,-7.926558017730713,8.5557222366333,0.6820483803749084,-2.0127902030944824,0.93645644,-5.9088993,294.8085,-68.0437,-21.894144,JOG
119944920000000.0,2.621081590652466,-8.459454536437988,9.076077461242676,0.6670317649841309,-2.0425782203674316,0.59986967,-6.3282585,294.61597,-66.01016,-23.887527,JOG
119944920000000.0,2.6260781288146973,-8.98842716217041,9.58730411529541,0.6623610258102417,-2.043856143951416,-0.045814894,-6.5188484,294.52963,-63.967224,-25.891872,JOG
119944930000000.0,2.631077766418457,-9.479103088378906,10.08475399017334,0.6415289640426636,-2.0188755989074707,-0.8249735,-6.3746843,294.60834,-61.919757999999995,-27.900177000000003,JOG
119944930000000.0,2.6360771656036377,-9.91118335723877,10.565478324890137,0.5888462066650391,-1.975172758102417,-1.5928311000000002,-5.829487,294.90256,-60.01115,-29.767794,JOG
119944940000000.0,2.6410768032073975,-10.249168395996094,11.02706527709961,0.4663485288619995,-1.9233489036560059,-2.1975877,-4.9895473,295.41513,-58.272076,-31.457478000000002,JOG
119944950000000.0,2.6460776329040527,-10.475359916687012,11.468622207641602,0.2544330358505249,-1.871031403541565,-2.4462099999999998,-3.9663480000000004,296.063,-56.80011,-32.874195,JOG
119944950000000.0,2.6510751247406006,-10.602341651916504,11.89023494720459,-0.031325798481702805,-1.8207532167434692,-2.1792617,-2.9846876,296.71274,-55.667927,-33.958904,JOG
119944960000000.0,2.656073808670044,-10.6392183303833,12.292102813720703,-0.3789292573928833,-1.7715593576431274,-1.6224581,-2.2434027000000003,297.32773,-54.787388,-34.792458,JOG
119944960000000.0,2.6610724925994873,-10.613459587097168,12.674360275268555,-0.7322148084640503,-1.7214875221252441,-1.2073752,-1.7883080000000002,297.7879,-54.33535,-35.233909999999995,JOG
119944964000000.0,2.6660711765289307,-10.542328834533691,13.037489891052246,-1.0582188367843628,-1.6636829376220703,-0.9465357,-1.5201381,298.0891,-54.0506,-35.524395,JOG
119944970000000.0,2.6711080074310303,-10.436307907104492,13.340431213378906,-1.3553650379180908,-1.593251347541809,-0.6731735,-1.3594806000000002,298.1394,-54.08875,-35.535736,JOG
119944970000000.0,2.676105499267578,-10.31364917755127,13.576916694641113,-1.6271867752075195,-1.5105400085449219,-0.31123585,-1.3017538999999998,298.07153,-54.169136,-35.515858,JOG
119944980000000.0,2.6811020374298096,-10.181672096252441,13.730212211608887,-1.8626341819763184,-1.4190682172775269,0.026267206,-1.3158038,297.9156,-54.400436,-35.353184000000006,JOG
119944980000000.0,2.6860997676849365,-10.04811954498291,13.79506778717041,-2.055400848388672,-1.3225420713424683,0.27855456,-1.3640621000000002,297.6739,-54.623523999999996,-35.200386,JOG
119944990000000.0,2.6910972595214844,-9.912260055541992,13.782175064086914,-2.201153039932251,-1.2261791229248047,0.42302418,-1.462106,297.3814,-54.82042,-35.06756,JOG
119945000000000.0,2.696094512939453,-9.773537635803223,13.700231552124023,-2.296999454498291,-1.1351633071899414,0.45662177,-1.5570955,297.05147999999997,-54.98525600000001,-34.954421999999994,JOG
119945000000000.0,2.701091766357422,-9.626091957092285,13.564229965209961,-2.3560569286346436,-1.054385781288147,0.4334089,-1.6386459999999998,296.72946,-54.98345,-34.988934,JOG
119945010000000.0,2.706092119216919,-9.463773727416992,13.388739585876465,-2.39128041267395,-0.9811522364616394,0.33261612,-1.6655241000000003,296.42865,-54.962219999999995,-35.030094,JOG
119945010000000.0,2.7110939025878906,-9.281278610229492,13.197539329528809,-2.402768850326538,-0.9198625683784485,0.1957823,-1.6511686999999997,296.19138,-54.788180000000004,-35.210762,JOG
119945015000000.0,2.716090679168701,-9.073770523071289,13.014874458312988,-2.390958786010742,-0.8675525188446045,-0.026572637000000003,-1.5155566999999999,296.02,-125.35651999999999,-35.356213000000004,JOG
119945020000000.0,2.7210891246795654,-8.838348388671875,12.842543601989746,-2.3605501651763916,-0.8218065500259399,-0.27672195,-1.3084733,295.91962,-125.50481,-35.501853999999994,JOG
119945020000000.0,2.7260873317718506,-8.570340156555176,12.684296607971191,-2.3201565742492676,-0.7802401781082153,-0.47067168,-1.0888673,295.87732,-125.6062,-35.598929999999996,JOG
119945030000000.0,2.731086254119873,-8.2724027633667,12.53480052947998,-2.2750916481018066,-0.7405634522438049,-0.58551437,-0.83169305,295.8854,-125.51583000000001,-35.503679999999996,JOG
119945030000000.0,2.7360851764678955,-7.9481000900268555,12.385832786560059,-2.2337565422058105,-0.699989914894104,-0.61575216,-0.5946773,295.92776000000003,-125.36943000000001,-35.351574,JOG
119945040000000.0,2.741121292114258,-7.601377487182617,12.230738639831543,-2.1923716068267822,-0.6534237265586853,-0.6597345,-0.364992,295.97675,-124.99335,-34.967224,JOG
119945050000000.0,2.7461211681365967,-7.248776435852051,12.069208145141602,-2.1488037109375,-0.5971311330795288,-0.7199047,-0.14782938,296.0343,-124.56908999999999,-34.531876000000004,JOG
119945050000000.0,2.7511143684387207,-6.892742156982422,11.894041061401367,-2.0998122692108154,-0.5290749669075012,-0.77579886,0.04153884,296.12987999999996,-124.18593999999999,-34.13747,JOG
119945060000000.0,2.7561118602752686,-6.539755344390869,11.696868896484375,-2.041358232498169,-0.44879159331321716,-0.8402450999999999,0.18081611,296.24258,-123.76791000000001,-33.703167,JOG
119945060000000.0,2.7611067295074463,-6.1917829513549805,11.480334281921387,-1.9778245687484741,-0.35937419533729553,-0.9596693000000001,0.27183503,296.44003,-123.407936,-33.327427,JOG
119945065000000.0,2.7661049365997314,-5.850841522216797,11.245804786682129,-1.9146733283996582,-0.2636534869670868,-1.0314459999999999,0.34972036,296.63766,-123.02208999999999,-32.918636,JOG
119945065000000.0,2.771097421646118,-5.513031005859375,11.000141143798828,-1.8570128679275513,-0.16434191167354584,-0.9896017,0.44532076,296.8691,-122.657776,-32.528015,JOG
119945070000000.0,2.7760980129241943,-5.169156074523926,10.752975463867188,-1.8152270317077637,-0.06325855106115341,-0.8594874,0.57910025,297.09058,-122.27013999999998,-32.105540000000005,JOG
119945080000000.0,2.7810909748077393,-4.822638034820557,10.505060195922852,-1.7844690084457397,0.0363118052482605,-0.6985244,0.74036866,297.30106,-121.89245600000001,-31.68623,JOG
119945080000000.0,2.7860896587371826,-4.477230548858643,10.255367279052734,-1.755876064300537,0.1328546106815338,-0.57848936,0.8891144,297.48062000000004,-121.49056999999999,-31.231928000000003,JOG
119945090000000.0,2.791085720062256,-4.134637832641602,10.005203247070312,-1.7292356491088867,0.2237640619277954,-0.54519725,1.0177015,297.6555,-121.05293999999999,-30.729776,JOG
119945090000000.0,2.7960875034332275,-3.797105550765991,9.755935668945312,-1.7042688131332397,0.30893343687057495,-0.5021312,1.1585059,297.79073999999997,-120.58018999999999,-30.179040000000004,JOG
119945100000000.0,2.8010828495025635,-3.4654135704040527,9.50932788848877,-1.6821014881134033,0.38674792647361755,-0.46639562,1.2394456,297.93195,-120.08601999999999,-29.598806,JOG
119945110000000.0,2.806082010269165,-3.1402268409729004,9.268662452697754,-1.66632878780365,0.4586249589920044,-0.34941490000000003,1.4034628999999998,298.0402,-119.53868,-28.950718,JOG
119945110000000.0,2.8111157417297363,-2.822382688522339,9.028056144714355,-1.6526172161102295,0.5221300721168518,-0.119729586,1.6731599999999998,298.11365,-118.9337,-28.23358,JOG
119945115000000.0,2.8161118030548096,-2.5188186168670654,8.780903816223145,-1.6312811374664307,0.5729401707649231,-0.052839845,1.7611245,298.20364,-118.33628,-27.521634999999996,JOG
119945115000000.0,2.821104049682617,-2.228405237197876,8.524867057800293,-1.6015679836273193,0.6175265908241272,0.0571159,1.9343047999999998,298.22263,-117.64285,-26.683048,JOG
119945120000000.0,2.8261022567749023,-1.961377739906311,8.256129264831543,-1.5662366151809692,0.6515656113624573,0.13713925,2.1096232,298.23764,-116.91861999999999,-25.816095,JOG
119945130000000.0,2.8310985565185547,-1.7183433771133423,7.975429534912109,-1.5262798070907593,0.6766448616981506,0.21471913,2.2452352,298.2291,-116.16751000000001,-24.906404000000002,JOG
119945130000000.0,2.836097002029419,-1.5038034915924072,7.674007892608643,-1.4836878776550293,0.6940719485282898,0.27916542,2.3463335,298.2207,-115.39145,-23.973076000000002,JOG
119945140000000.0,2.841092109680176,-1.3171195983886719,7.351762294769287,-1.439070701599121,0.7055568695068359,0.34910949999999996,2.4147502999999997,298.1952,-114.590645,-23.005894,JOG
119945140000000.0,2.8460919857025146,-1.157655119895935,7.005826950073242,-1.3918077945709229,0.7131091356277466,0.410196,2.4397957000000003,298.1668,-113.82770500000001,-22.07285,JOG
119945150000000.0,2.8510851860046387,-1.0233418941497803,6.638516426086426,-1.342119812965393,0.7172476053237915,0.4654793,2.4483478,298.12476000000004,-113.05533999999999,-21.12118,JOG
119945160000000.0,2.856083393096924,-0.9075260758399963,6.252294063568115,-1.269985556602478,0.7179751992225647,0.52503866,2.4465152999999997,298.07526,-112.36521,-20.242723,JOG
119945160000000.0,2.861078977584839,-0.8082895874977112,5.8495192527771,-1.1752043962478638,0.7161735892295837,0.56382865,2.4034492999999997,298.01715,-111.69278999999999,-19.370646,JOG
119945166000000.0,2.866076707839966,-0.7227972149848938,5.427884101867676,-1.042984962463379,0.7099266052246094,0.56107974,2.3451116,297.96494,-111.10611000000002,-18.583302,JOG
119945166000000.0,2.8710708618164062,-0.6495401263237,4.98846960067749,-0.8717371225357056,0.695711076259613,0.47708577,2.2913556,297.92636,-110.52718999999999,-17.807817,JOG
119945170000000.0,2.876067876815796,-0.5946048498153687,4.532376289367676,-0.6581131219863892,0.672568142414093,0.33322698,2.2418754,297.90237,-109.98938000000001,-17.135092,JOG
119945180000000.0,2.8810746669769287,-0.5584355592727661,4.059610843658447,-0.40232500433921814,0.6389713883399963,0.14721853,2.1658227,297.9109,-109.44976000000001,-16.491723999999998,JOG
119945180000000.0,2.8860721588134766,-0.5604466795921326,3.5637264251708984,-0.11509710550308228,0.5946152806282043,-0.07299839999999999,2.0479257,297.94427,-108.89991,-15.978017000000001,JOG
119945190000000.0,2.8910677433013916,-0.6050357818603516,3.0421266555786133,0.20180915296077728,0.5368990898132324,-0.29138273,1.8307631000000002,298.01675,-108.34844,-15.523522,JOG
119945190000000.0,2.896066904067993,-0.7164780497550964,2.5005459785461426,0.4425146281719208,0.46402814984321594,-0.3567453,1.484708,298.06158,-107.81068,-15.265066000000001,JOG
119945200000000.0,2.9010632038116455,-0.8963534832000732,1.9425908327102661,0.5847746729850769,0.3753776550292969,-0.22327125,1.2617421,298.09817999999996,-107.25362,-15.031327,JOG
119945210000000.0,2.9060614109039307,-1.1007061004638672,1.4576209783554077,0.5998238921165466,0.28435465693473816,0.34788775,0.73914695,297.90366,-107.020676,-15.237542000000001,JOG
119945210000000.0,2.9110617637634277,-1.318677544593811,1.0623693466186523,0.48682060837745667,0.19380392134189606,1.0720684999999999,0.22143865,297.61795,-106.84119,-15.480073,JOG
119945220000000.0,2.916060447692871,-1.4958828687667847,0.7898513078689575,0.31067439913749695,0.12386792153120041,1.4767667,-0.07452556,297.16956,-107.25792,-16.109018,JOG
119945220000000.0,2.921058177947998,-1.6163443326950073,0.6468403339385986,0.09374076128005981,0.09040903300046921,1.4450017,-0.09987647,296.66458,-107.74968999999999,-16.754753,JOG
119945225000000.0,2.926056385040283,-1.690639615058899,0.5899331569671631,-0.10913017392158508,0.09552007168531418,1.1795808,0.034208454,296.07556,-108.532684,-17.467009,JOG
119945230000000.0,2.931056499481201,-1.7230387926101685,0.6052931547164917,-0.28482937812805176,0.13213211297988892,0.86467975,0.24709499,295.55817,-109.32033,-18.12792,JOG
119945230000000.0,2.9360549449920654,-1.738620638847351,0.6666518449783325,-0.38709592819213867,0.1890278458595276,0.50610185,0.45081854,295.2045,-109.86558000000001,-18.419716,JOG
119945240000000.0,2.941053867340088,-1.7512942552566528,0.759284257888794,-0.3911898732185364,0.2570364773273468,0.08399397,0.5717699,294.98746,-110.44078,-18.685617,JOG
119945240000000.0,2.946056842803955,-1.7324713468551636,0.9202840924263,-0.34207063913345337,0.3285990357398987,0.09773844,0.57360244,294.78168,-110.79522,-18.708109,JOG
119945250000000.0,2.9510557651519775,-1.6707344055175781,1.1625571250915527,-0.2640194594860077,0.3882580101490021,0.9434814,0.6239988000000001,294.47058,-111.12813,-18.664939999999998,JOG
119945260000000.0,2.956054210662842,-1.5938931703567505,1.4509631395339966,-0.18020789325237274,0.4164312779903412,1.6731599999999998,0.72082096,294.2585,-111.15271000000001,-18.520138,JOG
119945260000000.0,2.961074113845825,-1.515274167060852,1.7707020044326782,-0.1019815132021904,0.43139970302581787,1.9511036,0.79717916,293.9391,-111.19721000000001,-18.348902,JOG
119945270000000.0,2.9660756587982178,-1.4472692012786865,2.115816116333008,-0.013578640297055244,0.44570061564445496,1.9840903000000003,0.84116143,293.48962,-110.85773,-17.898615,JOG
119945270000000.0,2.9710733890533447,-1.3934904336929321,2.4879050254821777,0.09033079445362091,0.45388415455818176,2.0512855,0.80481493,292.96124,-110.47991,-17.446904999999997,JOG
119945275000000.0,2.9760706424713135,-1.3625056743621826,2.8438239097595215,0.1629764288663864,0.4451914429664612,2.1050417,0.64965516,292.43152000000003,-110.02306000000002,-16.966656,JOG
119945280000000.0,2.9810690879821777,-1.358075499534607,3.162097215652466,0.18144582211971283,0.4285791516304016,2.0048597,0.3998113,291.92987,-109.612724,-16.542242,JOG
119945280000000.0,2.9860665798187256,-1.3662946224212646,3.46820330619812,0.16810797154903412,0.42136523127555847,1.6823229,0.18081611,291.503,-109.119125,-16.103735,JOG
119945290000000.0,2.9910635948181152,-1.3782671689987183,3.7784292697906494,0.13740554451942444,0.42692282795906067,1.4731014999999998,0.05589417,291.06915,-108.66492,-15.725888000000001,JOG
119945290000000.0,2.9960622787475586,-1.3899073600769043,4.122246265411377,0.09703486412763596,0.4416576623916626,1.0259482,0.033292156,290.777,-108.48212,-15.505306,JOG
119945300000000.0,3.0010602474212646,-1.3991625308990479,4.513034820556641,0.05125253647565842,0.45923709869384766,0.59681535,0.069027774,290.54675,-108.33778999999998,-15.32066,JOG
119945310000000.0,3.00605845451355,-1.4176790714263916,4.9679484367370605,0.011716515757143497,0.4804210364818573,0.124311075,0.20738874,290.4651,-108.22788,-15.122957999999999,JOG
119945310000000.0,3.011059045791626,-1.4517229795455933,5.495517253875732,-0.015269790776073933,0.5014201402664185,-0.46211955,0.441961,290.55057,-108.093414,-14.924278,JOG
119945320000000.0,3.0160574913024902,-1.5114209651947021,6.0657830238342285,-0.04055900126695633,0.517181932926178,-1.1478158,0.79045963,290.80697999999995,-107.84607,-14.640854999999998,JOG
119945320000000.0,3.0210564136505127,-1.6060376167297363,6.654260158538818,-0.07353706657886505,0.5221094489097595,-1.8558086,1.2018773999999999,291.2464,-107.52988,-14.318970000000002,JOG
119945325000000.0,3.0260541439056396,-1.7221866846084595,7.250783920288086,-0.13338030874729156,0.5125479698181152,-2.4718661,1.668273,291.82956,-106.991974,-13.842185,JOG
119945325000000.0,3.0310535430908203,-1.8434489965438843,7.843085765838623,-0.24599848687648773,0.4894324243068695,-2.8371637,2.2415700000000003,292.54532,-106.34058999999999,-13.266931,JOG
119945330000000.0,3.0360522270202637,-1.946128249168396,8.422234535217285,-0.3956400454044342,0.45628485083580017,-2.7999007999999996,2.905886,293.3252,-105.62281999999999,-12.629333,JOG
119945340000000.0,3.041050434112549,-2.013136863708496,8.98204517364502,-0.5707326531410217,0.4201996326446533,-2.4291058,3.5121697999999997,294.10042999999996,-104.806694,-11.874353,JOG
119945340000000.0,3.0460500717163086,-2.041494369506836,9.521964073181152,-0.7653746008872986,0.38904881477355957,-1.8949040000000001,3.9666536,294.7932,-104.01741,-10.99822,JOG
119945350000000.0,3.05104923248291,-2.0249850749969482,10.039969444274902,-0.9696749448776245,0.3679735064506531,-1.1939361000000002,4.272086,295.32394,-103.1886,-10.009161,JOG
119945350000000.0,3.0560481548309326,-1.9847630262374878,10.524994850158691,-1.1721904277801514,0.35847142338752747,-0.44990227,4.4299946,295.6803,-102.39256999999999,-8.881973,JOG
119945360000000.0,3.0610485076904297,-1.9411306381225586,10.96624755859375,-1.361893653869629,0.35844454169273376,0.16523905,4.41625,295.87,-101.68943,-7.7417240000000005,JOG
119945370000000.0,3.0660805702209473,-1.9087659120559692,11.331457138061523,-1.5286786556243896,0.3613327443599701,0.5684100999999999,4.2537603,295.91934,-101.07667,-6.535296,JOG
119945370000000.0,3.071078062057495,-1.8958690166473389,11.612911224365234,-1.6690407991409302,0.3614300787448883,0.7556403,3.9837577000000004,295.85556,-100.61927,-5.392956,JOG
119945376000000.0,3.0760738849639893,-1.9101903438568115,11.802066802978516,-1.780990481376648,0.3533021807670593,0.7284568,3.631594,295.7347,-100.298386,-4.3348207,JOG
119945376000000.0,3.0810723304748535,-1.9647396802902222,11.89306640625,-1.863431692123413,0.3354015350341797,0.5540548000000001,3.2635477,295.59756,-100.08541,-3.3935589999999998,JOG
119945380000000.0,3.0860695838928223,-2.0538244247436523,11.904412269592285,-1.925886869430542,0.3081187605857849,0.30085114,2.8863382,295.47784,-99.95425,-2.6300015,JOG
119945390000000.0,3.091067314147949,-2.1722471714019775,11.85419750213623,-1.9782960414886475,0.27172595262527466,0.16798794,2.5002716,295.3594,-99.84353,-2.0002787,JOG
119945390000000.0,3.0960659980773926,-2.317221164703369,11.757686614990234,-2.023191213607788,0.23235686123371124,-0.14263703,2.3154847999999997,295.36312999999996,-99.76755,-1.5124153999999999,JOG
119945400000000.0,3.1010658740997314,-2.4855194091796875,11.634746551513672,-2.0638673305511475,0.18673557043075562,-0.49785519999999994,1.9523253,295.38982999999996,-99.65856,-1.2059878000000002,JOG
119945400000000.0,3.1060631275177,-2.6735451221466064,11.508856773376465,-2.1016957759857178,0.13547199964523315,-0.8750645,1.6334536,295.58676,-99.57207,-0.9633223,JOG
119945410000000.0,3.111062526702881,-2.8783650398254395,11.407470703125,-2.1382393836975098,0.08036436140537262,-1.3261883999999997,1.3536774,295.88486,-99.4643,-0.84101945,JOG
119945420000000.0,3.1160593032836914,-3.1046273708343506,11.34128189086914,-2.1706438064575195,0.02685881406068802,-1.922393,1.1420126,296.3544,-99.379776,-0.8465713,JOG
119945420000000.0,3.1210579872131348,-3.3640964031219482,11.334208488464355,-2.193115472793579,-0.019237611442804337,-2.6416867,0.9560040999999999,296.96814,-99.30115,-0.95492345,JOG
119945430000000.0,3.12605357170105,-3.6613218784332275,11.380738258361816,-2.2062039375305176,-0.050864748656749725,-3.4187074,0.7831292,297.76968,-99.27455,-1.1888847,JOG
119945430000000.0,3.1310527324676514,-4.007149696350098,11.47710132598877,-2.2100026607513428,-0.06387794762849808,-4.1532726,0.6218608,298.7462,-99.31155,-1.5040354,JOG
119945434000000.0,3.136082172393799,-4.399575233459473,11.614277839660645,-2.2093584537506104,-0.05531379580497742,-4.736649,0.40286562,299.89153999999996,-99.43098,-1.9750447,JOG
119945440000000.0,3.1410787105560303,-4.816082000732422,11.767654418945312,-2.2111806869506836,-0.025231631472706795,-5.174334,0.13316862,301.18372,-99.67254,-2.530581,JOG
119945440000000.0,3.1460745334625244,-5.260058879852295,11.938460350036621,-2.2236292362213135,0.030072441324591637,-5.339573000000001,-0.14844026,302.56097,-100.07762,-3.2676667999999998,JOG
119945450000000.0,3.1510725021362305,-5.72176456451416,12.118901252746582,-2.304210662841797,0.119199737906456,-4.7659707000000004,-0.35002577,303.83417000000003,-100.68029,-4.03681,JOG
119945450000000.0,3.1560685634613037,-6.1829423904418945,12.300350189208984,-2.432621479034424,0.2640312910079956,-3.476434,-0.45540005,304.95977999999997,-101.60455,-4.916658,JOG
119945460000000.0,3.1610710620880127,-6.601236820220947,12.462846755981445,-2.567467451095581,0.47606897354125977,-2.0179935,-0.50335294,305.86023,-102.78925,-5.7855315,JOG
119945470000000.0,3.1660680770874023,-6.979709148406982,12.607795715332031,-2.7078423500061035,0.7435925602912903,-0.8173377,-0.49480084,306.5124,-104.39376999999999,-6.668365,JOG
119945470000000.0,3.171067953109741,-7.3199381828308105,12.735856056213379,-2.8538460731506348,1.048686146736145,0.027183502999999998,-0.44012842,306.84796,-106.24293999999999,-7.471507000000001,JOG
119945480000000.0,3.1760659217834473,-7.613250255584717,12.845577239990234,-2.983167886734009,1.3739817142486572,0.66339964,-0.3136793,306.92456,-108.28388000000001,-8.162018,JOG
119945480000000.0,3.1810662746429443,-7.82625150680542,12.9296875,-3.026545286178589,1.7042739391326904,1.3096951000000001,-0.11942416,306.77853,-110.44848,-8.732452,JOG
119945485000000.0,3.186065435409546,-7.930582523345947,13.00057315826416,-2.952713966369629,2.0272836685180664,2.1697933999999997,0.15149458,306.44305,-112.72058,-9.076869,JOG
119945490000000.0,3.1910653114318848,-7.8238701820373535,13.093522071838379,-2.6487598419189453,2.3301658630371094,2.730873,0.5174029,306.062,-114.96775,-9.28318,JOG
119945490000000.0,3.196065902709961,-7.546660900115967,13.197328567504883,-2.139770746231079,2.6092073917388916,4.077831,0.7620544,305.23087000000004,-116.97836000000001,-9.116313,JOG
119945500000000.0,3.201066017150879,-7.239353656768799,13.266791343688965,-1.4951891899108887,2.839944362640381,5.173723000000001,1.425454,304.45377,-118.74852,-8.677042,JOG
119945500000000.0,3.206085205078125,-6.908094882965088,13.296051025390625,-0.7244716286659241,2.9753212928771973,4.777577,2.1936169999999997,303.57126,-119.39867,-7.6566534,JOG
119945510000000.0,3.211087226867676,-6.628619194030762,13.242502212524414,0.019944826140999794,2.9732160568237305,3.1435125,2.6282477,302.78876,-119.6202,-6.576194999999999,JOG
119945520000000.0,3.216083288192749,-6.399588108062744,13.108970642089844,0.7244678139686584,2.856369972229004,1.2250903,2.6233609,302.17136,-119.1015,-5.3487496,JOG
