timestamp,rel_time,acc_x,acc_y,acc_z,gyro_x,gyro_y,gyro_z,azimuth,pitch,roll,label
0.0,0.0,0.0,0.0,0.0,0.0,0.7528914000000001,0.05161811400000001,225.91776000000002,-74.79751999999999,-14.275751999999999,STD
31032908000.0,1.4820538126514293e-05,0.005433092825114727,0.02916117198765278,-0.0029729222878813744,-0.003754720091819763,0.72234815,0.064751714,225.78812000000002,-75.039536,-14.000264999999999,STD
92636865000.0,7.392248517135158e-05,0.016275230795145035,0.08701681345701218,-0.00883332546800375,-0.011115508154034615,0.6591236,0.0571159,225.6845,-75.20429,-13.784735000000001,STD
183904780000.0,0.00020590724307112396,0.03242317959666252,0.17268255352973938,-0.017454009503126144,-0.02119928039610386,0.5842925999999999,0.053450707,225.59422,-75.37493,-13.567631,STD
303516480000.0,0.000437187438365072,0.053697578608989716,0.2848880887031555,-0.02867097593843937,-0.033045269548892975,0.49480084,0.042455133,225.52848999999998,-75.54083,-13.357037,STD
449784480000.0,0.0007930578431114554,0.07985293865203857,0.4220189154148102,-0.042286332696676254,-0.045561783015728,0.40347649999999996,0.029321532999999997,225.48658999999998,-75.71279,-13.150126,STD
620710100000.0,0.0012962119653820992,0.11058460921049118,0.582170844078064,-0.058075785636901855,-0.057810887694358826,0.3304781,0.02443461,225.46677000000003,-75.89325,-12.945931,STD
814046840000.0,0.001964219380170107,0.14553497731685638,0.7632123827934265,-0.07579825818538666,-0.0690811350941658,0.20036379999999998,0.0061086523,225.49232,-76.07757,-12.748785,STD
1027367760000.0,0.002810642123222351,0.1843073070049286,0.9628466963768005,-0.0952008068561554,-0.07609201222658157,-0.056199603,-0.040317107000000005,225.57827999999998,-76.278564,-12.55896,STD
1258132600000.0,0.0038492646999657154,0.22648558020591736,1.1786702871322632,-0.11601927131414413,-0.07257744669914246,-0.08368854,-0.04428773,225.6356,-76.52117,-12.368284,STD
1503752500000.0,0.005093029700219631,0.27164366841316223,1.408234715461731,-0.1379859447479248,-0.06820305436849594,-0.07299839999999999,-0.03604105,225.75835,-76.73093399999999,-12.184189,STD
1761648800000.0,0.0065425061620771885,0.31933361291885376,1.6491150856018066,-0.16085132956504822,-0.06486193835735321,-0.07880162,-0.032986722999999996,225.89534,-76.976875,-12.004375999999999,STD
2029306000000.0,0.00820149201899767,0.36912450194358826,1.8989417552947998,-0.18436744809150696,-0.0612330324947834,-0.08521569999999999,-0.027183502999999998,226.03035,-77.22837,-11.824539,STD
2304314200000.0,0.010069869458675385,0.42059648036956787,2.155449151992798,-0.20830203592777252,-0.05718240886926651,-0.08368854,-0.016798794,226.16567999999998,-77.472565,-11.645372,STD
2584404600000.0,0.012145526707172394,0.4733503460884094,2.416506767272949,-0.23243919014930725,-0.05252695828676224,-0.06688975,-0.010690141499999998,226.29952999999998,-77.713165,-11.468772,STD
2867475500000.0,0.014428859576582909,0.5270208120346069,2.680138111114502,-0.2565756142139435,-0.04786635935306549,-0.03848451,0.0012217305,226.43031000000002,-77.95227,-11.290622,STD
3151609700000.0,0.016909081488847733,0.5812533497810364,2.944552183151245,-0.280541330575943,-0.04279525578022003,0.021380282999999996,-0.0021380284,226.54842999999997,-78.186325,-11.118843,STD
3435084400000.0,0.019579831510782242,0.6357356905937195,3.2081360816955566,-0.30417898297309875,-0.03784380108118057,0.093767814,-0.010690141499999998,226.65572999999998,-78.41545,-10.94867,STD
3716374000000.0,0.02243000641465187,0.6901808977127075,3.469467878341675,-0.32735681533813477,-0.03289337456226349,0.13286320000000001,-0.02076942,226.75682,-78.63913000000001,-10.783055000000001,STD
3994149000000.0,0.025458643212914467,0.7443555593490601,3.7272987365722656,-0.3499479293823242,-0.027673548087477684,0.23335053,-0.03970624,226.82085,-78.85293,-10.627309,STD
4267268600000.0,0.028650563210248947,0.7980320453643799,3.9805727005004883,-0.37186336517333984,-0.02309025265276432,0.35063666,-0.05131268,226.87032000000002,-79.05879,-10.475536,STD
4534772000000.0,0.03199261426925659,0.8510177135467529,4.228400707244873,-0.3930286467075348,-0.01874835230410099,0.50488013,-0.083383106,226.88232000000002,-79.24975,-10.339261,STD
4795864700000.0,0.03547687828540802,0.9031590819358826,4.4700446128845215,-0.41337817907333374,-0.01474261749535799,0.6924158,-0.119729586,226.85284,-79.42952,-10.211592,STD
5049906400000.0,0.039093561470508575,0.9543259143829346,4.704913139343262,-0.4328637719154358,-0.011290072463452816,0.91874135,-0.17470746,226.77036,-79.58901,-10.1025715,STD
5296395600000.0,0.042833175510168076,1.0044127702713013,4.9325456619262695,-0.45145025849342346,-0.008972150273621082,1.1597277,-0.23151793,226.6324,-79.73102,-10.008163,STD
5534956700000.0,0.04669443517923355,1.053351640701294,5.152589797973633,-0.4691030979156494,-0.008192081935703754,1.3906348,-0.28955013,226.43558,-79.850655,-9.933024000000001,STD
5765323000000.0,0.050657205283641815,1.1010576486587524,5.364817142486572,-0.4858245551586151,-0.008732510730624199,1.5653422,-0.34208453,226.18937999999997,-79.94951,-9.87482,STD
5987325000000.0,0.05471561476588249,1.1474900245666504,5.569075107574463,-0.5016064643859863,-0.010812382213771343,1.6572775000000002,-0.37659842,225.90482999999998,-80.03018,-9.829505000000001,STD
6200877000000.0,0.058909591287374496,1.1927101612091064,5.7652387619018555,-0.5163850784301758,-0.015042695216834545,1.6594155,-0.41233405,225.6007,-80.0893,-9.800139999999999,STD
6405964000000.0,0.0631335899233818,1.2365134954452515,5.953411102294922,-0.5303055047988892,-0.02128106914460659,1.5656476000000001,-0.4352415,225.30263,-80.13710999999999,-9.776753,STD
6602633000000.0,0.067439004778862,1.2790064811706543,6.133578300476074,-0.5433008670806885,-0.029972096905112267,1.4013248999999999,-0.44837508,225.02927000000003,-80.1723,-9.760181,STD
6790980300000.0,0.07180994749069214,1.3201756477355957,6.305849075317383,-0.5554025769233704,-0.041070450097322464,1.1933253000000001,-0.43951756,224.8001,-80.20339,-9.742944,STD
6971144000000.0,0.0762399211525917,1.360032558441162,6.47036075592041,-0.5666329860687256,-0.05434240400791168,0.96852684,-0.4071417,224.62722999999997,-80.234245,-9.721785,STD
7143296600000.0,0.08072402328252792,1.3985978364944458,6.6272807121276855,-0.5770154595375061,-0.06977343559265137,0.7470882,-0.35002577,224.51667999999998,-80.27202,-9.690175,STD
7307637300000.0,0.0852612555027008,1.4359042644500732,6.776797294616699,-0.5865706205368042,-0.08562234044075012,0.56046885,-0.2855795,224.46352000000002,-80.31973,-9.646704,STD
7464386000000.0,0.08984418213367462,1.4719759225845337,6.919125080108643,-0.595329999923706,-0.10133206099271774,0.40530908,-0.226631,224.46697999999998,-80.38024,-9.588328,STD
7613778000000.0,0.09446917474269867,1.5068469047546387,7.054490089416504,-0.6033214330673218,-0.11600667238235474,0.29138273,-0.18845193,224.51355,-80.452095,-9.517789,STD
7756061000000.0,0.0991322249174118,1.5405524969100952,7.183128833770752,-0.6105742454528809,-0.1286611109972,0.22785273,-0.17043139999999998,224.59105,-80.53402,-9.436906,STD
7891488000000.0,0.10382506996393204,1.5731213092803955,7.3052897453308105,-0.6171244382858276,-0.13838456571102142,0.20647246,-0.16310102,224.68957999999998,-80.62308,-9.349153999999999,STD
8020319300000.0,0.10854875296354294,1.604600191116333,7.421214580535889,-0.6229955554008484,-0.1464463323354721,0.19608775,-0.15974127,224.80342000000002,-80.714905,-9.258494,STD
8142814000000.0,0.11330582201480865,1.637988567352295,7.531782150268555,-0.6291936635971069,-0.15110920369625092,0.20861048,-0.1554652,224.91685,-80.80945600000001,-9.166749000000001,STD
8259232000000.0,0.11809161305427551,1.6747552156448364,7.6375508308410645,-0.6362285017967224,-0.15226003527641296,0.21319197,-0.14752395,225.03567999999999,-80.905136,-9.074211,STD
8369830600000.0,0.12294408679008484,1.7157516479492188,7.738905906677246,-0.6436883211135864,-0.15148578584194183,0.19883664,-0.11942416,225.14824,-81.05141,-8.929478999999999,STD
8474862300000.0,0.12775811553001404,1.7589085102081299,7.8357930183410645,-0.6509838700294495,-0.14636804163455963,0.18020524,-0.10323623,225.26067999999998,-81.19614399999999,-8.788177000000001,STD
8574575600000.0,0.13259193301200867,1.8032881021499634,7.92612886428833,-0.6580302119255066,-0.1403076946735382,0.1337795,-0.07727446,225.39015,-81.37535,-8.611216,STD
8669212000000.0,0.13744725286960602,1.8472414016723633,8.008198738098145,-0.6647177934646606,-0.13274230062961578,0.073303826,-0.038789943,225.52908,-81.56087,-8.429082000000001,STD
8759007500000.0,0.1423143446445465,1.889623761177063,8.08112907409668,-0.6714047193527222,-0.12392450869083405,0.010690141499999998,-0.004886922,225.68502999999998,-81.77626,-8.216329,STD
8844189000000.0,0.14719577133655548,1.9282618761062622,8.142478942871094,-0.678792417049408,-0.11393427848815918,-0.03390302,0.025961772999999997,225.85312000000002,-81.997734,-7.9974217,STD
8924978000000.0,0.15208475291728973,1.9622583389282227,8.193462371826172,-0.6869040131568909,-0.10371813923120499,-0.10048734,0.04550946,226.04651,-82.23816,-7.758756,STD
9001585000000.0,0.1569863259792328,1.9899393320083618,8.23522663116455,-0.6958613395690918,-0.0925145372748375,-0.15271631,0.07788532,226.24835,-82.48633000000001,-7.5122347000000005,STD
9074214000000.0,0.1619013249874115,2.0109944343566895,8.269503593444824,-0.7059471607208252,-0.08252225816249847,-0.20799962,0.09682214,226.46887,-82.7365,-7.262894999999999,STD
9143064000000.0,0.16683465242385864,2.0246493816375732,8.29875373840332,-0.7176692485809326,-0.07361573725938797,-0.24953845,0.10781772,226.69992000000002,-82.98843000000001,-7.0115056,STD
9208320000000.0,0.17176467180252075,2.0317492485046387,8.32347297668457,-0.7307827472686768,-0.06635452806949615,-0.26145032,0.12034045,226.9366,-96.760025,-6.7600117,STD
9270164000000.0,0.17670051753520966,2.0297913551330566,8.343777656555176,-0.747464656829834,-0.060444023460149765,-0.23976462,0.118202426,227.17458,-96.51488,-6.514616999999999,STD
9328766000000.0,0.18164198100566864,2.016181707382202,8.359883308410645,-0.7700638175010681,-0.05581478029489517,-0.19914207,0.10354166,227.40942,-96.27499399999999,-6.27419,STD
9384293000000.0,0.1865932196378708,1.990878701210022,8.37549877166748,-0.7977655529975891,-0.05201178789138794,-0.13225232,0.08216137400000001,227.63223,-96.04583000000001,-6.044557,STD
9436900000000.0,0.1916038542985916,1.951705813407898,8.394493103027344,-0.8308108448982239,-0.04884639382362366,-0.04337143,0.056505035999999995,227.83559,-95.82762,-5.8257093,STD
9486738000000.0,0.19656218588352203,1.9045400619506836,8.415266036987305,-0.8666146993637085,-0.0453125424683094,0.0711658,0.014966198,228.0193,-95.61901,-5.6168323,STD
9533949000000.0,0.2015198916196823,1.84945809841156,8.441280364990234,-0.9045920968055725,-0.04181899502873421,0.13561209,-0.010690141499999998,228.19013999999999,-95.420105,-5.4175224,STD
9578668000000.0,0.2064802646636963,1.7890619039535522,8.47573471069336,-0.9429519176483154,-0.038185276091098785,0.2660318,-0.06078109,228.30807000000001,-95.24664,-5.243132599999999,STD
9621026000000.0,0.21144962310791016,1.7260369062423706,8.517351150512695,-0.9808680415153503,-0.034207843244075775,0.39920044,-0.11942416,228.35967999999997,-95.0842,-5.078885,STD
9661143000000.0,0.21642684936523438,1.6626498699188232,8.564859390258789,-1.0176588296890259,-0.029304102063179016,0.5338961999999999,-0.18692477,228.37582,-94.945854,-4.937737,STD
9699137000000.0,0.2213994264602661,1.5990850925445557,8.617591857910156,-1.053343653678894,-0.023945242166519165,0.6588182,-0.25137106,228.31158,-94.794304,-4.7825665,STD
9735119000000.0,0.22637300193309784,1.5359313488006592,8.676624298095703,-1.0862514972686768,-0.017716767266392708,0.7648033000000001,-0.30909783,228.2197,-94.66885,-4.651894599999999,STD
9769195000000.0,0.2313486635684967,1.4735816717147827,8.74244499206543,-1.115381121635437,-0.00978727824985981,0.85918194,-0.36163223,228.10097000000002,-94.56845,-4.544281,STD
9801463000000.0,0.2363298386335373,1.4161818027496338,8.81287956237793,-1.1364246606826782,-0.0009293695911765099,0.9242391,-0.40133846,227.9187,-94.45116999999999,-4.4182453,STD
9832021000000.0,0.2413148432970047,1.3662126064300537,8.886375427246094,-1.1469231843948364,0.008970248512923717,0.9673050999999999,-0.41141775,227.72337000000002,-94.35032,-4.305788,STD
9860957000000.0,0.24629604816436768,1.3246233463287354,8.959796905517578,-1.1450769901275635,0.020197678357362747,0.9947940999999999,-0.4175264,227.47418,-94.22443,-4.167093,STD
9888356000000.0,0.25128087401390076,1.295345664024353,9.025223731994629,-1.1236686706542969,0.033056389540433884,0.9990701,-0.398895,227.22813,-94.106186,-4.032939,STD
9914300000000.0,0.2562662661075592,1.2783582210540771,9.08318042755127,-1.0911153554916382,0.04550846666097641,0.9773844,-0.37659842,226.94333999999998,-93.94074,-3.8558269,STD
9938866000000.0,0.26125368475914,1.2742723226547241,9.134134292602539,-1.0595996379852295,0.059201572090387344,0.93951076,-0.35094208,226.6711,-93.78508000000001,-3.6834157,STD
9962126000000.0,0.26624417304992676,1.2828110456466675,9.178619384765625,-1.0286403894424438,0.07338662445545197,0.8695666999999999,-0.3381139,226.37697000000003,-93.57288,-3.4648187000000004,STD
9984151000000.0,0.27123430371284485,1.3048237562179565,9.217864990234375,-0.9962320923805237,0.08776087313890457,0.8005389,-0.33383787,226.10205,-93.37099,-3.2544103,STD
10005004000000.0,0.2762216329574585,1.3394660949707031,9.252175331115723,-0.9624806046485901,0.10148453712463379,0.72509706,-0.33444872,225.81963,-93.10557,-2.9774580000000004,STD
10024747000000.0,0.28121039271354675,1.3835904598236084,9.281251907348633,-0.9180673360824585,0.11485234647989273,0.64599,-0.31184670000000003,225.56734,-92.84987,-2.7072222000000004,STD
10043441000000.0,0.2862059772014618,1.4364802837371826,9.305216789245605,-0.861758828163147,0.12786684930324554,0.5888741,-0.29382620000000004,225.33867,-92.61052,-2.451804,STD
10061140000000.0,0.29119980335235596,1.4975471496582031,9.324292182922363,-0.8022607564926147,0.1399935781955719,0.5174029,-0.25411993,225.15042000000003,-92.332695,-2.1533623,STD
10077897000000.0,0.29619598388671875,1.566853404045105,9.338435173034668,-0.7516739964485168,0.15165388584136963,0.43188173,-0.2171626,224.99011000000002,-92.069824,-1.863662,STD
10093763000000.0,0.30118831992149353,1.6413780450820923,9.348772048950195,-0.7068309783935547,0.16194505989551544,0.37690386,-0.20005837,224.84079,-91.78315,-1.5579736000000002,STD
10108785000000.0,0.3061799108982086,1.7176926136016846,9.356555938720703,-0.6638745665550232,0.17097242176532745,0.26358834,-0.16554448,224.73872000000003,-91.50339,-1.249501,STD
10123007000000.0,0.31117719411849976,1.7913334369659424,9.362039566040039,-0.6238150596618652,0.17746883630752563,0.11148291,-0.12095132,224.6887,-91.24516,-0.93060976,STD
10136472000000.0,0.3161739408969879,1.8555611371994019,9.365636825561523,-0.5881917476654053,0.18101567029953003,-0.06017022599999999,-0.07788532,224.68103,-91.01746,-0.61250377,STD
10149221000000.0,0.3211721181869507,1.9108355045318604,9.367436408996582,-0.5567857027053833,0.18163970112800598,-0.23945917,-0.023518313,224.7258,-90.84799,-0.28245682,STD
10161290000000.0,0.32617056369781494,1.9561114311218262,9.367205619812012,-0.5364054441452026,0.18029391765594482,-0.3933972,0.016493361,224.81477,-90.78081,0.047206856,STD
10172717000000.0,0.3311859369277954,1.990020751953125,9.364616394042969,-0.5337041616439819,0.17719709873199463,-0.5186246,0.036957346,224.94841,-90.83906,0.3784857,STD
10183535000000.0,0.3361935615539551,2.0135858058929443,9.360228538513184,-0.5468772649765015,0.17350032925605774,-0.61117065,0.064446285,225.1025,-91.009895,0.710491,STD
10193778000000.0,0.3411935865879059,2.0270583629608154,9.35435676574707,-0.5755504369735718,0.1701957732439041,-0.6817255999999999,0.089186326,225.28723,-91.24623000000001,1.0389815999999998,STD
10203475000000.0,0.3461892604827881,2.0310146808624268,9.347517013549805,-0.6172142624855042,0.16825532913208008,-0.70402217,0.106901415,225.48285,-91.53031,1.3606365,STD
10212656000000.0,0.35118305683135986,2.0260565280914307,9.340315818786621,-0.6689890027046204,0.1684526652097702,-0.70280045,0.11484267,225.69325,-91.82791999999999,1.6785473000000002,STD
10221348000000.0,0.3561766445636749,2.013319969177246,9.33376407623291,-0.7300540208816528,0.17086923122406006,-0.67164636,0.12064589,225.90135,-92.13473499999999,1.9767927,STD
10229577000000.0,0.3611750304698944,1.994494080543518,9.329816818237305,-0.799427330493927,0.17626570165157318,-0.6246096999999999,0.112399206,226.10645,-92.44093000000001,2.2665694,STD
10237368000000.0,0.3661758303642273,1.9702167510986328,9.329218864440918,-0.8723049163818359,0.18404391407966614,-0.5561928,0.10873401,226.2981,-92.743385,2.5340385,STD
10244745000000.0,0.371172696352005,1.9411653280258179,9.332535743713379,-0.9444547891616821,0.19415836036205292,-0.48563787,0.11362094,226.47822999999997,-93.04766,2.7961001,STD
10251728000000.0,0.376167893409729,1.9081865549087524,9.339122772216797,-1.0155675411224365,0.2054428905248642,-0.41263947,0.11453723,226.64221,-93.34676999999999,3.0343362999999997,STD
10258340000000.0,0.3811625838279724,1.8723117113113403,9.348201751708984,-1.085217833518982,0.21860016882419586,-0.33933565,0.11759156,226.78883,-93.652466,3.2703152,STD
10264600000000.0,0.3861636817455292,1.8351304531097412,9.358687400817871,-1.1519619226455688,0.23255380988121033,-0.2855795,0.11942416,226.91837,-93.94230999999999,3.4792106,STD
10270526000000.0,0.391169011592865,1.798474669456482,9.369341850280762,-1.2141791582107544,0.2475055307149887,-0.22204952,0.12980886,227.0269,-94.23934,3.688236,STD
10276137000000.0,0.39616602659225464,1.7623354196548462,9.378934860229492,-1.2725563049316406,0.26276737451553345,-0.20525073,0.12461651,227.12922999999998,-94.5238,3.8725076,STD
10281449000000.0,0.40116530656814575,1.7265337705612183,9.38510513305664,-1.3280874490737915,0.27739500999450684,-0.16554448,0.118507855,227.20956,-94.810165,4.0569180000000005,STD
10286478000000.0,0.406159371137619,1.6912442445755005,9.388138771057129,-1.3805540800094604,0.2923988401889801,-0.14202617,0.118202426,227.2829,-95.09603,4.2321444,STD
10291240000000.0,0.411156564950943,1.6566450595855713,9.388154029846191,-1.4295108318328857,0.3068798780441284,-0.11545353400000001,0.10751228,227.34633,-95.372665,4.399914,STD
10295748000000.0,0.41615498065948486,1.623104214668274,9.385282516479492,-1.4752613306045532,0.320279985666275,-0.07941248,0.084910266,227.4015,-95.64195,4.556717,STD
10300016000000.0,0.4211556315422058,1.5919636487960815,9.379499435424805,-1.5183695554733276,0.3326079249382019,-0.040011674,0.073303826,227.4507,-95.90838000000001,4.7112193,STD
10304058000000.0,0.4261522591114044,1.5630813837051392,9.3710298538208,-1.558980941772461,0.343497633934021,-0.008857545999999999,0.06597344599999999,227.49391,-96.159515,4.852044599999999,STD
10307884000000.0,0.4311474859714508,1.5345336198806763,9.360086441040039,-1.5978296995162964,0.35359543561935425,0.026572637000000003,0.07360926,227.5272,-96.40834,4.992221,STD
10311507000000.0,0.43614983558654785,1.5054469108581543,9.346750259399414,-1.635295033454895,0.361836701631546,0.061391957000000004,0.0693332,227.5538,-96.64255,5.125102500000001,STD
10314936000000.0,0.44115814566612244,1.4761000871658325,9.330918312072754,-1.671256184577942,0.369817852973938,0.08735373,0.07666359,227.57436,-96.88501,5.2641587,STD
10318184000000.0,0.4461978077888489,1.4466724395751953,9.312091827392578,-1.7055751085281372,0.377048134803772,0.116675265,0.08674286,227.58673,-97.11646999999999,5.4010854,STD
10321258000000.0,0.45119187235832214,1.4174253940582275,9.29051685333252,-1.7380995750427246,0.38348618149757385,0.12614368,0.08979719,227.59616,-97.34272,5.527887000000001,STD
10324169000000.0,0.4561847746372223,1.387792706489563,9.263980865478516,-1.7686131000518799,0.3886859118938446,0.12889257,0.10293079,227.60234,-97.56609,5.658615599999999,STD
10326925000000.0,0.4611818194389343,1.356451392173767,9.23509693145752,-1.7982767820358276,0.3935108780860901,0.12461651,0.10934488,227.61307000000002,-97.78259,5.779394,STD
10329534000000.0,0.4661884307861328,1.3220902681350708,9.206439018249512,-1.8282357454299927,0.3971509039402008,0.1020145,0.11698069400000001,227.63124,-97.99184,5.901632299999999,STD
10332004000000.0,0.4711844027042389,1.2852044105529785,9.178088188171387,-1.8583405017852783,0.40001097321510315,0.09590584,0.12339478,227.64667000000003,-98.1972,6.017503,STD
10334344000000.0,0.47617948055267334,1.2468888759613037,9.156603813171387,-1.8904640674591064,0.4025883972644806,0.070249505,0.13713925,227.67687999999998,-98.400246,6.1345220000000005,STD
10336558000000.0,0.4811724126338959,1.2077453136444092,9.144613265991211,-1.9253109693527222,0.40462154150009155,0.03604105,0.15210545,227.71367999999998,-98.59801,6.2512693,STD
10338655000000.0,0.48617181181907654,1.1682814359664917,9.142050743103027,-1.9629290103912354,0.406416118144989,0.013744468000000001,0.16249016,227.7528,-98.78725,6.348051,STD
10340640000000.0,0.49117353558540344,1.1287391185760498,9.148350715637207,-2.0031235218048096,0.40837550163269043,-0.0021380284,0.16920967,227.80178999999998,-98.975716,6.4457693,STD
10342520000000.0,0.49617382884025574,1.0886799097061157,9.164253234863281,-2.04610538482666,0.4109792113304138,-0.003970624,0.17898351,227.85578999999998,-99.16488000000001,6.5330296,STD
10344301000000.0,0.501168966293335,1.047482967376709,9.191034317016602,-2.0922508239746094,0.4132814109325409,-0.007941248,0.17287487,227.91582999999997,-99.34682,6.615883999999999,STD
10345986000000.0,0.5061628222465515,1.0060752630233765,9.228583335876465,-2.1387104988098145,0.4166165888309479,-0.016493361,0.17654006,227.97816,-99.540764,6.694016,STD
10347582000000.0,0.5111609101295471,0.9651955962181091,9.276841163635254,-2.183173894882202,0.42057162523269653,-0.00580322,0.17898351,228.03685,-99.72833,6.7694693,STD
10349093000000.0,0.5162190794944763,0.9253342747688293,9.338515281677246,-2.22149920463562,0.42452749609947205,-0.05100725,0.17256944,228.11726000000002,-99.912674,6.827974,STD
10350524000000.0,0.5212135910987854,0.8873956203460693,9.40738582611084,-2.2527425289154053,0.4273935854434967,-0.06566802,0.16707164,228.18677999999997,-100.09357,6.8879600000000005,STD
10351879000000.0,0.5262068510055542,0.8527705073356628,9.485522270202637,-2.2754461765289307,0.4299115836620331,-0.118202426,0.16707164,228.27405,-100.26418000000001,6.9369936,STD
10353161000000.0,0.5311989188194275,0.8233007192611694,9.57171630859375,-2.289555788040161,0.4305048882961273,-0.18539760000000002,0.16340645,228.36973999999998,-100.42051,6.981653999999999,STD
10354376000000.0,0.5362003445625305,0.7981025576591492,9.662726402282715,-2.2968947887420654,0.4297155737876892,-0.24892759999999997,0.16004670000000001,228.45967000000002,-100.55265,7.015846000000001,STD
10355526000000.0,0.5412090420722961,0.7760406136512756,9.754265785217285,-2.2998576164245605,0.4273242950439453,-0.30329459999999997,0.15607607,228.56582999999998,-100.67351,7.046321400000001,STD
10356615000000.0,0.5462045073509216,0.7568162083625793,9.84591293334961,-2.2989695072174072,0.4236117899417877,-0.34666604,0.14996742,228.67192000000003,-100.76775,7.07817,STD
10357647000000.0,0.5511986613273621,0.7441445589065552,9.934080123901367,-2.293506383895874,0.41897398233413696,-0.3866777,0.12370021,228.79079,-100.85084,7.100985499999999,STD
10358624000000.0,0.5561915040016174,0.7385462522506714,10.018081665039062,-2.2835357189178467,0.41451823711395264,-0.40530908,0.10293079,228.91486,-100.93127,7.122742999999999,STD
10359549000000.0,0.5611899495124817,0.7434164881706238,10.096034049987793,-2.2736117839813232,0.41199278831481934,-0.39614612,0.07849618,229.02844,-100.99687,7.138971300000001,STD
10360425000000.0,0.566190779209137,0.7584774494171143,10.168047904968262,-2.264216661453247,0.41160404682159424,-0.35521814,0.07269296,229.1368,-101.06286999999999,7.1555,STD
10361254000000.0,0.5711912512779236,0.7824915647506714,10.231552124023438,-2.2540338039398193,0.41497981548309326,-0.2761111,0.062002823,229.2254,-101.13884,7.1829977,STD
10362040000000.0,0.5761847496032715,0.8146809339523315,10.286828994750977,-2.2430100440979004,0.42095908522605896,-0.19333886,0.051923547,229.29998999999998,-101.217415,7.210717,STD
10362784000000.0,0.5811780095100403,0.8473883867263794,10.326704025268555,-2.2277185916900635,0.42906132340431213,-0.09468412,0.044593163,229.35706000000002,-101.32951,7.273281599999999,STD
10363489000000.0,0.5861741304397583,0.8777496814727783,10.34897518157959,-2.20701003074646,0.43762701749801636,0.03145956,0.043066,229.3826,-101.44344,7.337733,JOG
10364156000000.0,0.5911701321601868,0.9042145609855652,10.355859756469727,-2.181612014770508,0.44503629207611084,0.098043874,0.03390302,229.4018,-101.57935,7.42053,JOG
10364788000000.0,0.5961743593215942,0.9183775186538696,10.353392601013184,-2.1534833908081055,0.4508950114250183,0.26145032,0.023518313,229.35882999999998,-101.71251,7.509563000000001,JOG
10365387000000.0,0.6011727452278137,0.9217165112495422,10.34316349029541,-2.123037815093994,0.4524047374725342,0.39400807,0.010079277,229.28476,-101.82414,7.5981197,JOG
10365954000000.0,0.6061679720878601,0.9155516624450684,10.327445030212402,-2.09055757522583,0.4478439390659332,0.49510628,-0.006414085,229.17552,-101.91640500000001,7.685548299999999,JOG
10366491000000.0,0.6111661195755005,0.9001779556274414,10.30639362335205,-2.056068181991577,0.43685248494148254,0.5552765000000001,-0.025350908,229.01862999999997,-101.962906,7.746742200000001,JOG
10366999000000.0,0.6161707639694214,0.8750156164169312,10.279006004333496,-2.021519660949707,0.4189103841781616,0.59742624,-0.047647487,228.84091,-101.97483000000001,7.802781599999999,JOG
10367481000000.0,0.6211684942245483,0.8401994705200195,10.244832038879395,-1.9888123273849487,0.39459964632987976,0.58368176,-0.08277224,228.66428,-101.952545,7.846564999999999,JOG
10367937000000.0,0.6261658072471619,0.7968658804893494,10.20284652709961,-1.9592106342315674,0.3660990297794342,0.57696223,-0.11484267,228.4518,-101.87215,7.8486004000000005,JOG
10368369000000.0,0.6311612725257874,0.7474533915519714,10.150922775268555,-1.9355159997940063,0.3346898555755615,0.54733527,-0.14996742,228.25096000000002,-101.75958,7.8355412,JOG
10368779000000.0,0.6361609697341919,0.6948957443237305,10.08782958984375,-1.9194166660308838,0.30202463269233704,0.5186246,-0.18539760000000002,228.02997000000002,-101.61214,7.785091400000001,JOG
10369167000000.0,0.6411678194999695,0.6428800225257874,10.012097358703613,-1.9130231142044067,0.2703677713871002,0.5045747,-0.20677789,227.8145,-101.45319,7.7265205,JOG
10369535000000.0,0.6461634635925293,0.5915256142616272,9.925450325012207,-1.915237307548523,0.2408374696969986,0.49449542,-0.22602014,227.6026,-101.28662,7.639762400000001,JOG
10369883000000.0,0.6511595249176025,0.5443015098571777,9.835497856140137,-1.9220472574234009,0.21501325070858002,0.48624873,-0.22937989,227.39553999999998,-101.12433,7.5505834,JOG
10370213000000.0,0.6561747193336487,0.5031538009643555,9.746271133422852,-1.931291103363037,0.19417884945869446,0.46944994,-0.226631,227.19476,-100.968666,7.456799,JOG
10370526000000.0,0.6611732840538025,0.4673076272010803,9.660775184631348,-1.9423644542694092,0.17873571813106537,0.44440445,-0.20586158,227.02908,-100.864876,7.3662477,JOG
10370822000000.0,0.6661746501922607,0.4366947412490845,9.581022262573242,-1.955221176147461,0.16842909157276154,0.410196,-0.1685988,226.87271,-100.77996999999999,7.2806954,JOG
10371103000000.0,0.6711764335632324,0.41086187958717346,9.507126808166504,-1.9690872430801392,0.16332705318927765,0.36682457,-0.12980886,226.7375,-100.73697,7.212049,JOG
10371370000000.0,0.676171600818634,0.38920852541923523,9.439504623413086,-1.9826815128326416,0.16367310285568237,0.32467487,-0.09468412,226.61432000000002,-100.71972,7.152251,JOG
10371621000000.0,0.6811710596084595,0.3720237910747528,9.378273010253906,-1.9962234497070312,0.16847698390483856,0.27152961,-0.06780604,226.51039,-100.741455,7.109298,JOG
10371861000000.0,0.6861679553985596,0.3604641556739807,9.3243408203125,-2.0103890895843506,0.1767849177122116,0.24404067,-0.0580322,226.41338,-100.78373,7.0713672999999995,JOG
10372087000000.0,0.6911908388137817,0.35475102066993713,9.277798652648926,-2.025456666946411,0.18780791759490967,0.1685988,-0.05222898,226.34555,-100.8538,7.047535400000001,JOG
10372302000000.0,0.6961986422538757,0.35412976145744324,9.238524436950684,-2.044508695602417,0.20133616030216217,0.14569137,-0.04428773,226.27261000000001,-100.939575,7.0285807,JOG
10372505000000.0,0.7011929750442505,0.358344167470932,9.206145286560059,-2.067348003387451,0.21585257351398468,0.12705997,-0.023823743999999997,226.22511,-101.04963000000001,7.0275893,JOG
10372698000000.0,0.7061861157417297,0.36783432960510254,9.180707931518555,-2.0939018726348877,0.23176024854183197,0.11453723,0.005497787,226.18468,-101.17508000000001,7.0311337,JOG
10372881000000.0,0.7111842632293701,0.38313913345336914,9.16224479675293,-2.1239564418792725,0.2489524930715561,0.12217305,0.032070424,226.14609,-101.30821999999999,7.040175,JOG
10373054000000.0,0.7161853909492493,0.40481311082839966,9.150432586669922,-2.1573634147644043,0.2668887972831726,0.12064589,0.06414085,226.13252000000003,-101.47821,7.0814047,JOG
10373218000000.0,0.7211880683898926,0.43568819761276245,9.145195007324219,-2.1941680908203125,0.2860666811466217,0.12034045,0.09315695,226.11934,-101.65977,7.129263000000001,JOG
10373375000000.0,0.726204514503479,0.475749671459198,9.146454811096191,-2.2344272136688232,0.3051340579986572,0.1255328,0.10048734,226.11726000000002,-101.86910999999999,7.199386,JOG
10373523000000.0,0.7311967015266418,0.5224846601486206,9.1521635055542,-2.2758607864379883,0.3243735134601593,0.13347405,0.119729586,226.11879,-102.09084,7.279909599999999,JOG
10373663000000.0,0.7361946702003479,0.5760784149169922,9.161864280700684,-2.317613124847412,0.34419912099838257,0.12980886,0.1337795,226.12457,-102.31334,7.3594117,JOG
10373796000000.0,0.7412061095237732,0.6367079019546509,9.176231384277344,-2.359060764312744,0.3637494742870331,0.13286320000000001,0.15271631,226.15399,-102.57978,7.4843910000000005,JOG
10373922000000.0,0.7462006211280823,0.7031884789466858,9.195149421691895,-2.399407148361206,0.3836415112018585,0.14019357,0.16982053,226.18653999999998,-102.85089,7.6101675,JOG
10374042000000.0,0.7511957287788391,0.7750115394592285,9.217726707458496,-2.437957525253296,0.40423139929771423,0.1432479,0.1957823,226.23886000000002,-103.14884,7.764766000000001,JOG
10374155000000.0,0.756188690662384,0.8499704003334045,9.241421699523926,-2.4729061126708984,0.42504245042800903,0.13652839,0.22327125,226.29542999999998,-103.44639000000001,7.9208603,JOG
10374263000000.0,0.7612928152084351,0.930842399597168,9.267074584960938,-2.5038042068481445,0.44648611545562744,0.12186762,0.28008172,226.36826000000002,-103.77996999999999,8.10772,JOG
10374366000000.0,0.7662873864173889,1.0114238262176514,9.292163848876953,-2.5322518348693848,0.4685286581516266,0.12156218,0.30421090000000006,226.44099999999997,-104.10977,8.289072,JOG
10374463000000.0,0.7713292241096497,1.0954673290252686,9.31746768951416,-2.5576319694519043,0.49011269211769104,0.12217305,0.34513888,226.5232,-104.45922,8.511951,JOG
10374555000000.0,0.7763163447380066,1.1794954538345337,9.34200668334961,-2.5792410373687744,0.5112789273262024,0.12125675400000001,0.37323865,226.60889,-104.80899000000001,8.732071000000001,JOG
10374643000000.0,0.7813026905059814,1.2633098363876343,9.36523723602295,-2.594634532928467,0.5313822627067566,0.11942416,0.3933972,226.69887999999997,-105.15545,8.955467,JOG
10374726000000.0,0.7862944006919861,1.344769835472107,9.387474060058594,-2.603724241256714,0.54960036277771,0.12095132,0.41599923,226.79651,-105.51058,9.19513,JOG
10374805000000.0,0.7912861108779907,1.4213676452636719,9.40904712677002,-2.606599807739258,0.565740704536438,0.14049901,0.4279111,226.89207000000002,-105.85718999999999,9.432047,JOG
10374880000000.0,0.7962941527366638,1.493330478668213,9.430023193359375,-2.6032400131225586,0.5797675251960754,0.1994475,0.4709771,226.96835,-106.1998,9.689558,JOG
10374952000000.0,0.8012819886207581,1.5596076250076294,9.449821472167969,-2.596076488494873,0.5893681645393372,0.22266038,0.4783075,227.0496,-106.51473999999999,9.932711999999999,JOG
10375020000000.0,0.8062732219696045,1.6191539764404297,9.468031883239746,-2.5860960483551025,0.59695965051651,0.29749137,0.505491,227.1059,-106.83639,10.193642,JOG
10375085000000.0,0.8112673163414001,1.67149019241333,9.484818458557129,-2.5733277797698975,0.6007446050643921,0.38637227,0.51893,227.1282,-107.10701999999999,10.438513,JOG
10375146000000.0,0.8162602186203003,1.7164973020553589,9.50031566619873,-2.5578842163085938,0.6007793545722961,0.49541172,0.5390885999999999,227.12842999999998,-107.36988999999998,10.69228,JOG
10375204000000.0,0.8212632536888123,1.7543469667434692,9.514585494995117,-2.539665699005127,0.5968568921089172,0.60231316,0.54702985,227.09645,-107.59803000000001,10.935601,JOG
10375260000000.0,0.8262540698051453,1.7854132652282715,9.527877807617188,-2.5176517963409424,0.5899693369865417,0.71776664,0.56505036,227.03635,-107.81448,11.18803,JOG
10375312000000.0,0.8312443494796753,1.8098498582839966,9.540236473083496,-2.4918372631073,0.5803887248039246,0.8164214,0.5824600000000001,226.93072999999998,-107.99486499999999,11.422933,JOG
10375363000000.0,0.8362407684326172,1.8211373090744019,9.555000305175781,-2.46014666557312,0.5687143206596375,0.88606006,0.5983425,226.80579,-108.162544,11.660699000000001,JOG
10375411000000.0,0.841292142868042,1.8154358863830566,9.57376766204834,-2.4208168983459473,0.5550577044487,0.91874135,0.6065891999999999,226.66828999999998,-108.31531499999998,11.89737,JOG
10375456000000.0,0.8462821245193481,1.80003023147583,9.594316482543945,-2.3800997734069824,0.5397849082946777,0.91813046,0.61422503,226.49783,-108.43583000000001,12.121233,JOG
10375499000000.0,0.8512721657752991,1.773666501045227,9.616777420043945,-2.341552495956421,0.5238611102104187,0.88086766,0.6267477,226.33397999999997,-108.54875,12.34021,JOG
10375540000000.0,0.8562606573104858,1.7377784252166748,9.64065170288086,-2.306151866912842,0.5083627104759216,0.8200866,0.63071835,226.11962999999997,-108.59957,12.504317,JOG
10375580000000.0,0.8612578511238098,1.6944364309310913,9.664996147155762,-2.2765586376190186,0.49439018964767456,0.75900006,0.64599,225.92216000000002,-108.651596,12.665369,JOG
10375618000000.0,0.8663045167922974,1.642407774925232,9.689985275268555,-2.2531964778900146,0.4812762439250946,0.6881397,0.65179324,225.72585,-108.66958999999999,12.785183,JOG
10375653000000.0,0.8712959885597229,1.5838593244552612,9.714433670043945,-2.235429048538208,0.47048893570899963,0.63346726,0.6579019,225.54717999999997,-108.69762,12.900661999999999,JOG
10375688000000.0,0.8762868642807007,1.516893744468689,9.738560676574707,-2.2240090370178223,0.46120432019233704,0.5885687,0.6597345,225.3724,-108.713844,12.985155,JOG
10375720000000.0,0.8812775015830994,1.44333016872406,9.761423110961914,-2.216445207595825,0.45423755049705505,0.5720753000000001,0.6432411,225.20746,-108.73541000000002,13.060336,JOG
10375752000000.0,0.8862703442573547,1.363745093345642,9.782868385314941,-2.2120680809020996,0.4489768147468567,0.56199604,0.61453044,225.05566000000002,-108.75466999999999,13.126251000000002,JOG
10375781000000.0,0.8912652730941772,1.278540849685669,9.80307388305664,-2.210035800933838,0.44466379284858704,0.5671884,0.6056729000000001,224.88692999999998,-108.773926,13.166716000000001,JOG
10375809000000.0,0.8962597846984863,1.1883493661880493,9.822423934936523,-2.2081120014190674,0.44084107875823975,0.59589905,0.5815437,224.71412999999998,-108.78556999999999,13.193397500000001,JOG
10375837000000.0,0.9012734889984131,1.0926464796066284,9.841021537780762,-2.2061994075775146,0.43764528632164,0.6450737,0.52473325,224.51381,-108.77642,13.184463000000001,JOG
10375863000000.0,0.9062625169754028,0.987176239490509,9.861637115478516,-2.1981940269470215,0.43461981415748596,0.7180721,0.5030475000000001,224.30194,-108.766754,13.180401000000002,JOG
10375888000000.0,0.9112591743469238,0.8705610632896423,9.884547233581543,-2.1836295127868652,0.43077895045280457,0.81306165,0.45204028,224.0359,-108.71983999999999,13.135335999999999,JOG
10375912000000.0,0.9162500500679016,0.746812641620636,9.909998893737793,-2.1640241146087646,0.42540109157562256,0.9300423000000001,0.38362336,223.74336,-108.66021,13.084241,JOG
10375935000000.0,0.9212455749511719,0.621851921081543,9.939229965209961,-2.141354560852051,0.41861698031425476,1.073901,0.30482176,223.41544,-108.58291000000001,13.022632000000002,JOG
10375957000000.0,0.926320493221283,0.49363014101982117,9.973509788513184,-2.11456036567688,0.4100295305252075,1.2501358,0.18020524,222.97333999999998,-108.406,12.883716,JOG
10375978000000.0,0.9313122630119324,0.3672028183937073,10.009881973266602,-2.0856947898864746,0.3984163701534271,1.3072516,0.13927728,222.52958999999998,-108.21833000000001,12.746474000000001,JOG
10375998000000.0,0.9363045692443848,0.2403440922498703,10.049891471862793,-2.053389072418213,0.38589203357696533,1.4080443,0.047036625,221.97124,-107.96217,12.548680000000001,JOG
10376017000000.0,0.9412975311279297,0.11322088539600372,10.093395233154297,-2.017519950866699,0.37120291590690613,1.4724906999999998,-0.044898596,221.41102999999998,-107.68068000000001,12.33939,JOG
10376036000000.0,0.9462903738021851,-0.01364172250032425,10.140342712402344,-1.9772988557815552,0.3542201817035675,1.5186110000000002,-0.12095132,220.8294,-107.3786,12.112743,JOG
10376054000000.0,0.9512832760810852,-0.14032132923603058,10.191472053527832,-1.9320980310440063,0.3347568213939667,1.5228871000000002,-0.21533000000000002,220.19167000000002,-107.00912,11.832958999999999,JOG
10376071000000.0,0.956275999546051,-0.2670646011829376,10.250288009643555,-1.8787052631378174,0.3131240904331207,1.4975361999999999,-0.28344148,219.55466,-106.62213,11.539418,JOG
10376087000000.0,0.9612694382667542,-0.3938913345336914,10.316415786743164,-1.817521095275879,0.2893724739551544,1.4660766,-0.35063666,218.8749,-106.18086000000001,11.203633,JOG
10376103000000.0,0.9662609100341797,-0.5191187858581543,10.388018608093262,-1.7528363466262817,0.2630126476287842,1.4141531,-0.41844269999999995,218.21367999999998,-105.71722,10.845925999999999,JOG
10376119000000.0,0.9712592363357544,-0.6413462162017822,10.46371841430664,-1.688490390777588,0.23511140048503876,1.3521502,-0.47219884,217.57047000000003,-105.24077,10.47162,JOG
10376133000000.0,0.9762524962425232,-0.7612188458442688,10.539246559143066,-1.625748634338379,0.20588110387325287,1.2858714,-0.51007247,216.87675,-104.69176,10.04986,JOG
10376148000000.0,0.9812803268432617,-0.879860520362854,10.613041877746582,-1.5649179220199585,0.17399273812770844,1.2205088,-0.54061574,216.2094,-104.12742,9.614108,JOG
10376162000000.0,0.9862680435180664,-0.9942011833190918,10.688560485839844,-1.5065512657165527,0.1403529942035675,1.178359,-0.56016344,215.52887,-103.55051999999999,9.167774,JOG
10376175000000.0,0.9912534952163696,-1.1039868593215942,10.768260955810547,-1.4505257606506348,0.1070735976099968,1.1071932,-0.5873469,214.88501000000002,-102.970276,8.709323,JOG
10376188000000.0,0.9962397813796997,-1.2101361751556396,10.844819068908691,-1.3975436687469482,0.07187279313802719,1.0549643,-0.5876524000000001,214.22377000000003,-102.37254,8.257582000000001,JOG
10376201000000.0,1.0012255907058716,-1.3131920099258423,10.914477348327637,-1.3478977680206299,0.03488553315401077,1.0308351999999998,-0.56230146,213.58595,-101.78232,7.807114599999999,JOG
10376212000000.0,1.0062127113342285,-1.4146133661270142,10.971508979797363,-1.3038886785507202,-0.0034674303606152534,1.0754282,-0.5366451,212.92801,-101.19009,7.362617999999999,JOG
10376224000000.0,1.0112026929855347,-1.5151753425598145,11.013379096984863,-1.266517996788025,-0.04339003190398216,1.2241739,-0.50243664,212.26,-100.60244,6.934448,JOG
10376235000000.0,1.0161908864974976,-1.6125141382217407,11.039541244506836,-1.2327064275741577,-0.08393591642379761,1.5158621,-0.47158796,211.53185,-100.02320999999999,6.527226000000001,JOG
10376246000000.0,1.0211787223815918,-1.7054274082183838,11.049833297729492,-1.2006968259811401,-0.12663449347019196,1.9520199,-0.44806966,210.73282000000003,-99.44055999999999,6.1390519999999995,JOG
10376256000000.0,1.026167869567871,-1.7905908823013306,11.042884826660156,-1.1547834873199463,-0.17171287536621094,2.5350907000000005,-0.44409904,209.80574,-98.87057,5.772409400000001,JOG
10376267000000.0,1.031166672706604,-1.8660531044006348,11.017721176147461,-1.0852456092834473,-0.21958138048648834,3.1691689999999997,-0.47433686,208.7536,-98.287994,5.4133782,JOG
10376277000000.0,1.0361614227294922,-1.9334341287612915,10.978551864624023,-0.9887099862098694,-0.2696681022644043,3.7241400000000002,-0.54641896,207.56099999999998,-97.69439,5.062693,JOG
10376287000000.0,1.041157603263855,-1.9936585426330566,10.927395820617676,-0.8620383739471436,-0.32318955659866333,4.136474,-0.6585127,206.2461,-97.06704,4.693181,JOG
10376296000000.0,1.0461506843566895,-2.0471675395965576,10.865126609802246,-0.707426905632019,-0.38159045577049255,4.3545527,-0.78954333,204.80698,-96.37029,4.3059745000000005,JOG
10376305000000.0,1.0511442422866821,-2.09419322013855,10.785452842712402,-0.5044463276863098,-0.4475081264972687,4.315151999999999,-0.9462303,203.3476,-95.61818000000001,3.8648087999999996,JOG
10376315000000.0,1.0561507940292358,-2.1351726055145264,10.687647819519043,-0.2513158917427063,-0.5218441486358643,4.015522499999999,-1.0910053,201.9262,-94.81546999999999,3.3712025000000003,JOG
10376323000000.0,1.0611464977264404,-2.173762321472168,10.580244064331055,0.02061941660940647,-0.6059566736221313,3.5637879999999997,-1.2351695,200.54395,-93.85028,2.801119,JOG
10376332000000.0,1.0661425590515137,-2.2100813388824463,10.46313762664795,0.31170225143432617,-0.7001548409461975,2.9892689999999997,-1.3784174,199.26076,-92.72436,2.1498916,JOG
10376340000000.0,1.0711368322372437,-2.24169659614563,10.341275215148926,0.6075221300125122,-0.8028919696807861,2.3246477000000003,-1.5082263,198.16109,-91.59548000000001,1.4484122,JOG
10376348000000.0,1.0761302709579468,-2.2675013542175293,10.217140197753906,0.9009854197502136,-0.9090414047241211,1.9685133000000001,-1.6053538,197.16641,-89.20537,0.7089113,JOG
10376357000000.0,1.0811231136322021,-2.283599853515625,10.104005813598633,1.1582140922546387,-1.0119428634643555,1.2431108,-1.6465873,196.46472,-88.502335,-0.07233514,JOG
10376365000000.0,1.0861260890960693,-2.2880547046661377,10.008086204528809,1.3631857633590698,-1.1082372665405273,0.58062744,-1.7192802,195.88132,-87.216286,-0.8825270000000001,JOG
10376373000000.0,1.0911295413970947,-2.2819840908050537,9.92851448059082,1.5205645561218262,-1.1944841146469116,0.08796459400000001,-1.806634,195.48416,-85.849014,-1.6856532,JOG
10376380000000.0,1.0961823463439941,-2.266658306121826,9.873982429504395,1.637262225151062,-1.2692331075668335,-0.22724187,-1.9101756,195.25897,-84.488045,-2.49421,JOG
10376387000000.0,1.101179599761963,-2.2456681728363037,9.836429595947266,1.7258901596069336,-1.3320225477218628,-0.3921755,-1.9978348000000001,195.18835,-83.31882,-3.2206460999999997,JOG
10376395000000.0,1.1061736345291138,-2.2165627479553223,9.819385528564453,1.7880632877349854,-1.3837828636169434,-0.43829579999999996,-2.0925188,195.19507,-82.18061,-3.9580162000000003,JOG
10376402000000.0,1.1111730337142944,-2.17922306060791,9.822592735290527,1.8255321979522705,-1.4263389110565186,-0.44501534,-2.1734586,195.2566,-81.07868,-4.6959405,JOG
10376409000000.0,1.1161803007125854,-2.130833864212036,9.84929084777832,1.8403196334838867,-1.4606044292449951,-0.45875978,-2.2397375,195.33978000000002,-80.14286,-5.3691379999999995,JOG
10376417000000.0,1.1211789846420288,-2.070524215698242,9.899749755859375,1.8354953527450562,-1.487070083618164,-0.51159966,-2.284636,195.44571000000002,-79.24327,-6.040141,JOG
10376424000000.0,1.1262162923812866,-1.994025468826294,9.977812767028809,1.8098000288009644,-1.5062817335128784,-0.6068946,-2.2834144,195.5354,-78.52624,-6.60542,JOG
10376430000000.0,1.1312085390090942,-1.9065396785736084,10.074111938476562,1.770410180091858,-1.5189026594161987,-0.7315111,-2.2434027000000003,195.64809,-77.84872,-7.1532326,JOG
10376437000000.0,1.1362065076828003,-1.8053975105285645,10.192513465881348,1.7148008346557617,-1.5260491371154785,-0.89858276,-2.1655173,195.73494,-77.37801,-7.549961,JOG
10376443000000.0,1.1412030458450317,-1.694337010383606,10.326519012451172,1.6467456817626953,-1.5279641151428223,-1.0555751,-2.051591,195.84599999999998,-76.95368,-7.910377499999999,JOG
10376449000000.0,1.1462000608444214,-1.5775853395462036,10.468525886535645,1.5704550743103027,-1.525610089302063,-1.2195924999999999,-1.9257526000000003,195.99683000000002,-76.57103000000001,-8.2282505,JOG
10376455000000.0,1.1511938571929932,-1.456113576889038,10.616596221923828,1.4872287511825562,-1.5189214944839478,-1.3631458,-1.7638733,196.15313999999998,-76.43269000000001,-8.315787,JOG
10376462000000.0,1.1561866998672485,-1.3309612274169922,10.768265724182129,1.3985508680343628,-1.5090246200561523,-1.484708,-1.593442,196.33896000000001,-76.3282,-8.362162,JOG
10376468000000.0,1.1611872911453247,-1.2054755687713623,10.922307014465332,1.3031994104385376,-1.49612295627594,-1.5705346000000002,-1.3924674,196.5584,-76.31754000000001,-8.291957,JOG
10376474000000.0,1.1661871671676636,-1.0836467742919922,11.076765060424805,1.2005739212036133,-1.4815161228179932,-1.6331482,-1.1899655,196.79343,-76.3393,-8.177398,JOG
10376481000000.0,1.1711864471435547,-0.9656335115432739,11.23634147644043,1.0872915983200073,-1.4649205207824707,-1.6536123,-1.0097603000000002,197.0554,-76.42272,-7.9757147,JOG
10376487000000.0,1.1761807203292847,-0.8520991802215576,11.41146469116211,0.9554780125617981,-1.4460515975952148,-1.6560557,-0.86651236,197.3191,-76.53491,-7.7383604,JOG
10376493000000.0,1.1811769008636475,-0.7438549995422363,11.60062313079834,0.8034257888793945,-1.4246398210525513,-1.632232,-0.81153446,197.61231999999998,-76.664055,-7.4762059999999995,JOG
10376499000000.0,1.186203956604004,-0.6428276896476746,11.802873611450195,0.6249597668647766,-1.4023995399475098,-1.459357,-0.7134906,197.85175,-76.81815,-7.1837845,JOG
10376506000000.0,1.191216230392456,-0.5480033159255981,12.014400482177734,0.4263180196285248,-1.3714966773986816,-1.3665055,-0.7113526,198.18205,-77.00116,-6.9209065,JOG
10376512000000.0,1.196218729019165,-0.45228826999664307,12.240341186523438,0.20323461294174194,-1.3383342027664185,-1.0916162,-0.7122689,198.40313999999998,-77.17045999999999,-6.6634899999999995,JOG
10376518000000.0,1.201210379600525,-0.35576942563056946,12.479757308959961,-0.04275580868124962,-1.2976771593093872,-0.766025,-0.72295904,198.62976,-77.42611,-6.4436029999999995,JOG
10376524000000.0,1.2062029838562012,-0.25783151388168335,12.725157737731934,-0.2997870445251465,-1.2470439672470093,-0.42271876,-0.7367035,198.77063,-77.70144,-6.251982,JOG
10376529000000.0,1.2112029790878296,-0.1581781506538391,12.972505569458008,-0.5614206194877625,-1.1842641830444336,-0.11636983,-0.77396625,198.82907,-78.01524,-6.0958879999999995,JOG
10376534000000.0,1.216221809387207,-0.05672217532992363,13.222116470336914,-0.8284846544265747,-1.1106363534927368,0.16279559,-0.84421575,198.84386999999998,-78.426186,-5.959910400000001,JOG
10376539000000.0,1.2212196588516235,0.042670074850320816,13.466448783874512,-1.1047180891036987,-1.0284638404846191,0.4538729,-0.92057395,198.76866,-78.87201999999999,-5.862171599999999,JOG
10376545000000.0,1.2262156009674072,0.14035362005233765,13.706371307373047,-1.3913475275039673,-0.9379904866218567,0.7473936,-1.0064004999999998,198.6429,-79.39428000000001,-5.7761703,JOG
10376550000000.0,1.231207013130188,0.1947377473115921,13.914864540100098,-1.6971176862716675,-0.8385518193244934,1.0225884,-1.1230757,198.4425,-79.932144,-5.7411389999999995,JOG
10376555000000.0,1.236204981803894,0.1979564130306244,14.087225914001465,-2.0244181156158447,-0.7309836745262146,1.287093,-1.2611313,198.16382,-80.47259,-5.7544255,JOG
10376560000000.0,1.2412066459655762,0.14563025534152985,14.228102684020996,-2.360908269882202,-0.6155728101730347,1.5806139,-1.462106,197.825,-81.03027,-5.824203,JOG
10376565000000.0,1.2462047338485718,0.013226262293756008,14.34923267364502,-2.6640162467956543,-0.4946579337120056,2.9837713,-1.9058994999999999,197.10143,-81.50012,-6.047113400000001,JOG
10376571000000.0,1.2512010335922241,-0.19547495245933533,14.4515962600708,-2.9354302883148193,-0.4066050946712494,5.3722544,-2.6038132000000003,195.9265,-81.61466999999999,-6.616763000000001,JOG
10376576000000.0,1.2561979293823242,-0.44236961007118225,14.547184944152832,-3.124593734741211,-0.3867916166782379,7.138571300000001,-3.2436945,194.52661,-81.46008,-7.287509,JOG
10376581000000.0,1.2611969709396362,-0.7089064717292786,14.641716957092285,-3.210322380065918,-0.41911235451698303,7.958657700000001,-3.7048976000000002,192.71198,-81.05205500000001,-8.108823,JOG
10376586000000.0,1.2661948204040527,-0.9622318744659424,14.740240097045898,-3.13869571685791,-0.4802469313144684,7.9867577999999995,-3.9635992,190.46844,-80.09033000000001,-9.336372,JOG
10376592000000.0,1.2711937427520752,-1.1855828762054443,14.84542465209961,-2.8830833435058594,-0.552577793598175,7.3490142999999994,-4.022241999999999,188.17732,-78.96712,-10.614879,JOG
10376597000000.0,1.2761881351470947,-1.3789950609207153,14.963260650634766,-2.451401710510254,-0.6234304308891296,6.721655999999999,-3.9000692000000003,185.89178,-77.685936,-11.955983,JOG
10376602000000.0,1.28118097782135,-1.5426820516586304,15.097395896911621,-1.8474196195602417,-0.686616837978363,4.7058005,-3.7699550000000004,184.20183,-76.39859,-13.263966,JOG
10376607000000.0,1.2861807346343994,-1.6847060918807983,15.228387832641602,-1.1660958528518677,-0.7224593162536621,2.0720549,-3.3820555,183.10074,-75.27964,-14.287734,JOG
10376613000000.0,1.2911773920059204,-1.8183097839355469,15.3246431350708,-0.5662074089050293,-0.7177817821502686,-0.40133846,-2.9159653,182.55501999999998,-74.256065,-15.208607,JOG
10376618000000.0,1.296175479888916,-1.9439280033111572,15.387557029724121,-0.044153936207294464,-0.6743692755699158,-2.1374176,-2.4141395,182.8255,-73.410416,-15.861585999999999,JOG
10376623000000.0,1.3011704683303833,-2.0649750232696533,15.414766311645508,0.3664165735244751,-0.6044431924819946,-3.0198123,-1.9312505000000002,183.55638000000002,-72.7348,-16.332453,JOG
10376628000000.0,1.3061933517456055,-2.186864137649536,15.396767616271973,0.5978705883026123,-0.5253520011901855,-3.2198708,-1.4996742,184.56888,-72.22629,-16.629995,JOG
10376634000000.0,1.3111902475357056,-2.301882266998291,15.353781700134277,0.722637951374054,-0.45109429955482483,-3.0301971,-1.1658363,185.62495,-71.85335,-16.818479999999997,JOG
10376639000000.0,1.316187858581543,-2.404045581817627,15.294365882873535,0.7711417078971863,-0.38842809200286865,-2.6810875,-0.93767816,186.65767,-71.58885,-16.898443,JOG
10376644000000.0,1.3211828470230103,-2.494119644165039,15.219618797302246,0.7482800483703613,-0.3375169336795807,-2.3215932999999995,-0.6976081000000001,187.45494,-71.453224,-16.912523,JOG
10376649000000.0,1.3261786699295044,-2.560704231262207,15.12232494354248,0.6630414724349976,-0.29934582114219666,-1.9935588,-0.4569272,188.12877,-71.36738000000001,-16.864357000000002,JOG
10376655000000.0,1.3311748504638672,-2.5988614559173584,14.999671936035156,0.5219959020614624,-0.2724056541919708,-1.6954565,-0.23732115,188.6782,-71.32712,-16.761826,JOG
10376660000000.0,1.3361753225326538,-2.6092398166656494,14.84704875946045,0.3498966693878174,-0.2550886869430542,-1.4608842,-0.05589417,189.10863999999998,-71.350945,-16.682398000000003,JOG
10376665000000.0,1.3411846160888672,-2.592496633529663,14.66152286529541,0.16355739533901215,-0.24535202980041504,-1.2895365,0.08155051,189.45573000000002,-71.40391,-16.561453,JOG
10376670000000.0,1.3461815118789673,-2.5524721145629883,14.443140029907227,-0.02278837375342846,-0.2423522174358368,-1.1591167,0.172264,189.73776,-71.52561999999999,-16.416239,JOG
10376676000000.0,1.3511767387390137,-2.489706516265869,14.188799858093262,-0.20183418691158295,-0.24337001144886017,-1.028697,0.24037547,189.96268999999998,-71.667046,-16.245935,JOG
10376681000000.0,1.356170415878296,-2.40582013130188,13.899808883666992,-0.36564183235168457,-0.24684026837348938,-0.91721416,0.2742785,190.16382,-71.84513000000001,-16.04552,JOG
10376686000000.0,1.3611690998077393,-2.301837682723999,13.576083183288574,-0.5046762824058533,-0.24975121021270752,-0.8698720999999999,0.3005457,190.34315,-72.03692,-15.831270000000002,JOG
10376691000000.0,1.3661808967590332,-2.1773195266723633,13.217215538024902,-0.612792432308197,-0.2517419755458832,-0.90377516,0.30024028,190.54044,-72.24257,-15.591545000000002,JOG
10376697000000.0,1.3711774349212646,-2.0350053310394287,12.829357147216797,-0.685479462146759,-0.251657098531723,-0.9474520000000001,0.27550024,190.72781,-72.45384,-15.352873,JOG
10376702000000.0,1.3761746883392334,-1.872097134590149,12.414834022521973,-0.7243553400039673,-0.24897237122058868,-1.0732902,0.27000242,190.98532,-72.67614,-15.072591000000001,JOG
10376707000000.0,1.3811687231063843,-1.6874580383300781,11.980059623718262,-0.7334350943565369,-0.24464021623134613,-1.239751,0.25442538,191.2699,-72.89426999999999,-14.797376000000002,JOG
10376712000000.0,1.3861684799194336,-1.481242060661316,11.524714469909668,-0.7133913040161133,-0.23609520494937897,-1.3958270000000002,0.25992316,191.63448,-73.12028000000001,-14.461401,JOG
10376718000000.0,1.3911645412445068,-1.2639561891555786,11.065138816833496,-0.6827424168586731,-0.22377347946166992,-1.520749,0.28008172,192.03818,-73.35122,-14.117181,JOG
10376723000000.0,1.3961645364761353,-1.0456269979476929,10.617432594299316,-0.6610711812973022,-0.20878782868385315,-1.6044376,0.31764993,192.4736,-73.598625,-13.758787,JOG
10376728000000.0,1.4011634588241577,-0.8283376097679138,10.183070182800293,-0.6499224901199341,-0.19088956713676453,-1.5971072,0.37079520000000005,192.99294,-73.88157,-13.304499,JOG
10376733000000.0,1.4061588048934937,-0.6188697814941406,9.768473625183105,-0.6566564440727234,-0.17065712809562683,-1.5360206,0.44929138,193.51575,-74.18685,-12.826153999999999,JOG
10376739000000.0,1.4111584424972534,-0.4166961908340454,9.372489929199219,-0.6808282732963562,-0.14704294502735138,-1.4413365,0.5525276,194.0383,-74.55971,-12.319772,JOG
10376744000000.0,1.4161696434020996,-0.22704172134399414,8.994647026062012,-0.7222267389297485,-0.11879482120275497,-1.3387111,0.66339964,194.53583,-74.96738,-11.787472,JOG
10376749000000.0,1.4212255477905273,-0.05467291921377182,8.634180068969727,-0.7824022173881531,-0.08428782969713211,-1.2803736000000001,0.7510588,195.01466000000002,-75.41333,-11.230961,JOG
10376754000000.0,1.426218867301941,0.10104410350322723,8.289863586425781,-0.8508233428001404,-0.04372529312968254,-1.2687671,0.8240572,195.47632,-75.93600500000001,-10.636514,JOG
10376760000000.0,1.4312102794647217,0.23491406440734863,7.958164215087891,-0.9265410900115967,0.0028142291121184826,-1.294118,0.8927795000000001,195.93062,-76.50417,-10.017209,JOG
10376765000000.0,1.4362064599990845,0.34487584233283997,7.629498481750488,-1.0021435022354126,0.055028483271598816,-1.3240504,0.91996306,196.37909,-77.10937,-9.405385,JOG
10376770000000.0,1.4412167072296143,0.4274424612522125,7.290524005889893,-1.067237377166748,0.11171979457139969,-1.3387111,0.9401216,196.83363,-77.753136,-8.775102,JOG
10376775000000.0,1.446213960647583,0.4860926866531372,6.944398880004883,-1.1229900121688843,0.17227518558502197,-1.3347405,0.93828905,197.29803,-78.38945,-8.181629,JOG
10376780000000.0,1.451207160949707,0.5277400612831116,6.595802307128906,-1.1662236452102661,0.23447033762931824,-1.3026701,0.9401216,197.76538,-79.04895,-7.5824275,JOG
10376786000000.0,1.4561991691589355,0.5572723746299744,6.248022079467773,-1.1952277421951294,0.2958088219165802,-1.2565498,0.91538155,198.2369,-79.71799,-6.992766400000001,JOG
10376791000000.0,1.4611972570419312,0.5784424543380737,5.905910015106201,-1.2101166248321533,0.3543504476547241,-1.2229522,0.88697636,198.65535,-80.320335,-6.5340457,JOG
10376796000000.0,1.4661940336227417,0.5940662026405334,5.572993278503418,-1.2117611169815063,0.40921878814697266,-1.20371,0.8546004999999999,199.0717,-80.92341,-6.0846599999999995,JOG
10376801000000.0,1.4711921215057373,0.6046760678291321,5.248829364776611,-1.2011322975158691,0.4594050943851471,-1.1917981000000002,0.82650065,199.45622,-81.489334,-5.6985345,JOG
10376807000000.0,1.4761865139007568,0.6136355996131897,4.934564113616943,-1.1832586526870728,0.5041985511779785,-1.1685851999999999,0.80970186,199.83698,-82.04666,-5.3196125,JOG
10376812000000.0,1.4811855554580688,0.6209989190101624,4.629438877105713,-1.1582823991775513,0.5442934036254883,-1.103528,0.77671516,200.18375,-82.558815,-4.987956,JOG
10376817000000.0,1.4861863851547241,0.6286163926124573,4.327242851257324,-1.1382088661193848,0.5771567225456238,-0.9440921999999998,0.75991637,200.49963,-83.050606,-4.65983,JOG
10376822000000.0,1.4912469387054443,0.63725745677948,4.022805690765381,-1.1277823448181152,0.5995765328407288,-0.24129178,0.7858781,200.64392,-83.52233000000001,-4.34389,JOG
10376828000000.0,1.4962419271469116,0.6452698707580566,3.724729299545288,-1.1235201358795166,0.5970691442489624,0.06261369,0.79473567,200.84968999999998,-83.88901,-4.0414,JOG
10376833000000.0,1.501233696937561,0.6465626955032349,3.439042568206787,-1.128108263015747,0.5860358476638794,0.63316184,0.80573124,200.77965,-84.28777,-3.7521142999999997,JOG
10376838000000.0,1.50624680519104,0.6408572196960449,3.1647000312805176,-1.1422415971755981,0.5598992109298706,1.1148291000000001,0.77763146,200.65196,-84.57630999999999,-3.4723029999999997,JOG
10376843000000.0,1.5112417936325073,0.6284299492835999,2.9004318714141846,-1.1713265180587769,0.5248518586158752,1.5079208999999998,0.73639804,200.38857,-84.849884,-3.2008126,JOG
10376849000000.0,1.5162395238876343,0.609079897403717,2.645339250564575,-1.2158162593841553,0.48623567819595337,1.9144517,0.6719518,199.98358000000002,-85.07005,-2.976766,JOG
10376854000000.0,1.5212335586547852,0.5761973857879639,2.3963661193847656,-1.2770662307739258,0.4485054910182953,2.4972172,0.6072,199.41875,-85.25519,-2.7742414,JOG
10376859000000.0,1.5262268781661987,0.5268888473510742,2.151811361312866,-1.3556222915649414,0.4116140604019165,3.2748485,0.5305365,198.68549,-85.4013,-2.6038392000000004,JOG
10376864000000.0,1.5312223434448242,0.46794620156288147,1.9270018339157104,-1.4241752624511719,0.377144455909729,3.6474763999999995,0.44715336,197.9081,-85.562904,-2.4871764,JOG
10376870000000.0,1.5362215042114258,0.4050436019897461,1.7343312501907349,-1.4604411125183105,0.3523412346839905,3.3399057,0.31826079999999995,197.10811999999999,-85.73345,-2.4065874,JOG
10376875000000.0,1.5412240028381348,0.34461668133735657,1.5771269798278809,-1.474165439605713,0.3450395166873932,2.8909197,0.1554652,196.2395,-85.926765,-2.438807,JOG
10376880000000.0,1.5462204217910767,0.3000226318836212,1.463564157485962,-1.4845843315124512,0.3535904288291931,2.5390612999999997,0.03359759,195.43528999999998,-86.127655,-2.4923347999999996,JOG
10376885000000.0,1.551216959953308,0.2706667184829712,1.3901432752609253,-1.4920213222503662,0.379021018743515,2.221717,-0.05100725,194.73827,-86.25279,-2.6119792,JOG
10376891000000.0,1.556208610534668,0.2554273307323456,1.3505091667175293,-1.4970537424087524,0.42204317450523376,1.8704693,-0.09743301,194.15463,-86.40117,-2.7497241000000003,JOG
10376896000000.0,1.561204195022583,0.2685239911079407,1.4007705450057983,-1.5013022422790527,0.48225653171539307,1.4877623,-0.10598512,193.84169,-86.454544,-2.8863842,JOG
10376901000000.0,1.566202163696289,0.33564040064811707,1.642554759979248,-1.5077357292175293,0.5586147308349609,1.1472049,-0.11942416,193.61966,-86.52124,-3.0328507,JOG
10376906000000.0,1.5711970329284668,0.45282283425331116,2.061840534210205,-1.5161901712417603,0.6485157012939453,1.0216721,-0.18692477,193.72766000000001,-86.40021999999999,-3.2123682000000002,JOG
10376912000000.0,1.5761913061141968,0.6288886666297913,2.606187582015991,-1.5402392148971558,0.7417967915534973,1.1304061,-0.32131509999999996,193.8476,-86.292244,-3.3989913,JOG
10376917000000.0,1.581189513206482,0.8701993823051453,3.237525463104248,-1.589715600013733,0.8417124152183533,1.7669276999999999,-0.3472769,193.83467,-86.23839,-3.5612876000000004,JOG
10376922000000.0,1.586188554763794,1.2017097473144531,3.903067111968994,-1.5267499685287476,0.939607560634613,4.3832636,-0.50243664,193.33014,-86.4595,-3.4430440000000004,JOG
10376927000000.0,1.591198205947876,1.6418483257293701,4.572299003601074,-1.262703776359558,1.0383570194244385,8.419861000000001,0.07299839999999999,192.2333,-86.85378,-3.1279202,JOG
10376931000000.0,1.5961986780166626,2.176032304763794,5.242297649383545,-0.8225278258323669,1.0729525089263916,9.293399,1.563815,191.39758,-87.66553,-2.3312654,JOG
10376937000000.0,1.6011924743652344,2.698094606399536,5.906620979309082,-0.32007673382759094,1.028826355934143,6.814812700000001,2.4019222,190.40518,-91.62403,-1.6239867000000001,JOG
10376942000000.0,1.6061853170394897,3.139420986175537,6.561645030975342,0.17088352143764496,0.9509974718093872,4.174653,2.535396,189.2509,-90.77526999999999,-0.7742674,JOG
10376947000000.0,1.611183524131775,3.481649398803711,7.144529342651367,0.6075812578201294,0.8595088720321655,2.5298984,2.4260514,188.27002,-89.0839,0.76468706,JOG
10376951000000.0,1.6161819696426392,3.7036616802215576,7.576771259307861,0.9366295337677002,0.7534770965576172,1.4379768,2.2385156000000004,187.79248,-87.45925,2.2063742000000004,JOG
10376957000000.0,1.6211780309677124,3.812843084335327,7.867546081542969,1.1645748615264893,0.6323749423027039,0.5824600000000001,2.05098,187.59041000000002,-85.99703000000001,3.3593167999999998,JOG
10376962000000.0,1.6261730194091797,3.8581676483154297,8.070435523986816,1.31793212890625,0.5001145601272583,-0.16310102,1.9049832999999998,187.63329,-84.58156,4.4188643,JOG
10376967000000.0,1.6311701536178589,3.869929790496826,8.218853950500488,1.4136009216308594,0.36341091990470886,-0.8017605999999999,1.8261817,187.86227,-83.200775,5.407498,JOG
10376971000000.0,1.6361700296401978,3.861929416656494,8.358026504516602,1.4576666355133057,0.22704216837882996,-1.3432927,1.8472564999999999,188.27715,-82.14005999999999,6.0712237,JOG
10376977000000.0,1.6411703824996948,3.840740442276001,8.50728702545166,1.4546488523483276,0.0964270755648613,-1.7959439,1.9700403999999998,188.83708000000001,-81.06774,6.750162599999999,JOG
10376982000000.0,1.6461713314056396,3.8001999855041504,8.68751335144043,1.417373776435852,-0.02296249382197857,-2.2369885,2.1410828,189.61568,-80.09994499999999,7.3714666,JOG
10376987000000.0,1.651167631149292,3.7372169494628906,8.910416603088379,1.3551756143569946,-0.1274275928735733,-2.666427,2.2968533,190.50153999999998,-79.137856,8.041507000000001,JOG
10376991000000.0,1.6561650037765503,3.652045488357544,9.186159133911133,1.2850587368011475,-0.21541963517665863,-3.0885346,2.3732113999999997,191.65486,-78.321106,8.647735,JOG
10376996000000.0,1.6611645221710205,3.5455005168914795,9.519015312194824,1.2171413898468018,-0.28771883249282837,-3.515224,2.4058928,192.90178,-77.53263000000001,9.313803,JOG
10377002000000.0,1.6661601066589355,3.4175097942352295,9.896291732788086,1.150834083557129,-0.3455033600330353,-3.7504072,2.3796256000000002,194.15468,-76.87723000000001,9.949461,JOG
10377007000000.0,1.6711572408676147,3.2640562057495117,10.296076774597168,1.084702968597412,-0.3946415185928345,-4.26781,2.3521366,195.58913,-76.24750999999999,10.630222,JOG
10377012000000.0,1.6761524677276611,3.089265823364258,10.709060668945312,1.0159262418746948,-0.4305969774723053,-4.845994,2.2586741000000004,196.97568,-75.75768000000001,11.245847,JOG
10377016000000.0,1.6811496019363403,2.8996386528015137,11.116466522216797,0.9375511407852173,-0.4529654085636139,-5.4272323,2.0925188,198.50499,-75.31643000000001,11.854597,JOG
10377022000000.0,1.6862385272979736,2.6876943111419678,11.523787498474121,0.8456730842590332,-0.46282902359962463,-6.1388903,1.7724255000000002,200.1682,-75.024574,12.3534,JOG
10377027000000.0,1.6912353038787842,2.4683613777160645,11.91578483581543,0.7502837777137756,-0.4560198485851288,-6.3252044000000005,1.675298,201.83478,-74.76524,12.865636,JOG
10377032000000.0,1.6962354183197021,2.232591390609741,12.296501159667969,0.6473214626312256,-0.4442671239376068,-6.65782,1.4886786,203.70998,-74.65562,13.2380085,JOG
10377037000000.0,1.7012372016906738,1.970418930053711,12.65096378326416,0.5376464128494263,-0.42146986722946167,-6.9284334,1.2629639,205.61763,-74.62969,13.565495,JOG
10377042000000.0,1.7062277793884277,1.6758270263671875,12.967728614807129,0.4225318133831024,-0.387988805770874,-7.1242160000000005,0.9578367,207.5987,-74.66847,13.816432,JOG
10377047000000.0,1.7112234830856323,1.3391852378845215,13.214493751525879,0.2598459720611572,-0.342798113822937,-7.1294084,0.5992588000000001,209.57425,-74.84895999999999,13.922209,JOG
10377052000000.0,1.7162203788757324,0.9566324949264526,13.368831634521484,0.01902063377201557,-0.2841453552246094,-6.868569,0.19700404,211.52502,-75.12789000000001,13.915429000000001,JOG
10377056000000.0,1.7212154865264893,0.53128981590271,13.436505317687988,-0.2948630750179291,-0.20929715037345886,-5.883854,-0.14019357,213.22375,-75.56585,13.717621,JOG
10377061000000.0,1.7262110710144043,0.10057474672794342,13.44867992401123,-0.6360205411911011,-0.10695741325616837,-4.317901,-0.38912117,214.66373,-76.09879000000001,13.409531,JOG
10377067000000.0,1.7312041521072388,-0.31978410482406616,13.42039680480957,-0.984444260597229,0.030133411288261414,-2.5610526,-0.57757306,215.74509,-76.6999,13.004026,JOG
10377072000000.0,1.7362024784088135,-0.7144368886947632,13.374123573303223,-1.3009724617004395,0.19600516557693481,-0.9120218000000001,-0.6899723000000001,216.50131000000002,-77.46285,12.4271555,JOG
10377077000000.0,1.7412067651748657,-1.0773959159851074,13.320415496826172,-1.569408893585205,0.37932509183883667,0.5018258,-0.6985244,216.79936,-78.17387,11.816284,JOG
10377082000000.0,1.7462612390518188,-1.407186508178711,13.259679794311523,-1.7740108966827393,0.5661414265632629,1.7095063999999998,-0.6215554,216.69476,-101.22977,11.204378,JOG
10377087000000.0,1.7512527704238892,-1.710040807723999,13.196147918701172,-1.9321379661560059,0.7444341778755188,2.7812696,-0.47800204,216.21182000000002,-100.81108,10.62932,JOG
10377092000000.0,1.7562423944473267,-1.985353946685791,13.121325492858887,-2.0394322872161865,0.9041261672973633,3.7769800000000004,-0.28680122,215.36327000000003,-100.5908,10.137444,JOG
10377097000000.0,1.761237382888794,-2.2345032691955566,13.032773971557617,-2.0986328125,1.037239909172058,4.686863400000001,-0.07391469,214.2349,-100.53808599999999,9.729245,JOG
10377101000000.0,1.766234040260315,-2.4599573612213135,12.926359176635742,-2.0986623764038086,1.1373623609542847,5.0937,0.16310102,212.92272999999997,-100.58058,9.428604,JOG
10377107000000.0,1.7712321281433105,-2.6636693477630615,12.799250602722168,-2.0321364402770996,1.2166204452514648,5.692042400000001,0.26878070000000004,211.30385,-100.6812,9.18907,JOG
10377112000000.0,1.7762247323989868,-2.8491482734680176,12.657111167907715,-1.9055795669555664,1.257114052772522,5.83865,0.40744713,209.6576,-100.71433,9.057151,JOG
10377117000000.0,1.7812174558639526,-3.018840789794922,12.503301620483398,-1.7218738794326782,1.2602580785751343,5.520084,0.42546764,207.9842,-100.6936,8.920492,JOG
10377121000000.0,1.7862133979797363,-3.1668145656585693,12.33803939819336,-1.5082265138626099,1.230891466140747,4.89975,0.36468655,206.26619,-100.47389,8.822787,JOG
10377126000000.0,1.7912153005599976,-3.2890512943267822,12.161590576171875,-1.2845436334609985,1.1759229898452759,4.2030582,0.27214047,204.6737,-100.14328,8.680689,JOG
10377132000000.0,1.7962144613265991,-3.387784004211426,11.957542419433594,-1.0581562519073486,1.102707028388977,3.6618315999999997,0.22021692,203.1513,-99.63640600000001,8.494135,JOG
10377137000000.0,1.8012064695358276,-3.4650073051452637,11.702523231506348,-0.8383305668830872,1.0188084840774536,3.6297612,0.27336220000000006,201.69388,-99.09102,8.271224,JOG
10377142000000.0,1.8062018156051636,-3.5306079387664795,11.401490211486816,-0.60834801197052,0.9485290050506592,3.7476583,0.42058071,200.35289,-98.61063399999999,8.055311999999999,JOG
10377146000000.0,1.8111984729766846,-3.595167636871338,11.062244415283203,-0.3518322706222534,0.9072248339653015,3.7589593,0.6178902,199.06372,-98.17947,7.834728999999999,JOG
10377152000000.0,1.816266655921936,-3.671804189682007,10.668374061584473,-0.03830432519316673,0.8948817849159241,3.6251797999999997,0.8399397,197.80093,-97.90460999999999,7.6869,JOG
10377157000000.0,1.821258544921875,-3.7595157623291016,10.251701354980469,0.3099808990955353,0.9120725989341736,3.3264668,0.8762861999999999,196.59175,-97.66643,7.519471,JOG
10377162000000.0,1.826249599456787,-3.8711938858032227,9.797932624816895,0.7136719822883606,0.9316678047180176,2.8435776,0.88300574,195.41971999999998,-97.4896,7.395651299999999,JOG
10377166000000.0,1.8312393426895142,-4.016510009765625,9.310126304626465,1.174511194229126,0.9488351941108704,2.1740694,0.7870999,194.39484,-97.31111,7.240233,JOG
10377172000000.0,1.83623468875885,-4.193099498748779,8.796420097351074,1.6642390489578247,0.9504217505455017,1.3069462,0.5681046999999999,193.46472,-97.02667,6.993733,JOG
10377177000000.0,1.8412400484085083,-4.398067951202393,8.26667308807373,2.1495769023895264,0.9287936687469482,0.25625798,0.22327125,192.7916,-96.68151999999999,6.6739726,JOG
10377182000000.0,1.8462324142456055,-4.626840114593506,7.725257873535156,2.6289994716644287,0.8829255104064941,-0.8503244000000001,-0.22143865,192.27695,-83.83391,6.158846,JOG
10377186000000.0,1.85122549533844,-4.875926971435547,7.171011924743652,3.050344467163086,0.8188784122467041,-1.8399261000000002,-0.7519751,192.05945,-84.39309,5.5200353,JOG
10377191000000.0,1.8562171459197998,-5.143167495727539,6.604976654052734,3.4056808948516846,0.7438879609107971,-2.5802948,-1.3335188999999998,192.12068,-84.94391999999999,4.7447743,JOG
10377197000000.0,1.8612139225006104,-5.391409397125244,6.045187473297119,3.628793239593506,0.6648529171943665,-2.8280005,-1.8903223999999998,192.29372,-85.43336,3.713834,JOG
10377202000000.0,1.8662128448486328,-5.611039161682129,5.49686336517334,3.7079992294311523,0.5850653052330017,-3.0833423,-2.1664336,192.7317,-85.53918,2.6152978,JOG
10377207000000.0,1.8712080717086792,-5.781399250030518,4.983819484710693,3.7085626125335693,0.5071370005607605,-3.075401,-2.6355782000000003,193.22198,-85.32819,1.2305981000000001,JOG
10377211000000.0,1.8762017488479614,-5.8862690925598145,4.52407169342041,3.679433584213257,0.4277297556400299,-2.8646526000000003,-2.9883528,193.7777,-84.54534,-0.189804,JOG
10377217000000.0,1.881193995475769,-5.927740573883057,4.128393173217773,3.631572723388672,0.34583181142807007,-2.5778513,-3.2058207999999997,194.42738,-83.71666,-1.6571193,JOG
10377222000000.0,1.8861956596374512,-5.905991077423096,3.8036770820617676,3.571183681488037,0.258222758769989,-2.2910502,-3.275154,195.04451,-82.54648,-3.1919904,JOG
10377227000000.0,1.8911912441253662,-5.829914569854736,3.550504446029663,3.4990158081054688,0.16125154495239258,-2.0812180000000002,-3.215289,195.67126000000002,-81.285515,-4.598845,JOG
10377231000000.0,1.8961896896362305,-5.704692840576172,3.3797662258148193,3.413865566253662,0.05388704687356949,-2.021964,-3.071125,196.27568,-79.87648,-6.0092335,JOG
10377237000000.0,1.9011842012405396,-5.548929691314697,3.268923759460449,3.3172733783721924,-0.06304012984037399,-2.1154262999999998,-2.9171869999999998,196.92651,-78.546265,-7.1799254,JOG
10377242000000.0,1.9061775207519531,-5.3816304206848145,3.1953976154327393,3.2102160453796387,-0.18784838914871216,-2.2473732999999996,-2.7748554,197.58029,-77.15639,-8.310124,JOG
10377247000000.0,1.9111759662628174,-5.202942848205566,3.157938241958618,3.092883825302124,-0.3181481957435608,-2.3136520000000003,-2.656653,198.26244,-75.911934,-9.194991,JOG
10377252000000.0,1.9161792993545532,-5.020917892456055,3.164245128631592,2.95526385307312,-0.4531422555446625,-2.2595906,-2.5631904999999997,198.951,-74.63683,-10.034331,JOG
10377257000000.0,1.9211769104003906,-4.839262008666992,3.2142820358276367,2.79516863822937,-0.5905295014381409,-2.008525,-2.4517076,199.60338000000002,-73.35056,-10.83124,JOG
10377262000000.0,1.9262100458145142,-4.7162017822265625,3.367168664932251,2.5984158515930176,-0.7263734340667725,-1.2388347,-2.3780985,199.9174,-72.32467,-11.410630000000001,JOG
10377267000000.0,1.9312031269073486,-4.648336887359619,3.6022891998291016,2.3759171962738037,-0.8460578918457031,-0.016798794,-2.3900104,200.02487,-71.34342,-12.021981,JOG
10377272000000.0,1.9362009763717651,-4.628223419189453,3.915611982345581,2.1585001945495605,-0.930601954460144,0.8173377,-2.5143212999999998,199.85666,-70.66674,-12.522704,JOG
10377276000000.0,1.9412028789520264,-4.641875267028809,4.288961887359619,1.9761356115341187,-0.9926050901412964,1.1902708999999998,-2.7824912,199.4868,-69.96284,-13.121462,JOG
10377282000000.0,1.9461979866027832,-4.664575576782227,4.682340621948242,1.834223985671997,-1.0428885221481323,1.2336423,-3.0473013,199.02823999999998,-69.28224,-14.014919,JOG
10377287000000.0,1.9511919021606445,-4.680964469909668,5.071938991546631,1.7369276285171509,-1.0876274108886719,1.0219775,-3.199712,198.54068,-68.6096,-14.9462595,JOG
10377292000000.0,1.9561847448349,-4.6944074630737305,5.455972194671631,1.6735219955444336,-1.1292821168899536,0.8371908000000001,-3.2867606,197.9595,-67.93247,-15.915523,JOG
10377296000000.0,1.9611833095550537,-4.706458568572998,5.834173679351807,1.638936996459961,-1.1710445880889893,0.35430184,-3.3744197,197.53307,-67.2105,-16.86872,JOG
10377302000000.0,1.9661928415298462,-4.730048656463623,6.232118606567383,1.6241419315338135,-1.2137718200683594,-0.22296582,-3.4342843999999997,197.1497,-66.50435,-17.694405,JOG
10377307000000.0,1.9711898565292358,-4.780542373657227,6.678401470184326,1.6160123348236084,-1.2557032108306885,-0.79534656,-3.5622606,196.91828999999998,-65.76013,-18.512386,JOG
10377312000000.0,1.9761862754821777,-4.863646507263184,7.167591094970703,1.6063100099563599,-1.2976462841033936,-1.2434162,-3.7568212,196.8304,-64.98603,-19.246277,JOG
10377316000000.0,1.981182336807251,-4.986898422241211,7.688176155090332,1.5823553800582886,-1.3382004499435425,-1.5048665,-3.9938369,196.86899,-64.1822,-19.98473,JOG
10377322000000.0,1.9861806631088257,-5.112536430358887,8.223732948303223,1.507145881652832,-1.3755028247833252,-1.4410311000000002,-4.249178400000001,196.98431000000002,-63.332336,-20.784899,JOG
10377327000000.0,1.9912055730819702,-5.200926303863525,8.76020336151123,1.336603045463562,-1.411452054977417,-0.9896017,-4.448626,197.07381999999998,-62.445347,-21.628515,JOG
10377332000000.0,1.9962055683135986,-5.259271621704102,9.29250717163086,1.092776894569397,-1.4509546756744385,-0.18295415,-4.4284678,197.0993,-61.47427,-22.608175,JOG
10377337000000.0,2.001202344894409,-5.263134956359863,9.814386367797852,0.8173721432685852,-1.4984928369522095,1.0876455,-4.1092906000000005,196.83746000000002,-60.524586,-23.615847,JOG
10377341000000.0,2.006195306777954,-5.184587478637695,10.315303802490234,0.5700916051864624,-1.5535407066345215,2.2449298,-3.5256087999999997,196.33508,-59.638813,-24.585863,JOG
10377347000000.0,2.0111937522888184,-5.047813415527344,10.794490814208984,0.34183642268180847,-1.6111892461776733,2.8038714,-2.8478537,195.7238,-58.94603000000001,-25.492575,JOG
10377352000000.0,2.01619029045105,-4.885210037231445,11.250382423400879,0.12160585820674896,-1.6657166481018066,2.8930578,-2.207667,194.84386999999998,-58.371030000000005,-26.294828000000003,JOG
10377357000000.0,2.0211851596832275,-4.698094367980957,11.684225082397461,-0.09103527665138245,-1.714375615119934,2.9425377999999998,-1.6707164,193.89728,-58.080578,-26.741197999999997,JOG
10377361000000.0,2.0261800289154053,-4.487245082855225,12.097013473510742,-0.29697877168655396,-1.7532631158828735,2.8979447,-1.2327261,192.89888,-57.926937,-27.040527,JOG
10377367000000.0,2.0311734676361084,-4.253774642944336,12.489669799804688,-0.49701228737831116,-1.7773330211639404,2.7641652000000003,-0.89766645,191.87372,-57.89436,-27.220840000000003,JOG
10377372000000.0,2.036172866821289,-4.0155487060546875,12.829591751098633,-0.6732463836669922,-1.7813198566436768,2.5042422,-0.71685034,190.96213999999998,-58.04871,-27.189388,JOG
10377377000000.0,2.041171073913574,-3.7845797538757324,13.098753929138184,-0.8155065774917603,-1.763184905052185,2.0754147,-0.6939429,190.13701,-58.27315,-27.0941,JOG
10377381000000.0,2.0461666584014893,-3.559628963470459,13.292684555053711,-0.9301061630249023,-1.7218608856201172,1.6581936999999998,-0.7290677,189.45276,-58.6231,-26.873857,JOG
10377387000000.0,2.0511627197265625,-3.3379006385803223,13.391458511352539,-1.030348300933838,-1.6571511030197144,1.3246613,-0.80939645,188.88884,-59.010082,-26.643894,JOG
10377392000000.0,2.056157112121582,-3.121736526489258,13.404488563537598,-1.112593173980713,-1.5676324367523193,1.1798861999999999,-0.8726209999999999,188.47627,-59.368362,-26.437963,JOG
10377397000000.0,2.0611677169799805,-2.9170925617218018,13.341267585754395,-1.164851188659668,-1.4531457424163818,0.8979719,-0.9098838,188.2218,-59.77178000000001,-26.215643,JOG
10377402000000.0,2.066169023513794,-2.724679470062256,13.217348098754883,-1.1911476850509644,-1.3155587911605835,0.6246096999999999,-0.9184359000000001,188.05873,-60.13438000000001,-26.060028,JOG
10377406000000.0,2.071166515350342,-2.5510921478271484,13.061330795288086,-1.1934449672698975,-1.173161268234253,0.37201694,-0.91721416,187.98633999999998,-60.514336,-25.89098,JOG
10377412000000.0,2.0761663913726807,-2.3965513706207275,12.8822660446167,-1.1753513813018799,-1.0168664455413818,0.15485434,-0.84421575,188.0428,-60.890297,-25.747187,JOG
10377417000000.0,2.081162452697754,-2.263671636581421,12.712743759155273,-1.1490046977996826,-0.8529492020606995,0.019242255,-0.7128797,188.1541,-61.29111999999999,-25.570429,JOG
10377422000000.0,2.0861644744873047,-2.15179705619812,12.552255630493164,-1.1145025491714478,-0.6883429884910583,-0.057726767000000005,-0.52290064,188.36766,-61.670742000000004,-25.39015,JOG
10377426000000.0,2.091163396835327,-2.0626611709594727,12.406038284301758,-1.0732096433639526,-0.53075110912323,-0.11362094,-0.27763826,188.60973,-62.111984,-25.145982999999998,JOG
10377432000000.0,2.0961644649505615,-1.99679696559906,12.275898933410645,-1.0255879163742065,-0.38782456517219543,-0.16004670000000001,0.017104227,188.86407,-62.611954000000004,-24.82765,JOG
10377437000000.0,2.101161003112793,-1.9476208686828613,12.14330768585205,-0.9696036577224731,-0.2683853507041931,-0.26511553,0.28741209999999995,189.17583,-63.09097,-24.484085,JOG
10377442000000.0,2.1061573028564453,-1.9109433889389038,11.995675086975098,-0.9036676287651062,-0.1784740537405014,-0.45112398,0.5006041,189.51881,-63.597126,-24.06772,JOG
10377446000000.0,2.1111605167388916,-1.88018798828125,11.8236722946167,-0.8364676833152771,-0.11570319533348083,-0.6765333,0.636827,189.91183,-64.06908,-23.637741000000002,JOG
10377452000000.0,2.116161823272705,-1.84670889377594,11.616951942443848,-0.7795214653015137,-0.07504534721374512,-0.86590147,0.6808093000000001,190.34435,-64.5262,-23.170599,JOG
10377457000000.0,2.121159553527832,-1.8074414730072021,11.377099990844727,-0.735997200012207,-0.04684155434370041,-0.9819659,0.68630713,190.85735,-64.901726,-22.725899,JOG
10377462000000.0,2.126208543777466,-1.7561943531036377,11.095836639404297,-0.7130565047264099,-0.023477677255868912,-1.0644327,0.6649268,191.40648000000002,-65.25259,-22.27334,JOG
10377466000000.0,2.131202220916748,-1.6984397172927856,10.796463966369629,-0.7019939422607422,0.0009524579509161413,-1.1475104,0.64476824,191.96785,-65.55504,-21.863304,JOG
10377471000000.0,2.136202812194824,-1.6322910785675049,10.475212097167969,-0.702992856502533,0.03130778670310974,-1.2370021,0.60903263,192.54758999999999,-65.850685,-21.461668,JOG
10377477000000.0,2.141218900680542,-1.5589380264282227,10.136215209960938,-0.7111212015151978,0.06898166239261627,-1.289842,0.57879484,193.11393999999999,-66.13984,-21.096712,JOG
10377482000000.0,2.1462149620056152,-1.482143521308899,9.792458534240723,-0.716495156288147,0.11306318640708923,-1.3808608999999998,0.528093,193.71489,-66.43251,-20.740921,JOG
10377487000000.0,2.1512093544006348,-1.4015746116638184,9.44259262084961,-0.7190983891487122,0.16239699721336365,-1.5128077,0.49205196,194.33133,-66.73675,-20.404808,JOG
10377491000000.0,2.156203031539917,-1.3066720962524414,9.092988967895508,-0.7189099192619324,0.21409882605075836,-1.5809193000000001,0.47250426,194.95317,-67.049774,-20.07592,JOG
10377497000000.0,2.1612324714660645,-1.1928322315216064,8.742727279663086,-0.7156732678413391,0.2642335593700409,-1.8289305,0.48533243,195.66353,-67.37479,-19.729084,JOG
10377502000000.0,2.166224241256714,-1.068786382675171,8.401105880737305,-0.713985025882721,0.31187552213668823,-1.9126191000000003,0.5122104999999999,196.39952,-67.68095,-19.391205,JOG
10377507000000.0,2.171220541000366,-0.935801088809967,8.074061393737793,-0.7204210758209229,0.3571575880050659,-2.0570886,0.57726765,197.2141,-68.0089,-19.018696,JOG
10377512000000.0,2.176262140274048,-0.7962092161178589,7.751307487487793,-0.7349813580513,0.39971715211868286,-2.1624630000000002,0.75716746,198.05109,-68.419655,-18.553324,JOG
10377518000000.0,2.1812758445739746,-0.6573437452316284,7.42740535736084,-0.754583477973938,0.4378111660480499,-2.171015,0.8335256,198.89436,-68.82208,-18.093424,JOG
10377522000000.0,2.186265707015991,-0.5176923871040344,7.100111961364746,-0.776848554611206,0.4728983938694,-2.1105394,0.97127575,199.64868,-69.37319000000001,-17.53133,JOG
10377527000000.0,2.1912624835968018,-0.3729367256164551,6.762031078338623,-0.7968814969062805,0.5036416053771973,-1.9489655,1.0922271000000001,200.37039,-69.9325,-16.95656,JOG
10377532000000.0,2.1962578296661377,-0.22277924418449402,6.416895389556885,-0.81119304895401,0.5266586542129517,-1.6468927,1.2015719999999999,200.97519,-70.53941,-16.35879,JOG
10377536000000.0,2.2012503147125244,-0.0655505359172821,6.070384502410889,-0.8121393918991089,0.5402941107749939,-1.2009611,1.3518448,201.4829,-71.17591,-15.730570000000002,JOG
10377542000000.0,2.206242322921753,0.09271878004074097,5.721946716308594,-0.8066818118095398,0.5396276116371155,-0.68233645,1.5500705,201.85413,-71.835915,-15.063388,JOG
10377547000000.0,2.2112374305725098,0.23498927056789398,5.370141506195068,-0.8138699531555176,0.5198381543159485,-0.21624629,1.7321084,202.10625,-72.489296,-14.375589999999999,JOG
10377552000000.0,2.216233968734741,0.3602816164493561,5.0156168937683105,-0.8376361727714539,0.4822867512702942,0.14080444,1.8542813999999999,202.24596,-73.14305999999999,-13.633144,JOG
10377556000000.0,2.2212328910827637,0.46300169825553894,4.659714221954346,-0.893308162689209,0.4343332052230835,0.4343252,1.8756616999999998,202.26678,-73.77271,-12.88279,JOG
10377562000000.0,2.2262442111968994,0.5437905192375183,4.301990509033203,-0.9800760746002197,0.3837590515613556,0.7959574,1.8170186000000002,202.14151,-74.348015,-12.179805,JOG
10377567000000.0,2.231236696243286,0.6066856384277344,3.9499313831329346,-1.0850557088851929,0.3346756100654602,1.2858714,1.7150042,201.89903,-74.88336,-11.498227,JOG
10377572000000.0,2.2362310886383057,0.6515522599220276,3.6021616458892822,-1.2091056108474731,0.2901286780834198,1.8634444,1.5754215,201.50427,-75.3842,-10.935025,JOG
10377577000000.0,2.2412381172180176,0.6745901107788086,3.263617515563965,-1.338504672050476,0.25259482860565186,2.3683245,1.4126258999999999,201.0022,-75.862686,-10.421783999999999,JOG
10377583000000.0,2.246264934539795,0.6719169020652771,2.939692974090576,-1.458638310432434,0.2238977551460266,2.67223,1.2388347,200.40565,-76.3248,-9.963374,JOG
10377587000000.0,2.2512547969818115,0.6518177390098572,2.635704278945923,-1.559690237045288,0.20669175684452057,2.7156013999999997,1.0497718999999999,199.7319,-76.776955,-9.637916,JOG
10377592000000.0,2.2562451362609863,0.6158575415611267,2.3594729900360107,-1.6239112615585327,0.2007388323545456,2.6893342000000002,0.97005403,199.00108,-77.24717,-9.335491000000001,JOG
10377596000000.0,2.2612390518188477,0.5723173022270203,2.110546112060547,-1.6550198793411255,0.20010030269622803,2.5842655,0.8249735,198.26808,-77.60161,-9.194755,JOG
10377601000000.0,2.266238212585449,0.5300132632255554,1.8885462284088135,-1.656931757926941,0.20716243982315063,2.477975,0.7162395,197.55069,-77.99555,-9.0598,JOG
10377607000000.0,2.2712323665618896,0.4889218211174011,1.6917810440063477,-1.6252769231796265,0.21770595014095306,2.4248295,0.62796944,196.83139,-78.25563000000001,-9.017679,JOG
10377612000000.0,2.2762255668640137,0.44897621870040894,1.5219978094100952,-1.4840151071548462,0.22928273677825928,2.4376577999999998,0.56779927,196.13076999999998,-78.5148,-8.993463499999999,JOG
10377616000000.0,2.281217575073242,0.41011664271354675,1.37773859500885,-1.239121675491333,0.23837067186832428,3.0439415000000003,0.5366451,195.26633,-78.699585,-9.001043,JOG
10377621000000.0,2.2862155437469482,0.367793470621109,1.3098026514053345,-0.9732996821403503,0.2356778085231781,5.641646,0.56016344,193.82706000000002,-78.856476,-9.072401,JOG
10377627000000.0,2.2912161350250244,0.3198367655277252,1.34135103225708,-0.7314456701278687,0.20112718641757965,7.8010545,0.55771995,192.34319,-78.9297,-9.157799,JOG
10377632000000.0,2.2962119579315186,0.27063819766044617,1.4152573347091675,-0.524191677570343,0.20124927163124084,7.9733186,0.5183192,190.65742,-78.870705,-9.29411,JOG
10377637000000.0,2.3012046813964844,0.22406154870986938,1.4810216426849365,-0.3618723452091217,0.24651822447776794,7.022506699999999,0.36468655,188.68167,-78.71468,-9.506399,JOG
10377641000000.0,2.306201457977295,0.1855519413948059,1.5983535051345825,-0.21332257986068726,0.30076882243156433,5.7430496,0.21166481,186.87386999999998,-78.55001,-9.741177,JOG
10377647000000.0,2.3111989498138428,0.158787801861763,1.808236837387085,-0.055616218596696854,0.3603645861148834,4.4064765,0.025350908,185.37268,-78.45548000000001,-9.993849,JOG
10377652000000.0,2.316220998764038,0.14401206374168396,2.114595890045166,0.11228916049003601,0.4234417676925659,2.9400945,-0.21655174,184.38398999999998,-78.32188000000001,-10.309258999999999,JOG
10377657000000.0,2.3212172985076904,0.13880547881126404,2.4941420555114746,0.28671419620513916,0.4828643798828125,1.3848315,-0.6072,183.82431,-78.09375,-10.679182,JOG
10377662000000.0,2.326249122619629,0.14624810218811035,2.96590256690979,0.47165191173553467,0.5322674512863159,-0.22724187,-1.0180069,183.70322,-77.79966,-11.07232,JOG
10377666000000.0,2.3312439918518066,0.17938557267189026,3.507103443145752,0.667824387550354,0.5610186457633972,-1.9107865000000002,-1.3133603,184.0636,-77.406235,-11.496575,JOG
10377672000000.0,2.336235761642456,0.24044446647167206,4.127079010009766,0.8775396347045898,0.5593453049659729,-3.3185256,-1.2751812,185.17767,-76.99628,-11.770202000000001,JOG
10377677000000.0,2.341240644454956,0.35495731234550476,4.767362117767334,1.0256810188293457,0.533100962638855,-4.1123447,-0.8381071,186.57225,-76.623245,-11.944519999999999,JOG
10377682000000.0,2.3462350368499756,0.5181837677955627,5.415748596191406,1.1113049983978271,0.4917663335800171,-4.298659,0.03604105,188.15855,-76.580574,-11.684377,JOG
10377686000000.0,2.3512275218963623,0.7240797877311707,6.067744731903076,1.1101408004760742,0.44190776348114014,-4.1386123,1.1621711000000001,189.80873,-76.66325,-11.196003999999999,JOG
10377692000000.0,2.356219530105591,0.9612720012664795,6.713611125946045,0.9798689484596252,0.38962775468826294,-3.4452800000000003,1.6673566999999998,191.30396000000002,-76.76146,-10.642638999999999,JOG
10377697000000.0,2.361213445663452,1.2236870527267456,7.325485706329346,0.7847340703010559,0.3323207497596741,-2.6221389999999998,2.4785857000000004,192.73378,-77.46256,-9.441934,JOG
10377702000000.0,2.3662264347076416,1.5052545070648193,7.863100051879883,0.6103538870811462,0.26878970861434937,-1.8930714,3.094338,193.93903,-78.11468,-8.218224000000001,JOG
10377706000000.0,2.371225595474243,1.801665186882019,8.332338333129883,0.45814967155456543,0.19692473113536835,-1.2699889,3.5072827000000006,194.98886000000002,-79.05245,-6.7755556,JOG
10377712000000.0,2.376218318939209,2.118725299835205,8.698904991149902,0.3767525851726532,0.12514585256576538,-0.5140431,3.6596937000000005,195.773,-79.902626,-5.327039,JOG
10377717000000.0,2.3812127113342285,2.4564402103424072,8.965914726257324,0.36429131031036377,0.08286164700984955,0.28924468,3.678936,196.31758,-80.756516,-3.7566302000000005,JOG
10377722000000.0,2.386218309402466,2.7709927558898926,9.227163314819336,0.387642502784729,0.08464738726615906,0.8900306999999998,3.7265835,196.70256,-81.4743,-2.2170637,JOG
10377727000000.0,2.391216993331909,3.0511348247528076,9.508980751037598,0.4334125816822052,0.11579997092485428,1.0763446,3.8310413,196.98512,-82.01854,-0.7276130999999999,JOG
10377732000000.0,2.3962132930755615,3.2802529335021973,9.808720588684082,0.5001654028892517,0.14910124242305756,0.97219205,3.9449677000000003,197.01387,-82.19738000000001,0.91460544,JOG
10377737000000.0,2.401207208633423,3.4148764610290527,10.120004653930664,0.5851578712463379,0.1661083996295929,0.6096435,3.9590178,197.06256000000002,-82.08906,2.515107,JOG
10377742000000.0,2.406198740005493,3.4618663787841797,10.440590858459473,0.6852817535400391,0.15844427049160004,-0.014966198,3.7867537000000002,197.19693,-81.64361,3.978553,JOG
10377747000000.0,2.4112675189971924,3.405046224594116,10.774734497070312,0.8016441464424133,0.12241023033857346,-0.86254174,3.4290922,197.50229,-80.94494,5.3683414,JOG
10377751000000.0,2.4162614345550537,3.2944085597991943,11.10810661315918,0.9203698039054871,0.0619109645485878,-1.8429805000000001,2.958726,198.0198,-80.21418,6.4176245000000005,JOG
10377757000000.0,2.4212546348571777,3.113863468170166,11.446154594421387,1.0380046367645264,-0.01562943495810032,-2.8707612,2.4269676,198.80405,-79.455826,7.3530893,JOG
10377762000000.0,2.4262444972991943,2.8722894191741943,11.785297393798828,1.1503839492797852,-0.10230353474617004,-3.8805214999999995,1.8955148000000002,199.86462,-78.87044499999999,7.9155936,JOG
10377767000000.0,2.431239128112793,2.5830233097076416,12.117426872253418,1.2462409734725952,-0.1904950886964798,-4.8539352,1.4318681,201.20163,-78.348045,8.386013,JOG
10377771000000.0,2.4362332820892334,2.2579996585845947,12.43570613861084,1.324215292930603,-0.2728472650051117,-5.81055,1.1203268999999998,202.70166,-77.99051999999999,8.627597,JOG
10377777000000.0,2.441232681274414,1.9168123006820679,12.725217819213867,1.3795744180679321,-0.3441043794155121,-6.7576966,0.9419542,204.45408999999998,-77.70187,8.835415,JOG
10377782000000.0,2.4462263584136963,1.5616381168365479,12.987958908081055,1.4142488241195679,-0.39977920055389404,-7.6278744000000005,0.84207773,206.36497,-77.56487,8.917697,JOG
10377787000000.0,2.451218605041504,1.1777163743972778,13.201698303222656,1.3894615173339844,-0.4355585277080536,-7.985230400000001,0.7910705,208.36247,-77.492,9.005525,JOG
10377791000000.0,2.456209897994995,0.7646045684814453,13.366006851196289,1.3032530546188354,-0.4587205648422241,-8.502023,0.71929383,210.61597000000003,-77.45814,9.123013499999999,JOG
10377797000000.0,2.4612064361572266,0.2970370948314667,13.449749946594238,1.0330926179885864,-0.45317208766937256,-8.641911,0.6795876000000001,212.78711,-77.598656,9.186760000000001,JOG
10377802000000.0,2.466219186782837,-0.23091678321361542,13.44697093963623,0.5534057021141052,-0.4133787751197815,-8.214916,0.70341134,214.9032,-77.792076,9.257491,JOG
10377807000000.0,2.4712207317352295,-0.7732320427894592,13.389789581298828,0.011452571488916874,-0.3347686231136322,-6.7552533,0.8368853999999999,216.75075,-78.15884399999999,9.255637,JOG
10377812000000.0,2.4762160778045654,-1.300568699836731,13.29688549041748,-0.4941214323043823,-0.20096805691719055,-4.526816999999999,0.9645562,218.23288,-78.67089,9.213033,JOG
10377816000000.0,2.481212854385376,-1.8113471269607544,13.171004295349121,-0.9522976875305176,-0.007023791316896677,-2.346028,1.0485502,219.53797999999998,-79.5438,9.070628999999998,JOG
10377822000000.0,2.4862098693847656,-2.2937521934509277,13.022789001464844,-1.307225227355957,0.22948603332042694,-0.6627888000000001,1.0864239,220.34785,-80.379166,8.8945,JOG
10377827000000.0,2.4912307262420654,-2.748371124267578,12.850889205932617,-1.5579129457473755,0.4852789342403412,0.48563787,1.0632110000000001,220.67285,-81.10441999999999,8.665303,JOG
10377832000000.0,2.496227741241455,-3.1637229919433594,12.662249565124512,-1.7317410707473755,0.7415686249732971,1.1829406,0.9944886000000001,220.66082999999998,-81.57268499999999,8.423685,JOG
10377837000000.0,2.5013067722320557,-3.5346760749816895,12.447037696838379,-1.80756413936615,0.9862997531890869,1.9248363999999998,0.89980453,220.21307000000002,-98.271736,8.160842,JOG
10377842000000.0,2.5062966346740723,-3.8620612621307373,12.230676651000977,-1.865769863128662,1.2102566957473755,2.2388209999999997,0.9071349,219.71152,-98.45266,7.928976,JOG
10377847000000.0,2.5112879276275635,-4.136923313140869,12.007248878479004,-1.9008638858795166,1.4175090789794922,3.2940907,1.0458013000000002,218.71632000000002,-98.86885,7.781291499999999,JOG
10377852000000.0,2.5162806510925293,-4.3595452308654785,11.787830352783203,-1.882807731628418,1.5974715948104858,5.0607133,1.3594806000000002,217.45597999999998,-99.43845,7.7364673999999996,JOG
10377857000000.0,2.52127742767334,-4.5302629470825195,11.580915451049805,-1.7882267236709595,1.733400583267212,7.0887856,1.6911805,215.85012999999998,-100.05688,7.7983375,JOG
10377862000000.0,2.5262768268585205,-4.651992321014404,11.385835647583008,-1.6214895248413086,1.8039591312408447,8.50355,1.8148806,213.94702,-100.61153,8.009511,JOG
10377867000000.0,2.531271457672119,-4.745275497436523,11.182717323303223,-1.3854111433029175,1.803076148033142,9.02645,1.7644843000000001,211.75203,-101.017426,8.295589999999999,JOG
10377872000000.0,2.536268711090088,-4.83994197845459,10.938410758972168,-1.0760102272033691,1.741542100906372,8.936347999999999,1.5619823999999998,209.3501,-101.19374,8.572997,JOG
10377877000000.0,2.5412657260894775,-4.940014839172363,10.654886245727539,-0.6919541954994202,1.6356923580169678,8.515156,1.2431108,206.77278,-100.95806999999999,8.833651,JOG
10377881000000.0,2.5462586879730225,-5.062865734100342,10.331786155700684,-0.21240748465061188,1.5061355829238892,8.128784,0.7840455,204.21594,-100.49455999999999,8.91189,JOG
10377887000000.0,2.5512490272521973,-5.207383155822754,9.971020698547363,0.35796481370925903,1.3783069849014282,6.896668400000001,0.52839845,201.79979,-99.96961999999999,8.874931,JOG
10377892000000.0,2.5562400817871094,-5.359313488006592,9.586709976196289,0.9414985775947571,1.2612298727035522,5.1642547,0.04795292,199.63313,-99.244644,8.564374,JOG
10377897000000.0,2.56123685836792,-5.516530990600586,9.181218147277832,1.5271774530410767,1.1630233526229858,3.3615913,-0.28955013,197.85623,-98.52894,8.152256,JOG
10377901000000.0,2.5662331581115723,-5.6716132164001465,8.758013725280762,2.0752243995666504,1.0811028480529785,1.8148806,-0.52106804,196.28412,-97.62859,7.511258,JOG
10377907000000.0,2.571274995803833,-5.817047119140625,8.313078880310059,2.5370492935180664,1.0077801942825317,0.08857546,-0.82772243,195.32173,-96.72686,6.720694,JOG
10377912000000.0,2.5762648582458496,-5.9523820877075195,7.860876083374023,2.9249379634857178,0.9337098598480225,-0.36957347,-0.94806284,194.41902,-84.066154,5.878575,JOG
10377917000000.0,2.5812575817108154,-6.074743270874023,7.394089221954346,3.2112224102020264,0.8618940711021423,-1.0922271000000001,-1.2250903,194.14029,-84.778465,4.9077589999999995,JOG
10377921000000.0,2.586251735687256,-6.184755802154541,6.918191909790039,3.40116286277771,0.7895269393920898,-1.616044,-1.5457945,194.02846,-85.26456,3.9226232000000003,JOG
10377927000000.0,2.591256856918335,-6.282756328582764,6.438448429107666,3.496431350708008,0.717370331287384,-1.981036,-1.8750508999999997,194.11777,-85.46641,2.865522,JOG
10377932000000.0,2.5962560176849365,-6.369744777679443,5.9567718505859375,3.5070183277130127,0.6467965841293335,-2.1716259,-2.1896465,194.40247,-85.44193,1.7618502,JOG
10377937000000.0,2.601247787475586,-6.443483352661133,5.476375102996826,3.4745662212371826,0.5777050852775574,-2.1533,-2.44285,194.76192,-85.04499,0.58505464,JOG
10377941000000.0,2.6062376499176025,-6.503221035003662,4.998080730438232,3.4172451496124268,0.510081946849823,-1.9095647,-2.6575692,195.14438,-84.30331,-0.6702600999999999,JOG
10377946000000.0,2.6112327575683594,-6.541171550750732,4.528857231140137,3.3576700687408447,0.44087016582489014,-1.4587462,-2.8185322,195.54684,-83.54196,-1.9587313000000002,JOG
10377952000000.0,2.616230010986328,-6.555357933044434,4.07150411605835,3.3048934936523438,0.368705689907074,-0.88147855,-2.925739,195.86165,-82.54831,-3.3110156,JOG
10377957000000.0,2.6212239265441895,-6.540985107421875,3.642066478729248,3.2660534381866455,0.29049044847488403,-0.33017266,-2.9318478,196.08156,-81.431625,-4.676154599999999,JOG
10377962000000.0,2.626216173171997,-6.491546154022217,3.2589733600616455,3.249648332595825,0.2070840299129486,0.032986722999999996,-2.8658742999999998,196.20334,-80.18135,-6.0747066,JOG
10377966000000.0,2.631211519241333,-6.411375999450684,2.9426534175872803,3.2465567588806152,0.11804688721895218,0.110872045,-2.6966646,196.27123999999998,-78.86868,-7.3993306,JOG
10377972000000.0,2.6362080574035645,-6.305652618408203,2.7134413719177246,3.2470810413360596,0.025127792730927467,-0.07422013,-2.447737,196.31784,-77.51139,-8.697002000000001,JOG
10377977000000.0,2.6412196159362793,-6.178503513336182,2.562798500061035,3.243830442428589,-0.07047346234321594,-0.44623706,-2.1997259,196.42844,-76.17785,-9.832529,JOG
10377982000000.0,2.6462161540985107,-6.038760185241699,2.4711203575134277,3.2290353775024414,-0.16591191291809082,-0.6731735,-2.005776,196.55643999999998,-74.84773,-10.917603,JOG
10377986000000.0,2.6512091159820557,-5.888057708740234,2.431666135787964,3.200180768966675,-0.25826629996299744,-1.1673635,-1.9300288,196.89362,-73.640305,-11.793453,JOG
10377992000000.0,2.656201124191284,-5.729697227478027,2.4327781200408936,3.153632164001465,-0.34911710023880005,-1.6053538,-1.8298468999999997,197.28009,-72.45127,-12.594913499999999,JOG
10377997000000.0,2.6611993312835693,-5.570898532867432,2.4721951484680176,3.0900869369506836,-0.43738874793052673,-1.9889772000000001,-1.7119498,197.78358,-71.4157,-13.224482,JOG
10378002000000.0,2.6661970615386963,-5.4233717918396,2.5451650619506836,3.011345148086548,-0.5206794738769531,-2.2904391,-1.5830573000000001,198.38738999999998,-70.40266,-13.790887,JOG
10378007000000.0,2.671210527420044,-5.2900071144104,2.653764247894287,2.9166839122772217,-0.595478355884552,-2.531731,-1.457219,199.0052,-69.6001,-14.176423999999999,JOG
10378011000000.0,2.676203727722168,-5.200402736663818,2.806596279144287,2.8059380054473877,-0.6571919322013855,-2.6945267000000004,-1.4159856000000002,199.67926,-68.83728,-14.521448999999999,JOG
10378017000000.0,2.681196689605713,-5.155068397521973,3.0051825046539307,2.6783266067504883,-0.7041085362434387,-2.7409522999999996,-1.4828753000000001,200.10313,-68.42359,-14.6970215,JOG
10378022000000.0,2.6861939430236816,-5.147696018218994,3.25044584274292,2.5421411991119385,-0.737456202507019,-2.7165177000000003,-1.6655241000000003,200.55106999999998,-68.03954,-14.880607000000001,JOG
10378027000000.0,2.691190242767334,-5.174595355987549,3.539275646209717,2.3997654914855957,-0.7587068676948547,-2.6771168999999997,-1.933083,201.01231,-67.67688000000001,-15.097914999999999,JOG
10378031000000.0,2.6961963176727295,-5.2093119621276855,3.847959041595459,2.265150547027588,-0.7709956169128418,-2.6951375,-2.243097,201.28883000000002,-67.45676999999999,-15.399614999999999,JOG
10378037000000.0,2.701188564300537,-5.247189521789551,4.169347763061523,2.1397597789764404,-0.779146134853363,-2.805704,-2.5683830000000003,201.6024,-67.1918,-15.770162,JOG
10378042000000.0,2.7061829566955566,-5.320608615875244,4.576804161071777,2.012195587158203,-0.7876924276351929,-3.0344732000000003,-2.9132164,201.94177,-66.87286999999999,-16.272589,JOG
10378047000000.0,2.7111973762512207,-5.443150520324707,5.101736068725586,1.8775553703308105,-0.7989410758018494,-3.3805282,-3.3157766000000004,202.37351999999998,-66.46208,-16.849629999999998,JOG
10378051000000.0,2.716193675994873,-5.59210729598999,5.694536209106445,1.723395586013794,-0.8152222037315369,-3.626096,-3.7540724,202.88166999999999,-65.95799,-17.486288000000002,JOG
10378057000000.0,2.7211904525756836,-5.737033843994141,6.298274040222168,1.5142313241958618,-0.8412973284721375,-3.4825428,-4.154495,203.39783,-65.33966,-18.207836,JOG
10378062000000.0,2.726189136505127,-5.872922420501709,6.911003589630127,1.2536169290542603,-0.8833019137382507,-2.624277,-4.4956627000000005,203.77016,-64.65848000000001,-19.07734,JOG
10378067000000.0,2.73118257522583,-5.937911510467529,7.512147426605225,0.9575055241584778,-0.9500232338905334,-1.2244793999999999,-4.6743407,203.9555,-63.843357,-20.042494,JOG
10378071000000.0,2.7361812591552734,-5.933325290679932,8.103135108947754,0.6258851885795593,-1.0477293729782104,0.44409904,-4.4926085,203.9784,-62.918983,-21.154009,JOG
10378076000000.0,2.741180896759033,-5.861130237579346,8.674637794494629,0.2642972767353058,-1.1703414916992188,2.28036,-3.9568796,203.51385,-61.96015,-22.318286999999998,JOG
10378082000000.0,2.746180295944214,-5.724808216094971,9.226176261901855,-0.12500959634780884,-1.3039500713348389,3.1951306,-3.3176089999999996,202.96678,-61.156819999999996,-23.282269,JOG
10378087000000.0,2.751175880432129,-5.540769577026367,9.755446434020996,-0.4930419325828552,-1.4331077337265015,4.765054,-3.0017917,201.6471,-60.35389,-24.383651999999998,JOG
10378092000000.0,2.7561731338500977,-5.317800998687744,10.261823654174805,-0.8125876188278198,-1.5522243976593018,5.782145,-2.4495697,200.12863000000002,-59.720516,-25.266384,JOG
10378096000000.0,2.7611703872680664,-5.066856861114502,10.74551773071289,-1.07218337059021,-1.6526060104370117,6.284276,-1.9697349999999998,198.35114,-59.349968000000004,-25.972242,JOG
10378102000000.0,2.7661707401275635,-4.801886081695557,11.206318855285645,-1.253288984298706,-1.7302374839782715,6.349639,-1.6148223,196.34998000000002,-59.094273,-26.598653999999996,JOG
10378107000000.0,2.7711684703826904,-4.52627420425415,11.644832611083984,-1.3643689155578613,-1.7837105989456177,6.0887995,-1.3765849,194.3848,-59.06021,-26.950841999999998,JOG
10378112000000.0,2.7761645317077637,-4.24641227722168,12.060669898986816,-1.4173338413238525,-1.8098691701889038,5.569564,-1.2281445,192.46165,-59.128525,-27.212491999999997,JOG
10378116000000.0,2.7811636924743652,-3.9619691371917725,12.450460433959961,-1.4156132936477661,-1.8054484128952026,4.92785,-1.1123856,190.7812,-59.334959999999995,-27.252985,JOG
10378122000000.0,2.7861623764038086,-3.670509099960327,12.751784324645996,-1.380721092224121,-1.768968939781189,4.2161919999999995,-0.9593639000000002,189.28633,-59.626587,-27.210514,JOG
10378127000000.0,2.791166067123413,-3.371953010559082,12.967972755432129,-1.313745141029358,-1.7007720470428467,3.4584135999999996,-0.8038987,188.13474,-60.021923,-26.991959,JOG
10378132000000.0,2.7961699962615967,-3.0826592445373535,13.11275863647461,-1.2298831939697266,-1.6024502515792847,2.6615398,-0.6918049,187.23068,-60.483185,-26.716448,JOG
10378136000000.0,2.801166534423828,-2.819728374481201,13.200572967529297,-1.1450176239013672,-1.477171778678894,1.8719965,-0.61819565,186.57195,-61.01124,-26.382051,JOG
10378141000000.0,2.8061635494232178,-2.584190845489502,13.236777305603027,-1.0598820447921753,-1.3320538997650146,1.2012665,-0.5564981999999999,186.2455,-61.5378,-25.992105,JOG
10378147000000.0,2.8111624717712402,-2.3785669803619385,13.230794906616211,-0.976012647151947,-1.1800689697265625,0.75686204,-0.5021312,186.10128999999998,-62.102165,-25.565868,JOG
10378152000000.0,2.8161637783050537,-2.2061867713928223,13.1820707321167,-0.8914154767990112,-1.0362162590026855,0.42119157,-0.45906523,186.14193999999998,-62.59500500000001,-25.187668,JOG
10378157000000.0,2.821161985397339,-2.0747628211975098,13.088288307189941,-0.8023253083229065,-0.9120425581932068,0.1020145,-0.36621370000000003,186.31555,-63.107440000000004,-24.76493,JOG
10378161000000.0,2.8261587619781494,-1.9834941625595093,12.953041076660156,-0.7153071165084839,-0.8058968782424927,-0.14508049,-0.30207285,186.57431,-63.52423,-24.416718,JOG
10378167000000.0,2.831153631210327,-1.9318817853927612,12.780813217163086,-0.639529287815094,-0.7140024304389954,-0.33567044,-0.27519479999999996,186.91206,-63.93135,-24.043882,JOG
10378172000000.0,2.836153030395508,-1.9118328094482422,12.580743789672852,-0.5716893076896667,-0.6328163146972656,-0.4538729,-0.2941316,187.2878,-64.198685,-23.779778,JOG
10378177000000.0,2.8411529064178467,-1.9116885662078857,12.366395950317383,-0.5072903037071228,-0.5565916299819946,-0.50762904,-0.33475417,187.69746,-64.46030400000001,-23.509144,JOG
10378181000000.0,2.8461525440216064,-1.9303468465805054,12.138585090637207,-0.4461492598056793,-0.48228055238723755,-0.6258314,-0.36560285,188.0916,-64.594025,-23.374370000000003,JOG
10378187000000.0,2.851149320602417,-1.96074378490448,11.9021577835083,-0.38639193773269653,-0.41012293100357056,-0.8335256,-0.45051312,188.53073,-64.70308,-23.256935000000002,JOG
10378192000000.0,2.8561453819274902,-1.9960373640060425,11.66157341003418,-0.32609549164772034,-0.33832743763923645,-1.1246029,-0.5204572000000001,189.02766,-64.81860999999999,-23.13136,JOG
10378197000000.0,2.861149311065674,-2.0190296173095703,11.425517082214355,-0.26922333240509033,-0.2676072418689728,-1.4825698999999999,-0.5494733,189.55342,-64.82802,-23.116654999999998,JOG
10378202000000.0,2.866152286529541,-1.9934803247451782,11.213534355163574,-0.22438552975654602,-0.19725395739078522,-1.8622226999999998,-0.50732356,190.16878,-64.851,-23.080767,JOG
10378207000000.0,2.87115216255188,-1.9223278760910034,11.024256706237793,-0.1908738762140274,-0.12770380079746246,-2.2146918999999996,-0.39920044,190.88374,-64.849625,-23.051168,JOG
10378212000000.0,2.8761487007141113,-1.810362458229065,10.853043556213379,-0.17815497517585754,-0.059679001569747925,-2.4904976000000003,-0.24098633,191.67537,-64.88534,-22.973229999999997,JOG
10378217000000.0,2.881145715713501,-1.660449743270874,10.697122573852539,-0.19103151559829712,0.007015676237642765,-2.6868908,-0.06963864,192.53099999999998,-64.96715,-22.840246,JOG
10378222000000.0,2.8861451148986816,-1.4818090200424194,10.547403335571289,-0.23807834088802338,0.0711163729429245,-2.776077,0.10659598599999999,193.5436,-65.25859,-22.459644,JOG
10378226000000.0,2.891145706176758,-1.2817559242248535,10.397295951843262,-0.3247066140174866,0.1320776790380478,-2.7290403999999997,0.31123585,194.54343,-65.61489,-22.01427,JOG
10378232000000.0,2.896195411682129,-1.06291925907135,10.231710433959961,-0.44375142455101013,0.1886182278394699,-2.4801127999999997,0.5314528000000001,195.53252,-66.15046,-21.407713,JOG
10378237000000.0,2.901190996170044,-0.8385533094406128,10.0534086227417,-0.5765434503555298,0.23872731626033783,-2.0916026000000003,0.7675522,196.43842,-66.74425,-20.748120999999998,JOG
10378242000000.0,2.90618634223938,-0.6103318929672241,9.850900650024414,-0.7260859608650208,0.28178736567497253,-1.6597209,1.03786,197.24692,-67.49176999999999,-19.974138,JOG
10378246000000.0,2.911184787750244,-0.38263580203056335,9.619466781616211,-0.8909333944320679,0.3166113793849945,-1.251052,1.2986995000000001,197.93213,-68.285904,-19.15895,JOG
10378252000000.0,2.9161829948425293,-0.16477257013320923,9.352469444274902,-1.0711026191711426,0.3427104949951172,-0.8179486,1.5625933,198.46722,-69.17871,-18.27424,JOG
10378257000000.0,2.921180248260498,0.035637225955724716,9.044309616088867,-1.266677737236023,0.3646678328514099,-0.34300083,1.7898352,198.8673,-70.12008,-17.354729000000003,JOG
10378262000000.0,2.926175832748413,0.21621347963809967,8.694533348083496,-1.457002878189087,0.38848260045051575,0.093462385,1.9092593,199.10635,-71.11742,-16.439495,JOG
10378266000000.0,2.9311699867248535,0.37176281213760376,8.300217628479004,-1.6050726175308228,0.41405579447746277,0.36987892,1.9446895,199.26295,-72.141235,-15.501760500000001,JOG
10378272000000.0,2.936169385910034,0.5062355399131775,7.872807502746582,-1.7108523845672607,0.4375499188899994,0.58184916,1.9339993999999998,199.25127,-73.15187,-14.6343155,JOG
10378277000000.0,2.9411683082580566,0.6253211498260498,7.43046760559082,-1.7752528190612793,0.4534112513065338,0.7098253999999999,1.9260582,199.202,-74.16642,-13.762214000000002,JOG
10378282000000.0,2.946164846420288,0.7298990488052368,6.9742655754089355,-1.8007371425628662,0.4629743695259094,1.0387764000000002,1.9107865000000002,198.98286000000002,-75.07212,-13.002564,JOG
10378286000000.0,2.9511606693267822,0.8141674995422363,6.5025129318237305,-1.7833716869354248,0.4537646770477295,1.426065,1.9040669,198.72299999999998,-75.93269000000001,-12.243381,JOG
10378291000000.0,2.9561550617218018,0.8739906549453735,6.0143961906433105,-1.7209035158157349,0.41975077986717224,1.8029686999999999,1.887879,198.38536000000002,-76.75874,-11.496281,JOG
10378297000000.0,2.961155652999878,0.9100346565246582,5.5245747566223145,-1.6339775323867798,0.36205926537513733,2.0946569999999998,1.8368717,197.91867,-77.40759,-10.839875,JOG
10378302000000.0,2.9661965370178223,0.9209297895431519,5.038878440856934,-1.5324523448944092,0.2889023721218109,2.2941043,1.7342464,197.3779,-77.989525,-10.206028,JOG
10378307000000.0,2.971196413040161,0.9123328924179077,4.567244052886963,-1.4303911924362183,0.209649920463562,2.406809,1.6902641,196.74068,-78.37584,-9.664342999999999,JOG
10378311000000.0,2.9761905670166016,0.8792243003845215,4.116062641143799,-1.3433929681777954,0.1353209763765335,2.3780985,1.5894713,196.09351999999998,-78.68439000000001,-9.168308999999999,JOG
10378317000000.0,2.981184720993042,0.8221667408943176,3.6991658210754395,-1.2743130922317505,0.07304307073354721,2.2201897999999995,1.4581354,195.41652,-78.83221,-8.788839999999999,JOG
10378322000000.0,2.9861814975738525,0.7417420148849487,3.3405773639678955,-1.2282805442810059,0.027138564735651016,1.9712621,1.3243558000000002,194.77791000000002,-78.95434,-8.436181,JOG
10378327000000.0,2.991199493408203,0.6388113498687744,3.036609172821045,-1.203169584274292,-0.000660753168631345,1.6588044999999998,1.1899655,194.17424,-79.015305,-8.199200999999999,JOG
10378332000000.0,2.996201992034912,0.5282242298126221,2.7579729557037354,-1.179619550704956,-0.011352313682436943,1.3246613,1.0604621,193.65378,-79.084625,-7.991035000000001,JOG
10378337000000.0,3.0011942386627197,0.410152405500412,2.5034825801849365,-1.1575512886047363,-0.00649892957881093,1.0048733,0.9138544,193.2055,-79.15501,-7.9035616,JOG
10378342000000.0,3.0061874389648438,0.28969013690948486,2.267443895339966,-1.1334922313690186,0.011752501130104065,0.7678576,0.7199047,192.83772,-79.23857,-7.859691000000001,JOG
10378347000000.0,3.0111851692199707,0.1677018702030182,2.0481560230255127,-1.1069411039352417,0.04133693873882294,0.6407976,0.50426924,192.5381,-79.33468,-7.858085000000001,JOG
10378352000000.0,3.0161848068237305,0.04580420255661011,1.8458013534545898,-1.0674889087677002,0.07909487187862396,0.5849035,0.31429017,192.28586,-79.38775,-7.9570637,JOG
10378356000000.0,3.0211808681488037,-0.07203458994626999,1.6622741222381592,-0.9884597063064575,0.12206771969795227,0.57451874,0.14691310000000002,192.06526000000002,-79.42673,-8.110562,JOG
10378362000000.0,3.026175022125244,-0.20716488361358643,1.5289127826690674,-0.8323278427124023,0.1660872846841812,0.6579019,-0.006414085,191.83226000000002,-79.393906,-8.357841,JOG
10378367000000.0,3.0311686992645264,-0.44928690791130066,1.5816141366958618,-0.43419042229652405,0.21005603671073914,1.6707164,0.025350908,191.3347,-79.3709,-8.631705,JOG
10378372000000.0,3.036166191101074,-0.7498853206634521,1.756422519683838,0.09604418277740479,0.24629376828670502,2.1841487999999996,0.19883664,190.9385,-79.23683,-8.903684,JOG
10378376000000.0,3.0411670207977295,-0.9852463006973267,1.892999529838562,0.4784630537033081,0.29770779609680176,2.7531698,0.16157386,190.24164,-79.11994,-9.260672,JOG
10378382000000.0,3.046165704727173,-1.1598289012908936,1.993959665298462,0.7233301401138306,0.3595827519893646,2.4889705,0.007941248,189.57732,-78.24846,-9.9836645,JOG
10378387000000.0,3.0511622428894043,-1.292417049407959,2.075604200363159,0.8953231573104858,0.41213759779930115,1.8726074000000001,-0.15760323,188.88666,-77.3922,-10.703853,JOG
10378392000000.0,3.0561604499816895,-1.3898214101791382,2.143441915512085,1.016097903251648,0.4592547118663788,1.0855075,-0.34697145,188.36,-76.57226999999999,-11.435543,JOG
10378397000000.0,3.061171770095825,-1.4642317295074463,2.337977886199951,1.143554449081421,0.4984404742717743,0.2660318,-0.56291234,188.10098,-76.10284399999999,-11.98701,JOG
10378402000000.0,3.066187620162964,-1.522003412246704,2.705068349838257,1.2998464107513428,0.5197000503540039,-0.7302894,-0.8216136999999999,188.13676,-75.541824,-12.563082000000001,JOG
10378407000000.0,3.0711822509765625,-1.5677332878112793,3.182457208633423,1.4482191801071167,0.5153455138206482,-2.0161607,-1.0256428,188.54218999999998,-75.048096,-13.047333,JOG
10378412000000.0,3.076179027557373,-1.6034860610961914,3.744206428527832,1.5608808994293213,0.484251469373703,-3.6493089999999997,-1.0057896000000002,189.3387,-74.504814,-13.480185500000001,JOG
10378416000000.0,3.0811734199523926,-1.5941417217254639,4.367018222808838,1.596827507019043,0.4341585636138916,-5.265964,-0.7819075,190.64456,-74.05945600000001,-13.6466,JOG
10378421000000.0,3.086174964904785,-1.464828610420227,5.014993667602539,1.4658114910125732,0.3651840388774872,-6.296188,-0.33933565,192.21408,-73.6305,-13.661024,JOG
10378427000000.0,3.0911755561828613,-1.2242501974105835,5.676790237426758,1.1826947927474976,0.2699350416660309,-6.1559944,0.7244862,193.88148,-73.52775,-13.2523155,JOG
10378432000000.0,3.096174955368042,-0.8756195306777954,6.32761812210083,0.759856104850769,0.15446710586547852,-5.1034737,2.3780985,195.46062,-73.62031999999999,-12.515918,JOG
10378437000000.0,3.1011710166931152,-0.42576339840888977,6.967846870422363,0.20610998570919037,0.03226112574338913,-3.2311716,4.083634399999999,196.7247,-74.541885,-11.040289,JOG
10378441000000.0,3.1061668395996094,0.053169671446084976,7.588787078857422,-0.322881817817688,-0.07980231195688248,-0.20586158,5.2247305,197.29256,-75.54353,-9.425595,JOG
10378447000000.0,3.1111629009246826,0.544211745262146,8.189325332641602,-0.7941449284553528,-0.1602567583322525,2.316401,5.8297925,197.42705,-76.63766,-7.625408,JOG
10378452000000.0,3.116173028945923,1.019621729850769,8.725173950195312,-1.1601777076721191,-0.20862184464931488,3.5078936,6.113233999999999,197.23677,-78.26068000000001,-5.2828836,JOG
10378457000000.0,3.1211729049682617,1.4533408880233765,9.161273956298828,-1.389332890510559,-0.24474067986011505,3.7158933,6.254344000000001,196.67911999999998,-79.58454,-2.9961347999999997,JOG
10378462000000.0,3.1262080669403076,1.8792744874954224,9.497610092163086,-1.4506891965866089,-0.28505492210388184,3.4223726,6.233268700000001,196.03091,-80.432526,-0.6822231,JOG
10378467000000.0,3.1312053203582764,2.3190724849700928,9.762743949890137,-1.3772960901260376,-0.3346148431301117,2.624277,6.052453,195.53384,-80.71579,1.5391103000000002,JOG
10378472000000.0,3.1362040042877197,2.777933359146118,9.951817512512207,-1.1549842357635498,-0.39180460572242737,2.0237966,5.725029,195.03791999999999,-80.2176,3.5987410000000004,JOG
10378477000000.0,3.141221523284912,3.213493824005127,10.122632026672363,-0.8668450713157654,-0.44892531633377075,-0.13591751,5.3169713,195.25195,-79.36868,5.6131687,JOG
10378481000000.0,3.146217107772827,3.5930416584014893,10.321563720703125,-0.5924332737922668,-0.4982977509498596,-0.8350528,5.108971599999999,195.24979,-78.30305,7.487247,JOG
10378486000000.0,3.151256561279297,3.87973952293396,10.553655624389648,-0.3460148274898529,-0.5422230362892151,-2.1105394,4.625471599999999,195.77025,-76.64433000000001,9.531405,JOG
10378492000000.0,3.1562483310699463,4.0806732177734375,10.802566528320312,-0.1315392106771469,-0.5844910740852356,-3.295618,4.0964622,196.4391,-74.99551,11.480913000000001,JOG
10378497000000.0,3.1612398624420166,4.188443660736084,11.056755065917969,0.04186500236392021,-0.6340612769126892,-4.462065,3.4730744,197.43752,-73.5389,13.152651,JOG
10378502000000.0,3.1662397384643555,4.207882404327393,11.29953384399414,0.16829358041286469,-0.6923839449882507,-5.564677,2.8292224,198.77052,-72.21438,14.682625,JOG
10378506000000.0,3.1712300777435303,4.144999027252197,11.516894340515137,0.24305488169193268,-0.7523514032363892,-6.612616,2.2510383,200.44299999999998,-71.27702,15.810441,JOG
10378512000000.0,3.17622447013855,3.9899742603302,11.672496795654297,0.2420775294303894,-0.8053792119026184,-7.5707583,1.7201965,202.43701000000001,-70.49638,16.796698000000003,JOG
10378517000000.0,3.181217908859253,3.764324188232422,11.769423484802246,0.17017488181591034,-0.8397269248962402,-8.361218,1.1701124,204.78586,-70.18980400000001,17.3542,JOG
10378522000000.0,3.1862189769744873,3.4950547218322754,11.807286262512207,0.027994217351078987,-0.8463305830955505,-8.891144,0.6188064999999999,207.3416,-70.05079,17.786123,JOG
10378526000000.0,3.1912128925323486,3.198435068130493,11.801617622375488,-0.17353713512420654,-0.8174721002578735,-9.113804,0.14599679999999998,209.97516000000002,-70.18344,18.005957000000002,JOG
10378532000000.0,3.1962153911590576,2.9035959243774414,11.778398513793945,-0.42630279064178467,-0.7518672347068787,-9.013011,-0.20830505,212.66487,-70.476326,18.090128,JOG
10378537000000.0,3.201211452484131,2.6096737384796143,11.74177360534668,-0.7320867776870728,-0.6513766050338745,-8.58174,-0.4156938,215.31961,-70.938324,18.037539000000002,JOG
10378542000000.0,3.206204891204834,2.310983180999756,11.700355529785156,-1.116991639137268,-0.5210986137390137,-7.310835400000001,-0.46395215,217.6844,-71.47948000000001,17.859837,JOG
10378546000000.0,3.2111997604370117,2.0074517726898193,11.654292106628418,-1.5783253908157349,-0.35941407084465027,-4.836831,-0.35827246,219.61068999999998,-72.05402,17.607012,JOG
10378551000000.0,3.216198682785034,1.6875724792480469,11.600547790527344,-2.0609350204467773,-0.15541432797908783,-2.0549506999999996,-0.32406402,221.05107,-72.62049,17.269585,JOG
10378557000000.0,3.221247673034668,1.339972734451294,11.535938262939453,-2.541402578353882,0.08031151443719864,0.5513059,-0.35979962,221.78967000000003,-73.086174,16.906502,JOG
10378562000000.0,3.226240634918213,0.9866384863853455,11.481278419494629,-2.95251202583313,0.33104872703552246,2.6288586,-0.43615779999999993,221.98636000000002,-106.58068,16.53805,JOG
10378567000000.0,3.231233596801758,0.62370765209198,11.442764282226562,-3.267704725265503,0.5775387287139893,3.4278703,-0.48197266,221.78285,-106.43268,16.182169000000002,JOG
