acc_x,acc_y,acc_z,gyro_x,gyro_y,gyro_z,label
0.0,0.0,0.0,0.0,-0.011911872,0.019242255,1
-0.012362543493509293,0.2880363762378693,-0.007230566348880529,-0.0003382934373803437,-0.02687807,0.015271631,1
-0.044828783720731735,0.9754025936126708,-0.0353805348277092,-0.0016316925175487995,0.004276057,0.015577064,1
-0.08693096786737442,1.92872953414917,-0.08516830950975418,-0.003575376700609923,0.038179077,0.018936822,1
-0.12751896679401398,2.9997541904449463,-0.13540326058864596,-0.005797456484287977,0.019242255,0.016798794,1
-0.16558796167373654,4.059340476989746,-0.14606663584709167,-0.008529385551810266,0.0143553335,0.02107485,1
-0.1949259042739868,5.035346031188965,-0.17408929765224454,-0.01258313935250044,0.02107485,0.022602014,1
-0.2306044101715088,5.896790981292725,-0.12933449447155002,-0.017024895176291466,0.03359759,0.016798794,1
-0.2725949287414551,6.625359058380128,-0.06372994184494019,-0.022510824725031853,0.04917465,0.015577064,1
-0.3094763159751892,7.2319488525390625,-0.010261732153594494,-0.02578134275972843,0.04153884,0.025961773,1
-0.3448490500450134,7.737826347351074,0.037835124880075455,-0.027933713048696518,0.021380283,0.023823744,1
-0.3824605047702789,8.153055191040039,0.058034423738718026,-0.03148594871163368,0.025045475,0.018936822,1
-0.41468775272369385,8.496405601501465,0.023815598338842392,-0.03656180202960968,0.028710667,0.015271631,1
-0.4313982129096985,8.766572952270508,-0.06618551164865494,-0.0450594574213028,0.021991149,0.01160644,1
-0.4491508901119232,8.988016128540039,-0.20112842321395874,-0.055868908762931824,-0.025045475,0.007330383,1
-0.4748727977275848,9.18703842163086,-0.3326021134853363,-0.06759794056415558,-0.045814894,0.009468411,7
-0.509084165096283,9.349564552307127,-0.447712242603302,-0.08038730174303055,-0.0143553335,-0.00061086525,7
-0.5322558879852295,9.488049507141113,-0.5218765139579773,-0.09835606068372726,-0.018936822,-0.007330383,7
-0.515589714050293,9.617938041687012,-0.5089834332466125,-0.12052048742771147,-0.1282817,-0.008246681,7
-0.5099833607673645,9.716435432434082,-0.4390777051448822,-0.14668233692646027,-0.0720821,0.020158553,7
-0.5150440335273743,9.751543045043944,-0.3317670822143555,-0.18127016723155973,-0.15057829,0.004581489,7
-0.5426350831985474,9.755183219909668,-0.286622166633606,-0.21624048054218287,-0.17256944,-0.025350908,7
-0.5804595947265625,9.771718978881836,-0.3063902258872986,-0.2543069720268249,-0.15454891,-0.07086037,7
-0.6102340221405029,9.815196990966797,-0.3368812203407288,-0.2934498190879822,-0.12950343,-0.06047566,7
-0.6171513795852661,9.836935997009276,-0.35984185338020325,-0.3245810568332672,-0.029626964,-0.028405234,7
-0.577140212059021,9.853044509887695,-0.3436165153980255,-0.3513331115245819,-0.06780604,-0.0070249503,7
-0.5253699421882629,9.888916015625,-0.31427520513534546,-0.370127409696579,-0.20830505,0.021991149,7
-0.5143647193908691,9.921066284179688,-0.32353779673576355,-0.3862694203853607,-0.18936823,0.040317107000000005,7
-0.5041523575782776,9.935531616210938,-0.28264790773391724,-0.4123626947402954,-0.27916542,0.02076942,7
-0.516651451587677,9.954619407653807,-0.2048233598470688,-0.4527633190155029,-0.22357668,0.09315695,7
-0.5560956597328186,9.909175872802734,-0.07081137597560883,-0.5084894299507141,-0.36560285,0.09987647,7
-0.6220826506614685,9.809647560119627,0.08748741447925568,-0.5831149816513062,-0.6264423000000001,-0.0070249503,7
-0.7204349040985107,9.755285263061523,0.18728414177894592,-0.6787868142127991,-0.42088616,-0.053145275,7
-0.7720260620117188,9.748088836669922,0.29517662525177,-0.7752599120140076,-0.11301007,-0.06291912,7
-0.7108513116836548,9.671445846557617,0.5753564238548279,-0.8553786277770996,-0.35216382,-0.09712757,7
-0.6445193886756897,9.525283813476562,0.7112049460411072,-0.9251729249954224,-0.28527406,-0.093462385,7
-0.5819185972213745,9.415751457214355,0.7285647988319397,-0.9780834317207336,0.31612277,-0.07666359,7
-0.4015817046165466,9.414263725280762,0.987237513065338,-0.9706338047981262,0.42821655,-0.030848695,7
-0.2245039939880371,9.49147129058838,1.4431837797164917,-0.9230462312698364,0.29260445,0.11026118,7
-0.1812019646167755,9.555036544799805,1.8140766620635984,-0.8800705075263977,0.18784106,0.18875736,7
-0.2662640810012817,9.528510093688963,2.0829217433929443,-0.8518274426460266,-0.07360926,0.10934488,7
-0.4706835448741913,9.428046226501463,2.289249420166016,-0.8526769876480103,-0.07238753,0.09621128,7
-0.7153450846672058,9.342755317687988,2.544955253601074,-0.8642652630805969,-0.0018325958,0.04520403,7
-0.8808006644248962,9.314338684082033,2.85955810546875,-0.8852784037590027,-0.33292156,0.044898596,7
-0.8910590410232544,9.275188446044922,3.003503799438477,-0.8941104412078857,-0.52106804,0.073303826,7
-0.7532705664634705,9.204840660095217,2.949126005172729,-0.9009934067726136,-0.5757405,0.076358154,7
-0.5755581855773926,9.09166145324707,2.81296181678772,-0.937709093093872,-0.20066923,0.12736541,7
-0.41397592425346375,8.977977752685547,2.9305303096771236,-0.9940209984779358,-0.1863139,0.07788532,7
-0.24741144478321075,8.888830184936523,3.1618967056274414,-1.0278908014297483,-0.22907446,0.092240654,7
-0.09548664093017578,8.784850120544434,3.3029661178588867,-1.0380706787109375,-0.071776666,0.07360926,7
0.033469296991825104,8.725749015808105,3.433311462402344,-1.0565018653869631,-0.002443461,0.0711658,7
0.06410931795835495,8.659797668457031,3.702781200408936,-1.0962294340133667,0.17592919,0.15699236,7
0.06878689676523209,8.447208404541017,4.142658710479736,-1.1254472732543943,-0.15118915,0.18997909,7
0.09365233033895493,8.188340187072754,4.396712303161621,-1.1198318004608154,-0.19853121,0.1685988,7
0.15869960188865662,8.021304130554201,4.3758530616760245,-1.115100622177124,-0.07788532,0.15577064,7
0.19051265716552732,7.9180541038513175,4.328310489654541,-1.1448866128921509,0.0580322,0.15760323,7
0.22064931690692904,7.816164970397949,4.546844005584717,-1.19079327583313,-0.04184427,0.17806722,7
0.23566852509975436,7.662379264831543,4.832812309265137,-1.2180713415145874,-0.058643065,0.17440203,7
0.24160346388816836,7.460445880889893,5.0139336585998535,-1.220003604888916,0.018325957,0.1572978,7
0.2297427356243133,7.294493675231934,5.157355785369873,-1.236899971961975,-0.11362094,0.13622294,7
0.16634637117385864,7.171280384063722,5.276885509490967,-1.2680128812789917,0.025961773,0.08643743400000001,7
0.17423997819423676,7.0907249450683585,5.5217485427856445,-1.2934600114822388,0.029626964,0.094989546,7
0.28467971086502075,6.999135494232178,5.678988456726074,-1.306769847869873,0.14569137,0.12034045,7
0.3809228539466858,6.883512020111084,5.805312633514403,-1.3222697973251345,0.20891592,0.14202617,7
0.35756179690361023,6.776381015777588,5.977520942687987,-1.3354851007461548,0.13805555,0.14263703,7
0.238516703248024,6.625450611114503,6.168459415435791,-1.3396949768066406,0.24190263,0.08216137400000001,7
0.17635251581668854,6.556694507598878,6.401558876037598,-1.3652054071426392,0.28893927,-0.0067195175,7
0.2410135418176651,6.545980930328369,6.6219725608825675,-1.3839257955551147,0.1872302,0.044898596,7
0.2844610810279846,6.450536251068115,6.813793659210205,-1.3827615976333618,0.22174409,0.015882496,7
0.2248174548149109,6.2974700927734375,7.067065715789795,-1.3697694540023804,0.22693644,0.023823744,7
0.1409797966480255,6.2175846099853525,7.297205448150635,-1.350586175918579,0.25625798,-0.0036651916,7
0.1073605865240097,6.103254795074463,7.501932621002197,-1.3278008699417114,0.1160644,-0.021685716,7
0.10914944112300873,5.925324440002441,7.745854377746582,-1.2960492372512815,-0.024129177,-0.01038471,7
0.1129312738776207,5.70382833480835,7.957533836364746,-1.2557406425476074,-0.03145956,-0.02443461,7
0.09168629348278046,5.488612174987793,8.13899040222168,-1.2141095399856567,-0.0018325958,-0.02321288,7
0.06419072300195694,5.300544261932373,8.285336494445799,-1.1761608123779297,-0.0015271631,-0.040011674,7
0.05366496741771698,5.146875381469727,8.385797500610353,-1.1418309211730957,-0.028710667,-0.028710667,7
0.05193174630403519,5.0021324157714835,8.488479614257812,-1.1085007190704346,-0.21105394,-0.01740966,7
0.0048246122896671295,4.85429048538208,8.533404350280763,-1.0840476751327517,-0.03634648,-0.0070249503,7
0.0008341064094565809,4.7290005683898935,8.588775634765625,-1.0572657585144043,-0.03573562,-0.012217305,7
-0.02736417017877102,4.545862674713135,8.655617713928223,-1.0346540212631226,-0.083383106,-0.022296581,7
-0.03396998718380928,4.355349063873291,8.695328712463379,-1.0118178129196167,-0.022602014,0.018325957,7
-0.04268068075180054,4.182311058044434,8.784953117370605,-0.9936177134513856,-0.22907446,-0.028405234,7
-0.07854744791984558,3.970195055007935,8.853375434875488,-0.9792881608009338,-0.18295415,-0.076358154,7
-0.0897335633635521,3.6482863426208496,8.948636054992676,-0.9687358140945436,-0.2574797,-0.10323623,7
-0.0922737568616867,3.3500630855560303,9.151898384094238,-0.9591165781021118,-0.33475417,-0.25167647,7
-0.062490694224834435,3.094229459762573,9.379993438720703,-0.9285280108451844,-0.30909783,-0.24648413,7
0.06921062618494034,2.898972749710083,9.60685920715332,-0.8730233311653137,-0.2968805,-0.20738874,7
0.2592707872390747,2.776930570602417,9.75167179107666,-0.8019216060638428,-0.28527406,-0.20708331,7
0.3910970687866211,2.5487754344940186,9.804933547973633,-0.7357860803604126,-0.2932153,-0.14966199,7
0.5127404928207397,2.3222575187683105,9.826303482055664,-0.6570224761962891,-0.40622538,-0.14141529999999994,7
0.6015892028808594,2.090109348297119,9.826233863830566,-0.5731507539749146,-0.34238997,-0.1133155,7
0.7132359743118286,1.882312536239624,9.79456901550293,-0.49163725972175604,-0.29657507,-0.08399397,7
0.9292758703231812,1.8120089769363403,9.76905345916748,-0.4119285047054291,-0.28985557,-0.013744468,7
1.044784426689148,1.6730430126190186,9.74802303314209,-0.34870442748069763,-0.23915374,-0.08155051,7
1.1303935050964355,1.5864286422729492,9.710498809814453,-0.3058071732521057,-0.24801129,-0.062308256,7
1.172956943511963,1.539151906967163,9.621051788330078,-0.2714172899723053,-0.23060162,-0.08735373,7
1.1731152534484863,1.4978832006454468,9.508705139160156,-0.2384002655744553,-0.13408493,-0.06566802,7
1.1202573776245115,1.472646713256836,9.425363540649414,-0.19793656468391416,-0.020463986,-0.07391469,7
1.098026990890503,1.535594820976257,9.413697242736816,-0.1746271252632141,-0.03848451,-0.04337143,7
1.0940697193145752,1.65838885307312,9.424016952514648,-0.1586311161518097,-0.056199603,0.0015271631,7
1.0960766077041626,1.7645090818405151,9.42410659790039,-0.14572012424468994,-0.06414085,0.03604105,7
1.112549901008606,1.8376697301864624,9.422597885131836,-0.13203372061252594,-0.04550946,0.07269296,7
1.1063405275344849,1.8865070343017576,9.43626594543457,-0.11996179819107056,-0.022907447,0.07696902,7
1.100460410118103,1.8965075016021729,9.443245887756348,-0.11279986798763275,0.025961773,0.08277224,7
1.117366075515747,1.876768708229065,9.446995735168457,-0.10597115755081177,0.008552114,0.1001819,7
1.1437615156173706,1.85850727558136,9.42257308959961,-0.09212961792945862,-0.03573562,0.10934488,7
1.1583951711654663,1.821050047874451,9.349041938781738,-0.07229533046483994,0.05589417,0.08827003,7
1.185075044631958,1.8583663702011108,9.295721054077148,-0.06336434185504912,0.11636983,0.08521569999999999,7
1.1944501399993896,1.880850434303284,9.285815238952637,-0.06274444609880447,0.20952678,0.069027774,7
1.1355682611465454,1.9222180843353271,9.353954315185547,-0.06866864860057831,0.08735373,0.06078109,7
1.1172912120819092,1.89552104473114,9.383288383483887,-0.07969623804092407,0.1908954,0.03176499,7
1.1521326303482056,1.8769979476928709,9.372539520263672,-0.08974901586771011,0.17654006,0.035124752999999995,7
1.1579415798187256,1.847740888595581,9.30380630493164,-0.09482895582914352,0.06078109,0.043676864,7
1.0973840951919556,1.8177697658538816,9.237844467163086,-0.09454473108053207,0.06719518,0.06047566,7
1.0152908563613892,1.7776285409927368,9.240548133850098,-0.08211753517389297,0.07513642,0.07269296,7
0.9571838974952698,1.7487115859985352,9.297182083129883,-0.07236494868993759,0.08124508,0.08032878,7
0.9123419523239136,1.7065860033035278,9.32654094696045,-0.06393664330244064,0.01863139,0.077579886,7
0.8507537245750427,1.6549289226531982,9.32309627532959,-0.053258392959833145,0.03390302,0.06811147,7
0.7881762385368347,1.62672221660614,9.34476089477539,-0.041657451540231705,0.03970624,0.06963864,7
0.743190586566925,1.6223180294036863,9.39009952545166,-0.030230425298213962,0.046731193,0.05100725,7
0.7287259697914124,1.6414014101028442,9.397954940795898,-0.0216544046998024,0.015271631,0.027794369,7
0.7085878252983093,1.6629259586334229,9.342958450317383,-0.02184413000941277,-0.018936822,-0.005497787,7
0.6837176084518433,1.6821564435958862,9.295307159423828,-0.02620162814855576,-0.009468411,-0.03940081,7
0.6497029066085815,1.724534273147583,9.278400421142578,-0.030756250023841858,-0.00580322,-0.0711658,7
0.6153144836425781,1.7904452085494995,9.287358283996582,-0.03660651296377182,-0.042455133,-0.08032878,7
0.5877892971038818,1.8319139480590818,9.303396224975586,-0.0454842820763588,-0.09743301,-0.086132,7
0.5710040330886841,1.8319380283355715,9.33255672454834,-0.05358637496829033,-0.09621128,-0.07238753,7
0.5900269150733948,1.7882635593414309,9.37714385986328,-0.056995514780282974,-0.08552113,-0.06719518,7
0.6653367280960083,1.7403706312179563,9.41604995727539,-0.05241266638040543,-0.093767814,-0.05375614,7
0.7738076448440552,1.6952496767044067,9.416058540344238,-0.04544815793633461,-0.09193522,-0.050701816,7
0.907058596611023,1.646741271018982,9.381406784057617,-0.041950583457946784,-0.058337633,-0.040011674,7
1.0188213586807249,1.6074628829956057,9.351761817932127,-0.03871726989746094,-0.022296581,-0.026572637000000003,7
1.0840959548950195,1.5943803787231443,9.33750820159912,-0.03443598002195358,-0.009773844,-0.028405234,7
1.12776517868042,1.5990301370620728,9.334569931030273,-0.028271371498703964,-0.027183503,-0.020463986,7
1.1619385480880735,1.6111394166946411,9.324581146240234,-0.02231886051595211,0.03970624,-0.0021380284,7
1.1895802021026611,1.6372156143188477,9.306901931762695,-0.015305815264582634,0.023518313,0.007941248,7
1.2027344703674316,1.681328058242798,9.289027214050293,-0.00787601713091135,0.03940081,-0.00030543262000000003,8
1.2015559673309326,1.7410491704940796,9.281654357910156,-0.003003266640007496,0.056505036,0.00580322,8
1.1859080791473389,1.810030460357666,9.281530380249023,-0.0009470484219491483,0.06414085,0.007941248,8
1.1296231746673584,1.8788117170333865,9.293478012084961,-0.004770730622112751,0.05375614,0.027794369,8
1.0476906299591064,1.952019453048706,9.31252384185791,-0.008144485764205456,0.044593163,0.051618114000000014,8
0.9513086080551147,1.9922864437103271,9.333477973937988,-0.0099671371281147,0.053450707,0.07147124,8
0.869620680809021,2.0221319198608403,9.332691192626953,-0.01431906037032604,0.028405234,0.074830994,8
0.8115031123161316,2.02445650100708,9.329548835754396,-0.019941594451665882,0.03390302,0.061086524,8
0.7985515594482422,2.012473821640014,9.336243629455566,-0.02595708891749382,0.05100725,0.032986723,8
0.8186877369880676,1.989978313446045,9.349595069885254,-0.03391681984066963,0.04428773,0.016187929,8
0.8391599655151367,1.95723295211792,9.361489295959473,-0.04112617671489716,0.028405234,0.003970624,8
0.8517280220985413,1.91591477394104,9.369747161865234,-0.04733222723007202,0.025350908,-0.005497787,8
0.8552859425544739,1.8651975393295288,9.369733810424805,-0.05193306878209114,0.022602014,-0.027183503,8
0.8484736680984497,1.80606472492218,9.371969223022461,-0.0541645810008049,0.016187929,-0.030543262,8
0.8306280374526978,1.7512120008468628,9.379674911499023,-0.055067028850317,-0.0015271631,-0.03726278,8
0.8065043091773987,1.6994168758392334,9.402961730957033,-0.0518154725432396,-0.018936822,-0.03268129,8
0.795822024345398,1.6740224361419678,9.414506912231444,-0.0464341975748539,-0.045814894,-0.025961773,8
0.7942637205123901,1.662990927696228,9.414193153381348,-0.04043615981936455,-0.05955936,-0.00580322,8
0.8017163872718811,1.6625360250473022,9.400814056396484,-0.03281239792704582,-0.0693332,-0.0070249503,8
0.8218365311622621,1.6788547039031982,9.382268905639648,-0.027242349460721016,-0.05497787,-0.00580322,8
0.8451161384582521,1.7114695310592651,9.358527183532717,-0.023268120363354683,-0.044593163,-0.0067195175,8
0.8753005266189575,1.7461804151535034,9.336518287658693,-0.021845288574695587,-0.028710667,-0.0012217305,8
0.905020534992218,1.7853893041610718,9.322857856750488,-0.02224297821521759,-0.02565634,-0.0021380284,8
0.9333256483078004,1.821524262428284,9.314906120300293,-0.023431533947587013,-0.010079277,0.01282817,8
0.955453872680664,1.8490427732467647,9.302482604980467,-0.025957250967621803,-0.0036651916,0.02107485,8
0.97196364402771,1.8623158931732176,9.302138328552246,-0.02897570095956325,0.005192355,0.02321288,8
0.98478901386261,1.8548206090927124,9.308140754699707,-0.032202396541833885,0.0076358155,0.021991149,8
0.9936342835426332,1.832441449165344,9.311441421508787,-0.034516338258981705,0.01985312,0.027794369,8
0.9947346448898317,1.8117635250091555,9.311954498291016,-0.03639654070138931,0.005497787,0.022296581,8
0.9847867488861084,1.7959536314010618,9.319254875183104,-0.03554501011967659,0.004886922,0.024129177,8
0.9744847416877748,1.7796983718872068,9.321438789367676,-0.03462960571050644,0.011911872,0.017104227,8
0.9602279067039491,1.7653100490570068,9.325843811035156,-0.03462289273738861,0.013439035,0.018325957,8
0.9451780319213868,1.7586387395858765,9.334603309631348,-0.03345952555537224,0.009162978,0.020463986,8
0.9349433779716492,1.754862904548645,9.337931632995604,-0.032543420791625984,0.005497787,0.01863139,8
0.9288127422332764,1.7496606111526491,9.333980560302734,-0.030404452234506607,-0.002443461,0.009773844,8
0.9177246689796448,1.7413257360458374,9.329534530639648,-0.028074769303202633,0.0009162979,0.0021380284,8
0.917927384376526,1.7418104410171509,9.328033447265623,-0.02641257643699646,-0.002443461,0.0027488936,8
0.9274053573608398,1.7436833381652832,9.327521324157717,-0.025219209492206573,-0.0061086523,0.0015271631,8
0.9441953301429749,1.7430670261383057,9.32840347290039,-0.025695525109767917,0.019547688,0.00580322,8
0.9379258751869202,1.7435818910598757,9.34217357635498,-0.025149660184979442,-0.01038471,0.015271631,8
0.9264886975288392,1.7432816028594968,9.348465919494627,-0.023584825918078426,-0.0027488936,0.004581489,8
0.9367151260375975,1.7472589015960691,9.346068382263184,-0.021472610533237457,0.004886922,0.011911872,8
0.9471079707145692,1.7454380989074707,9.339481353759766,-0.020593177527189255,0.013439035,0.0076358155,8
0.9441174268722534,1.7518448829650881,9.33798885345459,-0.01913468912243843,-0.0018325958,0.01282817,8
0.9394704699516296,1.7614727020263672,9.342652320861816,-0.01819678768515587,-0.0067195175,0.009468411,8
0.93209046125412,1.7701463699340818,9.338151931762695,-0.019478894770145416,0.0070249503,0.013133603,8
0.9278427362442015,1.7734391689300537,9.325865745544434,-0.02015399001538753,0.007330383,0.0061086523,8
0.9257302284240724,1.7780877351760864,9.327373504638672,-0.02118094265460968,0.012217305,0.0033597588,8
0.9236571788787842,1.7850745916366575,9.32333278656006,-0.022136783227324486,0.0070249503,0.00580322,8
0.925961136817932,1.7894681692123413,9.314641952514648,-0.02315748482942581,-0.00030543262000000003,0.008552114,8
0.9256325364112854,1.794181227684021,9.304471969604492,-0.02435776405036449,0.0061086523,0.005192355,8
0.9269852638244628,1.7944116592407229,9.302918434143066,-0.025880033150315285,0.010690141499999998,0.0070249503,8
0.9318649172782898,1.7906936407089231,9.30182933807373,-0.02711852639913559,0.003970624,0.008857545999999999,8
0.9392529129981996,1.7880187034606934,9.300566673278807,-0.027143370360136032,0.0067195175,0.016493361,8
0.9417442679405212,1.7821471691131592,9.302943229675293,-0.02783387340605259,0.010079277,0.014049901000000002,8
0.9433881044387816,1.7743163108825684,9.303808212280273,-0.02916172705590725,0.012217305,0.020158553,8
0.9413621425628662,1.767896056175232,9.308785438537598,-0.03097962960600853,0.012217305,0.0143553335,8
0.9354166984558104,1.7592940330505369,9.311124801635742,-0.03163139149546623,0.0143553335,0.016798794,8
0.9275609850883484,1.7551318407058716,9.31533908843994,-0.031721506267786026,0.0067195175,0.013439035,8
0.9218217730522156,1.751217484474182,9.320438385009766,-0.030428184196352962,0.0027488936,0.018325957,8
0.9181782603263856,1.7501358985900881,9.324411392211914,-0.030823780223727226,0.004581489,0.013133603,8
0.9139964580535888,1.757290601730347,9.325160026550293,-0.030200807377696037,0.00580322,0.013744468,8
0.9125472903251648,1.7616026401519775,9.32616138458252,-0.03131818026304245,0.014660766,0.016493361,8
0.9124530553817748,1.7632238864898682,9.327836990356444,-0.03219332918524742,0.0067195175,0.01038471,8
0.918156087398529,1.7626699209213257,9.327062606811523,-0.03252797946333885,-0.0009162979,0.004581489,8
0.923371195793152,1.762947678565979,9.32508945465088,-0.031979963183403015,0.005497787,0.006414085,8
0.9298923015594482,1.7612738609313965,9.3287935256958,-0.03195872902870178,0.002443461,0.01160644,8
0.9304076433181764,1.7622549533843994,9.336883544921877,-0.032231997698545456,0.007941248,0.014660766,8
0.927790105342865,1.76473867893219,9.334763526916504,-0.03278810903429985,0.00061086525,0.008857545999999999,8
0.9280449151992798,1.7621036767959597,9.32938003540039,-0.032154854387044914,0.014660766,0.014660766,8
0.929219663143158,1.7611782550811768,9.328073501586914,-0.0319296270608902,0.013439035,0.016798794,8
0.9299827814102172,1.7568477392196655,9.339444160461426,-0.03249840810894966,0.010079277,0.016798794,8
0.9348735213279724,1.7515865564346311,9.34554958343506,-0.030802680179476738,0.007941248,0.015882496,8
0.940086543560028,1.7519912719726562,9.34725570678711,-0.028877764940261837,0.014966198,0.011911872,8
0.9443287849426271,1.7503201961517334,9.347326278686523,-0.029171634465456012,0.0018325958,0.017715093,8
0.939359962940216,1.7453233003616333,9.341208457946776,-0.028559761121869087,0.0061086523,0.015882496,8
0.9319185018539428,1.7420285940170288,9.335972785949707,-0.03005996346473694,0.008246681,0.014049901000000002,8
0.9244603514671326,1.7331726551055908,9.334111213684082,-0.030825609341263768,0.005497787,0.0070249503,8
0.9207258820533752,1.727641463279724,9.338427543640137,-0.030406629666686055,0.00030543262000000003,0.008552114,8
0.9234077334403992,1.7256556749343872,9.33792495727539,-0.0305685680359602,0.0009162979,0.008857545999999999,8
0.9289048314094543,1.7337578535079956,9.342286109924316,-0.029975619167089462,0.00030543262000000003,0.010079277,8
0.9299502968788148,1.744133234024048,9.343969345092773,-0.028231794014573094,0.0076358155,0.011911872,8
0.9297535419464112,1.75784432888031,9.346364974975586,-0.028620999306440357,0.0033597588,0.010690141499999998,8
0.9303557872772216,1.7709002494812012,9.347597122192383,-0.027905436232686043,-0.004886922,0.013133603,8
0.927819848060608,1.7720201015472412,9.343606948852539,-0.027991166338324547,0.007941248,0.013744468,8
0.9347203969955444,1.7675272226333618,9.347956657409668,-0.02875343896448612,0.013439035,0.0125227375,8
0.9396136999130248,1.7585951089859009,9.342409133911133,-0.030437402427196506,0.0033597588,0.014049901000000002,8
0.9458901286125184,1.7483001947402954,9.335805892944336,-0.030874373391270638,0.0061086523,0.010995574,8
0.9438177943229676,1.7410944700241089,9.333578109741213,-0.030028874054551125,0.01863139,0.012217305,8
0.936834156513214,1.739281177520752,9.342370986938477,-0.029837045818567283,0.01038471,0.008552114,8
0.9339420795440674,1.741220474243164,9.35224723815918,-0.028977684676647183,0.008552114,0.010995574,8
0.928309202194214,1.742850422859192,9.35835075378418,-0.028712967410683632,0.009773844,0.015577064,8
0.9273836016654968,1.7515236139297483,9.35781955718994,-0.02920591458678245,0.0015271631,0.008246681,8
0.9442167878150941,1.7538284063339231,9.358694076538086,-0.0296877920627594,0.008857545999999999,0.014049901000000002,8
0.9412834644317628,1.755095362663269,9.357032775878906,-0.03052809461951256,0.0036651916,0.013439035,8
0.9361667037010192,1.7564797401428225,9.362317085266113,-0.031314268708229065,0.0067195175,0.0125227375,8
0.9339535236358644,1.7545387744903564,9.361157417297363,-0.030578995123505592,-0.002443461,0.010995574,8
0.93571138381958,1.7522106170654297,9.353592872619627,-0.03018731623888016,0.015271631,0.010690141499999998,8
0.9340120553970336,1.74269437789917,9.346057891845703,-0.030431142076849937,0.00580322,0.0125227375,8
0.9369497299194336,1.7319446802139282,9.341379165649414,-0.03100515902042389,0.01160644,0.011911872,8
0.9400590658187866,1.7245545387268066,9.33487319946289,-0.031066356226801876,-0.0021380284,0.010995574,8
0.9445570707321168,1.7258577346801758,9.334203720092773,-0.031087778508663174,0.0030543262,0.014660766,8
0.9429110288619996,1.7328311204910278,9.334206581115724,-0.030473230406641964,0.002443461,0.01282817,8
0.941929042339325,1.73821222782135,9.334900856018066,-0.02965315990149975,0.0027488936,0.007330383,8
0.9389280080795288,1.7367568016052246,9.334240913391113,-0.02967899106442928,0.003970624,0.013439035,8
0.9321721792221068,1.7371217012405396,9.334349632263184,-0.02986540086567402,0.0070249503,0.01740966,8
0.9273347854614258,1.7370053529739382,9.335177421569824,-0.02910491824150085,0.0033597588,0.010079277,8
0.9252541065216064,1.7375755310058594,9.341493606567383,-0.029604781419038776,0.0076358155,0.014966198,8
0.9267849922180176,1.736846685409546,9.34383487701416,-0.029826175421476364,0.0021380284,0.012217305,8
0.9303458929061891,1.7348712682724,9.341096878051758,-0.0295645110309124,0.0067195175,0.014049901000000002,8
0.9324712157249452,1.7336281538009644,9.345138549804688,-0.028973847627639767,0.0018325958,0.010690141499999998,8
0.9346712827682496,1.7311804294586182,9.351566314697266,-0.02897712960839272,0.0021380284,0.00580322,8
0.9347346425056458,1.7337772846221924,9.35336685180664,-0.027985053136944767,-0.0012217305,0.009162978,8
0.9368815422058104,1.7418183088302612,9.35508632659912,-0.026101602241396904,-0.0027488936,0.014049901000000002,8
0.9367495179176332,1.7514667510986328,9.354659080505373,-0.02571982517838478,-0.0018325958,0.016798794,8
0.938170611858368,1.7583589553833008,9.352121353149414,-0.026282288134098053,0.0067195175,0.010995574,8
0.9373244643211364,1.7574162483215332,9.34265422821045,-0.028028778731822968,0.004276057,0.008857545999999999,8
0.935662806034088,1.7451132535934448,9.33316135406494,-0.02937591820955276,0.0076358155,0.011301007,8
0.9348894953727722,1.7356207370758057,9.32819366455078,-0.028901901096105576,0.004276057,0.011301007,8
0.9371044635772704,1.7333905696868896,9.325862884521484,-0.029488809406757355,0.010690141499999998,0.009162978,8
0.9366499185562134,1.7370553016662598,9.324909210205078,-0.029432680457830433,0.0009162979,0.014049901000000002,8
0.933375597000122,1.7422597408294678,9.326372146606444,-0.02895443886518478,0.0012217305,0.010690141499999998,8
0.9319798350334167,1.7464710474014282,9.325828552246094,-0.029906595125794414,0.0021380284,0.016187929,8
0.9287919998168944,1.7508114576339722,9.332173347473145,-0.030332067981362343,0.008552114,0.008246681,8
0.924473762512207,1.755815505981445,9.33266830444336,-0.0318407341837883,0.0030543262,0.0061086523,8
0.9252433776855468,1.7577110528945925,9.32943630218506,-0.03238353505730629,0.010079277,0.010995574,8
0.9353927373886108,1.7506096363067627,9.329551696777344,-0.03356368094682693,0.009162978,0.009773844,8
0.9399397373199464,1.742473840713501,9.332075119018556,-0.033362023532390594,0.0030543262,0.004581489,8
0.9370440244674684,1.7344284057617188,9.33474063873291,-0.032274506986141205,0.00061086525,0.008857545999999999,8
0.940535008907318,1.72606098651886,9.334819793701172,-0.03217634931206703,0.005192355,0.009468411,8
0.9439080357551576,1.7247211933135986,9.336512565612793,-0.032032735645771034,0.007330383,0.011911872,8
0.948281466960907,1.7219586372375488,9.333722114562988,-0.031463656574487686,0.009162978,0.017715093,8
0.9509448409080504,1.721799373626709,9.331974029541016,-0.030810868367552764,0.010690141499999998,0.009162978,8
0.9578290581703186,1.7235727310180664,9.332436561584473,-0.030570728704333305,0.007941248,0.0067195175,8
0.9568824768066406,1.728451371192932,9.331599235534668,-0.030683476477861408,0.004276057,0.004581489,8
0.9527608752250672,1.7319475412368774,9.33204460144043,-0.030363405123353008,0.004581489,0.0070249503,8
0.9448896646499634,1.7346693277359009,9.338126182556152,-0.03078657202422619,0.01160644,0.010690141499999998,8
0.936441957950592,1.7356014251708984,9.347487449645996,-0.030576504766941067,0.0125227375,0.0143553335,8
0.9288632273674012,1.7383866310119631,9.34395694732666,-0.030787698924541473,0.011911872,0.01038471,8
0.9217378497123718,1.7395118474960327,9.342742919921877,-0.03058990277349949,0.010079277,0.009773844,8
0.9191856384277344,1.7378133535385132,9.342851638793944,-0.03046231530606747,0.008552114,0.011911872,8
0.919199287891388,1.7421385049819946,9.349430084228516,-0.030867228284478188,0.009162978,0.011911872,8
0.9193117618560792,1.742631912231445,9.351251602172852,-0.02965689823031425,0.0033597588,0.010079277,8
0.9198155999183656,1.7425496578216553,9.34627628326416,-0.028662241995334625,0.010995574,0.01282817,8
0.9267574548721312,1.7424869537353516,9.340773582458496,-0.027887174859642986,-0.002443461,0.010995574,8
0.9333784580230712,1.7393749952316284,9.339624404907227,-0.02692093700170517,0.004276057,0.013133603,8
0.9346061944961548,1.7339625358581543,9.343514442443848,-0.02769034169614315,0.009162978,0.017104227,8
0.93813556432724,1.7316817045211792,9.346800804138184,-0.02815961465239525,0.003970624,0.008246681,8
