acc_x,acc_y,acc_z,gyro_x,gyro_y,gyro_z,label
0.0,0.0,0.0,0.0,-0.010079277,0.00061086525,1
0.1191304177045822,0.2646969854831696,0.0032471593003720045,-0.00025378103600814944,-0.012217305,-0.002443461,1
0.4031465649604797,0.8959035277366638,0.011023052968084812,-0.0008888799347914755,-0.028710667,0.0018325958,1
0.796122670173645,1.76950204372406,0.021836789324879646,-0.0017254800768569114,-0.03390302,0.0018325958,1
1.2361160516738892,2.747918605804444,0.03401324525475502,-0.0031436204444617033,-0.026267206,-0.0070249503,1
1.6732825040817259,3.720392465591431,0.04619114845991135,-0.004029908683151007,0.022602014,0.00061086525,1
2.0762975215911865,4.6172752380371085,0.05750541388988495,-0.003255854593589902,0.029932396,0.007330383,1
2.430245876312256,5.405357360839844,0.06753359735012054,-0.002634476171806455,0.016187929,0.013133603,1
2.731405973434448,6.0763182640075675,0.07616203278303146,-0.001994122751057148,-0.021380283,-0.0009162979,1
2.9824743270874023,6.635810375213622,0.08375538140535355,-0.0015380794648081064,-0.06658431,-0.00030543262000000003,1
3.191425323486328,7.09312105178833,0.0990743488073349,-0.0012694789329543712,-0.04184427,0.0015271631,1
3.365472316741944,7.461528301239014,0.12509091198444364,0.00064516335260123,-0.010079277,0.0036651916,1
3.5102698802948,7.755654335021973,0.15984061360359192,0.0021110442467033863,-0.0027488936,-0.0036651916,1
3.6309299468994136,7.988595008850098,0.2016766518354416,0.0009855807293206453,-0.099571034,0.01740966,1
3.7318055629730233,8.171671867370605,0.2490156888961792,-0.0029666384216398,-0.08674286,-0.0009162979,7
3.8166408538818364,8.314239501953125,0.3009048998355865,-0.0071113426238298425,-0.23396139,-0.021685716,7
3.888491153717041,8.424060821533201,0.3564268946647644,-0.016854695975780487,-0.20463985,0.027488936,7
3.949859619140625,8.507471084594728,0.4148569703102112,-0.024409504607319832,-0.20158553,0.03359759,7
4.002779483795166,8.569612503051758,0.4756121337413788,-0.031344719231128686,-0.50488013,-0.005497787,7
4.050505638122559,8.615818023681639,0.5368027091026306,-0.000697826559189707,-0.4633413,-0.03726278,7
4.141076564788818,8.695748329162598,0.5633221864700317,0.00524140289053321,-0.4111123,-0.02443461,7
4.2244653701782235,8.828484535217285,0.5070309638977051,0.03036962822079658,-0.24984388,0.10720685,7
4.2735209465026855,8.981213569641113,0.4375165402889252,0.059826303273439414,-0.08460484,0.09987647,7
4.345564365386963,9.095660209655762,0.4108928740024567,0.08822087943553925,-0.19394971,0.15057829,7
4.580014705657959,9.292226791381836,0.4143844544887543,0.09064067900180817,-0.6392705,0.625526,7
4.9461989402771,9.543392181396484,0.3317948579788208,0.08001239597797394,-0.9978484,1.1908818,7
5.334070205688477,9.698638916015623,0.1305028796195984,0.11071331053972244,-1.0366384,1.4080443,7
5.704864501953125,9.789804458618164,-0.058009028434753425,0.17351464927196505,-0.75777835,1.6093245,7
5.9680118560791025,9.77971649169922,-0.10702622681856157,0.2289441376924515,-0.79504114,1.3246613,7
6.080963611602782,9.600068092346193,-0.1624949723482132,0.2961439788341522,-0.65393126,0.8402450999999999,7
5.9854488372802725,9.271305084228516,-0.3397621810436249,0.4190772473812103,-0.3585779000000001,0.52656585,7
5.7575531005859375,8.919989585876465,-0.4232859611511231,0.5946941971778871,-0.18448131,0.25381452,7
5.619570732116699,8.624689102172853,-0.3998458683490753,0.7542356848716736,-0.12767084,0.07574729,7
5.55577564239502,8.375448226928711,-0.4156079590320587,0.8825741410255432,-0.25686884,-0.052839845,7
5.556586742401123,8.25029468536377,-0.3762951493263245,1.0396625995635986,-0.9505063,-0.14019357,7
5.624054431915283,8.239529609680176,-0.3091169893741608,1.181875705718994,-1.1230757,-0.23976462,7
5.6542606353759775,8.156543731689451,-0.2795456051826477,1.2754530906677246,-1.1093313,-0.45051312,7
5.554825782775879,7.8638973236083975,-0.3461344242095947,1.3881454467773438,-1.0002918,-0.6899723000000001,7
5.20150089263916,7.2717204093933105,-0.4333103597164154,1.4208633899688718,-1.0800097,-0.8677341000000001,7
4.824579238891602,6.53942346572876,-0.6315516233444214,1.4445734024047852,-1.5512923,-0.9764681,7
4.566282749176025,5.7902278900146475,-1.222455620765686,1.518147587776184,-1.2049317,-0.77579886,7
4.3514184951782235,5.248540878295898,-1.7864696979522705,1.6093186140060425,-1.4532484,-0.37843102,7
4.1758155822753915,4.909532070159912,-2.178672313690185,1.6571447849273682,-1.640784,-0.090713486,7
4.1219701766967765,4.65955924987793,-2.5264453887939453,1.6565289497375488,-1.8897116000000005,-0.018020526,7
4.114981174468993,4.450402736663818,-2.8505585193634038,1.612457036972046,-2.3735168,0.011911872,7
3.921051502227783,4.468672275543213,-3.230045318603516,1.482770323753357,-2.9431489,-0.084910266,7
3.3704907894134517,4.82162618637085,-3.5155820846557617,1.256222367286682,-3.2779028,-0.19547687,7
2.6105329990386963,5.348800659179688,-3.7781386375427246,1.0071319341659546,-2.9013045,-0.79198676,7
1.86001980304718,5.9200053215026855,-4.191429615020752,0.765217661857605,-2.8701503,-1.1795808,7
1.2603112459182741,6.395628452301025,-4.743928909301758,0.6194390058517456,-2.1224513,-1.3017538999999998,7
0.7788029909133911,6.647847652435303,-5.2539401054382315,0.6002157926559448,-1.2379184,-1.4019357,7
0.4452526271343231,6.797048568725586,-5.543761253356934,0.7243934273719788,-0.7987063,-1.570229,7
0.16742511093616486,7.003826141357423,-5.674877643585205,0.8711305856704712,-0.9297369,-1.35551,7
-0.0023913155309855942,7.0932254791259775,-5.822680473327638,0.9501866698265076,-1.0775663,-1.3170254,7
-0.06130623072385787,7.022493839263916,-5.973918437957764,0.9851540327072144,-1.171945,-1.4263704,7
-0.1491815596818924,6.808757305145264,-6.2735981941223145,1.0170115232467651,-1.20371,-1.4156802,7
-0.3065869212150574,6.592972755432129,-6.584174633026122,1.03079092502594,-1.151481,-1.3246613,7
-0.4625624120235443,6.456778526306152,-6.924818515777588,1.0309000015258791,-1.1548406999999998,-1.2684617,7
-0.5884453654289246,6.422820091247559,-7.2332048416137695,1.015321135520935,-1.14018,-1.1905763,7
-0.7061725854873657,6.466769695281982,-7.578917980194093,1.019470453262329,-0.9841039,-1.1808025,7
-0.8665152788162231,6.538081169128418,-7.928557395935059,1.0354664325714111,-0.960891,-1.1701124,7
-1.0537748336791992,6.539268970489503,-8.246570587158201,1.0316163301467896,-0.98624194,-1.0873401000000005,7
-1.2405002117156982,6.462567329406737,-8.518221855163574,1.0140516757965088,-1.0042624,-0.9779953,7
-1.544908881187439,6.325894355773926,-8.787609100341799,1.0124419927597046,-0.80481493,-0.93401295,7
-1.958590269088745,6.1776509284973145,-9.032240867614746,1.0307693481445312,-0.6453791,-0.8323039000000001,7
-2.452278614044189,5.903059959411621,-9.425653457641602,1.0318642854690552,-0.24984388,-0.9080511999999998,7
-2.96942138671875,5.656352043151856,-9.794466972351074,1.0861420631408691,-0.19792034,-0.904386,7
-3.456740379333496,5.34715747833252,-10.090240478515623,1.107167363166809,-0.35308012,-0.7324274000000001,7
-3.9267890453338623,4.9248385429382315,-10.186269760131836,0.9851341843605042,-0.75900006,-0.47983465,7
-4.265977859497069,4.435477256774902,-10.300984382629396,0.8135948181152344,-0.75625116,-0.50243664,7
-4.391712665557861,4.074557304382323,-10.313023567199707,0.6644009351730347,-0.6640105,-0.52412236,7
-4.4239230155944815,3.9399490356445312,-10.144043922424316,0.5278806090354919,-0.6545420999999999,-0.41905355,7
-4.442922592163086,3.8384215831756587,-9.820740699768066,0.4028824269771576,-0.72509706,-0.344528,7
-4.501890182495117,3.6750330924987793,-9.476224899291992,0.3140302896499634,-0.54275376,-0.45631635,7
-4.56298828125,3.4599797725677486,-9.229001998901367,0.2852731049060821,-0.28496864,-0.48502702,7
-4.624101161956787,3.1503205299377437,-9.048297882080078,0.30578458309173584,-0.16584991,-0.45081854,7
-4.698955059051514,2.794640064239502,-8.846476554870605,0.33666107058525085,-0.17928895,-0.3268129,7
-4.752123832702637,2.4784483909606934,-8.612862586975098,0.3493168950080872,-0.29443705,-0.1133155,7
-4.75939416885376,2.2665350437164307,-8.468784332275389,0.3517513573169708,-0.34208453,0.0888809,7
-4.784493446350098,2.1511459350585938,-8.48729419708252,0.35762354731559753,-0.15577064,0.14080444,7
-4.824559211730957,2.1443006992340092,-8.556744575500487,0.3591940701007843,-0.21502456,0.15974127,7
-4.853344917297363,2.2229325771331787,-8.617671012878418,0.3393433690071106,-0.29260445,0.14172074,7
-4.8432044982910165,2.3128676414489746,-8.660565376281737,0.299535870552063,-0.33964106,0.12950343,7
-4.771490097045898,2.382385730743408,-8.680415153503418,0.26645034551620483,-0.24801129,0.13836098,7
-4.6891679763793945,2.4350147247314453,-8.649641990661621,0.2592659890651703,-0.14691310000000002,0.18509217,7
-4.656416893005371,2.5021436214447017,-8.574905395507812,0.2669200301170349,-0.10934488,0.19547687,7
-4.677313327789307,2.6169328689575195,-8.470947265625,0.2700102627277374,-0.21471913,0.1966986,7
-4.721336364746094,2.7408339977264404,-8.341815948486326,0.2482127547264099,-0.3747658,0.18753563,7
-4.7569193840026855,2.8244423866271973,-8.22969913482666,0.2190181314945221,-0.310625,0.1695151,7
-4.841531753540039,2.800572156906128,-8.169878959655763,0.21764926612377167,-0.09896017,0.11209377,7
-5.034119606018066,2.667848825454712,-8.127649307250978,0.23672524094581604,-0.04917465,0.13958271,7
-5.301079750061035,2.458646297454834,-8.066777229309082,0.2436431497335434,-0.124005646,0.1777618,7
-5.578963756561278,2.203383684158325,-8.050857543945312,0.22323733568191528,0.032070424,0.19303341,7
-5.808353900909424,1.951382398605347,-8.061305999755861,0.203015610575676,0.19425514,0.15760323,7
-5.945713520050049,1.7934441566467283,-8.097777366638184,0.1805246323347092,0.21624629,0.14935656,7
-5.96713399887085,1.7743020057678225,-8.119409561157228,0.15914228558540344,0.1001819,0.13041973,7
-5.915784358978272,1.8447848558425903,-8.095571517944336,0.13640420138835907,0.08827003,0.13347405,7
-5.809049129486084,1.921731948852539,-8.033664703369139,0.11692935973405838,0.16615535,0.13347405,7
-5.675643444061278,1.9927705526351929,-7.9980692863464355,0.11271502822637558,0.2761111,0.15607607,7
-5.575555801391602,2.085029125213623,-8.021931648254395,0.11102063953876497,0.32375857,0.13591751,8
-5.462962627410889,2.2088775634765625,-8.064328193664549,0.10853151977062224,0.25503623,0.14782938,8
-5.340291976928711,2.349266767501831,-8.102457046508789,0.09955710172653197,0.2510656,0.14782938,8
-5.217392921447754,2.4771287441253658,-8.139679908752441,0.08561627566814423,0.2415972,0.129198,8
-5.081913948059082,2.574592113494873,-8.187188148498535,0.07138966023921968,0.19730948,0.08582657,8
-4.927133560180664,2.6511354446411133,-8.252142906188965,0.0666225254535675,0.1863139,0.044898596,8
-4.77661657333374,2.7044639587402344,-8.311585426330566,0.058814860880374915,0.118202426,0.015577064,8
-4.634639263153076,2.7364866733551025,-8.361605644226074,0.04569781571626663,0.055283304000000005,-0.0009162979,8
-4.516317367553711,2.7541663646698,-8.410649299621582,0.03448764234781265,0.03390302,-0.03023783,8
-4.433191776275635,2.745980739593506,-8.455197334289549,0.021511463448405262,0.0012217305,-0.03023783,8
-4.375514030456543,2.7289860248565674,-8.482278823852539,0.005465042777359486,-0.040927973,-0.042760565999999986,8
-4.3299546241760245,2.7067384719848637,-8.496397018432617,-0.011409329250454904,-0.07299839999999999,-0.07941248,8
-4.299355030059815,2.6718099117279053,-8.50429630279541,-0.02572383359074593,-0.076358154,-0.10170906,8
-4.287774562835693,2.6246917247772217,-8.510371208190918,-0.036226626485586166,-0.087659165,-0.113926366,8
-4.301901340484618,2.572711944580078,-8.506120681762695,-0.0450599305331707,-0.10048734,-0.100792766,8
-4.354738235473634,2.5196154117584233,-8.48713207244873,-0.050847839564085014,-0.09285152,-0.07971791,8
-4.435435771942139,2.4750897884368896,-8.459280967712402,-0.05263742431998253,-0.093462385,-0.049480084,8
-4.514184951782227,2.4394056797027592,-8.428642272949219,-0.05135476216673851,-0.077579886,-0.025961773,8
-4.588135242462158,2.4115917682647705,-8.394950866699219,-0.04795057326555252,-0.052534413,0.0027488936,8
-4.6467366218566895,2.3901386260986333,-8.38421630859375,-0.04171093180775642,-0.036651913,0.013439035,8
-4.680515766143799,2.3791322708129883,-8.387954711914062,-0.035644270479679115,-0.022907447,0.015577064,8
-4.708142757415772,2.3743345737457275,-8.383036613464355,-0.031217090785503387,-0.0290161,0.018325957,8
-4.72152042388916,2.364632129669189,-8.373085975646973,-0.028567178174853325,-0.016493361,0.02076942,8
-4.73538064956665,2.3544325828552246,-8.364818572998049,-0.02613891288638115,-0.008552114,0.02321288,8
-4.760215759277344,2.360879898071289,-8.363539695739746,-0.023451916873455048,-0.003970624,0.034513887,8
-4.7782135009765625,2.381582260131836,-8.365090370178223,-0.02347145602107048,-0.0021380284,0.027488936,8
-4.783059120178223,2.4067184925079346,-8.373805999755861,-0.024217400699853897,-0.00061086525,0.01740966,8
-4.780735969543457,2.4332613945007324,-8.373910903930664,-0.023264819756150246,0.01160644,0.012217305,8
-4.775534152984619,2.453707218170166,-8.36597728729248,-0.021002911031246185,0.0143553335,0.0012217305,8
-4.7752952575683585,2.465754270553589,-8.362619400024414,-0.01775515079498291,0.02565634,0.005192355,8
-4.783216953277588,2.473227024078369,-8.361693382263184,-0.015825815498828888,0.027183503,0.004276057,8
-4.783895969390869,2.472411870956421,-8.358644485473633,-0.014775595627725124,0.02076942,-0.0012217305,8
-4.76737642288208,2.4665415287017822,-8.355997085571289,-0.013049146160483359,0.02565634,-0.004276057,8
-4.73371171951294,2.4589507579803467,-8.361000061035156,-0.01192912645637989,0.026267206,-0.018936822,8
-4.701224327087402,2.450965881347656,-8.370418548583983,-0.011436915025115013,0.018325957,-0.014660766,8
-4.681765079498291,2.4473862648010254,-8.379782676696777,-0.010996944271028042,0.005192355,-0.019242255,8
-4.673126220703125,2.449733018875122,-8.391145706176758,-0.01176112424582243,-0.0030543262,-0.016493361,8
-4.668283939361572,2.452736616134644,-8.401947975158691,-0.013189068995416164,-0.011911872,-0.022907447,8
-4.666504859924316,2.45088005065918,-8.404190063476562,-0.013988580554723741,-0.008857545999999999,-0.019242255,8
-4.668964385986328,2.444413661956787,-8.410190582275389,-0.014066318981349468,-0.004276057,-0.020158553,8
-4.675074577331543,2.438443422317505,-8.414637565612793,-0.012695292942225931,-0.010690141499999998,-0.024740042,8
-4.682701587677002,2.427046775817871,-8.415064811706543,-0.011500671505928041,-0.0070249503,-0.004276057,8
-4.69429349899292,2.40991735458374,-8.406581878662111,-0.010424000211060049,-0.016187929,-0.0036651916,8
-4.709039211273193,2.4008328914642334,-8.394786834716799,-0.00997896771878004,-0.003970624,0.010995574,8
-4.720101356506348,2.396214246749878,-8.387360572814941,-0.008169926702976227,-0.0076358155,0.010690141499999998,8
-4.7262535095214835,2.3902957439422607,-8.382338523864746,-0.005626359488815068,-0.0009162979,0.010079277,8
-4.731895446777344,2.391475915908813,-8.379278182983397,-0.004560530185699463,-0.004581489,0.015271631,8
-4.732086181640625,2.39016342163086,-8.373543739318848,-0.004904910456389189,-0.00030543262000000003,0.020463986,8
-4.725776195526123,2.3912761211395264,-8.370997428894043,-0.0055883671157062045,-0.014049901000000002,0.014660766,8
-4.729043483734131,2.3924381732940674,-8.364463806152344,-0.006998613942414522,-0.01863139,0.008552114,8
-4.746087551116943,2.3960950374603267,-8.363998413085938,-0.008641414344310759,-0.026572637000000003,0.01740966,8
-4.75907039642334,2.4055302143096924,-8.366482734680176,-0.012369598262012005,-0.02565634,0.02076942,8
-4.76806640625,2.415334224700928,-8.368267059326174,-0.015579759143292904,-0.023518313,0.021685716,8
-4.7743449211120605,2.422481060028076,-8.354384422302246,-0.01740000210702419,-0.032070424,0.016798794,8
-4.770553112030028,2.428389310836792,-8.350005149841309,-0.02143195085227489,-0.0290161,0.01282817,8
-4.76409387588501,2.4335176944732666,-8.358689308166504,-0.025886094197630882,-0.03604105,0.01160644,8
-4.752618789672852,2.433124542236328,-8.363425254821777,-0.029963407665491108,-0.043676864,-0.0009162979,8
-4.742292404174805,2.4332821369171143,-8.362231254577638,-0.03382337093353272,-0.040011674,-0.0012217305,8
-4.742880344390869,2.436960220336914,-8.363767623901367,-0.036371707916259766,-0.040927973,0.00580322,8
-4.740811347961426,2.4409992694854736,-8.375539779663086,-0.03837031498551369,-0.049785517,-0.0015271631,8
-4.738227367401123,2.442498207092285,-8.382501602172853,-0.03983673080801964,-0.053450707,-0.0012217305,8
-4.734468936920166,2.4455432891845703,-8.386588096618652,-0.03906975314021111,-0.03359759,-0.0015271631,8
-4.734499454498291,2.4478142261505127,-8.38640308380127,-0.03672060742974281,-0.018325957,0.006414085,8
-4.737170219421387,2.4549367427825928,-8.387415885925293,-0.0328010655939579,-0.02107485,0.010690141499999998,8
-4.749410152435303,2.4690020084381104,-8.37925910949707,-0.03027516975998878,-0.016187929,0.008552114,8
-4.757859706878662,2.482040882110596,-8.364761352539062,-0.02746395021677017,-0.020463986,0.004581489,8
-4.762662887573242,2.489086151123047,-8.348219871520996,-0.02370673045516014,-0.018325957,0.0070249503,8
-4.769758224487305,2.4866316318511963,-8.334989547729492,-0.018820755183696747,0.008552114,0.008857545999999999,8
-4.7855963706970215,2.4768352508544917,-8.327346801757812,-0.012906747870147228,0.02107485,0.008857545999999999,8
-4.8053789138793945,2.4650940895080566,-8.316889762878418,-0.008391218259930609,0.010079277,0.008857545999999999,8
-4.8183016777038565,2.457146406173706,-8.304755210876465,-0.005874194204807282,0.024129177,0.010995574,8
-4.823322772979736,2.454861640930176,-8.297176361083983,-0.004371346440166235,0.021380283,0.02076942,8
-4.818355083465576,2.462145566940308,-8.292275428771973,-0.003117572981864214,0.008552114,0.008552114,8
-4.806787490844727,2.4702885150909424,-8.295051574707031,-0.002883331384509802,0.015271631,0.0012217305,8
-4.796564102172852,2.4750895500183105,-8.297561645507812,-0.002717073308303952,0.0012217305,-0.006414085,8
-4.7841477394104,2.4847183227539062,-8.301465034484862,-0.0026371348649263378,0.010690141499999998,-0.00061086525,8
-4.781266689300537,2.4951393604278564,-8.304125785827638,-0.0030537676066160198,0.00061086525,-0.010690141499999998,8
-4.777956485748291,2.493152141571045,-8.305813789367676,-0.004145585000514984,0.00061086525,-0.007330383,8
-4.778803825378418,2.4814341068267822,-8.307268142700195,-0.0037719295360147953,0.01160644,0.0036651916,8
-4.79115104675293,2.47040057182312,-8.311081886291504,-0.003456725273281336,0.00030543262000000003,-0.0012217305,8
-4.801611423492432,2.4501283168792725,-8.31962776184082,-0.0038464248646050687,-0.00061086525,-0.0021380284,8
-4.80007791519165,2.4248731136322017,-8.32497501373291,-0.003956893924623728,0.015577064,0.014966198,8
-4.804162502288818,2.4126038551330566,-8.323585510253906,-0.002880249172449112,0.0021380284,0.014660766,8
-4.804407596588135,2.412073850631714,-8.316568374633789,-0.004442608449608088,-0.004886922,0.016187929,8
-4.799056053161621,2.4172089099884038,-8.31291675567627,-0.003789595793932676,0.007941248,0.013744468,8
-4.799989700317383,2.4269864559173584,-8.314858436584473,-0.004119911231100559,0.0036651916,0.01863139,8
-4.806706428527832,2.437448740005493,-8.305631637573242,-0.003602238837629557,0.0012217305,0.012217305,8
-4.807253837585449,2.4443416595458984,-8.300880432128906,-0.003000688273459673,0.0018325958,0.01282817,8
-4.797008037567139,2.4446001052856445,-8.307595252990723,-0.003305849153548479,-0.00061086525,-0.00030543262000000003,8
-4.78471565246582,2.4436638355255127,-8.319323539733888,-0.0031896019354462624,-0.00580322,0.0076358155,8
-4.776455879211426,2.4509828090667725,-8.324443817138674,-0.00459021283313632,-0.0125227375,-0.0012217305,8
-4.770187854766847,2.4595963954925537,-8.328581809997559,-0.005618131719529629,-0.004276057,-0.0018325958,8
-4.765483856201172,2.46823787689209,-8.32840633392334,-0.006037858780473471,-0.01160644,-0.0021380284,8
-4.767842769622803,2.4710283279418945,-8.32711124420166,-0.006486503407359122,-0.015882496,-0.0009162979,8
-4.769338607788086,2.470968246459961,-8.325617790222168,-0.006022324785590172,-0.00061086525,0.0012217305,8
-4.770287036895752,2.4684054851531982,-8.328876495361326,-0.0039550187066197395,-0.0015271631,-0.0018325958,8
-4.772704124450684,2.4588634967803955,-8.331236839294434,-0.0020908191800117493,0.006414085,0.0070249503,8
-4.783797264099121,2.45162034034729,-8.330745697021483,-0.0006562455673702061,0.004581489,0.0067195175,8
-4.792769432067871,2.4459764957427983,-8.325540542602539,0.00014042922703083605,0.011911872,0.0070249503,8
-4.800904273986816,2.440714120864868,-8.319968223571777,0.0011991686187684536,0.0012217305,0.0125227375,8
-4.809840202331543,2.435441017150879,-8.316848754882812,0.0017638446297496555,0.0021380284,0.010690141499999998,8
-4.817861080169678,2.4314074516296387,-8.31647777557373,0.0014542486751452088,0.0030543262,0.0061086523,8
-4.820253372192383,2.429856300354004,-8.319728851318361,0.0008592408266849817,-0.0012217305,0.0076358155,8
-4.817941188812256,2.4304733276367188,-8.324938774108888,0.00011068946332670747,0.011911872,0.0009162979,8
-4.8152289390563965,2.4315428733825684,-8.329229354858397,-0.00034635004703886807,0.01282817,0.004276057,8
-4.816544055938722,2.428663969039917,-8.338878631591799,-0.001925334334373474,0.009162978,-0.00030543262000000003,8
-4.814217567443848,2.4278156757354736,-8.334673881530763,-0.0035819043405354023,0.00061086525,0.004276057,8
-4.81057596206665,2.433562994003296,-8.32667064666748,-0.004401300102472304,0.0061086523,0.0027488936,8
-4.799128532409668,2.4423720836639404,-8.32667350769043,-0.004791437182575464,0.007941248,0.010079277,8
-4.7893476486206055,2.448439359664917,-8.333195686340332,-0.004182839300483465,0.0143553335,0.004581489,8
-4.773041725158691,2.449855089187622,-8.338163375854492,-0.004320794716477394,0.009773844,0.005497787,8
-4.759282112121582,2.4463624954223637,-8.338962554931639,-0.0041426094248890885,0.0067195175,0.0021380284,8
-4.755346298217773,2.446498155593872,-8.349227905273438,-0.003130157245323062,-0.0033597588,0.0027488936,8
-4.7584567070007315,2.444875478744507,-8.36012077331543,-0.003696036757901311,0.0012217305,0.010995574,8
-4.75824499130249,2.4444339275360107,-8.367291450500487,-0.004019688349217176,-0.0061086523,0.0012217305,8
-4.762294292449951,2.448188781738281,-8.372485160827638,-0.0035919186193495993,0.0018325958,0.011301007,8
-4.765341281890869,2.447750329971313,-8.36500358581543,-0.003846043953672051,0.0067195175,0.0143553335,8
-4.764866352081299,2.4466359615325928,-8.354506492614746,-0.0030245878733694553,0.0067195175,0.009162978,8
-4.763909816741943,2.444474697113037,-8.347590446472168,-0.002699467586353421,0.0036651916,0.002443461,8
-4.763467311859131,2.4357717037200928,-8.352381706237793,-0.002211958169937134,0.0067195175,0.00061086525,8
-4.7608370780944815,2.423621416091919,-8.357553482055664,-0.001834426890127361,0.0030543262,-0.00061086525,8
-4.766036510467528,2.4172844886779785,-8.36662483215332,-0.0018674376187846067,0.0061086523,-0.003970624,8
-4.77122688293457,2.4218478202819824,-8.372673034667969,-0.002930028829723597,0.0015271631,0.004581489,8
-4.774198532104492,2.4271910190582275,-8.36545467376709,-0.00273143476806581,-0.0030543262,0.006414085,8
-4.7696404457092285,2.425781011581421,-8.35844612121582,-0.002941077807918191,0.0021380284,0.0070249503,8
-4.764876365661621,2.4279510974884038,-8.358229637145996,-0.0028835381381213665,-0.00061086525,0.00580322,8
-4.7640485763549805,2.432276487350464,-8.362459182739258,-0.001758307684212923,-0.0070249503,0.00580322,8
-4.762333869934082,2.43760347366333,-8.361007690429688,-0.002324867527931929,-0.010690141499999998,0.0015271631,8
-4.760980129241943,2.4334487915039062,-8.35904598236084,-0.003535706782713533,-0.0033597588,0.005497787,8
-4.766464710235597,2.428330659866333,-8.361115455627441,-0.0033391001634299755,-0.0070249503,0.009468411,8
-4.77002477645874,2.424724817276001,-8.358928680419924,-0.003118522698059678,-0.00061086525,0.009773844,8
-4.769302368164063,2.420936822891236,-8.351672172546388,-0.0031372257508337498,-0.00061086525,0.0070249503,8
-4.770898342132568,2.419918298721313,-8.342887878417969,-0.0033109504729509354,-0.003970624,0.008246681,8
-4.778726577758789,2.418105363845825,-8.348128318786621,-0.00378274149261415,-0.002443461,0.018020526,8
-4.782339572906494,2.4385948181152344,-8.350844383239746,-0.004375244956463575,0.004276057,0.002443461,8
-4.783934593200684,2.458756923675537,-8.35010814666748,-0.004488345701247454,-0.008246681,0.0061086523,8
-4.786263942718506,2.462559461593628,-8.349848747253418,-0.0037778117693960662,-0.003970624,-0.0021380284,8
-4.783885478973389,2.4657320976257324,-8.347377777099611,-0.003515649354085326,-0.0036651916,0.0070249503,8
-4.7869391441345215,2.468841314315796,-8.346660614013674,-0.001829995890147984,0.0009162979,0.006414085,8
-4.791008472442627,2.469832181930542,-8.354124069213867,-0.0010928439442068338,0.013744468,0.01038471,8
-4.78779411315918,2.459648847579956,-8.348517417907715,-0.0008026876603253187,0.0021380284,-0.0021380284,8
-4.7761101722717285,2.438969850540161,-8.342341423034668,-0.0009063913603313267,-0.0036651916,0.004886922,8
-4.766619682312012,2.4207427501678467,-8.346135139465332,-0.0007764726178720592,0.006414085,0.0027488936,8
-4.7577080726623535,2.4070558547973637,-8.351324081420897,-0.0014375514583662152,-0.00030543262000000003,0.0015271631,8
-4.746793270111084,2.3988687992095947,-8.350312232971191,-0.003943868447095157,-0.0030543262,-0.002443461,8
-4.73705005645752,2.3978888988494877,-8.349532127380371,-0.005967445671558379,-0.0021380284,0.006414085,8
-4.733137607574463,2.3981037139892583,-8.351607322692871,-0.006674220319837332,-0.010690141499999998,0.0070249503,8
-4.732243061065674,2.4009950160980225,-8.352408409118652,-0.007125352043658495,-0.009162978,0.0076358155,8
-4.729988098144531,2.406277894973755,-8.354978561401367,-0.008610670454800129,-0.015577064,0.005497787,8
-4.731534004211426,2.411266565322876,-8.348289489746094,-0.00914837047457695,-0.013133603,0.007330383,8
-4.734305381774902,2.4192605018615723,-8.341607093811035,-0.008638412691652775,-0.017715093,0.015577064,8
-4.7426066398620605,2.4315338134765625,-8.341813087463379,-0.008462224155664444,-0.014660766,0.0143553335,8
-4.753500461578369,2.4424777030944824,-8.344687461853027,-0.0075376960448920735,-0.0018325958,0.014966198,8
-4.759612083435059,2.44646954536438,-8.342758178710938,-0.00718615297228098,0.00580322,0.015271631,8
-4.7590599060058585,2.4456701278686523,-8.335439682006836,-0.0073349555023014545,0.004581489,0.013744468,8
-4.760150909423828,2.4436228275299072,-8.334242820739746,-0.006528591737151146,0.0036651916,0.0143553335,8
-4.763774394989014,2.447035551071167,-8.331908226013184,-0.0054504754953086385,0.0076358155,0.010995574,8
-4.769520282745361,2.443275451660156,-8.329788208007812,-0.004778069444000721,0.008246681,-0.0021380284,8
-4.772269248962402,2.4383113384246826,-8.324625015258789,-0.004424385726451875,0.0076358155,0.0070249503,8
-4.773861885070801,2.438315153121948,-8.323020935058594,-0.003897306509315968,0.0143553335,0.012217305,8
-4.769959926605225,2.4365434646606445,-8.338157653808594,-0.0030382005497813225,0.02076942,0.005192355,8
-4.7646756172180185,2.433246374130249,-8.346330642700195,-0.0019019475439563394,0.015577064,0.0067195175,8
-4.753355979919434,2.431523323059082,-8.344708442687987,-0.0012798536336049438,0.015577064,0.004276057,8
-4.744067192077637,2.4309446811676025,-8.338744163513184,-0.00019174616318196058,0.018936822,0.009773844,8
-4.7380409240722665,2.429224967956543,-8.332521438598633,8.167017767846119e-06,0.012217305,0.0027488936,8
-4.736474990844727,2.4249701499938965,-8.333457946777344,0.00036633960553444917,0.0033597588,0.008552114,8
-4.729920387268066,2.4214375019073486,-8.339875221252441,1.1964739314862527e-06,0.008246681,0.008552114,8
-4.718595027923584,2.4127418994903564,-8.349032402038574,-0.0006980939651839435,0.0021380284,0.004886922,8
-4.709375381469727,2.402175188064575,-8.357771873474121,-0.0008625023765489459,-0.00580322,0.0033597588,8
-4.710639953613281,2.3996238708496094,-8.363177299499513,-0.0017066188156604767,-0.0015271631,0.0125227375,8
-4.713937282562256,2.402041435241699,-8.369009971618652,-0.0028274289797991514,-0.00030543262000000003,0.011911872,8
-4.715967178344727,2.40838360786438,-8.374313354492188,-0.003402598667889833,-0.006414085,0.008246681,8
-4.7194414138793945,2.4122681617736816,-8.376486778259277,-0.004207197576761246,-0.005192355,0.004886922,8
-4.718556880950928,2.41325306892395,-8.375531196594237,-0.006591509561985731,-0.013439035,0.011911872,8
-4.718584060668945,2.4159619808197017,-8.369587898254395,-0.010007347911596298,-0.011911872,0.021685716,8
-4.714964866638184,2.422521114349365,-8.366607666015625,-0.0133297024294734,-0.020463986,0.005192355,8
-4.713050842285156,2.4279565811157227,-8.362309455871582,-0.016902167350053787,-0.018936822,0.0067195175,8
-4.715841770172119,2.4312620162963867,-8.355121612548826,-0.017709271982312202,-0.020158553,0.0070249503,8
-4.723860263824463,2.43597674369812,-8.355156898498535,-0.016567835584282875,-0.017104227,-0.004886922,8
-4.731622219085693,2.4433517456054688,-8.363037109375,-0.015592921525239944,-0.011911872,0.0021380284,8
-4.742568016052246,2.446509838104248,-8.363890647888184,-0.013558592647314072,0.0012217305,0.018936822,8
-4.752183437347412,2.4454421997070312,-8.359862327575684,-0.0116112707182765,-0.007330383,0.0033597588,8
-4.754190444946289,2.4419808387756348,-8.356229782104492,-0.010148819535970688,-0.0021380284,0.009468411,8
-4.757546424865723,2.440779685974121,-8.35101318359375,-0.008503408171236515,-0.01282817,0.0033597588,8
-4.760977745056152,2.436894416809082,-8.343095779418945,-0.006421740632504225,0.005192355,0.005192355,8
-4.763367176055908,2.4345076084136963,-8.336348533630371,-0.004568332340568304,0.006414085,0.0070249503,8
