acc_x,acc_y,acc_z,gyro_x,gyro_y,gyro_z,label
0.0,0.0,0.0,0.0,-0.009162978,0.02076942,1
-0.04328172281384468,0.2821125686168671,-0.04533195868134498,-0.0011554374359548092,-0.0015271631,0.02565634,1
-0.1464398354291916,0.9547896385192872,-0.15204504132270813,-0.004090764094144106,-0.0018325958,0.02687807,1
-0.289128839969635,1.8856922388076784,-0.297559916973114,-0.007721487898379564,0.018325957,0.021991149,1
-0.4488320350646973,2.9281702041625977,-0.4577596187591553,-0.01089767552912235,0.013133603,0.01740966,1
-0.6074420213699341,3.964178562164306,-0.6137730479240417,-0.015227038413286209,0.015577064,0.021380283,1
-0.7535879611968994,4.919507026672363,-0.754130482673645,-0.02017997391521931,-0.008246681,0.020463986,1
-0.8818657398223877,5.758790493011475,-0.8738177418708801,-0.02463466487824917,-0.018936822,0.016187929,1
-0.9909324645996094,6.473180294036865,-0.9718810915946959,-0.027627287432551384,0.00580322,0.02443461,1
-1.0817461013793943,7.068831443786621,-1.0497322082519531,-0.029796186834573742,0.010995574,0.016798794,1
-1.1563245058059692,7.558823108673097,-1.1098220348358154,-0.031036594882607463,0.008552114,0.017104227,1
-1.217005491256714,7.958347797393799,-1.1548157930374146,-0.03303387761116028,0.008246681,0.017715093,1
-1.2660664319992063,8.28221321105957,-1.187260985374451,-0.03425506502389908,0.010690141499999998,0.027794369,1
-1.305551528930664,8.543721199035645,-1.2094007730484009,-0.03691298142075538,0.008552114,0.020158553,1
-1.3372184038162231,8.754312515258789,-1.2231606245040894,-0.03843996673822403,0.005497787,0.021380283,1
-1.3625391721725464,8.923568725585938,-1.2301377058029177,-0.03895331174135208,0.023823744,0.016798794,1
-1.3827255964279177,9.059539794921877,-1.2317626476287842,-0.039843901991844184,0.008857545999999999,0.028710667,1
-1.3987727165222168,9.170045852661133,-1.230799436569214,-0.04238545149564743,0.004276057,0.030848695,1
-1.4114811420440674,9.260408401489258,-1.2281110286712646,-0.04596507549285889,0.011911872,0.027794369,1
-1.421505570411682,9.334539413452148,-1.2240633964538574,-0.04693775996565819,0.0033597588,0.02076942,1
-1.4293707609176636,9.395622253417967,-1.2189135551452637,-0.048683997243642814,0.0015271631,0.02443461,1
-1.4354987144470217,9.44622802734375,-1.2128645181655884,-0.05289531871676445,0.028710667,0.029626964,1
-1.4402329921722412,9.488391876220703,-1.2061179876327517,-0.056840356439352036,0.027183503,0.021991149,1
-1.4438461065292358,9.523786544799805,-1.1987969875335691,-0.06265614926815033,0.04642576,0.021380283,1
-1.4465585947036743,9.553738594055176,-1.1910160779953003,-0.06853999942541122,0.03573562,0.03848451,1
-1.4485474824905396,9.57931900024414,-1.1828652620315552,-0.07479823380708693,0.030848695,0.037873644,1
-1.4497668743133545,9.601369857788086,-1.1746375560760498,-0.08095376938581468,0.027794369,0.04337143,1
-1.4490190744400024,9.62051010131836,-1.1678435802459717,-0.08780859410762787,0.03268129,0.040011674,1
-1.446436047554016,9.637300491333008,-1.1624805927276611,-0.09404223412275314,0.03023783,0.04153884,1
-1.4423785209655762,9.652204513549805,-1.1582669019699097,-0.10052096098661424,0.03145956,0.043982297,1
-1.4371399879455566,9.6655912399292,-1.154976487159729,-0.10694492608308792,0.04734206,0.042760565999999986,1
-1.4309537410736084,9.677756309509276,-1.1524276733398438,-0.11458026617765428,0.037873644,0.050701816,1
-1.4240058660507202,9.688941955566406,-1.1504744291305542,-0.12055465579032898,0.028405234,0.040927973,1
-1.416443109512329,9.699341773986816,-1.148999810218811,-0.1271059513092041,0.029626964,0.05589417,1
-1.4083738327026367,9.709120750427246,-1.1479102373123171,-0.13305023312568665,0.055283304000000005,0.05009095,1
-1.3999342918395996,9.718375205993652,-1.147128343582153,-0.14134147763252258,0.06291912,0.049480084,1
-1.391149401664734,9.72724151611328,-1.1465957164764404,-0.14886736869812012,0.03390302,0.055283304000000005,1
-1.382140040397644,9.735756874084473,-1.1462608575820925,-0.1559799611568451,0.038789943,0.0571159,1
-1.3729063272476196,9.744023323059082,-1.1460870504379272,-0.16174906492233276,0.04642576,0.071776666,1
-1.3635263442993164,9.752066612243652,-1.1460407972335815,-0.1669365167617798,0.056199603,0.060170225999999986,1
-1.354009032249451,9.759943008422852,-1.1460981369018557,-0.17352280020713806,0.040927973,0.06047566,1
-1.3443974256515503,9.767674446105957,-1.1462377309799194,-0.1785849630832672,0.040927973,0.058948494,1
-1.3347023725509644,9.77529525756836,-1.1464439630508425,-0.18397480249404907,0.04734206,0.07086037,1
-1.3249324560165403,9.782833099365234,-1.1467039585113523,-0.1913665384054184,0.043066,0.076052725,1
-1.3150993585586548,9.790306091308594,-1.1470074653625488,-0.19787153601646426,0.054061573,0.08002335,1
-1.3052206039428709,9.797722816467283,-1.1473455429077148,-0.20493492484092712,0.02321288,0.089491755,1
-1.2951362133026123,9.804959297180176,-1.1464345455169678,-0.2154187113046646,0.025350908,0.10995574,1
-1.2840532064437866,9.811126708984377,-1.1369495391845703,-0.2295486927032471,0.04886922,0.111177474,1
-1.2719564437866209,9.816268920898438,-1.1189966201782229,-0.24752177298069,0.057421334,0.1160644,1
-1.2590442895889282,9.820587158203123,-1.09423828125,-0.2648952007293701,0.042455133,0.13439035,7
-1.2454508543014526,9.82424545288086,-1.063928246498108,-0.28577864170074463,0.014049901000000002,0.16310102,7
-1.2313696146011353,9.827369689941406,-1.0293507575988772,-0.3098388910293579,0.044898596,0.18142697,7
-1.216873049736023,9.830066680908203,-0.9912698864936828,-0.33465903997421265,0.03176499,0.204029,7
-1.202038288116455,9.83242130279541,-0.950359582901001,-0.36540833115577703,0.03970624,0.2098322,7
-1.1868904829025269,9.834502220153807,-0.9070432186126708,-0.4061402082443237,0.055283304000000005,0.23640485,7
-1.1715649366378784,9.836359977722168,-0.8620318770408629,-0.4588423073291778,0.11484267,0.2556471,7
-1.1583137512207031,9.835090637207033,-0.8200925588607788,-0.5161031484603882,0.08796459400000001,0.27366763,7
-1.1702840328216553,9.816838264465332,-0.8027527928352356,-0.5644890069961548,0.08246681,0.27000242,7
-1.2097007036209106,9.795209884643556,-0.7830023169517517,-0.6039924621582031,0.13652839,0.27214047,7
-1.2694170475006104,9.789288520812988,-0.7579094171524048,-0.6375911831855774,0.1966986,0.27214047,7
-1.3003487586975098,9.79505443572998,-0.6944624781608582,-0.6659990549087524,0.13103059,0.25045475,7
-1.2688106298446655,9.770252227783203,-0.5691918730735779,-0.6948241591453552,0.00061086525,0.24862215,7
-1.1995325088500977,9.716580390930176,-0.4348924160003662,-0.7288274168968201,0.0125227375,0.27122417,7
-1.134041428565979,9.696657180786133,-0.3019714951515198,-0.7761906981468201,0.070554934,0.30970868,7
-1.1102582216262815,9.703503608703613,-0.10054928064346312,-0.8365268111228943,0.044593163,0.27091873,7
-1.0595133304595947,9.682718276977539,0.1969900280237198,-0.8909796476364136,-0.14446963,0.21960606,7
-0.9787373542785645,9.63016128540039,0.4950825273990631,-0.9278483390808104,-0.2864958,0.1563815,7
-0.8606305122375488,9.617107391357422,0.6925126910209656,-0.9536060690879822,-0.26389378,0.18906279,7
-0.7229905128479004,9.62413215637207,0.8365118503570557,-0.9706087112426758,-0.122478485,0.2275473,7
-0.5913253426551819,9.576343536376953,1.0096824169158936,-0.9953491687774658,-0.19058995,0.25900686,7
-0.5370070338249207,9.464213371276855,1.232040286064148,-1.0222322940826416,-0.35399640000000004,0.1554652,7
-0.5331000685691833,9.375244140625,1.433525800704956,-1.0650876760482788,-0.42424592,0.12461651,7
-0.5114855170249939,9.32105827331543,1.635414719581604,-1.1333624124526978,-0.30695978,0.119729586,7
-0.4009076654911041,9.287541389465332,1.8411272764205933,-1.1947388648986816,-0.31612277,0.12950343,7
-0.2544175684452057,9.277752876281738,2.01721739768982,-1.2350542545318604,-0.25228736,0.20280726,7
-0.13176758587360382,9.259312629699707,2.1681268215179443,-1.2567299604415894,-0.22785273,0.2125811,7
-0.05414540693163872,9.199053764343262,2.2996938228607178,-1.2831727266311646,-0.23060162,0.20463985,7
-0.048052262514829636,9.096957206726074,2.4265265464782715,-1.343105673789978,0.05467244,0.21288654,7
-0.006654905620962381,8.9614839553833,2.6634111404418945,-1.4169305562973022,0.034208454,0.20463985,7
0.1750115603208542,8.824934959411621,2.9605207443237305,-1.4546154737472534,-0.15943582,0.35735616,7
0.38593441247940063,8.676824569702147,3.187652111053467,-1.4910078048706057,-0.014966198,0.56016344,7
0.5994616150856018,8.493063926696777,3.3133108615875244,-1.5190869569778442,0.061391957,0.66553766,7
0.726518452167511,8.207978248596191,3.516663074493408,-1.568065166473389,0.112704635,0.6780604,7
0.7243492603302002,7.7630372047424325,3.73399019241333,-1.6196751594543457,-0.08704830000000001,0.6261369000000001,7
0.6760309934616089,7.276235580444336,4.07703161239624,-1.6517550945281982,-0.03023783,0.5103779,7
0.7435327768325806,6.925844192504883,4.345141410827637,-1.6919846534729004,-0.077579886,0.5143485,7
0.8258299231529236,6.671132564544678,4.487817287445068,-1.7286368608474731,0.055283304000000005,0.47067168,7
0.8598250746726991,6.533061027526856,4.725648403167725,-1.7797048091888428,0.08704830000000001,0.41874814,7
0.8880298733711243,6.514822959899902,4.966461658477783,-1.8134592771530151,0.011911872,0.5338961999999999,7
0.9632989168167114,6.436294555664063,5.230741500854492,-1.845713973045349,0.16646078,0.48502702,7
1.159235596656799,6.3376665115356445,5.485257625579834,-1.8918962478637693,0.18661933,0.4718934,7
1.358205795288086,6.250007152557372,5.73465633392334,-1.9453431367874143,0.24312437,0.5015204000000001,7
1.4232105016708374,6.1533241271972665,6.144310474395753,-2.0024161338806152,0.16279559,0.5225952,7
1.4228596687316897,5.966244697570801,6.609288215637207,-2.020251035690308,0.043982297,0.48838675,7
1.4623943567276,5.706343173980713,7.02940559387207,-2.010527849197388,-0.052534413,0.52931476,7
1.5322178602218628,5.526941776275635,7.393311977386475,-1.9841783046722408,-0.07299839999999999,0.5519168000000001,7
1.6106396913528442,5.386834144592285,7.865948677062987,-1.9407241344451904,-0.13439035,0.535118,7
1.7369598150253296,5.2642693519592285,8.273362159729004,-1.869655013084412,-0.102319926,0.52503866,7
1.8317482471466064,5.0891523361206055,8.448330879211426,-1.7912062406539917,0.0021380284,0.50946164,7
1.7720524072647097,4.876612663269043,8.554680824279785,-1.7150137424468994,-0.06597344599999999,0.50915617,7
1.6568074226379397,4.679162979125977,8.693266868591309,-1.6393306255340576,-0.13927728,0.54275376,7
1.649585247039795,4.4419212341308585,8.82385540008545,-1.5686472654342651,-0.3277292,0.48655418,7
1.8176591396331787,4.22261905670166,9.032258987426758,-1.5059388875961304,-0.17806722,0.47494772,7
2.1471266746521,4.110520839691162,9.187602996826172,-1.4429000616073608,0.2312125,0.59406644,7
2.2377855777740483,3.8643817901611333,9.47517204284668,-1.3524603843688965,-0.15974127,0.3747658,7
2.0438363552093506,3.5660016536712646,9.944375991821287,-1.2192490100860596,-0.27275133,0.19608775,7
2.061014413833618,3.43985652923584,10.320446968078613,-1.0746062994003296,-0.087659165,0.34025195,7
2.2459535598754883,3.162104606628418,10.583441734313963,-0.9485991597175598,-0.15332718,0.2837469,7
2.4392459392547607,2.598491907119751,10.70125675201416,-0.8295432329177856,-0.19150625,0.09285152,7
2.592379570007324,1.9844872951507568,10.580245971679688,-0.7161904573440552,-0.23457226,-0.0012217305,7
2.59456467628479,1.538643479347229,10.271632194519043,-0.6275557279586792,-0.14599679999999998,-0.005497787,7
2.547097682952881,1.261511206626892,9.929747581481934,-0.5713809728622437,0.0720821,0.013133603,7
2.5753417015075684,1.0751872062683103,9.72641658782959,-0.5300915241241455,0.08552113,0.046120327,7
2.565399646759033,0.9564464688301086,9.598554611206056,-0.4896432459354401,0.00580322,0.014966198,7
2.5075452327728267,0.8703136444091797,9.468661308288574,-0.449804037809372,0.04550946,-0.055283304000000005,7
2.480682849884033,0.7581812143325806,9.370233535766602,-0.41522279381752014,0.073303826,-0.10567969,7
2.4646975994110107,0.6509909629821777,9.354287147521973,-0.3949779570102692,0.060170225999999986,-0.17898351,7
2.455129146575928,0.6495549082756042,9.377269744873047,-0.38253670930862427,0.0571159,-0.18173242,7
2.4658334255218506,0.6698646545410156,9.427005767822266,-0.3549616932868957,0.027794369,-0.2003638,7
2.495688915252685,0.6004135012626648,9.487439155578613,-0.3186051249504089,-0.038179077,-0.23396139,7
2.495936870574951,0.5005878806114197,9.509492874145508,-0.2803848683834076,-0.044898596,-0.22571471,7
2.461592197418213,0.4547050595283508,9.45095443725586,-0.23886965215206146,0.018020526,-0.17562376,7
2.4283676147460938,0.45010969042778015,9.356561660766602,-0.20116348564624786,0.071776666,-0.1282817,7
2.4229400157928467,0.4703173935413361,9.290267944335938,-0.17165839672088626,0.06750060599999999,-0.14080444,7
2.429656505584717,0.5016186237335205,9.32425594329834,-0.1532922238111496,0.029626964,-0.15057829,7
2.3993492126464844,0.507240355014801,9.39199924468994,-0.13356390595436096,0.019547688,-0.1441642,7
2.3727025985717773,0.5054870843887329,9.407027244567873,-0.10152462124824524,-0.06505715,-0.15057829,7
2.347805976867676,0.5494348406791687,9.355856895446776,-0.07117718458175659,-0.07513642,-0.17195857,7
2.2884082794189453,0.6565741300582886,9.333118438720703,-0.06168406829237937,-0.04917465,-0.17623462,7
2.219266653060913,0.7926102280616759,9.3701753616333,-0.06207234039902688,-0.06352998,-0.15851954,7
2.182140827178955,0.9227220416069032,9.397608757019043,-0.0554005466401577,-0.09865474,-0.14813483,7
2.1774990558624268,1.0114297866821291,9.39907455444336,-0.043839357793331146,-0.17470746,-0.14508049,7
2.179535150527954,1.107526779174805,9.360429763793944,-0.0379820317029953,-0.16829337,-0.1441642,7
2.1857423782348637,1.2635537385940552,9.320557594299316,-0.03977636620402336,-0.09621128,-0.11789699,7
2.2100605964660645,1.4398576021194458,9.295597076416016,-0.0455356314778328,-0.03604105,-0.089491755,7
2.2531697750091557,1.5692039728164673,9.324706077575684,-0.04856415838003159,-0.07849618,-0.06566802,7
2.3204965591430664,1.6314958333969116,9.337761878967283,-0.04465348273515701,-0.044593163,-0.06719518,7
2.4115443229675293,1.6352052688598633,9.289834976196287,-0.0480087585747242,0.06352998,-0.06841691,7
2.4919919967651367,1.5922976732254028,9.232927322387695,-0.06247050687670708,0.09621128,-0.07452556,7
2.547696352005005,1.5121687650680542,9.221900939941406,-0.07747495174407959,0.08307768,-0.07696902,7
2.5624473094940186,1.4176796674728394,9.242010116577148,-0.08492482453584671,0.036651913,-0.084910266,7
2.5442135334014893,1.3249613046646118,9.2423095703125,-0.08485087007284164,0.052534413,-0.08582657,7
2.5141355991363525,1.2443705797195437,9.224084854125977,-0.08089831471443176,0.06811147,-0.060170225999999986,7
2.483620405197144,1.183587670326233,9.205143928527832,-0.07583292573690414,0.076052725,-0.039095376,7
2.4524822235107417,1.1453899145126345,9.20149040222168,-0.0693100169301033,0.05222898,-0.014049901000000002,8
2.418278932571411,1.1339117288589478,9.216931343078613,-0.06193491071462631,0.019242255,0.016187929,8
2.3749094009399414,1.1342202425003052,9.225529670715332,-0.05052042007446289,-0.0076358155,0.038789943,8
2.3315250873565674,1.1367579698562622,9.238496780395508,-0.038001392036676414,-0.0027488936,0.06078109,8
2.2981348037719727,1.1525046825408936,9.247513771057127,-0.026222476735711098,0.008857545999999999,0.06597344599999999,8
2.2892353534698486,1.1751898527145386,9.249049186706543,-0.014745793305337427,0.014966198,0.06352998,8
2.298264265060425,1.2062324285507202,9.257683753967283,-0.007384161464869977,0.008857545999999999,0.051923547,8
2.3057236671447754,1.2302268743515017,9.258108139038086,-0.003898564027622342,0.01282817,0.033292156,8
2.3036577701568604,1.2330179214477541,9.245404243469238,-0.0035290797241032124,0.0076358155,0.010079277,8
2.287775039672852,1.2083441019058228,9.238194465637207,-0.005495210643857718,0.010995574,-0.0015271631,8
2.2770090103149414,1.1946184635162354,9.230266571044922,-0.008433365263044834,0.015882496,-0.0067195175,8
2.2666516304016118,1.1893967390060425,9.228804588317873,-0.010375468991696836,0.01160644,-0.009468411,8
2.2518093585968018,1.1883240938186646,9.22745132446289,-0.011905505321919918,-0.0015271631,0.0018325958,8
2.2369654178619385,1.1995025873184204,9.227736473083496,-0.012244987301528454,-0.015271631,-0.003970624,8
2.228492259979248,1.2171404361724854,9.224985122680664,-0.012824532575905323,-0.019242255,0.008857545999999999,8
2.2228317260742188,1.2439948320388794,9.226883888244627,-0.013937497511506079,-0.011911872,0.008857545999999999,8
2.230386972427368,1.272935390472412,9.238774299621582,-0.014584033749997616,-0.007941248,0.016493361,8
2.2463502883911133,1.293188452720642,9.239148139953613,-0.015186416916549206,-0.00580322,0.022602014,8
2.2729570865631104,1.306262493133545,9.228917121887207,-0.0175543874502182,-0.0009162979,0.010690141499999998,8
2.2975807189941406,1.30277681350708,9.215669631958008,-0.02079645358026028,0.004581489,0.0015271631,8
2.3182318210601807,1.2872045040130615,9.209734916687012,-0.025596670806407932,-0.00030543262000000003,-0.004886922,8
2.3241665363311768,1.275941252708435,9.219364166259766,-0.027514511719346046,0.00030543262000000003,-0.01282817,8
2.3272833824157715,1.268640637397766,9.224162101745604,-0.03045201487839222,0.0030543262,0.0027488936,8
2.3171212673187256,1.2556372880935671,9.231290817260742,-0.032513465732336044,0.007330383,0.02107485,8
2.304835319519043,1.2371327877044678,9.24114227294922,-0.030690580606460568,-0.0027488936,0.029321533,8
2.296208620071411,1.2321548461914062,9.250136375427246,-0.027519015595316887,-0.010690141499999998,0.025350908,8
2.2988831996917725,1.2597548961639404,9.267260551452637,-0.027944225817918774,0.004886922,0.03726278,8
2.3140394687652592,1.2993391752243042,9.281038284301758,-0.040035367012023926,0.008246681,0.035430185,8
2.3323073387146,1.3223177194595337,9.28208827972412,-0.054276704788208015,0.01038471,0.03848451,8
2.347228527069092,1.3371400833129885,9.278002738952637,-0.06718888133764267,0.024740042,0.038789943,8
2.351821184158325,1.328653335571289,9.280240058898926,-0.08526255935430528,0.040317107000000005,0.032375857,8
2.351684093475342,1.2881593704223633,9.272859573364258,-0.10377361625432968,0.032986723,0.013133603,8
2.3478403091430664,1.2223668098449707,9.248953819274902,-0.11388375610113145,0.021991149,0.0076358155,8
2.33263897895813,1.1484912633895874,9.21595573425293,-0.11256043612957,0.0018325958,-0.006414085,8
2.304940700531006,1.086579203605652,9.18984317779541,-0.10464001446962357,0.009773844,-0.009468411,8
2.273592948913574,1.0528126955032349,9.196667671203613,-0.0944024845957756,-0.0030543262,-0.00061086525,8
2.2563512325286865,1.021387815475464,9.206965446472168,-0.08062320947647095,-0.010995574,-0.013439035,8
2.256864309310913,0.987097442150116,9.195043563842773,-0.062364831566810615,-0.026267206,-0.0009162979,8
2.274796724319458,0.9520668983459472,9.158465385437012,-0.038583237677812576,-0.017715093,-0.013744468,8
2.298247814178467,0.9217141270637512,9.121984481811523,-0.009633651934564114,-0.007330383,-0.027183503,8
2.321206569671631,0.9105749130249025,9.115259170532227,0.0220329686999321,0.0015271631,-0.012217305,8
2.352597951889038,0.9988871812820436,9.1926908493042,0.042986057698726654,0.022907447,-0.008552114,8
2.3967525959014893,1.1448205709457395,9.325929641723633,0.026434926316142082,0.004276057,0.0125227375,8
2.425361156463623,1.2066904306411743,9.38895320892334,0.007342962082475424,-0.041233405,0.0290161,8
2.4247307777404785,1.201835870742798,9.322665214538574,0.007655337452888489,-0.042455133,0.022296581,8
2.3965461254119877,1.1978224515914917,9.222541809082033,0.008275498636066914,0.056505036,0.02107485,8
2.365191698074341,1.22062087059021,9.201210021972656,0.0008310741395689548,0.08735373,0.027183503,8
2.3546576499938965,1.255359172821045,9.251277923583984,-0.007426514290273189,-0.010995574,0.028099801,8
2.342901945114136,1.2764341831207275,9.279669761657717,-0.010526556521654127,-0.031154128,0.025045475,8
2.313836574554444,1.2758374214172363,9.250967979431152,-0.010938456282019615,0.016493361,0.018020526,8
2.2779853343963623,1.2632805109024048,9.219367980957033,-0.015133315697312357,0.03604105,0.015271631,8
2.2659928798675537,1.2615439891815186,9.229405403137207,-0.0195087231695652,0.024129177,0.0061086523,8
2.2700085639953613,1.2665234804153442,9.25167179107666,-0.02184315770864487,-0.0061086523,0.0067195175,8
2.281390905380249,1.2708139419555664,9.260154724121094,-0.023826485499739647,-0.004581489,0.0033597588,8
2.2858662605285645,1.2723159790039062,9.255184173583984,-0.02655934914946556,0.004276057,0.008552114,8
2.2970378398895264,1.2629501819610596,9.251458168029783,-0.02895907498896122,0.002443461,0.003970624,8
2.308205366134644,1.2526971101760864,9.246103286743164,-0.03086952678859234,-0.0027488936,-0.00580322,8
2.3217713832855225,1.2486854791641235,9.244402885437012,-0.03137529268860817,-0.00030543262000000003,0.005497787,8
2.330252170562744,1.2485686540603638,9.230148315429688,-0.032895099371671684,0.013133603,0.013744468,8
2.3339240550994877,1.2451387643814087,9.21535587310791,-0.03546864539384842,0.004886922,0.016493361,8
2.3377878665924072,1.2295743227005005,9.208624839782717,-0.036353420466184616,0.007330383,0.01985312,8
2.3383238315582275,1.2155572175979614,9.21393871307373,-0.03412947058677673,0.004276057,0.01985312,8
2.334601163864136,1.2079756259918213,9.222250938415527,-0.03003562241792679,-0.0067195175,0.02687807,8
2.3269753456115723,1.2021998167037964,9.22645092010498,-0.02657363936305046,0.00580322,0.017715093,8
2.321225166320801,1.2001984119415283,9.223712921142578,-0.02376244030892849,0.009162978,0.01863139,8
2.3249080181121826,1.1998080015182495,9.215579986572266,-0.02265850268304348,-0.005192355,0.008857545999999999,8
2.33376407623291,1.2085695266723633,9.20830249786377,-0.022164814174175262,0.0033597588,-0.0012217305,8
2.3427884578704834,1.2256052494049072,9.209660530090332,-0.026024779304862026,0.018936822,-0.0030543262,8
2.34863805770874,1.2361916303634644,9.212677001953123,-0.029588982462883,0.015271631,-0.00061086525,8
2.354525327682495,1.2393044233322144,9.20914077758789,-0.031129481270909313,0.014660766,-0.00061086525,8
2.358999729156494,1.2447102069854736,9.208381652832033,-0.03220230713486672,0.022602014,0.013133603,8
2.358660221099853,1.254631519317627,9.205499649047852,-0.03397039696574211,0.013439035,0.020463986,8
2.3588435649871826,1.2615269422531128,9.213417053222656,-0.03411076962947845,0.007941248,0.02687807,8
2.3534183502197266,1.256824970245361,9.229637145996094,-0.03345801681280136,0.021685716,0.025961773,8
2.34284782409668,1.2505009174346924,9.230603218078613,-0.031688090413808816,0.003970624,0.027183503,8
2.32986831665039,1.2496037483215332,9.22240161895752,-0.030055366456508636,0.010690141499999998,0.015577064,8
2.3246543407440186,1.247571349143982,9.222620010375977,-0.03060588799417019,0.005192355,0.011301007,8
2.322901725769043,1.2467434406280518,9.221895217895508,-0.033087823539972305,0.011301007,0.01038471,8
2.3207156658172607,1.2452569007873535,9.224685668945312,-0.033931951969861984,0.00580322,0.003970624,8
2.318975687026977,1.2425291538238523,9.225117683410645,-0.03352084383368492,0.0027488936,0.0027488936,8
2.3159914016723637,1.2334848642349243,9.219444274902344,-0.033406883478164666,0.008857545999999999,0.0030543262,8
2.322499513626098,1.2235093116760254,9.212891578674316,-0.03365783020853996,-0.007330383,-0.0015271631,8
2.32661771774292,1.2207658290863037,9.22157096862793,-0.032127708196640015,-0.0027488936,0.0076358155,8
2.3291029930114746,1.21843159198761,9.228761672973633,-0.030604060739278793,-0.0021380284,0.011301007,8
2.3359663486480717,1.2204855680465698,9.225804328918457,-0.028531005606055263,-0.008552114,0.01282817,8
2.3484365940093994,1.224339485168457,9.220556259155273,-0.026303034275770187,0.014049901000000002,0.01282817,8
2.358837604522705,1.225814700126648,9.223063468933104,-0.026483995839953426,0.010079277,0.01282817,8
2.360794305801392,1.2310564517974854,9.228260040283203,-0.026464460417628292,0.010079277,0.013439035,8
2.3592708110809326,1.2381243705749512,9.222437858581543,-0.02686157077550888,0.005497787,0.01282817,8
2.3551127910614014,1.240733981132507,9.21099090576172,-0.027606623247265816,0.012217305,0.008246681,8
2.348552703857422,1.2440879344940186,9.211536407470703,-0.027162633836269382,0.01160644,0.009468411,8
2.3436353206634517,1.244584321975708,9.220922470092773,-0.0271719042211771,0.004276057,0.01282817,8
2.336657762527466,1.2436535358428955,9.227983474731444,-0.0281454436480999,-0.0027488936,0.013133603,8
2.333001136779785,1.248711347579956,9.22817325592041,-0.027666272595524788,0.003970624,0.013744468,8
2.3266847133636475,1.2523322105407717,9.227585792541504,-0.028180230408906937,-0.0027488936,0.008246681,8
2.327378511428833,1.2520991563796997,9.227492332458496,-0.028792139142751694,-0.004581489,0.006414085,8
2.330627918243408,1.2543381452560425,9.221521377563477,-0.02882267907261848,0.004886922,0.0143553335,8
2.3322863578796387,1.256408452987671,9.21790885925293,-0.029015500098466877,0.00580322,0.017715093,8
2.335516452789306,1.2489696741104126,9.219178199768066,-0.028851002454757687,0.0009162979,0.006414085,8
2.3410983085632324,1.2272406816482544,9.223281860351562,-0.028466673567891117,-0.0015271631,0.003970624,8
2.350549697875977,1.229350209236145,9.228233337402344,-0.028025094419717792,0.004581489,0.00580322,8
2.3596727848052983,1.2337597608566284,9.223830223083496,-0.028150746598839763,0.0012217305,0.010995574,8
2.3621447086334233,1.2304521799087524,9.22242546081543,-0.029010165482759483,0.011911872,0.00580322,8
2.368227958679199,1.228947997093201,9.226573944091797,-0.029175695031881325,0.008552114,0.011301007,8
2.3705780506134038,1.231306791305542,9.225765228271484,-0.028398681432008743,0.0018325958,0.011911872,8
2.368628740310669,1.2367095947265625,9.22125244140625,-0.027717621996998787,0.0143553335,0.020463986,8
2.364051818847656,1.2439895868301392,9.217819213867188,-0.027780553326010704,0.005192355,0.018936822,8
2.3576581478118896,1.251879334449768,9.20946979522705,-0.027436183765530583,-0.0012217305,0.01863139,8
2.350445032119751,1.258170485496521,9.209712028503418,-0.02701972983777523,0.01160644,0.013439035,8
2.347024917602539,1.2603400945663452,9.2216796875,-0.027802705764770508,0.0036651916,0.015577064,8
2.3499443531036377,1.256780028343201,9.229894638061523,-0.028772946447134018,0.004886922,0.008246681,8
2.3512132167816158,1.2554506063461304,9.230218887329102,-0.02876577153801918,0.0070249503,0.008246681,8
2.3517303466796875,1.2532641887664795,9.231886863708496,-0.02811143361032009,0.006414085,0.0036651916,8
2.348052978515625,1.2502490282058716,9.234977722167967,-0.02776867896318436,-0.00061086525,0.0070249503,8
2.3482089042663574,1.2553625106811523,9.23111343383789,-0.028854645788669583,0.004581489,0.012217305,8
2.347259044647217,1.2571773529052734,9.223011016845703,-0.02898398973047733,-0.00030543262000000003,0.010995574,8
2.3510510921478267,1.2599252462387085,9.22118854522705,-0.028587723150849342,0.010995574,0.0033597588,8
2.3556792736053467,1.2558531761169434,9.220513343811037,-0.02867514453828335,0.007941248,0.008857545999999999,8
2.3566973209381104,1.2477531433105469,9.222826957702637,-0.028326783329248432,0.0070249503,0.008552114,8
2.3584892749786377,1.2388486862182615,9.22721004486084,-0.029180534183979038,0.010079277,0.011911872,8
2.3556137084960938,1.2392480373382568,9.229717254638672,-0.02927152998745441,0.009773844,0.010690141499999998,8
2.3512704372406006,1.2395145893096924,9.232659339904783,-0.02958337403833866,0.010690141499999998,0.0076358155,8
2.344264268875122,1.243032693862915,9.23854160308838,-0.029630843549966805,0.008246681,0.0070249503,8
2.3438374996185303,1.2442339658737185,9.24586582183838,-0.02958248183131218,0.0061086523,0.01282817,8
2.3465983867645264,1.246023178100586,9.243407249450684,-0.029708085581660267,0.0027488936,0.01282817,8
2.344726800918579,1.2492852210998535,9.239400863647461,-0.028435036540031437,0.0015271631,0.0070249503,8
2.3467330932617188,1.2535443305969238,9.242053031921387,-0.02798459492623806,0.01038471,0.016493361,8
2.3445415496826167,1.2491930723190308,9.245309829711914,-0.02820272743701935,0.004886922,0.012217305,8
2.3412282466888428,1.2480368614196775,9.24645709991455,-0.028700586408376694,-0.0036651916,0.005497787,8
2.3372161388397217,1.2473119497299194,9.240281105041504,-0.02732055261731148,0.0030543262,0.0036651916,8
2.341259241104126,1.2447470426559448,9.23300075531006,-0.028022462502121925,0.004581489,0.011911872,8
2.340035915374756,1.2448434829711914,9.22642993927002,-0.02857070229947567,-0.0027488936,0.018020526,8
2.333235502243042,1.245024561882019,9.219806671142578,-0.02738905698060989,-0.004581489,0.014660766,8
2.33293890953064,1.2457823753356934,9.219547271728516,-0.02622019685804844,0.00061086525,0.010995574,8
2.3404860496521,1.2484439611434937,9.215707778930664,-0.02644248679280281,-0.0067195175,0.01282817,8
2.345349073410034,1.2496474981307983,9.20797348022461,-0.02551470138132572,0.0027488936,0.0030543262,8
2.345943689346313,1.2500205039978027,9.200910568237305,-0.02543671987950802,0.0061086523,0.010079277,8
2.34775972366333,1.2503801584243774,9.205041885375977,-0.02633500099182129,0.009773844,0.010995574,8
2.347050189971924,1.253326416015625,9.217522621154783,-0.026485979557037357,0.008857545999999999,0.0033597588,8
2.348140239715576,1.257987380027771,9.220962524414062,-0.025992175564169884,0.0061086523,0.0076358155,8
2.346088171005249,1.263275980949402,9.22248077392578,-0.026035677641630173,0.0061086523,0.013744468,8
