acc_x,acc_y,acc_z,gyro_x,gyro_y,gyro_z,label
0.0,0.0,0.0,0.0,-0.023518313,-0.016187929,1
0.12512044608592987,0.260643869638443,0.045107424259185784,-9.95814480120316e-06,-0.037873644,-0.009468411,1
0.4233904778957367,0.8815491795539856,0.15935185551643372,-0.00032163868308998644,-0.021685716,0.0009162979,1
0.8360442519187927,1.739869236946106,0.3281856775283813,0.00012782397971022874,-0.0009162979,0.004276057,1
1.2978817224502563,2.6999969482421875,0.5286393165588379,0.0007712667575106026,0.009468411,0.016493361,1
1.7544656991958618,3.6542177200317374,0.7120459675788879,0.00034640743979252875,0.005192355,0.008857545999999999,1
2.1722683906555176,4.534585475921631,0.8550939559936523,-0.0006390328053385018,-0.013439035,0.01160644,1
2.535873889923096,5.308493137359619,0.9529326558113098,-0.002008118666708469,-0.0067195175,0.0027488936,1
2.8418498039245605,5.967733860015869,1.0077399015426636,-0.0034103589132428174,0.010690141499999998,0.011911872,1
3.0933403968811035,6.517914772033691,1.0240997076034546,-0.0037411130033433437,0.016493361,0.01160644,1
3.29650616645813,6.971022129058838,1.0075443983078003,-0.004556084983050822,0.0067195175,-0.0012217305,1
3.4584538936614986,7.340996742248535,0.9640721678733826,-0.0053748716600239286,0.016187929,-0.004581489,1
3.585979461669922,7.64143705368042,0.8984899520874023,-0.005800558719784021,0.03268129,0.0021380284,1
3.685165882110596,7.88456392288208,0.8149395585060121,-0.00645475834608078,0.07360926,0.014660766,1
3.760183095932007,8.081601142883299,0.718287467956543,-0.0016669078031554818,0.12186762,0.052839845,1
3.799530029296875,8.251975059509277,0.6297407150268555,0.012737700715661049,0.22785273,0.10720685,1
3.8051156997680655,8.404084205627441,0.5536088943481445,0.037995435297489166,0.35277468,0.15943582,1
3.783486604690552,8.54144287109375,0.4874980747699738,0.07214206457138063,0.46211955,0.1826487,1
3.739880084991455,8.666952133178711,0.4294492602348328,0.11114316433668137,0.5497787,0.16279559,1
3.6784648895263667,8.782995223999022,0.3778653144836426,0.15443356335163114,0.59620446,0.1518,15
3.603203773498535,8.891152381896973,0.3315695524215698,0.20379911363124847,0.5696318,0.13652839,15
3.516613483428955,8.993083000183105,0.28948768973350525,0.2587406039237976,0.35155296,0.112704635,15
3.4208791255950928,9.090033531188963,0.25078511238098145,0.30595529079437256,0.09468412,0.093767814,15
3.317540407180786,9.183131217956543,0.2147497683763504,0.3455215394496918,-0.10567969,0.07849618,15
3.2098572254180913,9.273168563842773,0.1782882809638977,0.3872109651565552,-0.14172074,0.086132,15
3.117682695388794,9.366189956665039,0.09992405772209167,0.4404716491699219,-0.022296581,0.08552113,15
3.044205665588379,9.463357925415039,-0.0256422758102417,0.5102161765098572,0.1554652,0.094989546,15
2.9857468605041504,9.56378173828125,-0.18891920149326324,0.5945917963981628,0.20463985,0.0720821,15
2.9393532276153564,9.666872024536133,-0.38263389468193054,0.687449038028717,0.08368854,0.0076358155,15
2.902650594711304,9.77207088470459,-0.6007018089294434,0.7790876626968384,-0.17562376,-0.09193522,15
2.8737354278564453,9.879057884216307,-0.838598370552063,0.8665816783905029,-0.64476824,-0.22082779,15
2.851070642471313,9.987310409545898,-1.0919415950775146,0.9265164136886596,-1.2565498,-0.39522982,15
2.833437442779541,10.096972465515137,-1.3587969541549685,0.9518287181854248,-2.1129830000000003,-0.593761,15
2.81982970237732,10.2071533203125,-1.63478684425354,0.9912376999855042,-2.300824,-0.795652,15
2.810286283493042,10.312154769897461,-1.9137145280838013,1.0135400295257568,-1.3206906,-0.926988,15
2.81742000579834,10.311408042907717,-2.0958819389343257,0.9246598482131958,-0.34177909999999995,-0.86254174,15
2.8423993587493896,10.192484855651855,-2.1686136722564697,0.8318344354629517,0.37995818,-0.7153232,15
2.8821828365325928,9.975746154785156,-2.1516430377960205,0.7751550674438477,1.0464121,-0.54367006,15
2.93293833732605,9.686089515686037,-2.0661334991455083,0.6855025291442871,0.9431759,-0.42913285,15
2.9933760166168213,9.33252239227295,-1.9222489595413208,0.536659300327301,0.86467975,-0.32406402,15
3.06338119506836,8.91661262512207,-1.7246274948120115,0.2950126528739929,0.98899084,-0.3286455,15
3.141127824783325,8.45028018951416,-1.4836273193359375,0.0415724441409111,1.0604621,-0.41172317,15
3.2228670120239262,7.957125186920166,-1.2162915468215942,-0.1470697522163391,0.77549344,-0.4266894,15
3.3077914714813232,7.442561626434326,-0.9278858304023744,-0.3122764229774475,0.8741482,-0.44012842,15
3.3989274501800537,6.940609455108643,-0.61674964427948,-0.4582609236240387,0.5671884,-0.42363504,15
3.5808370113372803,6.7015886306762695,-0.3790727555751801,-0.5801206827163696,-1.0436633,-0.39278635,15
4.0344343185424805,6.688068866729736,-0.8344114422798157,-0.6365044713020325,-2.6841419,-0.15515977,15
4.643102645874023,6.824848175048827,-1.7187058925628662,-0.7276567816734314,-2.9455922,0.09743301,15
5.206854820251465,7.248206615447997,-2.0731005668640137,-0.7839049100875854,-2.0292943,-0.14141529999999994,15
5.606732368469238,8.31975269317627,-1.405561089515686,-0.72808438539505,-1.3701707,0.05467244,15
5.545037269592285,9.267574310302734,-0.6444096565246582,-0.5361502170562744,-0.77366084,0.3155119,15
4.8928632736206055,9.56620979309082,-0.33349233865737915,-0.19883008301258087,1.4236214,0.6713409,15
3.301826000213623,9.859562873840332,-0.3987550139427185,0.2944323420524597,-1.7922786,0.5180137,15
1.6276501417160034,10.518677711486816,-1.1312389373779297,0.37152329087257385,0.9434814,0.15821409,15
0.6455545425415039,11.398200035095215,-1.5396686792373655,0.48161965608596796,1.9230038,-0.48930305,15
0.463656097650528,11.924968719482422,-1.370845079421997,0.5586774349212646,1.5479325000000002,-0.6719518,15
0.3565609157085419,12.132426261901855,0.3891207277774811,0.3804159462451935,-2.355191,-1.0916162,15
0.7319973111152649,11.494635581970215,0.8062421679496765,0.006194424349814653,-2.6025913,-1.1301007,15
2.1359353065490723,10.294376373291016,-0.13014563918113708,-0.18335728347301486,-0.68539083,-0.8387180000000001,15
3.167210102081299,9.71255874633789,-0.6247234344482422,-0.2258491367101669,-0.9092729,-0.46395215,15
2.9619357585906982,9.907248497009276,-0.8591497540473938,-0.2240099459886551,-0.6203337,-0.47769663,15
2.3722801208496094,10.181154251098633,-1.001971960067749,-0.16968569159507751,-0.46486846,-0.32895094,15
1.983705997467041,10.128357887268066,-1.1400206089019775,-0.11215808987617493,-0.5039638,-0.21380283,15
1.7165850400924685,9.969860076904297,-1.3043068647384644,-0.05868739262223244,-0.34391713,-0.30085114,15
1.3908900022506714,9.704938888549805,-1.398772954940796,0.0052912780083715924,-0.43157628,-0.26297748,15
1.154643416404724,9.354612350463867,-1.4629454612731934,0.06509026885032654,-0.32895094,-0.15057829,15
0.9966254830360411,9.076976776123047,-1.53471839427948,0.12088135629892348,-0.36926803,-0.12186762,15
0.9184544682502748,8.927267074584961,-1.6298296451568604,0.1784154325723648,-0.39675698,-0.08002335,15
0.8715194463729858,8.874345779418945,-1.715230107307434,0.2384720891714096,-0.5412266,-0.089186326,15
0.8741324543952942,8.840766906738281,-1.7923301458358765,0.303034782409668,-0.68325275,-0.11728613,15
0.9500480890274048,8.755637168884277,-1.8113659620285036,0.36260986328125,-0.8784242,-0.122478485,15
1.064885497093201,8.64314079284668,-1.84652042388916,0.4062830209732056,-1.2226468,-0.15027285,15
1.1535146236419678,8.573034286499022,-1.7167181968688965,0.4649195671081543,-1.464244,-0.2302962,15
1.1681605577468872,8.505826950073242,-1.5289912223815918,0.5183109045028687,-1.6465873,-0.35063666,15
1.1605544090270996,8.552343368530272,-1.3556129932403564,0.5767502784729004,-1.6346754,-0.3885103,15
1.1458848714828491,8.645105361938478,-1.0652446746826172,0.6268681287765503,-2.119397,-0.37843102,15
1.1290876865386963,8.801498413085938,-0.8255385756492615,0.6681872010231018,-2.7559185,-0.12614368,15
1.0275638103485107,8.955008506774902,-0.7559306621551514,0.7126157283782959,-2.8179214,0.005192355,15
0.8100720047950745,9.074951171875,-0.7029052376747131,0.7612178921699524,-2.6923885,-0.06872234,15
0.4667276442050934,9.19569206237793,-0.6269508600234985,0.7644593119621277,-2.4153612,-0.02076942,15
0.05533784627914429,9.318799018859863,-0.6747478246688843,0.7484766840934753,-1.9465221,0.10354166,15
-0.3957209289073944,9.39639949798584,-0.9290912747383118,0.7507387399673462,-1.0876455,-0.015577064,15
-1.0078914165496826,9.332905769348145,-1.2426587343215942,0.7801006436347961,-0.47158796,-0.42332962,15
-1.625977635383606,9.251317977905273,-1.663346529006958,0.8068416118621826,-0.18295415,-0.48441613,15
-1.5840286016464231,9.21784782409668,-2.3662147521972656,0.8748401403427124,0.34391713,-0.30695978,15
-1.1929420232772827,9.060160636901855,-2.992079257965088,0.9715166091918944,0.23945917,-0.364992,15
-0.4712334275245666,8.931756019592285,-3.6154301166534415,1.0154649019241333,-0.58001655,-0.07849618,15
0.06514111906290054,8.572834968566895,-4.334807872772217,1.0403012037277222,-0.55771995,-0.2941316,15
0.6195248961448669,8.274651527404785,-4.6201043128967285,1.035651922225952,-1.3356569,-0.3042109000000001,15
0.7817711830139159,8.112567901611326,-4.67146635055542,1.0084078311920166,-1.8145752,-0.6435465,15
0.7402999401092529,8.058159828186035,-4.689680576324463,0.9525738954544068,-1.5683966,-0.30543262,15
0.49186056852340704,8.119504928588867,-4.977375507354736,0.988408386707306,-1.2055426,-0.3726278,15
0.3844082355499268,8.359122276306152,-5.192789554595947,0.9936369061470032,-1.563815,-0.4709771,15
0.3155194222927093,8.649714469909668,-5.453829765319824,0.9930288791656494,-1.2852604,-0.32742378,15
0.10734642297029497,8.717175483703612,-5.620794773101807,0.9848490953445436,-1.2421945,-0.3145956,15
-0.07574038952589035,8.578418731689451,-5.883951663970947,0.9531901478767396,-0.97219205,-0.47861293,15
-0.3012541234493256,8.377087593078612,-6.2680110931396475,0.9110136628150941,-0.6881397,-0.63224554,15
-0.5205802917480469,8.239383697509767,-6.637980937957764,0.8840130567550659,-0.24801129,-0.6062838,15
-0.6581526398658752,8.182947158813478,-7.020457267761231,0.8780241608619691,-0.1441642,-0.5522222,15
-0.6882088780403137,8.1754150390625,-7.470158576965332,0.8704806566238403,0.10903945,-0.5992588000000001,15
-0.6220523118972778,8.106351852416992,-7.8721961975097665,0.9091944098472596,0.38606682,-0.5720753000000001,15
-0.44788727164268494,7.88480806350708,-7.945844650268555,0.9327275156974792,-0.3387248,-0.57543504,15
-0.5464664697647095,7.525511741638184,-7.8319573402404785,0.8861516714096069,-0.79443026,-0.9636399,15
-0.9750329852104188,7.236366271972656,-7.847916126251222,0.8562666773796082,-0.15332718,-1.0216721,15
-1.3774577379226685,6.91550350189209,-7.96197509765625,0.891031801700592,0.16829337,-0.8772025,15
-1.658313512802124,6.495412826538086,-8.058671951293945,0.9493429064750672,0.13255776,-0.95111716,15
-1.937320709228516,6.083792686462402,-8.19464111328125,0.9902641773223876,-0.08460484,-1.2592987,15
-2.348849296569824,5.680249214172362,-8.468208312988281,1.0088722705841064,-0.5671884,-1.3775011,15
-2.7823078632354736,5.438609600067139,-8.737160682678223,0.9978790879249572,-1.314582,-1.4712689,15
-3.0846142768859863,5.327667713165283,-8.958069801330566,0.9926295876502992,-1.3381003,-1.5387696000000002,15
-3.387689113616944,5.297240734100342,-9.14402675628662,1.0340923070907593,-1.0613784,-1.7192802,15
-3.924747228622437,5.3434786796569815,-9.176468849182127,1.1078987121582031,-0.87781334,-1.6960673,15
-4.592820644378662,5.400074005126953,-9.052948951721193,1.1704283952713013,-0.65087694,-1.4618006,15
-5.192750930786133,5.4207425117492685,-8.858359336853027,1.1878259181976318,-0.5742133,-1.5100589,15
-5.643229961395264,5.370630741119385,-8.631098747253418,1.1553133726119995,-0.54000485,-1.4373659,15
-6.113002300262451,5.208120822906494,-8.33308219909668,1.1212159395217896,-0.6310238,-1.5659530000000002,15
-6.633055686950684,4.956781387329102,-8.220831871032715,1.0494004487991333,-0.6075055,-1.7003433999999995,15
-7.091898918151856,4.711887836456299,-8.235901832580566,0.9886873960494996,-0.56077427,-1.6856827,15
-7.474650859832764,4.380897521972656,-8.262619018554688,0.9741687178611756,-0.2843578,-1.636508,15
-7.708882808685303,3.9026155471801762,-8.193344116210938,0.9717406034469604,-0.37659842,-1.7644843,15
-7.791119575500487,3.432499408721924,-8.070441246032715,0.9507265686988832,-0.593761,-1.9538525,15
-7.618700981140138,2.9330978393554688,-7.905155658721924,0.8976514935493469,-0.9092729,-2.1099286,15
-7.234148025512695,2.5156352519989014,-7.793088912963867,0.8240199685096741,-1.2892311,-1.9303342,15
-6.892414093017577,2.0958509445190434,-7.716529846191406,0.7167792320251465,-1.2837333999999998,-1.9401081,15
-6.761409282684326,1.6672705411911009,-7.650982856750487,0.598114013671875,-1.1600331,-2.2085834,15
-6.8025574684143075,1.3356326818466189,-7.492311954498291,0.5106313824653625,-0.9593639000000002,-2.198504,15
-6.814990997314452,1.1202832460403442,-7.308459758758545,0.4360100030899048,-0.8155051,-2.2840252,15
-6.7366132736206055,0.9074698686599731,-7.1717634201049805,0.3756641745567322,-0.50579643,-2.3432791,15
-6.535593032836914,0.5390152931213379,-6.975229740142822,0.34188270568847656,-0.37018433,-2.047315,15
-6.439503192901611,0.024449028074741364,-6.763854503631593,0.3341522514820099,-0.32620203,-1.9181169,15
-6.364825248718263,-0.3868495225906372,-6.516617774963379,0.33095583319664,-0.46181414,-1.7486018,15
-6.264410972595215,-0.7472513318061829,-6.324411869049072,0.3300265371799469,-0.6075055,-1.6462818,15
-6.052012920379639,-1.161508560180664,-6.1933045387268075,0.3224826753139496,-0.59528816,-1.5384641,15
-5.809762001037598,-1.5330493450164795,-6.075103759765625,0.3161594271659851,-0.50915617,-1.4184291,15
-5.57574987411499,-1.857999444007873,-5.93941593170166,0.2998368442058563,-0.30818152,-1.1774428,15
-5.4389305114746085,-2.1409254074096684,-5.862800121307372,0.2723181843757629,-0.34422258,-1.001819,15
-5.287514686584473,-2.415179967880249,-5.788804531097412,0.25125652551651,-0.32650748,-0.8191703,15
-5.080284118652344,-2.9097557067871094,-5.56737232208252,0.21616455912590027,-0.31306845,-0.50335294,15
-4.872605323791504,-3.4914743900299072,-5.303136348724365,0.1445883810520172,-0.34513888,-0.21319197,15
-4.717336177825928,-3.9323303699493413,-5.056620597839356,0.06358886510133742,-0.16401732,0.11362094,15
-4.6885762214660645,-4.347438335418701,-4.736238956451416,-0.03122931160032749,-0.025961773,0.54092115,15
-4.720993518829347,-4.725728511810303,-4.415255069732666,-0.16995862126350406,0.076052725,0.8170323,15
-4.809159755706787,-4.824313163757324,-4.224216938018799,-0.3261348307132721,0.25167647,0.9456194,15
-5.036783218383789,-4.489660263061523,-4.300434112548828,-0.4715014696121216,0.61636305,0.8378017,15
-5.255775451660156,-3.9729316234588623,-4.522354602813722,-0.5799500942230225,1.3292428,0.61391956,15
-5.448410511016847,-3.5688118934631348,-4.706483364105225,-0.6670973896980286,1.239751,0.535118,15
-5.6810264587402335,-3.3952412605285645,-4.958812713623047,-0.7733080983161926,1.2544118,0.43982297,15
-5.9425597190856925,-3.2851808071136475,-5.125626564025879,-0.9414801001548768,0.60139686,0.42455134,15
-6.14365291595459,-3.062840700149536,-5.487175464630127,-1.1295548677444458,0.11728613,0.46028697,15
-6.248137950897218,-2.6821446418762207,-5.976798534393311,-1.2936582565307615,-0.02076942,0.33414328,15
-6.215424060821532,-2.273021936416626,-6.592854022979736,-1.386746883392334,-0.1020145,0.37048978,15
-6.2133545875549325,-1.981545209884644,-7.23824405670166,-1.401633858680725,-0.016798794,0.57787853,15
-6.277003765106201,-1.6610993146896362,-7.779719352722168,-1.377802491188049,-0.36743546,0.63591075,15
-6.368269443511963,-1.278717041015625,-8.239812850952147,-1.3051522970199585,-0.44776422,0.45356745,15
-6.4531731605529785,-0.8070322871208191,-8.730556488037111,-1.1742045879364014,-0.5531385,0.24404067,15
-6.464913845062256,-0.5432071089744568,-8.989577293395996,-0.9732968211174012,-0.7846564,0.23548855,15
-6.348042964935303,-0.5180598497390747,-8.89085865020752,-0.8085533976554871,-0.34697145,0.3811799,15
-6.224837303161621,-0.4291861951351166,-8.634860992431639,-0.6180850267410278,-0.18295415,0.23151793,15
-6.132033824920653,-0.10416485369205476,-8.430981636047362,-0.37549275159835815,-0.029932396,0.16065755,15
-6.186988353729247,0.33378517627716064,-8.318986892700195,-0.1425509750843048,0.33628133,0.31734450000000003,15
-6.486874103546143,0.7216459512710571,-8.075679779052733,0.03771799802780152,0.3390302,0.49693888,15
-6.842949390411378,1.0057741403579712,-7.687553882598878,0.16330002248287198,0.5112942,0.49877146,15
-7.193638324737549,1.1092524528503418,-7.2449707984924325,0.26373329758644104,0.50426924,0.35094208,15
-7.535242557525635,1.0589097738265991,-6.836000919342041,0.3427717983722687,0.18692477,0.29718593,15
-7.798751354217528,0.8632267713546753,-6.56644344329834,0.3894140422344208,-0.13133603,0.29352075,15
-7.945418834686278,0.5055745840072632,-6.515756607055664,0.4075300097465515,-0.26847526,0.23548855,15
-8.017775535583496,0.09060366451740264,-6.605986595153809,0.3984414041042328,-0.23915374,0.16829337,15
-7.962368488311768,-0.2126162052154541,-6.700227737426758,0.3536166846752167,-0.24770586,0.12308934,15
-7.789787292480469,-0.3615165054798126,-6.804035186767577,0.2863005101680756,-0.31337386,0.0061086523,15
-7.5442137718200675,-0.4327170252799988,-6.964543342590332,0.21403256058692927,-0.17256944,0.016187929,15
-7.2789368629455575,-0.5335680246353149,-7.12445592880249,0.16658499836921692,0.10293079,0.03634648,15
-7.052011966705322,-0.6457477211952211,-7.224658012390138,0.15423940122127533,0.2782491,0.100792766,15
-6.875000476837157,-0.7049436569213867,-7.272887706756593,0.17342689633369446,0.38148534,0.14508049,15
-6.734508991241455,-0.6798243522644043,-7.238480567932129,0.1895277351140976,0.24770586,0.17837265,15
-6.67772102355957,-0.5598611831665039,-7.178864002227782,0.1788099706172943,0.122478485,0.18051068,15
-6.661237239837647,-0.40236932039260864,-7.144495964050293,0.13833549618721008,-0.03390302,0.16065755,15
-6.660069942474365,-0.2577970921993256,-7.1322855949401855,0.08425577729940414,-0.122783914,0.16920967,15
-6.677762985229492,-0.1651839017868042,-7.11793851852417,0.03735065460205078,-0.10415252,0.19517145,15
-6.711709022521973,-0.15538020431995392,-7.0471696853637695,0.003815392497926951,-0.13225232,0.19700404,15
-6.70128870010376,-0.222722128033638,-6.969695568084718,-0.011251164600253105,0.018325957,0.23640485,15
-6.63507604598999,-0.3041089773178101,-6.95347785949707,-0.0008752107969485222,0.18051068,0.24953845,15
-6.564553737640381,-0.3392384946346283,-6.997901439666747,0.02668177150189877,0.31703907,0.2929099,15
-6.547144889831543,-0.3276089429855347,-7.113728046417236,0.07434777170419693,0.33994650000000004,0.24556783,15
-6.586822032928468,-0.29621613025665283,-7.229780673980713,0.13728781044483185,0.25595254,0.28741209999999995,15
-6.672828197479247,-0.22888822853565216,-7.290424823760986,0.18884015083312988,0.07299839999999999,0.25625798,15
-6.775922775268555,-0.19750674068927765,-7.206192016601562,0.21270710229873654,0.032070424,0.2883284,8
-6.837754726409912,-0.2154241651296616,-7.097729206085205,0.19412754476070404,-0.036651913,0.24312437,8
-6.8432793617248535,-0.2538030743598938,-7.012115478515625,0.16059592366218567,-0.04550946,0.23518312,8
-6.83770227432251,-0.27853497862815857,-6.9826927185058585,0.12767945230007172,-0.016493361,0.21044308,8
-6.833425045013428,-0.25695210695266724,-6.9913878440856925,0.0885535329580307,-0.13072516,0.08735373,8
-6.835352897644043,-0.18644072115421292,-7.017024517059326,0.03753116354346275,-0.025045475,0.17379116,8
-6.758800983428955,-0.0572894811630249,-7.048501014709473,0.012441161088645458,-0.04886922,0.33841935,8
-6.661962032318115,0.02104005217552185,-7.108292579650879,0.020072897896170616,-0.18173242,0.24465153,8
-6.665037631988525,0.04673150926828384,-7.16208028793335,0.035365182906389236,-0.18875736,0.18753563,8
-6.725536823272705,0.05608071014285088,-7.18348503112793,0.03900623694062233,-0.15882497,0.20799962,8
-6.792877197265625,0.049010436981916435,-7.182779788970947,0.03076268173754215,-0.14691310000000002,0.21533,8
-6.85056734085083,0.028555523604154587,-7.168059825897218,0.023513734340667725,-0.1441642,0.19761491,8
-6.9003844261169425,0.011656433343887327,-7.1432695388793945,0.0190545991063118,-0.15027285,0.15515977,8
-6.914077758789063,0.02649493329226971,-7.153247356414795,0.015106462873518469,-0.13041973,0.19364429,8
-6.934201240539551,0.04768889769911766,-7.175868511199951,0.010930519551038742,-0.027794369,0.13316862,8
-6.9318437576293945,0.08291281014680862,-7.1933045387268075,0.01605924591422081,-0.0012217305,0.08277224,8
-6.90887975692749,0.1221005991101265,-7.179604530334473,0.023440852761268616,-0.0021380284,0.0693332,8
-6.894236087799072,0.15803448855876925,-7.140440940856934,0.027729379013180733,0.005497787,0.07788532,8
-6.896851062774657,0.2047283500432968,-7.099763870239258,0.029761279001832012,0.0009162979,0.10048734,8
-6.910527229309082,0.23470692336559296,-7.065242290496826,0.03022738359868526,-0.028405234,0.09040806,8
-6.921139717102051,0.2615155279636383,-7.046760082244872,0.02826473489403725,-0.05497787,0.06719518,8
-6.9436073303222665,0.28865382075309753,-7.044514656066895,0.02487780526280403,-0.058337633,0.0571159,8
-6.972678661346436,0.30206868052482605,-7.047474384307861,0.020838793367147446,-0.04337143,0.043066,8
-6.989238262176514,0.31003883481025696,-7.038895606994629,0.01623622514307499,-0.036957346,0.029932396,8
-7.012038707733153,0.3040032386779785,-7.028679847717285,0.01033750921487808,-0.025045475,0.018020526,8
-7.0336527824401855,0.2771768271923065,-7.0157647132873535,0.0034819513093680143,-0.008552114,0.010995574,8
-7.027246952056885,0.25569236278533936,-7.013160705566406,-0.002620882820338011,0.010079277,0.0036651916,8
-7.011499881744385,0.2586077451705933,-7.027449607849121,-0.005530546419322491,0.025045475,-0.004581489,8
-6.992554187774657,0.2838892340660095,-7.054701328277588,-0.0049508512020111075,0.063224554,0.00580322,8
-6.971376895904541,0.3011157810688019,-7.0679969787597665,-0.0016224555438384414,0.033292156,-0.013439035,8
-6.953544616699219,0.3050556778907776,-7.0682311058044425,0.003885212820023298,0.04550946,-0.014966198,8
-6.9348697662353525,0.2996964752674103,-7.084940433502197,0.012147868983447552,0.057421334,0.0018325958,8
-6.908291816711426,0.2701352536678314,-7.101940155029298,0.02364431507885456,0.09162979,0.0067195175,8
-6.877011775970459,0.2655606865882873,-7.077157497406006,0.03789996728301048,0.05100725,-0.0036651916,8
-6.8482747077941895,0.2542750239372253,-7.0374083518981925,0.03844064846634865,-0.0033597588,-0.009468411,8
-6.8200364112854,0.2338799834251404,-7.018678188323975,0.027940280735492703,-0.021685716,0.021685716,8
-6.820226192474365,0.2221236675977707,-7.012885570526122,0.0130416639149189,-0.018020526,-0.0021380284,8
-6.820298194885254,0.2201351821422577,-7.035874366760254,0.0018492862582206726,-0.048258353,0.0030543262,8
-6.8176093101501465,0.2266643047332764,-7.064377307891847,0.00015293889737222344,-0.03145956,0.022907447,8
-6.823909282684326,0.2300068438053131,-7.071256637573242,-0.005124863237142563,-0.050701816,0.03023783,8
-6.8271522521972665,0.23173731565475464,-7.065495491027832,-0.009459766559302809,-0.046120327,0.021991149,8
-6.830555438995361,0.2433484196662903,-7.08414888381958,-0.011073357425630093,-0.014049901000000002,0.015577064,8
-6.8409690856933585,0.24878038465976715,-7.109056949615479,-0.005348376929759979,-0.0036651916,0.035430185,8
-6.854859828948975,0.2521295249462128,-7.1222896575927725,0.005007193423807621,0.015577064,0.023823744,8
-6.867844104766847,0.2622162103652954,-7.108323097229004,0.015085438266396524,0.0076358155,0.012217305,8
-6.874165058135986,0.2514075040817261,-7.074616432189941,0.014839035458862782,-0.0027488936,-0.003970624,8
-6.8706626892089835,0.2420683950185776,-7.0561203956604,0.010727508924901484,0.0009162979,0.0061086523,8
-6.875104427337647,0.24132874608039856,-7.049856662750244,0.00443902425467968,-0.0027488936,-0.008246681,8
-6.8785247802734375,0.2431827187538147,-7.052690029144287,-0.0006489588995464146,-0.023518313,-0.025350908,8
-6.8766117095947275,0.2312012761831284,-7.066781997680664,-0.006284425500780344,-0.0015271631,-0.006414085,8
-6.860870361328125,0.2321333587169647,-7.082170486450195,-0.006941302679479122,0.004581489,0.014049901000000002,8
-6.856534004211426,0.2415336221456528,-7.075852870941162,-0.005078874994069339,-0.017715093,0.0015271631,8
-6.857725143432617,0.25045356154441833,-7.077733516693115,-0.006070003379136324,-0.01038471,0.0061086523,8
-6.85916805267334,0.2542934715747833,-7.097940921783447,-0.006053083576261997,0.005192355,0.009773844,8
-6.868032932281494,0.24619632959365845,-7.114123821258545,-0.0016045529628172515,0.02565634,0.0033597588,8
-6.8765740394592285,0.2438258677721024,-7.113742351531982,0.0065522389486432076,0.024129177,0.013744468,8
-6.883063316345215,0.24964694678783414,-7.086724281311035,0.01053525786846876,-0.00061086525,0.0021380284,8
-6.879739284515381,0.2484351098537445,-7.062931537628174,0.006937805097550154,-0.006414085,0.009162978,8
-6.872596740722656,0.25272274017333984,-7.049651145935059,0.001893051667138934,-0.004276057,0.00030543262000000003,8
-6.887252807617188,0.2514761090278625,-7.032029151916504,-0.008600218221545221,-0.043066,-0.024740042,8
-6.903942108154298,0.2493757903575897,-7.041447639465332,-0.015651468187570572,-0.04153884,-0.028405234,8
-6.894336223602295,0.23629751801490784,-7.0698509216308585,-0.019794801250100136,-0.003970624,0.0015271631,8
-6.870101451873778,0.2385270893573761,-7.085045337677003,-0.016821837052702904,0.013133603,0.013439035,8
-6.860818862915039,0.2387145608663559,-7.085541725158691,-0.0132307019084692,0.0012217305,-0.011911872,8
-6.859260082244872,0.240757629275322,-7.090372085571289,-0.010859369300305843,0.013133603,-0.008246681,8
-6.846333026885986,0.24157899618148804,-7.100381851196289,-0.0064481538720428935,0.021991149,0.004886922,8
-6.834396839141847,0.2320591658353805,-7.107859134674072,0.0010767364874482157,0.02076942,0.013133603,8
-6.8242669105529785,0.227751225233078,-7.101654529571532,0.00946702528744936,0.0033597588,0.009162978,8
-6.824587345123291,0.21976903080940247,-7.07683801651001,0.00806670542806387,-0.029932396,0.007330383,8
-6.8280906677246085,0.2163096517324448,-7.062836647033691,0.002494253916665912,-0.03481932,0.022602014,8
-6.833543300628662,0.223423033952713,-7.051437377929688,-0.0035618401598185296,-0.028710667,0.02443461,8
-6.849677085876465,0.2234196960926056,-7.051297664642334,-0.009605507366359234,-0.04917465,0.0036651916,8
-6.8593854904174805,0.2189529538154602,-7.065274715423584,-0.010005001910030842,-0.013744468,0.023518313,8
-6.858396053314209,0.21839539706707,-7.076916217803955,-0.008487658575177194,-0.016187929,0.046120327,8
-6.860114574432372,0.2296759337186813,-7.072131633758545,-0.005767687689512968,-0.0125227375,0.019547688,8
-6.8632683753967285,0.2380492091178894,-7.072446823120117,-0.00599709153175354,-0.008552114,0.01282817,8
-6.865801811218263,0.239254429936409,-7.088518142700195,-0.002482016105204821,0.009773844,0.025045475,8
-6.870815753936768,0.23829400539398196,-7.100926876068115,0.005122967530041933,0.023518313,0.018325957,8
-6.879537582397461,0.2382640689611435,-7.084582805633545,0.008912017568945885,0.016493361,0.0070249503,8
-6.8767948150634775,0.2336980700492859,-7.0696210861206055,0.008970026858150959,0.012217305,0.013744468,8
-6.87795352935791,0.2320360243320465,-7.064396381378174,0.007943502627313137,0.01985312,-0.00030543262000000003,8
-6.88701868057251,0.2371736615896225,-7.0677552223205575,0.005005407612770796,-0.011301007,-0.009162978,8
-6.891862392425537,0.24093635380268094,-7.072219371795653,0.002911021932959557,-0.008857545999999999,-0.01160644,8
-6.883997440338135,0.2299007177352905,-7.070243835449219,-0.00011584565072553232,-0.020463986,-0.004581489,8
-6.866535186767577,0.2195044755935669,-7.075671195983888,-0.0025941182393580675,-0.0030543262,-0.0030543262,8
-6.863187789916992,0.22001786530017853,-7.084738254547119,-0.003655271138995886,-0.009162978,-0.0036651916,8
-6.868852615356445,0.21942703425884247,-7.086395263671875,-0.004805139731615782,-0.014049901000000002,-0.008857545999999999,8
-6.8767337799072275,0.215008407831192,-7.082533836364746,-0.006696538534015417,-0.011301007,0.004886922,8
-6.8749680519104,0.21408073604106906,-7.078382015228272,-0.0074562388472259045,-0.007941248,0.0036651916,8
-6.87001895904541,0.2132212519645691,-7.071506977081299,-0.007317605428397655,-0.004276057,0.0070249503,8
-6.868560314178468,0.21258509159088132,-7.067653179168701,-0.007688018959015608,-0.011301007,0.0070249503,8
-6.863816261291504,0.22017298638820648,-7.068009376525879,-0.007113168016076087,-0.0070249503,0.01282817,8
-6.864500999450684,0.23010003566741946,-7.063515663146973,-0.006106187589466572,-0.016187929,0.007941248,8
-6.867636203765869,0.2329305410385132,-7.062617778778076,-0.004853602033108473,-0.0027488936,-0.002443461,8
-6.870572090148926,0.2329458296298981,-7.061576843261719,-0.004691274370998144,-0.0125227375,0.0033597588,8
-6.871774196624756,0.2357765436172485,-7.064783573150635,-0.003881578333675861,-0.0015271631,0.0018325958,8
-6.873497009277344,0.2401442378759384,-7.073209285736084,-0.0045807287096977225,-0.004276057,-0.01160644,8
-6.873141765594482,0.24266354739665985,-7.070849895477295,-0.005303937010467053,-0.0009162979,-0.014049901000000002,8
-6.869139194488525,0.2421028465032577,-7.0654778480529785,-0.005075132939964533,-0.0009162979,-0.002443461,8
