acc_x,acc_y,acc_z,gyro_x,gyro_y,gyro_z,label
0.0,0.0,0.0,0.0,-0.050396383,0.004581489,1
0.006779760587960482,0.2863171100616455,-0.02188423089683056,-0.0010668350150808694,-0.05100725,0.010995574,1
0.023394055664539337,0.9688093066215516,-0.07369370013475418,-0.004795052111148834,-0.056199603,0.0067195175,1
0.04709508642554283,1.912960767745972,-0.14480362832546234,-0.009996477514505386,-0.047036625,0.003970624,1
0.07453729212284088,2.9698522090911865,-0.22368976473808289,-0.015451380982995032,-0.036957346,0.0012217305,1
0.10284698754549026,4.019698143005371,-0.3012256920337677,-0.018779722973704338,-0.040011674,0.007330383,1
0.13008514046669006,4.98725700378418,-0.3717839121818543,-0.020847717300057408,-0.04184427,0.011301007,1
0.1552165299654007,5.836715698242188,-0.4327740073204041,-0.024062374606728557,-0.04734206,0.0036651916,1
0.17785099148750305,6.559182643890381,-0.4836573600769043,-0.029228754341602325,-0.034208454,0.008552114,1
0.19799764454364774,7.160970687866211,-0.5250266194343567,-0.035991452634334564,-0.037873644,0.003970624,1
0.21586695313453674,7.6553993225097665,-0.5579822063446045,-0.045562919229269035,-0.036957346,-0.0012217305,1
0.2317493706941605,8.057924270629883,-0.5837646722793579,-0.05597729235887528,-0.049480084,-0.003970624,1
0.24594275653362274,8.383601188659668,-0.6035708785057068,-0.0704638659954071,-0.02107485,-0.017104227,1
0.25872164964675903,8.645955085754395,-0.6184703707695007,-0.0811857134103775,-0.004886922,-0.02076942,1
0.27035433053970337,8.85659122467041,-0.6293554306030273,-0.0832451805472374,0.027794369,-0.018020526,1
0.2810271084308624,9.025263786315918,-0.6370067000389099,-0.07461990416049957,0.014049901000000002,-0.028710667,1
0.2909277677536011,9.15999698638916,-0.642038881778717,-0.0670851320028305,-0.011301007,-0.030543262,1
0.300205796957016,9.267346382141113,-0.6449577808380127,-0.06944907456636429,-0.06078109,-0.026267206,1
0.3098561465740204,9.352134704589844,-0.6468586325645447,-0.07595762610435486,-0.041233405,-0.025045475,1
0.3248801529407501,9.41585636138916,-0.6518915891647339,-0.07420197129249573,0.053450707,-0.008552114,1
0.3450701236724853,9.462150573730467,-0.6600890159606934,-0.06686610728502274,0.10140363,0.0009162979,1
0.3693603277206421,9.494464874267578,-0.6708033680915833,-0.06654476374387741,0.061391957,0.01985312,1
0.3969920575618744,9.515517234802246,-0.6835642457008362,-0.0728401318192482,0.059864793,0.0012217305,15
0.427257239818573,9.527551651000977,-0.6979431509971619,-0.08389023691415788,0.011911872,-0.08857546,15
0.4596599638462066,9.532327651977539,-0.713633120059967,-0.091436967253685,0.0061086523,-0.1328632,15
0.4937962591648102,9.531261444091797,-0.7303847074508667,-0.09253666549921036,0.11148291,-0.15424347,15
0.5292949080467224,9.525522232055664,-0.7479737401008606,-0.07440073788166046,0.14813483,-0.13347405,15
0.5659863948822021,9.515968322753906,-0.76628577709198,-0.0359039269387722,0.11789699,-0.14782938,15
0.608977735042572,9.507085800170898,-0.7763482928276062,0.010758411139249802,0.030848695,-0.20311269,15
0.7067214846611023,9.530789375305176,-0.7424259781837463,0.05352596938610077,0.043676864,-0.24862215,15
0.9036352038383484,9.577089309692383,-0.6795479655265808,0.08313354849815369,0.20433442,-0.24831672,15
1.1345574855804443,9.619937896728516,-0.5088521838188171,0.09430635720491408,0.39675698,-0.2443461,15
1.3665988445281982,9.684789657592773,-0.21537503600120544,0.08720673620700836,0.52534413,-0.20891592,15
1.6378817558288574,9.79065227508545,0.12944845855236053,0.07228036224842073,0.6872234,-0.19700404,15
1.947549104690552,9.848565101623537,0.3816339671611786,0.0437033548951149,0.73853606,-0.16890424,15
2.172210454940796,9.891507148742676,0.5530909895896912,0.0050008539110422134,0.91415983,-0.1600467,15
2.2659356594085693,9.968219757080078,0.7209435105323792,-0.03761138394474983,1.1371256,-0.115453534,15
2.2538113594055176,10.09031581878662,0.9921804666519164,-0.09419787675142287,1.2455542,-0.02321288,15
2.145865201950073,10.167667388916016,1.4028332233428955,-0.184027761220932,1.219287,0.124311075,15
2.0534288883209233,10.138131141662598,1.8160479068756104,-0.3443002700805664,1.3432927,0.26816985,15
2.1807565689086914,10.157894134521484,1.9748413562774656,-0.6333085894584656,1.3634512,0.6236934000000001,15
2.51676344871521,10.394158363342283,1.8140565156936648,-1.0141537189483645,1.4899003999999998,0.9392053,15
2.6862409114837646,10.936776161193848,1.6709601879119873,-1.4254029989242554,1.5903877,1.0931433000000002,15
2.2998242378234863,11.566165924072266,1.449177622795105,-1.7970426082611084,1.9883664,1.2244794,15
1.3677334785461426,11.906968116760256,0.9304224848747252,-1.9914321899414065,1.6588044999999998,1.2797627,15
0.7416640520095825,12.084030151367188,0.7521069645881653,-1.972320318222046,0.11789699,1.3924674,15
1.207801342010498,12.288322448730467,1.0684149265289309,-1.7941287755966189,-0.0125227375,1.7812830000000002,15
1.5758129358291626,12.001011848449707,0.9596044421195984,-1.6106362342834473,1.2336423,1.7513506,15
1.6573469638824463,11.159465789794922,0.6606898903846741,-1.4541020393371582,1.9110919,1.5097535,15
1.6030489206314087,10.121999740600586,0.6275705099105835,-1.3055171966552734,1.5815301000000002,1.1420126,15
1.360133171081543,9.10615348815918,0.7298227548599243,-1.1485286951065063,1.0842858999999998,0.7761043000000001,15
0.962751805782318,8.250205039978027,0.7702247500419617,-0.9756221175193788,1.026559,0.2910773,15
0.5109120607376099,7.630339622497559,0.7953944802284241,-0.7911900877952576,1.1426234,-0.048258353,15
-0.05744200572371482,7.16193437576294,1.0016660690307615,-0.6165708303451538,0.72265357,-0.17256944,15
-0.5665239691734314,6.939364910125732,1.418038010597229,-0.4695334136486054,-0.21288654,-0.099571034,15
-0.8248615860939026,6.976483345031737,1.9325250387191768,-0.324313759803772,-0.6081163,-0.06352998,15
-0.4653264582157135,7.0512471199035645,2.4918222427368164,-0.2020963728427887,-0.5375614000000001,0.019547688,15
0.5262015461921692,7.154591083526611,3.08931040763855,-0.13681010901927948,-0.58459806,0.22479841,15
1.6574403047561646,7.291887283325195,3.4311249256134038,-0.12823884189128876,-0.8426886,0.3359759,15
2.327331781387329,7.432141780853271,3.412257671356201,-0.1328880488872528,-0.72784597,0.29871312,15
2.577705383300781,7.571560859680176,3.3953444957733154,-0.12293067574501038,-0.36377025,0.267559,15
2.487175941467285,7.543217658996582,3.501541376113892,-0.09668689221143724,0.16249016,0.0983493,15
2.1230227947235107,7.446616172790527,3.7515981197357178,-0.043032191693782806,0.09987647,-0.21380283,15
1.5249346494674685,7.927750110626222,3.9980814456939697,-0.014436209574341776,-0.29901853,-0.54305923,15
0.7267553210258484,9.45870304107666,4.2352614402771005,-0.058712627738714225,0.40530908,-0.5225952,15
0.7036727666854858,11.1514892578125,4.774145603179932,-0.23790232837200165,-2.2626447999999995,0.13591751,15
0.7381355762481691,11.444828033447266,4.134125709533691,-0.35325130820274353,-2.0430388,-0.3036,15
0.2654635012149811,10.409788131713867,2.7094759941101074,-0.4549091756343842,-0.34116822,-1.2669345,15
0.32622823119163513,9.518935203552246,1.5265563726425169,-0.5078331828117371,0.025350908,-1.3231341,15
1.2137932777404783,10.08888053894043,0.92374849319458,-0.4511436820030213,0.13988814,-0.32162055,15
1.7682347297668457,10.931995391845703,1.117768168449402,-0.3492239713668823,-0.6658430999999999,0.68019843,15
1.680961012840271,11.131963729858398,1.4919894933700562,-0.25434792041778564,-1.3542882,0.6075055,15
1.5371514558792114,11.043107986450195,1.4611198902130127,-0.16908541321754456,-1.0476339,0.48533243,15
1.4778367280960083,11.002025604248047,1.4519605636596682,-0.09100265800952913,-0.97066486,0.45845437,15
1.403331995010376,10.961718559265137,1.5023633241653442,-0.03304503485560417,-0.66950834,0.4373795,15
1.485828876495361,10.90692901611328,1.8333338499069212,-0.0059600919485092154,-1.3658947,0.5815437,15
1.5972141027450562,10.817514419555664,2.3002634048461914,-0.034550197422504425,-1.9449949,0.5357288,15
1.847632646560669,10.71553897857666,2.6491069793701167,-0.1289692223072052,-2.1224513,0.5381723,15
2.492631196975708,10.0219087600708,2.4894115924835205,-0.21524550020694733,-1.7886133999999998,0.6979135000000001,15
3.191889524459839,8.676234245300293,2.485391616821289,-0.265908420085907,-0.8854492,0.8170323,15
3.612421989440918,7.253838062286378,2.6663970947265625,-0.270226389169693,-0.52595496,0.78954333,15
3.826961040496826,6.192317485809326,2.693920135498047,-0.20575517416000366,-0.28741209999999995,0.65209866,15
3.8039681911468506,5.403094291687012,2.48754620552063,-0.08420820534229279,-0.058948494,0.453262,15
3.4137463569641118,5.229077339172363,2.2578349113464355,0.043846957385540015,0.34605515,0.37812558,15
3.2309961318969727,5.729432106018066,2.437323093414306,0.1168115809559822,0.43493605,0.32650748,15
3.3679811954498287,6.706453323364258,2.6051554679870605,0.028057018294930455,0.68844515,0.16523905,15
3.163532257080078,7.656992435455322,2.526073455810547,-0.19120164215564728,0.72356987,-0.115453534,15
2.5794968605041504,8.053666114807129,2.38447642326355,-0.4471694827079773,0.20158553,-0.102319926,15
2.0613451004028316,7.864419937133789,2.0790553092956543,-0.6554418802261353,-0.074830994,0.07513642,15
2.20015549659729,7.650408267974853,1.962063193321228,-0.7746908068656921,-0.16187929,0.31031954,15
2.8143832683563232,7.912162780761719,1.9564800262451167,-0.8548433780670166,-0.05100725,0.32895094,15
3.2109177112579346,8.328668594360353,1.822899341583252,-0.9211928844451904,0.1255328,0.2843578,15
3.1001791954040527,8.527702331542969,1.912514090538025,-0.9942800402641296,-0.10781772,0.12217305,15
2.962245225906372,8.675078392028809,2.361912488937378,-1.064285397529602,-0.40469822,-0.11362094,15
3.142059803009033,8.8544340133667,2.826123714447021,-1.1297224760055542,-0.5907066999999999,-0.29932398,15
3.49977445602417,9.0357027053833,2.968872547149658,-1.204870581626892,-0.064446285,-0.2434298,15
3.684330940246582,9.229413986206056,3.090914487838745,-1.3026317358016968,0.16187929,-0.1020145,15
3.800243139266968,9.645133972167967,3.449535369873047,-1.4489630460739136,0.23243423,0.083383106,15
3.921417236328125,10.172271728515623,3.8552434444427486,-1.5926760435104368,0.2742785,0.17318029999999998,15
3.987381219863892,10.535171508789062,4.601992607116699,-1.744309663772583,-0.06536258,-0.027488936,15
4.115321159362793,10.66793441772461,4.9791531562805185,-1.8638777732849119,-0.38759398,-0.046731193,15
3.9570987224578857,10.65114688873291,5.022044658660889,-1.9314160346984863,-0.086132,-0.2134974,15
3.5352041721343994,10.34379768371582,5.373010635375977,-2.0334944725036617,-0.2910773,-0.2660318,15
3.217580318450928,9.547698974609377,5.507391929626465,-2.1614229679107666,-0.2733622000000001,-0.3631594,15
3.1158249378204346,8.362249374389647,5.447412014007568,-2.270667552947998,-0.026572637000000003,-0.35277468,15
3.314783096313477,6.93067741394043,5.270016670227051,-2.314281225204468,-0.01038471,-0.28985557,15
3.5802712440490723,5.600896835327148,5.024068355560303,-2.308671236038208,0.36865717,-0.47800204,15
3.567011833190918,4.459082126617432,4.933920860290527,-2.252457618713379,0.9202685,-0.40469822,15
3.141871452331543,3.506831407546997,5.175660133361816,-2.1578938961029053,0.743423,-0.1966986,15
2.6203455924987797,2.8584322929382324,5.677841663360597,-2.0601253509521484,0.55680364,-0.031154128,15
2.394216299057007,2.4822206497192383,6.447078227996826,-1.9956318140029907,0.44868052,0.18906279,15
2.2157697677612305,2.142620801925659,7.4734745025634775,-1.94942569732666,0.46028697,0.46578476,15
1.9835962057113647,1.840986013412476,8.490467071533201,-1.908647894859314,0.39400807,0.6282749,15
1.7701961994171145,1.6240100860595703,9.149897575378418,-1.8656147718429563,-0.009162978,0.7293731,15
1.6934353113174438,1.4288636445999146,9.672350883483887,-1.78602397441864,-0.26328292,0.7651087,15
1.9648302793502808,1.2055429220199585,10.257475852966307,-1.6905332803726196,-0.46211955,0.67347896,15
2.5159873962402344,0.9292518496513368,10.770010948181152,-1.6043180227279663,-0.40775254,0.4978552,15
2.9634909629821777,0.72662353515625,10.958714485168457,-1.5297931432724,-0.5824600000000001,0.3726278,15
3.422764301300049,0.6485004425048828,10.827214241027832,-1.4516807794570925,-0.5119051,0.28008172,15
4.0465307235717765,0.5179096460342407,10.578145980834961,-1.3953843116760254,-0.25809056,0.25411993,15
4.7458319664001465,0.23828211426734924,10.322669982910156,-1.3613226413726809,-0.122478485,0.40103304,15
5.324966907501222,-0.10483545809984207,10.136835098266602,-1.3315787315368652,-0.094989546,0.5983425,15
5.639430522918701,-0.392145574092865,10.009371757507324,-1.3073757886886597,-0.22999077,0.81153446,15
5.670193195343018,-0.5676900148391724,9.904340744018556,-1.2924234867095947,-0.4025602,1.1108584,15
5.58823299407959,-0.7939940690994263,9.779485702514648,-1.2525078058242798,-0.49602258,1.2864822,15
5.709675312042236,-0.9132495522499084,9.593700408935547,-1.166918396949768,-0.70005155,1.6249015,15
5.803545475006104,-0.9359739422798156,9.3521089553833,-1.0676584243774414,-0.46944994,1.8411479,15
5.800637245178223,-0.8292921781539917,9.198850631713867,-0.9971207976341248,-0.18509217,2.0073032,15
5.688160419464111,-0.6796135306358337,9.003433227539062,-0.993030607700348,0.054061573,1.8777997,15
5.313596248626709,-0.6865186095237732,8.602010726928711,-1.0939334630966189,0.5546656,1.6722436,15
4.770120620727539,-0.7829865813255309,8.164074897766112,-1.2272547483444214,0.6704246,1.6969837,15
4.132627487182616,-1.1879311800003052,8.061254501342772,-1.295572280883789,0.70646566,1.6490307,15
3.9652044773101807,-1.5998646020889282,8.114975929260254,-1.3388110399246216,0.7495316,1.4996742,15
4.1294212341308585,-2.333508014678955,8.12172794342041,-1.3764866590499878,0.8454375,1.2006557,15
4.338224411010741,-3.1987180709838867,7.783313274383545,-1.3999693393707275,1.1175779,0.96852684,15
4.3615989685058585,-4.03809118270874,7.416462898254394,-1.36741042137146,1.0082331,0.9117164,15
4.1242637634277335,-4.6594276428222665,7.255000114440918,-1.3000942468643188,0.5317582,0.8353582,15
3.5719103813171387,-5.319185733795166,6.959662437438965,-1.221923828125,0.16523905,0.61178154,15
2.901362180709839,-5.982838153839111,6.449888706207275,-1.0985561609268188,-0.21044308,0.4364632000000001,15
2.171917200088501,-6.285279273986816,5.868232250213622,-0.8932015895843506,-0.7339545999999999,0.3747658,15
1.492764234542847,-6.22504997253418,5.434406280517578,-0.6451711654663086,-1.3310753,0.4156938,15
0.9618959426879884,-6.107247829437256,5.167430400848389,-0.36023181676864624,-1.6609426,0.36987892,15
0.6804800033569336,-5.8619256019592285,5.101168155670166,-0.03586458042263985,-1.5302174,0.32895094,15
0.643140435218811,-5.419381141662598,5.080418586730957,0.3086097836494446,-1.1814133999999998,0.33322698,15
0.6789780259132385,-4.801149368286133,5.064794540405273,0.637196958065033,-0.9966267,0.40530908,15
0.6113254427909851,-4.231366157531738,5.2659173011779785,0.9095128774642944,-1.1249083,0.29138273,15
0.6753551959991455,-3.7436249256134033,5.626414299011231,1.1478378772735596,-1.2840388,0.14202617,15
0.8781962394714355,-3.3320107460021973,6.005491256713867,1.336620569229126,-1.1716396,0.13500121,15
1.175715684890747,-3.012480974197388,6.415098667144775,1.4826024770736694,-0.57757306,0.14844026,15
1.661558747291565,-2.881154775619507,7.064378261566162,1.560044527053833,-0.13988814,0.03726278,15
2.3495032787323,-2.828723907470703,7.9872989654541025,1.5908583402633667,0.032986723,-0.04734206,15
2.9388108253479004,-2.6571569442749023,9.00367259979248,1.544108271598816,-0.111177474,-0.183565,15
3.1685421466827397,-2.569010019302368,9.577399253845217,1.4264771938323977,0.09743301,-0.44135013,15
3.2879412174224854,-2.536749839782715,9.688082695007324,1.2587745189666748,0.7620544,-0.6740898,15
3.6881637573242183,-2.3933300971984863,9.743782043457033,1.118464708328247,0.623388,-0.5934556,15
4.3023295402526855,-2.046515703201294,10.10235595703125,1.0307666063308716,-0.1863139,-0.3109304,15
4.626109600067139,-1.629025101661682,10.358148574829102,0.9409160017967224,-0.38728857,-0.18295415,15
4.589761257171631,-1.3923192024230957,10.27619743347168,0.8435275554656982,-0.3820962,-0.26542094,15
4.470134258270264,-1.3082304000854492,9.984237670898438,0.733514130115509,-0.37904188,-0.32284227,15
4.3651275634765625,-1.246485710144043,9.530285835266113,0.6261811256408691,-0.19975294,-0.41355577,15
4.266711235046387,-1.0871011018753052,9.020071983337402,0.513066291809082,-0.13530666,-0.40530908,15
4.1672024726867685,-0.9748649597167968,8.587132453918457,0.4003114998340607,-0.28130344,-0.33750305,15
4.1091251373291025,-0.960694432258606,8.352458000183105,0.30627915263175964,-0.15027285,-0.31123585,15
4.089131832122804,-0.9967305064201356,8.370627403259277,0.2331035435199737,-0.19456059,-0.3304781,15
4.078115940093993,-1.0277252197265625,8.528130531311035,0.18576379120349884,-0.4111123,-0.31490102,15
4.019312381744385,-0.9954415559768676,8.644674301147461,0.15333983302116394,-0.6346890000000001,-0.29168814,15
3.971971273422241,-0.94527405500412,8.633254051208496,0.136198028922081,-0.5742133,-0.26419923,15
3.9997947216033936,-0.9069373607635498,8.595004081726074,0.12754423916339874,-0.48349985,-0.17501289,15
4.145595073699951,-0.8652387261390686,8.609683036804201,0.11563387513160706,-0.5375614000000001,-0.13958271,15
4.415222644805908,-0.8544282317161559,8.67970085144043,0.09646085649728776,-0.67103547,-0.10629055,15
4.738776206970215,-0.877385675907135,8.623796463012695,0.057327710092067725,-0.38728857,-0.092240654,15
5.0684781074523935,-0.9135421514511108,8.332462310791017,0.022414769977331158,-0.06169739,-0.10720685,15
5.445951461791992,-0.9538779854774476,8.098267555236816,0.011030292138457298,-0.20891592,-0.084910266,15
5.689836025238037,-1.087554097175598,7.93441915512085,0.04219626635313034,-0.32345316,-0.19242255,15
5.729525566101074,-1.1576365232467651,7.808828830718994,0.10743425041437148,-0.17501289,-0.31703907,15
5.741514682769775,-1.1258273124694824,7.8316097259521475,0.1687864065170288,-0.07574729,-0.44073927,15
5.801112651824951,-0.9861501455307008,8.023058891296388,0.19486840069293976,0.01038471,-0.50946164,15
5.9180545806884775,-0.8392919301986694,8.097236633300781,0.18067359924316406,0.23976462,-0.5177083,15
5.9054388999938965,-0.7413249611854553,8.019898414611816,0.1707991510629654,0.30634892,-0.42058071,15
5.743351936340332,-0.6353655457496643,8.018955230712889,0.1902408748865128,0.32803464,-0.3381139,15
5.552007675170898,-0.4270105063915253,8.139165878295897,0.21257495880126956,0.31184670000000003,-0.22449298,15
5.342738628387451,-0.1635839194059372,8.339789390563965,0.21066132187843326,0.1282817,-0.13011430000000002,15
5.0903053283691415,0.030927177518606182,8.438977241516112,0.18346433341503146,-0.04062254,-0.005497787,15
4.788619518280028,0.10512130707502364,8.398934364318848,0.15225975215435028,-0.090713486,0.05131268,15
4.49260139465332,0.10239677876234056,8.359871864318848,0.12769795954227448,-0.1863139,0.05100725,15
4.2529802322387695,0.06182800233364105,8.336356163024902,0.10708692669868468,-0.23243423,0.05497787,15
4.110811233520509,0.027603644877672195,8.34854793548584,0.09772980958223344,-0.31673363,0.052534413,15
4.090559482574463,0.02396096847951412,8.351698875427246,0.09807231277227403,-0.33933565,0.058643065,15
4.19795560836792,0.0647788718342781,8.305692672729492,0.10068807005882263,-0.29871312,0.06505715,15
4.37885332107544,0.16752943396568298,8.242584228515625,0.09467887133359908,-0.2611449,0.06627888,15
4.556337833404541,0.30714651942253113,8.18087100982666,0.0748436450958252,-0.18387043,0.08063421400000001,15
4.7065701484680185,0.41014590859413147,8.120281219482424,0.04197762534022331,-0.062308256,0.084910266,15
4.831918716430664,0.4343050420284271,8.049398422241211,0.000973300717305392,0.015882496,0.0720821,8
4.93958044052124,0.41003456711769104,7.970691680908202,-0.039362046867609024,0.0983493,0.062308256,8
5.02533483505249,0.374365895986557,7.913290023803711,-0.07197834551334381,0.13133603,0.07147124,8
5.070111274719238,0.3361445069313049,7.9164605140686035,-0.09229053556919098,0.12156218,0.08399397,8
5.082806587219238,0.2894018292427063,7.977384567260742,-0.10202214866876602,0.064751714,0.08674286,8
5.083124160766602,0.21993404626846316,8.068076133728027,-0.10546458512544632,0.005497787,0.06261369,8
5.1012396812438965,0.13551029562950134,8.13040828704834,-0.10990606248378754,-0.051923547,0.040317107000000005,8
5.132047653198242,0.05001341551542282,8.123841285705566,-0.11632873117923735,-0.059864793,0.038179077,8
5.164233684539795,-0.02414852753281593,8.064476013183594,-0.12072090804576875,-0.026572637000000003,0.03940081,8
5.1844892501831055,-0.08851144462823868,8.021538734436035,-0.12051177769899367,0.0015271631,0.06047566,8
5.194117546081543,-0.15222695469856262,7.99827766418457,-0.11759693920612335,0.015882496,0.061086524,8
5.20897102355957,-0.20990441739559174,7.994851589202881,-0.11212808638811113,0.016187929,0.062308256,8
5.2484211921691895,-0.2642807066440582,7.981458187103271,-0.10756798833608627,0.0125227375,0.057421334,8
5.299159049987793,-0.3060414791107178,7.964020729064941,-0.10323578864336014,0.043982297,0.05375614,8
5.328880310058594,-0.33810093998909,7.965989112854004,-0.10017560422420503,0.051618114000000014,0.047036625,8
5.333619594573975,-0.3664003014564514,7.994210720062256,-0.09551817178726196,0.07086037,0.048258353,8
5.3174591064453125,-0.3853214085102081,8.034139633178711,-0.08761096745729446,0.06261369,0.040927973,8
5.277559280395508,-0.3894199132919312,8.075517654418945,-0.07700890302658081,0.04642576,0.04153884,8
5.225637912750244,-0.3820283114910126,8.107114791870117,-0.06459768116474153,0.008857545999999999,0.048563786,8
5.16587495803833,-0.3706619143486023,8.118796348571777,-0.0524083599448204,0.0033597588,0.052839845,8
5.099379539489746,-0.3606085777282715,8.120115280151367,-0.04155876114964485,-0.01038471,0.046120327,8
5.029162883758545,-0.3604323863983154,8.114274978637695,-0.03403683379292488,0.003970624,0.024740042,8
4.9779887199401855,-0.3562312126159668,8.107333183288574,-0.029845448210835457,0.013744468,0.030848695,8
4.946721076965332,-0.35298076272010803,8.098135948181152,-0.027729591354727745,0.013744468,0.018020526,8
4.931996822357178,-0.3434255421161652,8.094476699829103,-0.02914046123623848,0.012217305,0.010690141499999998,8
4.932419300079347,-0.32583701610565186,8.090387344360353,-0.032851692289114,0.018325957,0.009773844,8
4.945356369018555,-0.3137100040912628,8.084813117980957,-0.03924904763698578,-0.0027488936,-0.002443461,8
4.970886707305908,-0.31353959441185,8.092535018920897,-0.045139230787754066,-0.018325957,-0.01282817,8
5.010875225067139,-0.3169325888156891,8.091278076171875,-0.04940740019083023,-0.023518313,-0.009773844,8
5.061455726623535,-0.3179009556770325,8.087803840637207,-0.05217502266168594,-0.022602014,-0.009468411,8
5.115628242492676,-0.31073054671287537,8.089119911193848,-0.0529417023062706,-0.022296581,0.0012217305,8
5.169937610626222,-0.30084866285324097,8.086759567260742,-0.0510496012866497,-0.008552114,0.004276057,8
5.223227024078369,-0.2927505671977997,8.070531845092772,-0.04846801981329918,0.006414085,0.005497787,8
5.2541770935058585,-0.2866256237030029,8.041291236877441,-0.045306231826543815,0.023518313,0.012217305,8
5.259801387786865,-0.2876986265182495,8.024930953979492,-0.041746370494365685,0.03726278,0.026572637000000003,8
5.2452125549316415,-0.2901550829410553,8.030800819396973,-0.03788002207875252,0.04337143,0.024129177,8
5.2150840759277335,-0.2937163114547729,8.042544364929201,-0.034117039293050766,0.054367006,0.027488936,8
5.178257465362549,-0.2962656617164612,8.064495086669924,-0.03078319877386093,0.030543262,0.032070424,8
5.135461807250977,-0.3003498315811157,8.072536468505861,-0.02868465892970562,0.04886922,0.027488936,8
5.091166496276856,-0.3112587630748749,8.083118438720701,-0.027181383222341537,0.038179077,0.020158553,8
5.0517401695251465,-0.3165797591209412,8.097991943359375,-0.02702733688056469,0.026267206,0.019547688,8
5.01648473739624,-0.3188987076282501,8.112889289855957,-0.02625114656984806,0.0125227375,0.016798794,8
4.987288475036621,-0.3133774697780609,8.123534202575684,-0.02754789032042026,0.015271631,0.019547688,8
4.97141695022583,-0.306957870721817,8.139889717102049,-0.02925399877130985,-0.003970624,0.0021380284,8
4.970962047576903,-0.3018436133861542,8.153092384338379,-0.03076127357780933,-0.02443461,0.00580322,8
4.9840126037597665,-0.2992686927318573,8.148555755615233,-0.03269127011299133,-0.032375857,0.0067195175,8
5.01166582107544,-0.2997125089168549,8.134159088134767,-0.034286674112081535,-0.0290161,0.002443461,8
5.04831075668335,-0.3053025305271149,8.112979888916017,-0.035559892654418945,-0.02107485,0.012217305,8
5.086950302124023,-0.3128795623779297,8.091788291931152,-0.035949647426605225,-0.0030543262,0.014049901000000002,8
5.121438503265381,-0.3117411136627197,8.071189880371094,-0.03618402406573296,-0.0030543262,0.0070249503,8
5.155198574066162,-0.31484586000442505,8.057909965515138,-0.036267660558223724,0.004581489,0.008246681,8
5.166497707366943,-0.3141300082206726,8.050152778625487,-0.035500962287187576,0.019242255,0.0125227375,8
5.166505813598633,-0.3131061792373657,8.046525955200195,-0.03424682840704918,0.018325957,0.016493361,8
5.161011695861816,-0.31124624609947205,8.052103996276855,-0.032215926796197884,0.028405234,0.021380283,8
5.151905059814453,-0.3033328354358673,8.058243751525879,-0.03059343621134758,0.022602014,0.023823744,8
5.131732940673828,-0.2925098240375519,8.064342498779299,-0.030948935076594356,0.019547688,0.021685716,8
5.100710868835449,-0.2866578698158264,8.072517395019531,-0.031109660863876343,0.027183503,0.015271631,8
5.0738525390625,-0.28044021129608154,8.081568717956543,-0.031423430889844894,0.02565634,0.022296581,8
5.054469108581543,-0.2741871476173401,8.094161987304688,-0.03266298398375511,0.027794369,0.02076942,8
5.042350769042969,-0.2777576744556427,8.109676361083983,-0.03371630981564522,0.011911872,0.014049901000000002,8
5.034776210784912,-0.2908428013324737,8.11958122253418,-0.03473667427897453,0.011911872,0.018936822,8
5.027539253234863,-0.3035520911216736,8.123618125915527,-0.035276032984256744,-0.0036651916,0.011301007,8
5.024286270141602,-0.31754130125045776,8.121474266052246,-0.034659139811992645,-0.0012217305,0.014660766,8
5.032233715057373,-0.3257931470870972,8.118327140808105,-0.03332370892167092,-0.0018325958,0.010079277,8
5.0502285957336435,-0.31945064663887024,8.113851547241211,-0.030786627903580662,-0.008857545999999999,0.01038471,8
5.069351673126222,-0.3093976974487305,8.109631538391112,-0.02873685397207737,-0.009468411,0.009162978,8
5.0847511291503915,-0.3060492277145386,8.101438522338867,-0.02764602191746235,-0.0021380284,0.010079277,8
5.10250186920166,-0.3070211112499237,8.085783004760742,-0.027645142748951912,0.004276057,0.009468411,8
5.118342876434326,-0.3110952377319336,8.070835113525389,-0.026967046782374385,0.014049901000000002,0.01740966,8
5.123838424682617,-0.3127730190753937,8.06853199005127,-0.027503876015543938,0.013133603,0.014660766,8
5.116964340209961,-0.3131133615970612,8.065106391906737,-0.02721438743174076,0.0070249503,0.019242255,8
5.1059112548828125,-0.3092706501483917,8.062755584716799,-0.02774137072265148,0.007941248,0.020158553,8
5.095772743225098,-0.3040919303894043,8.065338134765625,-0.02759688533842564,0.022907447,0.019547688,8
5.087099552154541,-0.298874169588089,8.072702407836914,-0.028397921472787857,0.014049901000000002,0.016493361,8
5.079603672027588,-0.2936246693134308,8.083908081054688,-0.028880465775728226,0.016798794,0.015271631,8
5.073850631713867,-0.2928056418895721,8.093982696533201,-0.028171168640255925,0.008552114,0.015271631,8
5.0668983459472665,-0.30074477195739746,8.10019588470459,-0.028437385335564613,0.007941248,0.015882496,8
5.058079719543457,-0.3081969618797302,8.105594635009767,-0.02803797647356987,0.0061086523,0.01863139,8
5.059812545776367,-0.3208585977554321,8.107259750366211,-0.02890460006892681,0.003970624,0.009468411,8
5.067049026489258,-0.3316434323787689,8.099454879760742,-0.02802632749080658,0.007330383,0.008552114,8
5.0706520080566415,-0.3308185935020447,8.088032722473145,-0.028257478028535843,0.006414085,0.008246681,8
5.069266319274902,-0.3273402452468872,8.080832481384277,-0.027588997036218643,0.005497787,0.009773844,8
5.073919773101807,-0.32562968134880066,8.083026885986326,-0.027307426556944847,-0.0036651916,0.013744468,8
5.075166702270508,-0.3190226554870605,8.085785865783691,-0.026893062517046932,-0.008857545999999999,0.013439035,8
5.083327293395996,-0.3104102909564972,8.085294723510742,-0.0268272552639246,-0.0030543262,0.015577064,8
5.08839225769043,-0.30246657133102417,8.074761390686035,-0.02742970548570156,0.0070249503,0.009468411,8
5.0909085273742685,-0.2984412312507629,8.067367553710938,-0.028146823868155483,0.018020526,0.01863139,8
5.091947555541992,-0.2973231077194214,8.071605682373049,-0.028218170627951625,0.02687807,0.02076942,8
5.089815139770508,-0.2949412763118744,8.075285911560059,-0.02868212386965752,0.013439035,0.01740966,8
5.08405065536499,-0.29500922560691833,8.078841209411621,-0.029232271015644073,0.0009162979,0.01985312,8
5.078725814819336,-0.30044400691986084,8.080716133117676,-0.02957569062709808,0.012217305,0.02076942,8
5.076018333435059,-0.3108624815940857,8.08405590057373,-0.02937717363238335,0.0143553335,0.018020526,8
