acc_x,acc_y,acc_z,gyro_x,gyro_y,gyro_z,label
0.0,0.0,0.0,0.0,0.7678576,0.036651913,1
0.05485739186406136,0.28595975041389465,0.0055232574231922635,-0.03380834311246872,0.77213365,0.05100725,1
0.18555691838264465,0.9677459001541138,0.018502511084079742,-0.12032415717840195,0.73273283,0.0711658,1
0.3662627041339874,1.9111490249633791,0.03616044670343399,-0.23846547305583954,0.5748241999999999,0.09682214,1
0.568416953086853,2.967493772506714,0.05554986372590065,-0.3289240300655365,0.33475417,0.07819075,1
0.7690732479095459,4.017130374908446,0.07437387853860855,-0.310740739107132,-0.0036651916,-0.004886922,1
0.9538391232490541,4.984862804412842,0.09124784171581267,-0.2593767046928406,0.005192355,0.0021380284,1
1.1158789396286009,5.834861755371094,0.1055573746562004,-0.21339881420135495,0.007330383,0.0021380284,1
1.253514528274536,6.5581889152526855,0.117205411195755,-0.17428433895111084,0.014660766,0.002443461,1
1.3679752349853516,7.161105632781982,0.12637150287628174,-0.1413663923740387,0.0067195175,-0.0021380284,1
1.4618730545043943,7.656947612762451,0.13519184291362762,-0.11409718543291092,0.011301007,-0.003970624,1
1.5450410842895508,8.064414024353027,0.14662258327007294,-0.09163827449083327,0.010995574,-0.0030543262,1
1.6124252080917358,8.39954662322998,0.15437796711921692,-0.07402783632278442,0.010079277,0.005192355,1
1.668241024017334,8.66792106628418,0.15787184238433838,-0.0607253797352314,0.0021380284,-0.00580322,1
1.712139129638672,8.878911972045898,0.159086674451828,-0.04982263594865799,0.0076358155,0.005192355,1
1.7508801221847534,9.052530288696287,0.16220274567604065,-0.040589120239019394,0.003970624,-0.010079277,1
1.7859933376312256,9.186781883239746,0.16595804691314694,-0.0335640013217926,0.003970624,-0.004276057,1
1.812787175178528,9.296797752380373,0.17489194869995114,-0.027354205027222637,0.01282817,-0.00030543262000000003,1
1.8307750225067136,9.381576538085938,0.18693187832832334,-0.02122584357857704,0.0070249503,0.013439035,1
1.8467557430267332,9.45134449005127,0.2032918632030487,-0.016437964513897896,0.008857545999999999,0.01160644,1
1.84830105304718,9.515645027160645,0.3451720178127289,-0.011028824374079704,0.01038471,0.005497787,1
1.8480850458145144,9.570857048034668,0.4174298346042633,-0.008002935908734798,0.009468411,-0.0015271631,1
1.8331232070922847,9.609834671020508,0.32550159096717834,-0.007495409809052944,0.036651913,-0.011301007,1
1.8434077501297,9.640218734741213,0.3399043679237366,-0.0066924444399774075,0.004276057,0.0009162979,1
1.8585093021392824,9.667186737060547,0.3170230090618133,-0.006010738667100668,-0.024740042,0.0012217305,1
1.8778269290924072,9.688172340393066,0.2813721001148224,-0.005650368519127369,-0.04184427,0.0012217305,1
1.900833368301392,9.697593688964844,0.2914973497390747,-0.004104488994926214,-0.047647487,-0.005192355,1
1.9148812294006348,9.703975677490234,0.3216055333614349,-0.0030674152076244354,-0.03940081,0.010690141499999998,1
1.9158061742782595,9.707582473754883,0.3712030947208405,-0.0008396568009629847,-0.033292156,-0.00030543262000000003,1
1.9017581939697263,9.702378273010254,0.4186862111091614,-0.0009670722647570075,-0.015882496,-0.0015271631,1
1.890005350112915,9.697427749633787,0.4373532831668854,-5.233451520325616e-05,-0.0012217305,-0.0018325958,1
1.8775944709777832,9.69344711303711,0.4146014750003815,0.0005772259901277722,-0.0033597588,-0.01038471,1
1.879549503326416,9.69520378112793,0.35947689414024353,-0.0009105487260967492,-0.01160644,-0.0009162979,1
1.8941307067871092,9.699248313903807,0.292154461145401,-0.001763434032909572,-0.017104227,-0.013439035,1
1.915294170379639,9.709493637084961,0.1888486593961716,-0.0031364760361611843,-0.023823744,-0.026572637000000003,1
1.9421356916427608,9.722747802734377,0.10536648333072662,-0.003736283397302032,-0.03634648,-0.009162978,1
1.968167066574097,9.73106575012207,0.06671971082687378,-0.004748788196593523,-0.03023783,-0.013439035,1
1.9801064729690552,9.738310813903807,0.08102096617221832,-0.00682729110121727,-0.03176499,-0.011911872,1
1.9889129400253296,9.741287231445312,0.1389605551958084,-0.008699695579707624,-0.023518313,-0.017104227,1
1.9884696006774905,9.736285209655762,0.22579367458820346,-0.00963471457362175,-0.021685716,-0.021991149,1
1.9891061782836916,9.722835540771484,0.32762929797172546,-0.009239411912858486,-0.026572637000000003,-0.0033597588,1
1.9889787435531616,9.707131385803224,0.4150546193122864,-0.0077396021224558345,-0.025961773,0.0125227375,15
1.99484384059906,9.694025039672852,0.4506662786006928,-0.003219278994947672,-0.029321533,0.006414085,15
2.015547513961792,9.69974422454834,0.4248144328594208,0.0033265631645917892,-0.03604105,0.013133603,15
2.077699422836304,9.710775375366213,0.35620462894439703,0.013754833489656448,-0.051618114000000014,0.01038471,15
2.1516981124877934,9.723416328430176,0.2737366557121277,0.02196401171386242,-0.040011674,0.025961773,15
2.22477650642395,9.7352876663208,0.2093254178762436,0.02790141850709915,-0.053450707,0.03268129,15
2.3039660453796387,9.748272895812988,0.1834961473941803,0.026088880375027657,-0.044898596,0.02565634,15
2.3772313594818115,9.756467819213867,0.2010955512523651,0.018257291987538338,-0.049480084,-0.00061086525,15
2.4293735027313232,9.76030158996582,0.2853547930717468,-0.0056214751675724975,-0.011911872,-0.054367006,15
2.462329626083374,9.746447563171387,0.4285385012626648,-0.04982217028737068,0.016187929,-0.10598512,15
2.4840106964111333,9.702886581420898,0.5573148727416992,-0.08493615686893463,-0.063224554,-0.13744467,15
2.49966812133789,9.604100227355957,0.7364240884780884,-0.10282663255929947,-0.33353242,-0.08643743400000001,15
2.449459791183472,9.447587013244627,0.8400728106498718,-0.09991234540939332,-0.3051272,-0.06841691,15
2.3347973823547363,9.30860996246338,0.8414499759674072,-0.08241623640060425,-0.20066923,-0.11148291,15
2.2401103973388667,9.265742301940918,0.8278962969779968,-0.06444944441318512,-0.22357668,-0.12370021,15
2.1981678009033203,9.318523406982422,0.7231731414794922,-0.04195567220449448,-0.21135938,-0.11942416,15
2.1584534645080566,9.365978240966797,0.5085604786872864,-0.014583145268261431,-0.32253686,-0.06383542,15
2.0864033699035645,9.395977020263672,0.2796055674552917,0.020840445533394814,-0.4615087000000001,-0.0009162979,15
1.9176537990570068,9.479774475097656,0.050315696746110916,0.05168906971812248,-0.5833763000000001,0.14019357,15
1.7037330865859983,9.64465045928955,-0.13674388825893402,0.07163743674755096,-0.52442783,0.27275133,15
1.4899154901504517,9.944270133972168,-0.24625806510448456,0.07814111560583115,-0.32375857,0.30268374,15
1.386437177658081,10.181866645812988,-0.2753555476665497,0.07100431621074678,0.013744468,0.204029,15
1.4104876518249512,10.261903762817383,-0.2025945782661438,0.06375487893819809,0.30207285,0.099265605,15
1.4737401008605957,10.185918807983398,-0.07654066383838654,0.07100172340869904,0.50762904,-0.06261369,15
1.4858280420303345,10.021198272705078,0.07258422672748566,0.08154705166816711,0.5403103,-0.1282817,15
1.4718629121780396,9.862975120544434,0.21370194852352145,0.110893115401268,0.46761733,-0.07269296,15
1.436411738395691,9.773798942565918,0.3228857219219208,0.14904402196407318,0.40622538,0.01160644,15
1.398979425430298,9.742793083190918,0.3604191541671753,0.18715541064739227,0.41080686,0.09407325,15
1.3754487037658691,9.72775936126709,0.3532604575157165,0.22152438759803766,0.42119157,0.19700404,15
1.3561495542526243,9.742868423461914,0.3325973451137543,0.2447926551103592,0.36560285,0.25900686,15
1.3369990587234497,9.789825439453123,0.31661829352378845,0.2458673417568207,0.3857614,0.17134771,15
1.341217875480652,9.891942024230957,0.32739895582199097,0.21585389971733093,0.45265114,0.03634648,15
1.3905644416809082,9.975252151489258,0.314520001411438,0.16329355537891388,0.51343226,-0.12980886,15
1.514362096786499,9.986413955688477,0.2587484121322632,0.08125204592943193,0.47739118,-0.15974127,15
1.7585783004760742,9.892765998840332,0.1858754009008408,-0.03894572705030441,0.22632557,0.01985312,15
2.054969072341919,9.807998657226562,0.17514333128929138,-0.17295081913471222,-0.36041048,0.25717425,15
2.38971209526062,10.121926307678224,0.060100056231021874,-0.32022473216056824,-0.6377433000000001,0.49266282,15
2.672204732894897,10.726741790771484,-0.23994222283363345,-0.4573858976364136,0.2565634,0.528093,15
2.8900022506713867,11.22453498840332,-0.3110083043575287,-0.5388036370277405,1.2525792,0.39492437,15
3.0147814750671387,11.616262435913086,-0.021989477798342705,-0.6021730899810791,1.8044959,0.54702985,15
3.2541332244873047,11.905311584472654,0.3982415199279785,-0.724048376083374,2.1820107,0.82558435,15
3.4321448802948,11.936843872070312,0.8411769866943359,-0.8785296678543091,2.087021,0.7079928000000001,15
3.3685731887817383,11.795121192932127,1.1957453489303589,-1.0232369899749756,1.4138476,0.2003638,15
3.1516449451446533,11.625406265258787,1.5077478885650637,-1.1177080869674685,-0.047036625,-0.10629055,15
2.8281500339508057,11.370227813720705,1.689425706863403,-1.1902443170547483,-0.45662177,-0.31948254,15
2.384692907333374,10.93636703491211,1.6799012422561646,-1.2288360595703125,0.2855795,-0.32711834,15
2.0772874355316158,10.255200386047363,1.773881196975708,-1.2629153728485107,0.82802784,-0.05375614,15
2.10237717628479,9.655607223510742,1.9861778020858765,-1.3349884748458862,0.9914343,0.50640726,15
2.364048719406128,9.15560531616211,2.183011770248413,-1.4398138523101809,0.86834496,0.89675015,15
2.566807270050049,8.745577812194824,2.254594326019287,-1.5161103010177612,0.893085,0.9957104,15
2.587290048599243,8.425206184387207,2.317012071609497,-1.5295780897140503,1.0235047,0.9053023,15
2.5221540927886963,8.129413604736326,2.487403392791748,-1.4880744218826294,1.1847731,0.7012733,15
2.4596316814422607,7.943217754364014,2.758321762084961,-1.425398588180542,1.3579534,0.5876524000000001,15
2.410195589065552,7.866057872772218,3.209688663482666,-1.382305383682251,0.84635377,0.56016344,15
2.402259111404419,7.7868146896362305,3.6209642887115483,-1.3433500528335571,0.56199604,0.6038403,15
2.3548855781555176,7.65971565246582,3.955700397491455,-1.277103066444397,0.51068336,0.6215554,15
2.2046635150909424,7.470158576965332,4.287467956542969,-1.192305326461792,0.50579643,0.5748241999999999,15
1.9953832626342771,7.220150947570801,4.640852928161621,-1.0987386703491209,0.36132678,0.473726,15
1.89361834526062,6.882856369018555,4.947651386260986,-0.9815228581428528,0.15974127,0.453262,15
1.985626220703125,6.532714366912843,5.240388870239258,-0.8419041633605957,0.09040806,0.52503866,15
2.1035189628601074,6.219836235046388,5.442150592803955,-0.6799400448799133,-0.14172074,0.52564955,15
2.1634199619293213,5.987629413604736,5.581865787506104,-0.503199577331543,-0.3472769,0.48197266,15
2.1927649974823002,5.867859840393066,5.728148937225343,-0.3338432013988495,-0.66920286,0.44226643,15
2.20788836479187,5.833217144012451,5.8358893394470215,-0.18911758065223694,-0.52564955,0.31673363,15
2.2160356044769287,5.79859733581543,6.0041022300720215,-0.06361302733421326,-0.77640975,0.17256944,15
2.2400920391082764,5.7746543884277335,6.183260917663574,0.015437274239957331,-1.0128145,0.076052725,15
2.339211225509644,5.807304859161378,6.3679375648498535,0.045482005923986435,-1.1459832,-0.014049901000000002,15
2.4811346530914307,5.866586685180664,6.513209342956543,0.03543895110487938,-1.4498886999999998,-0.03481932,15
2.5949277877807617,5.938874244689941,6.638253688812256,0.011183588765561579,-1.8411479,-0.09712757,15
2.660707235336304,5.994568347930907,6.717526912689209,-0.025186013430356983,-2.2052236,-0.21074851,15
2.755225658416748,6.026699542999268,6.721816539764403,-0.0818457379937172,-2.4700336,-0.28221974,15
2.949498653411865,6.025855541229247,6.58880615234375,-0.142562136054039,-2.7403414,-0.32375857,15
3.2551960945129395,5.985156059265138,6.3413734436035165,-0.1720532327890396,-2.726597,-0.36193767,15
3.593445301055908,5.893746376037598,6.046539783477782,-0.16195261478424072,-2.5534167,-0.39950588,15
3.942879438400269,5.746184349060059,5.596959590911865,-0.13298030197620392,-2.359467,-0.3222314000000001,15
4.327925682067871,5.572060585021973,4.810680866241455,-0.08764582872390747,-2.098933,-0.20066923,15
4.812075614929199,5.523026466369629,3.888971328735352,-0.03152715042233467,-2.021964,0.07513642,15
5.42373514175415,5.781919479370117,3.0057637691497803,0.02297633141279221,-1.8668042,0.49632803,15
6.128805160522461,6.449393272399902,2.187711477279663,0.092721626162529,-1.1908818,0.9068295,15
6.6943416595458975,7.555238246917725,1.5930070877075195,0.2345810234546661,-0.09865474,1.0705414,15
6.795695781707764,7.971125602722168,1.5168267488479614,0.4805941581726074,0.3817908,0.6560693,15
6.660415649414063,7.6571617126464835,1.932696223258972,0.7211673259735107,0.19914207,0.12308934,15
6.431252956390381,7.091366767883301,2.3580069541931152,0.8116146326065063,0.10567969,-0.20158553,15
6.080389976501465,6.5714216232299805,2.567938804626465,0.7224068641662598,-0.14110987,-0.12675454,15
5.665132522583008,6.691218852996826,2.509493827819824,0.5428822040557861,-0.5271766999999999,0.09193522,15
5.408347129821777,7.123432636260986,2.3650715351104736,0.4050359427928925,-0.9104946,0.22602014,15
5.37085485458374,7.383152484893799,2.111600637435913,0.3431240916252136,-0.7473936,0.39370266,15
5.541545391082764,7.373246669769287,1.99124276638031,0.30403658747673035,-0.5045747,0.44959682,15
5.895164966583253,7.319710254669189,1.9168795347213743,0.23385527729988095,-0.24831672,0.40591997,15
6.216641902923584,7.265620708465576,1.7536485195159912,0.13417929410934448,-0.004581489,0.19425514,15
6.346927165985107,7.081141471862793,1.4755405187606812,0.06328047066926956,0.17104226,-0.06047566,15
6.305839538574219,6.872757434844972,1.2483663558959959,0.04465019330382347,0.18570304,-0.27855456,15
6.243375778198242,6.764220237731934,1.1729859113693235,0.03961774334311485,0.122478485,-0.35521814,15
6.232131481170653,6.8001160621643075,1.1702444553375244,0.02127610333263874,0.08582657,-0.24281894,15
6.24381685256958,6.88455867767334,1.1406819820404053,-0.016790611669421196,0.15088372,-0.17195857,15
6.256815433502197,6.960845947265625,1.0845819711685178,-0.06594862043857573,0.27366763,-0.16890424,15
6.1986637115478525,6.972643852233888,1.0216083526611328,-0.11733953654766086,0.4831944,-0.29840767,15
6.032610893249513,6.981919765472412,1.0300441980361938,-0.17027737200260162,0.61911196,-0.50915617,15
5.857784748077393,7.11078405380249,1.117419958114624,-0.2432121634483337,0.86834496,-0.70066243,15
5.660970687866211,7.065502643585205,1.2722560167312622,-0.3389589488506317,0.6081163,-0.8347474,15
5.4689903259277335,6.863310813903809,1.3846027851104736,-0.4050090312957764,0.6973026999999999,-0.91813046,15
5.422745227813722,6.814149379730225,1.4751393795013428,-0.4315271079540253,0.9691377,-1.0002918,15
5.287190914154053,6.757743835449219,1.6498476266860962,-0.4087772071361542,1.3289373,-1.2247848999999995,15
4.9498467445373535,6.758718490600586,1.971916437149048,-0.34131455421447754,1.3909402,-1.4514158,15
4.410987377166748,6.901072025299072,2.3422415256500244,-0.24964167177677155,1.4880677,-1.5818355,15
3.829946756362915,7.131599426269531,2.7727735042572017,-0.1761971116065979,1.5876386999999998,-1.6206254999999998,15
3.299067258834839,7.4988532066345215,3.2520506381988525,-0.12764155864715576,1.4682146,-1.6685784,15
2.7293813228607178,7.946876525878906,3.7748949527740483,-0.10309144854545592,1.1866057,-1.7547104,15
2.29764461517334,8.525322914123535,4.3273959159851065,-0.12254944443702698,0.86467975,-1.8487836,15
2.082802057266236,9.141034126281738,4.7626380920410165,-0.18397299945354464,0.7147123000000001,-1.8551978,15
1.9815936088562007,9.69742202758789,5.072310447692871,-0.253162682056427,0.7119634,-1.8341229,15
2.0112259387969966,10.137919425964355,5.307634353637695,-0.3219111263751984,0.57879484,-1.6630806,15
1.945372223854065,10.45085906982422,5.5555925369262695,-0.388258308172226,0.57696223,-1.6245961000000002,15
1.80817711353302,10.547281265258787,5.805674076080322,-0.4869265854358673,0.52290064,-1.498147,15
1.640533685684204,10.395133018493652,5.969578742980957,-0.6082648634910583,0.32467487,-1.4340062,15
1.4776536226272583,10.04010772705078,5.972084045410156,-0.6993772387504578,0.2706133,-1.3472633,15
1.2802088260650637,9.603261947631836,5.89818286895752,-0.7546590566635132,0.2574797,-1.2962561,15
1.1160579919815063,9.21433925628662,5.758687973022461,-0.7950543165206909,0.4990769000000001,-1.1914927,15
1.0357831716537476,8.922239303588867,5.568199634552002,-0.8167312741279602,0.55863625,-1.1374311,15
0.8251911997795105,8.683608055114746,5.577564239501953,-0.8122381567955017,0.45906523,-1.0354166,15
0.6284896731376648,8.460016250610353,5.6221280097961435,-0.7818531394004822,0.27855456,-0.9578367,15
0.3525203466415405,8.254783630371094,5.695230960845947,-0.7340567708015442,0.16462818,-0.9230174,15
0.07221847772598268,8.071614265441895,5.750516414642334,-0.6786035895347595,0.09896017,-0.93462384,15
-0.1668938398361206,7.935402393341064,5.789102077484131,-0.634339451789856,0.16279559,-0.93187493,15
-0.3745416700839996,7.869045734405518,5.853050231933594,-0.6057446002960205,0.23060162,-0.9193522,15
-0.5732563138008118,7.867459774017334,5.985944747924805,-0.5983026027679443,0.20311269,-0.9306532,15
-0.8450091481208801,7.90341329574585,6.188163757324219,-0.6070641875267029,0.12156218,-0.9783007,15
-1.225082516670227,7.893127918243407,6.412349224090576,-0.616295576095581,0.06627888,-1.0348058,15
-1.5908002853393557,7.860617160797119,6.5776305198669425,-0.6151474714279175,0.044593163,-0.9621128,15
-1.9027903079986568,7.770020008087157,6.673314571380615,-0.6014404892921448,0.018325957,-0.8512407,15
-2.2037484645843506,7.618943691253662,6.725833415985107,-0.5746746659278871,0.04917465,-0.7305948,15
-2.50992488861084,7.464478969573975,6.786436557769775,-0.5423627495765686,0.111177474,-0.655153,15
-2.803877830505371,7.359614372253418,6.8366312980651855,-0.5047456622123718,0.1695151,-0.54153204,15
-3.0730698108673096,7.292966842651367,6.887195587158202,-0.4638095796108246,0.14049901,-0.398895,15
-3.268208265304565,7.22324800491333,6.929489612579347,-0.4222042858600617,0.0720821,-0.2574797,15
-3.4152615070343018,7.144368648529053,6.969274044036865,-0.3705941736698151,-0.08093964,-0.11759156,15
-3.4214870929718018,7.054597854614258,6.955887317657472,-0.32056719064712524,-0.0842994,-0.015577064,15
-3.279503583908081,6.953284740447997,6.919617176055907,-0.28334006667137146,-0.01740966,0.043982297,15
-3.0810675621032715,6.8422675132751465,6.912475109100343,-0.25195422768592834,0.03268129,0.09743301,15
-2.895705223083496,6.749190330505371,6.921060562133789,-0.2280804812908173,0.056199603,0.116675265,15
-2.748692512512207,6.682924270629883,6.928890705108643,-0.21166205406188965,0.049480084,0.14019357,15
-2.6434731483459477,6.619047164916992,6.925405025482178,-0.20043016970157626,0.008552114,0.1441642,15
-2.576598882675171,6.535721778869629,6.886948585510254,-0.19176989793777466,0.013133603,0.13103059,15
-2.550071477890014,6.41964054107666,6.81978702545166,-0.1754307597875595,0.045814894,0.13408493,15
-2.5429818630218506,6.3345699310302725,6.7630977630615225,-0.15766479074954987,0.03940081,0.12736541,15
-2.535594701766968,6.2824745178222665,6.725531578063965,-0.1426769644021988,0.06078109,0.13561209,15
-2.5432357788085938,6.258339405059815,6.720053195953369,-0.1273534595966339,0.09010262,0.13805555,15
-2.5521526336669917,6.269962787628174,6.725795269012451,-0.11495524644851685,0.113926366,0.14599679999999998,15
-2.5641796588897705,6.287765502929688,6.73320198059082,-0.10352751612663268,0.14630222,0.16768251,15
-2.579707622528076,6.312543869018555,6.748665809631348,-0.09637010842561723,0.14996742,0.19303341,15
-2.5772390365600586,6.327625274658202,6.76776123046875,-0.09516990184783937,0.1441642,0.20586158,15
-2.552095890045166,6.307339191436768,6.780535697937013,-0.08828169107437134,0.1386664,0.20189096,15
-2.530078649520874,6.284079074859619,6.804503917694093,-0.06854800134897232,0.13164146,0.22174409,15
-2.5179035663604736,6.282991409301758,6.8289222717285165,-0.051651183515787125,0.13561209,0.22602014,15
-2.5157582759857178,6.303395748138428,6.843705654144287,-0.042594533413648605,0.13225232,0.2134974,15
-2.538059711456299,6.331940650939941,6.874753475189209,-0.035188771784305566,0.14019357,0.20830505,15
-2.608715295791626,6.338331699371338,6.934406757354736,-0.01753001287579536,0.13469578,0.18295415,15
-2.70821213722229,6.341064453125,6.996095657348633,-0.002391581889241934,0.10720685,0.15454891,15
-2.7988381385803223,6.3423686027526855,7.038013458251952,0.010562192648649216,0.1142318,0.12095132,15
-2.878140687942505,6.349766731262207,7.059907913208008,0.02539163269102573,0.10720685,0.06811147,15
-2.9555253982543945,6.3573055267333975,7.0655517578125,0.04804787039756775,0.083383106,0.03726278,15
-3.0234782695770264,6.3799591064453125,7.022024154663086,0.07125288993120192,0.03604105,0.028710667,15
-3.0549824237823486,6.432902812957764,6.939835071563722,0.08640735596418381,0.021685716,-0.015882496,15
-3.050546884536743,6.534769058227539,6.86444091796875,0.07860814034938812,-0.0076358155,-0.09896017,15
-3.04200291633606,6.634769916534424,6.825162887573242,0.0406835675239563,-0.062308256,-0.18936823,15
-3.0494885444641118,6.648963451385497,6.828743934631348,-0.0038539927918463945,-0.10140363,-0.32895094,15
-3.077043056488037,6.570028305053711,6.839942932128906,-0.007343935780227184,-0.04062254,-0.45998153,15
-3.063516855239868,6.49766731262207,6.83868932723999,0.007734871003776789,-0.018936822,-0.47647488,15
-2.9736404418945312,6.477400779724121,6.856716632843018,-0.004315414931625128,-0.0842994,-0.43493605,15
-2.808746814727783,6.482084274291992,6.869041442871094,-0.03412039205431938,-0.10873401,-0.32253686,15
-2.6506292819976807,6.432389259338379,6.88556432723999,-0.06000152602791786,-0.13988814,-0.24953845,15
-2.551266431808472,6.319088459014893,6.886379718780518,-0.07331310957670213,-0.11636983,-0.25961772,15
-2.500162363052368,6.181025981903076,6.873573780059815,-0.0738125592470169,-0.003970624,-0.2501493,15
-2.46530556678772,6.06516695022583,6.888758182525635,-0.06435495615005493,-0.04550946,-0.19456059,15
-2.478548765182495,6.001708030700684,6.891798496246338,-0.04498976096510887,-0.024740042,-0.15577064,15
-2.554119348526001,6.020903587341309,6.880913734436035,-0.02495681308209896,0.053450707,-0.11056661,15
-2.6633777618408203,6.11495304107666,6.8546648025512695,-0.013851379044353962,0.09040806,-0.074830994,15
-2.764512062072754,6.182094097137451,6.836644649505615,-0.0077903508208692065,0.09743301,-0.035124752999999995,15
-2.8492190837860107,6.204587459564209,6.832203388214111,-0.0008598539279773831,0.11881329,0.0030543262,8
-2.894450426101685,6.1863465309143075,6.839710235595702,0.01231270469725132,0.10567969,0.029321533,8
-2.912721872329712,6.157552719116211,6.858833312988281,0.02592756412923336,0.093462385,0.027183503,8
-2.9278430938720703,6.1305503845214835,6.873852252960205,0.03390762582421303,0.07238753,0.01863139,8
-2.9566316604614262,6.12305212020874,6.887547492980957,0.03699002042412758,0.05131268,-0.003970624,8
-3.0130643844604488,6.131269454956055,6.8793578147888175,0.034303348511457436,0.030848695,-0.015882496,8
-3.077845811843872,6.146341800689697,6.866490840911865,0.026909563690423962,0.006414085,-0.020158553,8
-3.1588001251220703,6.168596267700195,6.836159706115723,0.014919305220246315,-0.016798794,-0.01038471,8
-3.2407016754150386,6.195313930511475,6.803394317626952,0.0020823536906391387,-0.035124752999999995,-0.016187929,8
-3.3141984939575195,6.21047830581665,6.775326728820801,-0.006924898363649845,-0.029321533,-0.016187929,8
-3.363953828811645,6.20197343826294,6.758975028991699,-0.011258781887590885,-0.026267206,-0.019242255,8
-3.3866305351257324,6.189685821533202,6.755671977996826,-0.010752773843705654,-0.016798794,-0.015577064,8
-3.3854253292083736,6.17776346206665,6.760395050048827,-0.007428196258842945,-0.027794369,-0.007330383,8
-3.364776134490967,6.170444965362549,6.784056663513184,-0.0006777570815756918,-0.016493361,0.005192355,8
-3.3051979541778564,6.188117027282715,6.830466270446777,0.005490373820066452,-0.026572637000000003,0.009773844,8
-3.2226011753082275,6.201864242553711,6.877736568450928,0.008628911338746548,-0.034513887,0.007941248,8
-3.145680427551269,6.203922748565674,6.913182735443115,0.00743682449683547,-0.037873644,-0.010995574,8
-3.0729191303253174,6.195216178894043,6.921646118164063,0.0032699236180633307,-0.023518313,-0.0033597588,8
-3.013942241668701,6.162910461425781,6.91729736328125,0.000604772474616766,-0.0015271631,-0.0012217305,8
-2.966725826263428,6.124269962310791,6.904342174530028,2.080463855236303e-05,0.016798794,0.01863139,8
-2.936142444610596,6.098858833312987,6.8760199546813965,0.0007273560622707009,0.022602014,0.023823744,8
-2.9281582832336426,6.0882649421691895,6.852537155151367,0.00262035196647048,0.03604105,0.03604105,8
-2.944047212600708,6.089195251464844,6.832760810852051,0.004588128067553043,0.029321533,0.025045475,8
-2.9685637950897217,6.101466655731201,6.823305130004883,0.007211984135210514,0.03023783,0.02107485,8
-3.0024523735046387,6.119170188903809,6.823873519897461,0.00881288107484579,0.035430185,0.0290161,8
-3.03743577003479,6.142955780029298,6.832337856292725,0.008690069429576397,0.036957346,0.019242255,8
-3.077519655227661,6.163313388824463,6.842376708984375,0.005391038954257965,0.035430185,0.017104227,8
-3.129019021987915,6.175658702850343,6.8537116050720215,0.0034950238186866045,0.0290161,0.0076358155,8
-3.1881139278411865,6.173675537109375,6.86445951461792,0.0039288802072405815,0.035124752999999995,0.010690141499999998,8
-3.235912322998047,6.1661133766174325,6.869659423828125,0.0057782032527029506,0.0125227375,0.01038471,8
-3.266803979873657,6.161816120147705,6.869997978210449,0.00842016376554966,0.009468411,0.015882496,8
-3.2731215953826904,6.161090850830077,6.861647605895996,0.009959474205970764,0.003970624,0.010079277,8
-3.2611825466156006,6.159412384033202,6.842561721801758,0.008896763436496258,-0.01863139,0.008246681,8
-3.245068073272705,6.155154228210449,6.830628871917725,0.008247947320342064,-0.015271631,0.007941248,8
-3.2227790355682373,6.14564323425293,6.8243560791015625,0.007489108014851808,-0.026267206,-0.0027488936,8
-3.206450223922729,6.131617546081543,6.822298526763916,0.007576231379061937,-0.019242255,0.004886922,8
-3.190013647079468,6.120400905609131,6.818397998809815,0.007779553998261691,-0.0076358155,0.007330383,8
-3.1728031635284424,6.1156325340271,6.820802211761475,0.010988170281052591,-0.0030543262,0.018325957,8
-3.1490280628204346,6.112640857696532,6.825226306915282,0.014131787233054638,0.004886922,0.021685716,8
-3.1255040168762207,6.115534782409668,6.840308666229247,0.01862834393978119,0.023518313,0.03268129,8
-3.1006896495819087,6.129746913909912,6.866529941558838,0.018689032644033432,0.018936822,0.044898596,8
-3.0887062549591064,6.148913383483888,6.88149881362915,0.014528511092066763,0.014660766,0.03634648,8
-3.0835361480712886,6.16559362411499,6.891581535339356,0.00965776015073061,0.009468411,0.020463986,8
-3.09340238571167,6.169674396514893,6.888132572174072,0.005923534743487835,0.008246681,0.00061086525,8
-3.1082985401153564,6.162931442260742,6.868364810943604,0.006018602754920721,0.018020526,-0.01282817,8
-3.1240549087524414,6.157604694366455,6.849323272705077,0.007870792411267756,0.012217305,0.012217305,8
-3.1489043235778813,6.1591739654541025,6.8354573249816895,0.009365811944007874,0.008246681,0.013133603,8
-3.1727728843688965,6.154988765716553,6.82636022567749,0.009571307338774204,-0.0070249503,0.008857545999999999,8
-3.1882710456848145,6.15042781829834,6.826911449432372,0.009394517168402672,-0.0067195175,0.008857545999999999,8
-3.202343463897705,6.148641586303711,6.829887866973878,0.009334447793662548,-0.0076358155,0.008246681,8
-3.21235466003418,6.145578861236572,6.8326778411865225,0.008924481458961964,-0.015271631,0.0009162979,8
-3.2107994556427,6.143303394317628,6.835745334625244,0.009327085688710213,-0.008857545999999999,0.010079277,8
-3.2029061317443848,6.1478681564331055,6.8367862701416025,0.00907584372907877,0.0015271631,0.01282817,8
-3.1903493404388428,6.157520771026611,6.841381072998048,0.011291738599538805,0.0018325958,0.007941248,8
-3.1715548038482666,6.171418190002441,6.84191370010376,0.011934385634958744,0.0018325958,0.023518313,8
-3.1548328399658203,6.174405097961426,6.839783668518066,0.011303643696010113,0.011301007,0.01863139,8
-3.147049903869629,6.17385196685791,6.8380279541015625,0.010456551797688007,-0.0021380284,0.017715093,8
-3.1421775817871094,6.165469646453857,6.836106300354004,0.010620688088238241,-0.0061086523,0.01282817,8
-3.1404266357421875,6.162686824798584,6.8342247009277335,0.010218992829322815,0.0009162979,0.013133603,8
-3.137856721878052,6.167750358581543,6.833212852478027,0.009356915019452572,-0.007941248,0.008857545999999999,8
-3.1364083290100098,6.17156457901001,6.834952354431152,0.007927583530545235,0.00061086525,0.011301007,8
-3.138298511505127,6.172554969787598,6.833310127258301,0.007219522260129452,-0.006414085,0.011301007,8
-3.1488637924194336,6.1750450134277335,6.828836441040039,0.006584414280951022,-0.005497787,0.009162978,8
-3.1528835296630864,6.1760292053222665,6.827855110168457,0.007088765501976012,0.0009162979,0.0030543262,8
-3.1568963527679443,6.173210620880128,6.823124408721924,0.007170763332396746,0.0067195175,0.0033597588,8
-3.16120982170105,6.175137519836426,6.821224689483643,0.007899476215243341,0.004276057,0.007941248,8
-3.1664960384368896,6.17466926574707,6.829739093780518,0.008942597545683384,0.0015271631,0.010690141499999998,8
-3.1700687408447266,6.1731019020080575,6.826621055603027,0.009455516003072262,-0.010690141499999998,0.016798794,8
-3.1703400611877437,6.17251443862915,6.821394920349121,0.008913738653063774,-0.008246681,0.0027488936,8
-3.170306205749512,6.173766613006593,6.81304407119751,0.007690566591918468,-0.013744468,0.009468411,8
-3.1607677936553955,6.173758506774902,6.816223621368407,0.007843758910894394,-0.0067195175,0.0018325958,8
-3.150315999984741,6.176661491394043,6.8242759704589835,0.007096462417393924,-0.0030543262,0.004581489,8
-3.144259214401245,6.177796363830566,6.8250603675842285,0.005766286514699459,-0.013744468,0.0009162979,8
-3.1415328979492188,6.1707091331481925,6.827010631561278,0.0049171014688909045,-0.00061086525,0.005192355,8
-3.139266967773437,6.165069103240968,6.8286848068237305,0.005402198992669582,0.0015271631,0.00580322,8
-3.1341514587402344,6.160981178283691,6.8304996490478525,0.006174643989652395,-0.006414085,0.0067195175,8
-3.128414869308472,6.162543296813965,6.830800533294678,0.006652434822171927,-0.005497787,0.004886922,8
-3.1269240379333496,6.165149211883545,6.8309006690979,0.006853844039142132,-0.0070249503,0.010995574,8
-3.124145030975342,6.169656753540039,6.831845760345459,0.006974832620471716,-0.0036651916,0.014049901000000002,8
