timestamp,rel_time,acc_x,acc_y,acc_z,gyro_x,gyro_y,gyro_z,azimuth,pitch,roll,label
0.0,0.0,0.0,0.0,0.0,0.0,0.023823743999999997,0.028099801,219.22197999999997,-60.039390000000004,29.108036,STD
2430821400.0,1.4916251529939473e-05,0.014149408787488937,0.02571830525994301,-0.0026536481454968452,-1.2789801075996365e-05,0.02565634,0.033292156,219.34236,-59.948043999999996,29.229988,STD
7256314000.0,7.423797069350258e-05,0.04219355061650276,0.07673799991607666,-0.007915760390460491,-1.4532591194438282e-05,0.03268129,0.024129177,219.455,-59.864284999999995,29.342712,STD
14405450000.0,0.0002066726010525599,0.08367559313774109,0.15227383375167847,-0.015703188255429268,-6.2706685639568605e-06,0.015882496,0.01160644,219.57384,-59.781082,29.454237,STD
23774850000.0,0.00043881230521947145,0.13795322179794312,0.25120046734809875,-0.025897832587361336,4.55704002888524e-06,0.013133603,0.016493361,219.632690748245,-59.739496006820495,29.509810308224697,STD
35232350000.0,0.0007949931314215064,0.20421966910362244,0.37209048867225647,-0.03835057467222214,0.00014199558063410223,-0.0076358155,0.014966198,219.6914,-59.69801,29.56525,STD
48621416000.0,0.00129830336663872,0.28152796626091003,0.5132598280906677,-0.05288590118288994,0.0004130583838559687,-0.018325957,0.005497787,219.8103,-59.62316,29.666946000000003,STD
63766100000.0,0.00196769624017179,0.3688241243362427,0.6728237867355347,-0.06930788606405258,0.0005985886673443019,-0.03940081,-0.0030543262,219.93903999999998,-59.548042,29.768790999999997,STD
80476310000.0,0.0028158710338175297,0.4651409387588501,0.8488584756851196,-0.08756627142429352,0.000735151581466198,-0.04734206,-0.008246681,220.06602,-59.47623000000001,29.866703,STD
98553080000.0,0.0038570305332541466,0.569452166557312,1.0393412113189697,-0.1075957864522934,0.0005360458744689822,-0.053450707,-0.0076358155,220.19817,-59.405193000000004,29.96248,STD
117793620000.0,0.005099939648061991,0.6806070804595947,1.2421438694000244,-0.1292177140712738,0.0005627467180602252,-0.06169739,-0.011301007,220.2955,-59.341044999999994,30.04887,STD
137995980000.0,0.006550145335495472,0.7974566221237183,1.4551453590393066,-0.15224689245224,0.0005641455063596368,-0.059864793,-0.01863139,220.39029,-59.277319999999996,30.132668,STD
158963090000.0,0.008210168220102787,0.9188768863677979,1.6762750148773193,-0.17649614810943604,0.0007649037870578468,-0.046731193,-0.02687807,220.48291,-59.216568,30.213521999999998,STD
180506200000.0,0.010081357322633266,1.0437902212142944,1.9035489559173584,-0.20178383588790894,0.0010013681603595614,-0.030848695,-0.021685716,220.57247999999998,-59.154526000000004,30.2945,STD
202447600000.0,0.012160363607108593,1.171177864074707,2.1350977420806885,-0.2279285341501236,0.002026558853685856,-0.00580322,-0.021685716,220.65388,-59.098423,30.369577000000003,STD
224622660000.0,0.014442285522818565,1.3000940084457397,2.369188070297241,-0.2547581195831299,0.0032180207781493664,0.011301007,-0.020463986,220.73126000000002,-59.040380000000006,30.444846999999996,STD
246881200000.0,0.016958028078079224,1.4297099113464355,2.604254722595215,-0.28219515085220337,0.004009393509477377,0.03634648,-0.011911871999999999,220.79639,-58.98141,30.519852,STD
269088230000.0,0.019629210233688354,1.5591791868209839,2.8388447761535645,-0.3099312484264374,0.0045592146925628185,0.046731193,-0.0036651915999999997,220.85962999999998,-58.9234,30.59368,STD
291124280000.0,0.02248184196650982,1.6878437995910645,3.071713447570801,-0.3379080295562744,0.00472104549407959,0.05222898,-0.0076358155,220.91542,-58.866595999999994,30.664507,STD
312885180000.0,0.025508148595690727,1.8151010274887085,3.301762580871582,-0.366006076335907,0.004995521157979965,0.05100725,-0.0036651915999999997,220.96866,-58.806422999999995,30.738446999999997,STD
334281570000.0,0.028696194291114807,1.9404288530349731,3.528047561645508,-0.39411109685897827,0.005513775162398815,0.05100725,-0.002443461,221.01913,-58.748740000000005,30.808945,STD
355238180000.0,0.03203887492418289,2.063390016555786,3.7497737407684326,-0.4221334755420685,0.005967866629362106,0.048258353,-0.0009162978999999999,221.07007000000002,-58.690575,30.879423,STD
375692800000.0,0.03552482649683952,2.1836183071136475,3.966282606124878,-0.4499867558479309,0.006097042467445135,0.05375614,0.0015271631,221.11747999999997,-58.63271700000001,30.948956,STD
395595200000.0,0.03914488106966019,2.3008182048797607,4.177042484283447,-0.47760123014450073,0.006542579736560583,0.06536258,0.009468411,221.16287000000003,-58.57434,31.019094,STD
414906160000.0,0.04288804158568382,2.414754629135132,4.381636142730713,-0.5049138069152832,0.0060135722160339355,0.07269296,0.013439035,221.20727999999997,-58.515812,31.087460999999998,STD
433596200000.0,0.046745505183935165,2.5252506732940674,4.579750061035156,-0.531875729560852,0.005429851356893778,0.0720821,0.016798794,221.24967999999998,-58.457317,31.156496,STD
451644460000.0,0.050711460411548615,2.6321818828582764,4.771162033081055,-0.5584536194801331,0.0047353580594062805,0.06627888,0.015882496,221.2909,-58.398987,31.224064000000002,STD
469037600000.0,0.05477231368422508,2.735459089279175,4.9557271003723145,-0.5846039056777954,0.003948416095227003,0.06688975,0.013439035,221.32967000000002,-58.34112,31.290685999999997,STD
485768950000.0,0.05891919508576393,2.8350353240966797,5.133370399475098,-0.6103000044822693,0.0033846618607640266,0.064446285,0.022296581,221.37065,-58.281459999999996,31.359215000000003,STD
501837370000.0,0.06314999610185623,2.9309022426605225,5.304079055786133,-0.6355360150337219,0.0023180744610726833,0.047647487,0.022296581,221.41613999999998,-58.2253,31.423607,STD
517246450000.0,0.06749755144119263,3.0231118202209473,5.467905521392822,-0.6603894233703613,0.0010531481821089983,0.04337143,0.017715093,221.45772000000002,-58.169340000000005,31.487692,STD
532003720000.0,0.07186517119407654,3.111614942550659,5.624887466430664,-0.6846501231193542,0.00020769228285644203,0.043676864,0.024740042,221.50262,-58.11114499999999,31.554134,STD
546120000000.0,0.07629624009132385,3.1965150833129883,5.775157451629639,-0.708426296710968,-0.0006624350207857788,0.05681047,0.022602014,221.54462999999998,-58.05729,31.615247999999998,STD
559608800000.0,0.08078321069478989,3.2778820991516113,5.918854236602783,-0.7317141890525818,-0.0016328769270330667,0.04428773,0.010995574,221.59479,-58.005340000000004,31.675048999999998,STD
572485800000.0,0.08532027900218964,3.355799436569214,6.0561394691467285,-0.7545160055160522,-0.0020157427061349154,0.046731193,0.015882496,221.63475,-57.95074,31.737090000000002,STD
584768100000.0,0.08990279585123062,3.430361270904541,6.187191963195801,-0.7768381237983704,-0.0023653151001781225,0.04276056599999999,0.019242255,221.68105,-57.900245999999996,31.794736999999998,STD
596474270000.0,0.09453047811985016,3.5016727447509766,6.312206268310547,-0.7986980080604553,-0.0025730885099619627,0.040317107000000005,0.005192355,221.72595,-57.85467,31.847604999999998,STD
607623600000.0,0.09919284284114838,3.5698344707489014,6.431380748748779,-0.8200909495353699,-0.0024719962384551764,0.03848451,0.0061086523,221.77112000000002,-57.804905000000005,31.904678000000004,STD
618235950000.0,0.10388866066932678,3.6349592208862305,6.544924259185791,-0.8410337567329407,-0.0022336554247885942,0.031154128,0.007941248,221.8189,-57.759617000000006,31.957186,STD
628331640000.0,0.10861381143331528,3.6971585750579834,6.653048515319824,-0.8615369200706482,-0.0014683359768241644,0.025961772999999997,0.0015271631,221.86635,-57.71765500000001,32.006603000000005,STD
637931000000.0,0.1133669763803482,3.7565479278564453,6.755966663360596,-0.8816174268722534,-0.0012966541107743979,0.021685716,0.0027488936,221.91527999999997,-57.67309,32.057896,STD
647054500000.0,0.11814431101083755,3.8132400512695312,6.853890895843506,-0.9012865424156189,-0.0016112636076286435,0.017104227,0.0009162978999999999,221.96587999999997,-57.63234,32.105675,STD
655722100000.0,0.12294322997331619,3.867347240447998,6.9470319747924805,-0.9205581545829773,-0.0011439725058153272,0.016798794,-0.0036651915999999997,222.01605,-57.593155,32.15211,STD
663953700000.0,0.12776385247707367,3.918982982635498,7.035598278045654,-0.9394519329071045,-0.0009561118204146624,0.027488936000000002,0.0009162978999999999,222.06342999999998,-57.551575,32.19963,STD
671768700000.0,0.13260838389396667,3.9682605266571045,7.119795322418213,-0.9579918384552002,-0.00040922360494732857,0.034513887,0.00030543262000000003,222.11194,-57.51429,32.243614,STD
679186100000.0,0.13746190071105957,4.015273571014404,7.199815273284912,-0.9761627912521362,0.0004789621743839234,0.04550946,-0.005497787,222.1551,-57.477656999999994,32.28627,STD
686224240000.0,0.1423342227935791,4.0601372718811035,7.2758564949035645,-0.9940049648284912,0.0009680978255346417,0.07086037,-0.009162978,222.19062999999997,-57.441019999999995,32.328094,STD
692901000000.0,0.14722055196762085,4.1029486656188965,7.348104476928711,-1.01152503490448,0.001593042747117579,0.06688975,-0.010079277,222.23207000000002,-57.406387,32.36864,STD
699233600000.0,0.15211418271064758,4.142791748046875,7.416694641113281,-1.0277448892593384,0.0027335991617292166,0.077579886,-0.011301007,222.25983,-57.3735,32.406487,STD
705238700000.0,0.15701858699321747,4.179046154022217,7.481772422790527,-1.0419896841049194,0.0035893013700842857,0.08124508,-0.014049901000000002,222.29109,-57.341526,32.443127000000004,STD
710932370000.0,0.1619333028793335,4.211886405944824,7.543509483337402,-1.0543556213378906,0.004545886069536209,0.084910266,-0.0125227375,222.34581,-57.296443999999994,32.499054,STD
716329840000.0,0.16685621440410614,4.241490364074707,7.602070331573486,-1.0649422407150269,0.00582432746887207,0.08368854,-0.014660766,222.39997999999997,-57.253838,32.552040000000005,STD
721445900000.0,0.17178651690483093,4.268021583557129,7.6576128005981445,-1.073839783668518,0.006874337792396545,0.08674286,-0.009468411,222.45016,-57.20914499999999,32.606285,STD
726294660000.0,0.17672592401504517,4.291621208190918,7.7102885246276855,-1.0811238288879395,0.008468170650303364,0.08307768,-0.006414085,222.50207999999998,-57.166916,32.65837,STD
730889600000.0,0.18167027831077576,4.3124589920043945,7.760241985321045,-1.086891770362854,0.009832751005887985,0.089186326,0.00061086525,222.54842999999997,-57.122227,32.711777000000005,STD
735243530000.0,0.18661905825138092,4.330676555633545,7.807610511779785,-1.091221570968628,0.011433511972427368,0.093462385,0.0012217305,222.5957,-57.0797,32.76323,STD
739368800000.0,0.19157849252223969,4.346370220184326,7.852527618408203,-1.0941590070724487,0.012690764851868153,0.08857546,0.007941248,222.64282000000003,-57.033764,32.81739,STD
743277200000.0,0.1965414583683014,4.359707355499268,7.895117282867432,-1.0958036184310913,0.014076409861445427,0.076052725,0.012217305,222.69022,-56.98941,32.869987,STD
746979800000.0,0.20150844752788544,4.370805740356445,7.935500144958496,-1.0962190628051758,0.0158432275056839,0.05222898,0.021685716,222.74205,-56.942364000000005,32.925156,STD
750487200000.0,0.20647846162319183,4.379785060882568,7.973789215087891,-1.0954722166061401,0.01792249269783497,0.03268129,0.033292156,222.79572000000002,-56.894253000000006,32.981186,STD
753809600000.0,0.21144919097423553,4.386767864227295,8.010093688964844,-1.093632459640503,0.01963217556476593,0.021685716,0.028405233999999998,222.85382,-56.848780000000005,33.034306,STD
756956600000.0,0.216421976685524,4.391849517822266,8.044515609741211,-1.090750813484192,0.02125144936144352,0.010995574,0.03634648,222.91711,-56.797367,33.09353,STD
759937300000.0,0.22139662504196167,4.395130157470703,8.077154159545898,-1.0868818759918213,0.022687576711177826,0.013439035,0.048563786,222.97879,-56.74669599999999,33.151424,STD
762760400000.0,0.22637513279914856,4.39669132232666,8.108102798461914,-1.0820683240890503,0.023414071649312973,0.03023783,0.047647487,223.03838,-56.698036,33.206657,STD
765434130000.0,0.2313552051782608,4.396635055541992,8.137449264526367,-1.0763684511184692,0.023988323286175728,0.036651913,0.052534412999999995,223.09952,-56.645203,33.265984,STD
767966400000.0,0.23633570969104767,4.395052909851074,8.165277481079102,-1.0698333978652954,0.024353355169296265,0.038179077,0.047036625,223.15599999999998,-56.596153,33.320774,STD
770364540000.0,0.241322323679924,4.39199161529541,8.191667556762695,-1.062482476234436,0.02463400363922119,0.057726767000000005,0.05100725,223.20322000000002,-56.543842000000005,33.378235,STD
772635700000.0,0.24631032347679138,4.387554168701172,8.216694831848145,-1.0543774366378784,0.025338688865303993,0.076358154,0.04642576,223.24972999999997,-56.49646,33.4306,STD
774786500000.0,0.2512971758842468,4.3818278312683105,8.240431785583496,-1.0455687046051025,0.02680264040827751,0.089186326,0.039095376,223.29091,-56.44964,33.482079999999996,STD
776823300000.0,0.25628477334976196,4.3748698234558105,8.262945175170898,-1.0360854864120483,0.029327083379030228,0.099571034,0.0421497,223.3259,-56.40220600000001,33.533997,STD
778752160000.0,0.2612743675708771,4.366737365722656,8.284300804138184,-1.0259579420089722,0.03201010450720787,0.08827003,0.04062254,223.36356,-56.358906000000005,33.58162,STD
780578700000.0,0.26626449823379517,4.357501029968262,8.304559707641602,-1.0152257680892944,0.03518481180071831,0.064446285,0.03573562,223.40142999999998,-56.316869999999994,33.628190000000004,STD
782308500000.0,0.2712555229663849,4.347216606140137,8.323779106140137,-1.0039193630218506,0.03876001015305519,0.045814894,0.041233405,223.44075,-56.27306,33.676395,STD
783946500000.0,0.2762463390827179,4.3359456062316895,8.34201431274414,-0.9920737147331238,0.04216134175658226,0.01863139,0.03756821,223.49075,-56.23392,33.719982,STD
785497600000.0,0.2812391519546509,4.323727607727051,8.359317779541016,-0.9797078967094421,0.045023851096630096,-0.010690141499999998,0.035430185,223.54716000000002,-56.193447,33.764843,STD
786966450000.0,0.2862313389778137,4.310627460479736,8.375739097595215,-0.9668604135513306,0.04783167690038681,-0.033292156,0.032070424,223.60994,-56.15506,33.807606,STD
788357450000.0,0.2912294864654541,4.296654224395752,8.391324996948242,-0.9535285830497742,0.05076667666435242,-0.052534412999999995,0.035430185,223.68082,-56.115832999999995,33.851048,STD
789674660000.0,0.29622572660446167,4.28189754486084,8.406119346618652,-0.9397704601287842,0.052764490246772766,-0.076052725,0.032375857,223.76022000000003,-56.079662,33.891106,STD
790922000000.0,0.3012202978134155,4.2663984298706055,8.420164108276367,-0.9256081581115723,0.053874943405389786,-0.08399397,0.032375857,223.83995,-56.0422,33.93222,STD
792103200000.0,0.3062160015106201,4.250180721282959,8.433499336242676,-0.9110515117645264,0.053933702409267426,-0.08979719,0.03604105,223.92612999999997,-56.004819999999995,33.9729,STD
793221860000.0,0.3112123906612396,4.2332844734191895,8.446163177490234,-0.8961231708526611,0.053305890411138535,-0.09407325,0.027183502999999998,224.01372999999998,-55.971385999999995,34.009308000000004,STD
794281250000.0,0.3162527084350586,4.215496063232422,8.458197593688965,-0.8806567192077637,0.05178395286202431,-0.09773844,0.030543262,224.10218999999998,-55.93366999999999,34.049572,STD
795284400000.0,0.32124626636505127,4.197373390197754,8.469622611999512,-0.8650606870651245,0.050896354019641876,-0.098043874,0.015882496,224.1903,-55.904198,34.08149,STD
796234400000.0,0.3262416124343872,4.1786675453186035,8.480477333068848,-0.8491438627243042,0.04950271546840668,-0.07880162,0.018325957,224.27200000000002,-55.869,34.118546,STD
797134100000.0,0.3312365710735321,4.159422397613525,8.490792274475098,-0.8329322934150696,0.04767880588769913,-0.093767814,0.0012217305,224.36502000000002,-55.844044,34.14543,STD
797986100000.0,0.3362310528755188,4.139666557312012,8.500596046447754,-0.8164421916007996,0.045642826706171036,-0.10323623,-0.006414085,224.44867999999997,-55.816017,34.175053000000005,STD
798793100000.0,0.34123316407203674,4.119380950927734,8.509916305541992,-0.7996535301208496,0.04350372403860092,-0.10170906,-0.013439035,224.53304,-55.79294,34.199543,STN
799557300000.0,0.34623217582702637,4.098653316497803,8.518777847290039,-0.782626748085022,0.040485791862010956,-0.08735373,-0.011911871999999999,224.61542000000003,-55.769703,34.223927,STN
800281000000.0,0.35122784972190857,4.0789384841918945,8.527970314025879,-0.7642629742622375,0.036115024238824844,-0.087659165,-0.021685716,224.70167999999998,-55.75185,34.24279,STN
800966440000.0,0.3562246561050415,4.061700344085693,8.538304328918457,-0.7434130907058716,0.030609961599111557,-0.06566802,-0.019242255,224.77449,-55.730194,34.265175,STN
801615640000.0,0.3612213730812073,4.0468010902404785,8.549710273742676,-0.7202247977256775,0.02424260973930359,-0.05375614,-0.025045475,224.70067000000003,-55.811356,34.182835,STN
802230500000.0,0.3662184178829193,4.034118175506592,8.562134742736816,-0.694817066192627,0.017563460394740105,-0.043982297000000004,-0.0290161,224.62057000000001,-55.88981,34.102924,STN
802812900000.0,0.37121471762657166,4.023528099060059,8.575516700744629,-0.667322039604187,0.00969394575804472,-0.032375857,-0.03145956,224.53642000000002,-55.96784,34.023006,STN
803364540000.0,0.37621232867240906,4.01492977142334,8.58981704711914,-0.6378246545791626,0.001023010117933154,-0.032375857,-0.027488936000000002,224.45358,-56.043673999999996,33.94506,STN
803887050000.0,0.38120946288108826,4.008208274841309,8.604976654052734,-0.6064537167549133,-0.008325262926518917,-0.014355333500000001,-0.029321532999999997,224.36131,-56.120216000000006,33.865852000000004,STN
804382050000.0,0.38625121116638184,4.003504276275635,8.621224403381348,-0.5727246999740601,-0.018021805211901665,-0.007330383,-0.032070424,224.2736,-56.194317000000005,33.78877,STN
804850900000.0,0.391247034072876,4.000239372253418,8.637965202331543,-0.5379064083099365,-0.028113162145018578,0.012217305,-0.022907447,224.17615,-56.263884999999995,33.715576,STN
805294960000.0,0.3962428867816925,3.9985692501068115,8.655437469482422,-0.5014925599098206,-0.03916424885392189,0.036957346,-0.031154128,224.0755,-56.337517000000005,33.63767,STN
805715640000.0,0.40123850107192993,3.9984076023101807,8.673601150512695,-0.4635716676712036,-0.05112392455339432,0.07696902,-0.0290161,223.96365,-56.403954000000006,33.56617,STN
806114200000.0,0.4062398076057434,3.9997057914733887,8.692455291748047,-0.424147367477417,-0.06459484249353409,0.13041973,-0.033292156,223.83981,-56.47265600000001,33.4912,STN
806491800000.0,0.411236435174942,4.0023322105407715,8.711901664733887,-0.3834303617477417,-0.07908955216407776,0.19547687,-0.03634648,223.6994,-56.53869,33.41767,STN
806849540000.0,0.41623443365097046,4.006247043609619,8.73194408416748,-0.341414213180542,-0.0943581759929657,0.25289822,-0.048258353,223.54475,-56.606472,33.34081,STN
807188500000.0,0.42123186588287354,4.011371612548828,8.75253963470459,-0.2981923520565033,-0.11075011640787125,0.30482176,-0.05222898,223.37122999999997,-56.670715,33.26549,STN
807509600000.0,0.4262305200099945,4.017650604248047,8.773670196533203,-0.2538062632083893,-0.12840083241462708,0.35430184,-0.052839845,223.18074,-56.735237,33.18778,STN
807813900000.0,0.43122872710227966,4.025014400482178,8.795296669006348,-0.20833870768547058,-0.14719441533088684,0.37598756,-0.06627888,222.98415,-56.80223,33.10557,STN
808102260000.0,0.436227411031723,4.03341007232666,8.817398071289062,-0.16183558106422424,-0.16637004911899567,0.40225476,-0.079107046,222.77122000000003,-56.86699,33.02316,STN
808375500000.0,0.44123026728630066,4.042802333831787,8.839971542358398,-0.11430371552705765,-0.18514233827590942,0.43066000000000004,-0.08643743400000001,222.55254,-56.931725,32.938595,STN
808634400000.0,0.4462337791919708,4.053120136260986,8.862972259521484,-0.06584078073501587,-0.20485122501850128,0.4636467000000001,-0.09560041,222.32596,-56.997562,32.849827000000005,STN
808879850000.0,0.4512300193309784,4.064272403717041,8.886329650878906,-0.016598626971244812,-0.22520263493061066,0.48044549999999997,-0.10812314599999999,222.09787000000003,-57.064296999999996,32.758286,STN
809112500000.0,0.45625290274620056,4.0763936042785645,8.910228729248047,0.033815693110227585,-0.24596701562404633,0.5002986,-0.13561209,221.86057999999997,-57.13502,32.659657,STN
809332970000.0,0.46125102043151855,4.089165210723877,8.934335708618164,0.08469178527593613,-0.26756182312965393,0.535118,-0.15149458,221.61522000000002,-57.202698,32.5606,STN
809541960000.0,0.46624812483787537,4.102672576904297,8.958776473999023,0.1362958401441574,-0.2902032434940338,0.5708536,-0.17470746,221.36643999999998,-57.276924,32.4517,STN
809740100000.0,0.4712454378604889,4.11688232421875,8.983540534973145,0.18860426545143127,-0.3141447603702545,0.61575216,-0.18845193,221.10587999999998,-57.349068,32.340534000000005,STN
809927900000.0,0.4762433171272278,4.131759166717529,9.008612632751465,0.24158434569835663,-0.33964264392852783,0.66828656,-0.21533000000000002,220.8348,-57.427135,32.218517,STN
810105960000.0,0.4812416434288025,4.1472673416137695,9.033975601196289,0.29519888758659363,-0.3668580949306488,0.72295904,-0.23762658,220.55147999999997,-57.502926,32.093204,STN
810274850000.0,0.48623931407928467,4.163366794586182,9.05960750579834,0.34940028190612793,-0.3957809805870056,0.7877107,-0.26328292,220.25168,-57.58188199999999,31.95808,STN
810434950000.0,0.4912422299385071,4.180058002471924,9.085530281066895,0.4042332172393799,-0.4272155463695526,0.84665924,-0.2864958,219.94002000000003,-57.6597,31.816340999999998,STN
810586800000.0,0.496245801448822,4.197286128997803,9.111701965332031,0.4596081078052521,-0.4601326882839203,0.90316427,-0.31612277,219.61285,-57.740840000000006,31.664009999999998,STN
810730850000.0,0.5012432932853699,4.214986324310303,9.138068199157715,0.515408992767334,-0.49526727199554443,0.95356065,-0.33383787,219.27302999999998,-57.81649399999999,31.5071,STN
810867500000.0,0.5062415599822998,4.233169078826904,9.164658546447754,0.5716988444328308,-0.5319314002990723,0.9999863999999999,-0.35613444,218.92188,-57.894737,31.339035,STN
810997100000.0,0.5112380981445312,4.251795291900635,9.191445350646973,0.6284184455871582,-0.5700924396514893,1.056186,-0.37843102,218.55667000000003,-57.96893000000001,31.164015000000003,STN
811120070000.0,0.5162360668182373,4.270857810974121,9.218438148498535,0.6855856776237488,-0.6097193956375122,1.1102476000000001,-0.38851030000000003,218.18263,-58.036995,30.984640000000002,STN
811236800000.0,0.5212339162826538,4.290325164794922,9.24561595916748,0.7431566119194031,-0.6497249603271484,1.180497,-0.40378192,217.79167,-58.104519999999994,30.794696999999996,STN
811347540000.0,0.5262485146522522,4.310266017913818,9.273072242736816,0.8013286590576172,-0.6903656721115112,1.2431108,-0.441961,217.39312999999999,-58.170882999999996,30.593431,STN
811452660000.0,0.531245768070221,4.330478191375732,9.300589561462402,0.8596402406692505,-0.731705367565155,1.2739595,-0.45845437,216.98792000000003,-58.22625,30.392291999999998,STN
811552400000.0,0.536243200302124,4.351035118103027,9.328266143798828,0.9182980060577393,-0.772274374961853,1.3435981000000001,-0.4841107,216.55864,-58.286809999999996,30.173047999999998,STN
811647100000.0,0.5412449240684509,4.371940612792969,9.356118202209473,0.9773373603820801,-0.8123579025268555,1.4135422,-0.49816059999999995,216.1263,-58.338017,29.950779999999998,STN
811737000000.0,0.5462480783462524,4.393162727355957,9.38412094116211,1.0367040634155273,-0.8513144850730896,1.4834863,-0.53023106,215.68097000000003,-58.393769999999996,29.712612,STN
811822400000.0,0.5512435436248779,4.415324687957764,9.41354751586914,1.096367359161377,-0.8900505900382996,1.5415184,-0.552833,215.22441,-58.440224,29.469959999999997,STN
811903550000.0,0.5562418103218079,4.440160274505615,9.447738647460938,1.1567057371139526,-0.9272757768630981,1.575116,-0.59437186,214.76395,-58.494693999999996,29.210594,STN
811980600000.0,0.5612375140190125,4.465970516204834,9.48487663269043,1.216126561164856,-0.9626636505126953,1.5909985,-0.6221663000000001,214.10435,-58.41876,28.963334999999997,STN
812053800000.0,0.5662354230880737,4.490662574768066,9.522865295410156,1.2726380825042725,-0.9967841506004333,1.5641204,-0.65270954,213.46825,-58.341454000000006,28.702842999999998,STN
812123400000.0,0.5712302327156067,4.512933254241943,9.561176300048828,1.3272240161895752,-1.029786229133606,1.520749,-0.68386364,212.84642000000002,-58.24697,28.440040000000003,STN
812189550000.0,0.5762280225753784,4.530952453613281,9.59923267364502,1.3811994791030884,-1.0606225728988647,1.4816537,-0.72112644,212.25153999999998,-58.152668000000006,28.168591999999997,STN
812252460000.0,0.5812210440635681,4.547511100769043,9.638463020324707,1.4312262535095215,-1.0895062685012817,1.4333953000000001,-0.7715228,211.6747,-58.032883,27.904628999999996,STN
812312200000.0,0.5862192511558533,4.5666351318359375,9.681266784667969,1.472184181213379,-1.115515947341919,1.3652838,-0.83260936,211.13588,-57.919838,27.632738,STN
812369100000.0,0.5912221670150757,4.587341785430908,9.724446296691895,1.5056734085083008,-1.1393581628799438,1.3206906,-0.86406887,210.56471000000002,-57.76139499999999,27.375565,STN
812423250000.0,0.5962243676185608,4.60762357711792,9.76125431060791,1.534664273262024,-1.1614577770233154,1.2883148000000002,-0.8509353000000001,210.02626,-57.602314,27.119238,STN
812474760000.0,0.6012316346168518,4.627178192138672,9.79202938079834,1.5596895217895508,-1.181728482246399,1.2794572,-0.8509353000000001,209.4559,-57.364959999999996,26.923896999999997,STN
812523800000.0,0.6062312126159668,4.642037391662598,9.818293571472168,1.5852078199386597,-1.1992748975753784,1.2278391000000002,-0.8686504,208.9204,-57.130604000000005,26.73225,STN
812570440000.0,0.6112260818481445,4.651337146759033,9.840216636657715,1.6101547479629517,-1.2148444652557373,1.1053606000000002,-0.88056225,208.28802,-56.706623,26.676990000000004,STN
812614900000.0,0.6162242889404297,4.647887706756592,9.85765266418457,1.6273900270462036,-1.2283798456192017,0.9578367,-0.90133166,207.69156999999998,-56.299416,26.614695,STN
812657200000.0,0.6212224364280701,4.632920265197754,9.87132453918457,1.6377062797546387,-1.2376779317855835,0.8546004999999999,-0.9077458,206.83176,-55.55256,26.770390000000003,STN
812697600000.0,0.6262181997299194,4.6101579666137695,9.884758949279785,1.6437902450561523,-1.2427692413330078,0.83291477,-0.9025534,206.00276000000002,-54.832508,26.908487,STN
812736050000.0,0.6312209367752075,4.579848766326904,9.897835731506348,1.6458442211151123,-1.2461893558502197,0.79045963,-0.8741482,205.14435,-54.049890000000005,27.083715,STN
812772750000.0,0.6362179517745972,4.544434547424316,9.908721923828125,1.6455485820770264,-1.2456672191619873,0.71685034,-0.86193085,204.31097,-53.31117,27.240679999999998,STN
812807800000.0,0.6412448883056641,4.502954483032227,9.917534828186035,1.6438814401626587,-1.2438218593597412,0.6469063,-0.8384125,203.45113999999998,-52.53098000000001,27.412397,STN
812841240000.0,0.6462419629096985,4.455735206604004,9.925662994384766,1.6468154191970825,-1.241098165512085,0.6010914,-0.82650065,202.61263,-51.783306,27.569681,STN
812873150000.0,0.651236891746521,4.402207851409912,9.933119773864746,1.6546013355255127,-1.238926649093628,0.5369505,-0.8222246,201.82948000000002,-51.056103,27.712486,STN
812903600000.0,0.6562347412109375,4.344424724578857,9.9351806640625,1.6626105308532715,-1.237879991531372,0.49021935,-0.82894415,201.06111,-50.347609999999996,27.842865000000003,STN
812932700000.0,0.6612292528152466,4.282931327819824,9.931851387023926,1.670444369316101,-1.238386631011963,0.45814893,-0.84299403,200.31439,-49.65331,27.964151,STN
812960500000.0,0.6662278771400452,4.222952365875244,9.925658226013184,1.6815221309661865,-1.2393708229064941,0.4297437,-0.8707884,199.72762,-49.142734999999995,27.949999,STN
812987100000.0,0.6712216734886169,4.164928913116455,9.917065620422363,1.695855975151062,-1.2391794919967651,0.42516220000000005,-0.84940815,199.14444,-48.633278000000004,27.940523,STN
813012550000.0,0.6762189269065857,4.108719348907471,9.90611743927002,1.7133899927139282,-1.2378426790237427,0.40439278,-0.8356636999999999,198.78021,-48.363754,27.785722999999997,STN
813036900000.0,0.6812130808830261,4.054256439208984,9.89300537109375,1.7338610887527466,-1.2360562086105347,0.36102137,-0.8576548,198.43126,-48.099106,27.634320000000002,STN
813060260000.0,0.6862123012542725,4.006130218505859,9.877989768981934,1.7576738595962524,-1.2333557605743408,0.28680122,-0.9129381,198.12239,-47.839,27.488521999999996,STN
813082600000.0,0.6912077069282532,3.9645493030548096,9.861287117004395,1.7845715284347534,-1.230392336845398,0.25137106,-0.9602801999999999,197.828314488079,-47.57344981767179,27.3438574053296,STN
813104040000.0,0.696206271648407,3.929266929626465,9.84292221069336,1.8145010471343994,-1.225324273109436,0.27702740000000003,-0.9786060999999999,197.52671999999998,-47.301109999999994,27.195494,STN
813124550000.0,0.7012006640434265,3.899839162826538,9.823052406311035,1.8471825122833252,-1.217384696006775,0.24098633,-0.98624194,197.26883,-47.033157,27.058313000000002,STN
813144300000.0,0.7061996459960938,3.868720054626465,9.798715591430664,1.8847301006317139,-1.206075668334961,0.1777618,-1.0259482,197.02976999999998,-46.75111,26.924406,STN
813163300000.0,0.7112531661987305,3.8336050510406494,9.76840591430664,1.9286233186721802,-1.193839192390442,0.09040806,-1.0543533999999999,196.80997,-46.472412,26.804903000000003,STN
813181440000.0,0.7162438631057739,3.8000409603118896,9.732014656066895,1.9708672761917114,-1.1814736127853394,-0.012217305,-1.1096367,196.62035,-46.15095,26.724377,STN
813198930000.0,0.7212356925010681,3.7697229385375977,9.685903549194336,2.009111166000366,-1.1694902181625366,-0.033292156,-1.1093313,196.43098,-45.8306,26.653925,STN
813215800000.0,0.7262274622917175,3.7511680126190186,9.641375541687012,2.0455472469329834,-1.157526969909668,-0.00580322,-1.0903945,196.24400000000003,-45.479076,26.58163,STN
813231960000.0,0.7312195301055908,3.746126174926758,9.601265907287598,2.080808401107788,-1.1451107263565063,0.0018325957999999999,-1.0189233,196.06122,-45.12315,26.53148,STN
813247560000.0,0.7362115979194641,3.733823537826538,9.550614356994629,2.119049072265625,-1.1323957443237305,-0.031154128,-1.0219775,195.89182,-44.73465,26.50181,STN
813262600000.0,0.741206705570221,3.709122657775879,9.48584270477295,2.1612765789031982,-1.118958592414856,-0.04642576,-1.0488556999999998,195.70991999999998,-44.346874,26.480686,STN
813277050000.0,0.7461998462677002,3.6802268028259277,9.414203643798828,2.2071850299835205,-1.106481671333313,-0.07666359,-1.0415252000000002,195.56088,-43.93503,26.510859000000004,STN
813291000000.0,0.7511939406394958,3.6498708724975586,9.33813190460205,2.2566468715667725,-1.0949627161026,-0.13072516,-1.0363328,195.43007,-43.53803,26.543083000000003,STN
813304500000.0,0.7561902403831482,3.6215953826904297,9.26340389251709,2.3037595748901367,-1.085310935974121,-0.17806722,-1.022283,195.29718,-43.114216,26.552938,STN
813317550000.0,0.7611846923828125,3.5967931747436523,9.192413330078125,2.346149206161499,-1.0768897533416748,-0.13775012,-0.9447030999999999,195.14435,-42.6821,26.573984000000003,STN
813330200000.0,0.7661834359169006,3.5725836753845215,9.121869087219238,2.3878908157348633,-1.0682011842727661,-0.10598512,-0.89369583,195.02931,-42.260464,26.583084000000003,STN
813342460000.0,0.771181583404541,3.547409772872925,9.050074577331543,2.4311656951904297,-1.0596826076507568,-0.12461651,-0.8582656999999999,194.90561,-41.82569,26.610126,STN
813354300000.0,0.7761810421943665,3.5165231227874756,8.973669052124023,2.4742159843444824,-1.0511460304260254,-0.16249016,-0.8240572,194.77336,-41.374367,26.660425,STN
813365800000.0,0.7811977863311768,3.476606845855713,8.890125274658203,2.5160396099090576,-1.041990041732788,-0.16768251,-0.8042041,194.63468999999998,-40.92657,26.714146000000003,STN
813376900000.0,0.7861949801445007,3.4349794387817383,8.806742668151855,2.5558531284332275,-1.0325244665145874,-0.15851954,-0.7467828000000001,194.49095,-40.464043,26.778478999999997,STN
813387740000.0,0.7911971211433411,3.395082712173462,8.726828575134277,2.5933010578155518,-1.0225378274917603,-0.14599679999999998,-0.7101309,194.34878999999998,-40.010670000000005,26.844229,STN
813398200000.0,0.7961994409561157,3.356832981109619,8.650214195251465,2.6285135746002197,-1.011569619178772,-0.16310102,-0.66798115,194.18701000000001,-39.53295,26.909834000000004,STN
813408450000.0,0.8011972308158875,3.32015061378479,8.576741218566895,2.661613941192627,-0.9984675645828247,-0.17928895,-0.6310238,194.01529,-39.062775,26.980340999999996,STN
813418350000.0,0.806195080280304,3.2826101779937744,8.505841255187988,2.6918437480926514,-0.9834756851196289,-0.172264,-0.5824600000000001,193.83316000000002,-38.589,27.061054,STN
813428000000.0,0.8111941814422607,3.2391247749328613,8.436528205871582,2.7174487113952637,-0.9668411612510681,-0.18173242,-0.5421429,193.65158,-38.125263000000004,27.154434000000002,STN
813437400000.0,0.8161924481391907,3.1922812461853027,8.368289947509766,2.74155330657959,-0.9481794834136963,-0.19517145,-0.5039638,193.46323999999998,-37.666164,27.254263,STN
813446600000.0,0.8211901783943176,3.145005226135254,8.300515174865723,2.7677905559539795,-0.9274033904075623,-0.19211712,-0.49174652,193.26926,-37.21994,27.355074,STN
813455600000.0,0.8261858224868774,3.098719358444214,8.236742973327637,2.791944742202759,-0.9067904353141785,-0.20463985,-0.47586402,193.04113999999998,-36.734417,27.470339000000003,STN
813464300000.0,0.831184983253479,3.0559518337249756,8.183467864990234,2.806398868560791,-0.8852087259292603,-0.29932398,-0.47891834,192.83047,-36.272728,27.599966,STN
813472800000.0,0.8361844420433044,3.013916254043579,8.136285781860352,2.8153510093688965,-0.8643865585327148,-0.30940324,-0.43829579999999996,192.59006000000002,-35.8051,27.709659999999996,STN
813481200000.0,0.8411896824836731,2.968507766723633,8.089066505432129,2.8245913982391357,-0.843664824962616,-0.24495697,-0.37323865,192.34741,-35.349564,27.826153,STN
813489400000.0,0.8461869359016418,2.920792818069458,8.04173469543457,2.834829092025757,-0.8218988180160522,-0.22266038,-0.3594942,192.14731,-34.95673,27.946367,STN
813497400000.0,0.8512081503868103,2.8715598583221436,7.993565082550049,2.8477418422698975,-0.7994208931922913,-0.21288654,-0.32711834,191.91416999999998,-34.55679,28.069326,STN
813505250000.0,0.856203019618988,2.8215749263763428,7.945168495178223,2.8626437187194824,-0.7769363522529602,-0.20311269,-0.30451632,191.67991999999998,-34.18122,28.165428000000002,STN
813512900000.0,0.8611994385719299,2.770507574081421,7.896251201629639,2.8797225952148438,-0.7530782222747803,-0.1957823,-0.29810223,191.4384,-33.820170000000005,28.261332,STN
813520450000.0,0.8661962151527405,2.718798875808716,7.846034049987793,2.8975679874420166,-0.7284731864929199,-0.18936823,-0.28924468,191.19435,-33.460365,28.355521999999997,STN
813527860000.0,0.8711946606636047,2.6670823097229004,7.793195724487305,2.914001941680908,-0.7027052640914917,-0.22449298,-0.25442538,190.94716,-33.111422999999995,28.461448999999998,STN
813535130000.0,0.8761976361274719,2.61518931388855,7.738247871398926,2.9292428493499756,-0.6763573288917542,-0.22724187,-0.22693644,190.67422,-32.749629999999996,28.535608,STN
813542300000.0,0.8811948895454407,2.5625743865966797,7.6835618019104,2.9440817832946777,-0.6492323875427246,-0.22479841,-0.20341812,190.3972,-32.39748,28.620015999999996,STN
813549360000.0,0.8861925005912781,2.5091981887817383,7.629063606262207,2.9585492610931396,-0.6206881999969482,-0.23396139,-0.18478674,190.11368000000002,-32.044495,28.705253999999996,STN
813556300000.0,0.8911921977996826,2.454456090927124,7.574506759643555,2.9743807315826416,-0.5910770893096924,-0.26175576,-0.15241088,189.82106000000002,-31.69643,28.798454,STN
813563100000.0,0.8961920142173767,2.398205041885376,7.519828796386719,2.992164134979248,-0.559723436832428,-0.26725355,-0.12278391400000001,189.51903000000001,-31.36423,28.888945,STN
813569900000.0,0.9011901021003723,2.3418290615081787,7.464556694030762,3.010704517364502,-0.5272084474563599,-0.28008172,-0.0842994,189.213,-31.042423,28.978313,STN
813576500000.0,0.9061887860298157,2.2864625453948975,7.408240795135498,3.0290050506591797,-0.493414968252182,-0.301462,-0.06536258,188.90400000000002,-30.736604999999997,29.069962,STN
813583040000.0,0.911187469959259,2.231682300567627,7.35125207901001,3.0464587211608887,-0.45811814069747925,-0.3145956,-0.022907447,188.58023,-30.440123,29.150554999999997,STN
813589500000.0,0.9161863327026367,2.1770429611206055,7.293966293334961,3.0624265670776367,-0.42103996872901917,-0.3115413,0.0033597588,188.25342,-30.159899,29.229947999999997,STN
813595950000.0,0.9211887121200562,2.123652696609497,7.2365570068359375,3.0770139694213867,-0.38276371359825134,-0.30787608,0.04734206,187.89816000000002,-29.861982,29.318005,STN
813602240000.0,0.926188588142395,2.072108030319214,7.179208278656006,3.0903241634368896,-0.3451274633407593,-0.31001409999999996,0.0711658,187.53813,-29.573290000000004,29.404192,STN
813608500000.0,0.9311888813972473,2.022610902786255,7.122817516326904,3.1025753021240234,-0.30620893836021423,-0.30268374,0.10873401,187.1579,-29.301039000000003,29.487078000000004,STN
813614600000.0,0.9361863732337952,1.9752498865127563,7.06792688369751,3.1139228343963623,-0.26619040966033936,-0.30543262,0.14966199,186.76865,-29.031736,29.573345,STN
813620700000.0,0.9411852955818176,1.929309606552124,7.015046119689941,3.1251614093780518,-0.2261885106563568,-0.30879238,0.19058995,186.35915,-28.758709999999997,29.660856,STN
813626800000.0,0.9461850523948669,1.8843159675598145,6.96448278427124,3.1368021965026855,-0.18587681651115417,-0.30634892,0.23426682,185.93296999999998,-28.495773,29.750071999999996,STN
813632850000.0,0.9511839151382446,1.8402305841445923,6.917357921600342,3.1477131843566895,-0.14427892863750458,-0.29626966,0.27336220000000006,185.48833,-28.232874,29.839725,STN
813638800000.0,0.9561823606491089,1.7970046997070312,6.87448263168335,3.1570494174957275,-0.10244002938270569,-0.2837469,0.301462,185.02951000000002,-27.972973,29.928185,STN
813644700000.0,0.9611814618110657,1.754828929901123,6.8359055519104,3.1650099754333496,-0.060617122799158096,-0.26816985,0.32223140000000006,184.55588,-27.725554,30.006970000000003,STN
813650540000.0,0.9661807417869568,1.713889718055725,6.801659107208252,3.171787977218628,-0.01744205318391323,-0.2611449,0.35735616,184.06531999999999,-27.489996,30.085888,STN
813656400000.0,0.9711786508560181,1.6738680601119995,6.773504734039307,3.1779367923736572,0.026589902117848396,-0.26939157,0.38148534,183.58174,-27.28408,30.15353,STN
813662140000.0,0.9761784076690674,1.6344166994094849,6.753360748291016,3.18401837348938,0.07055409997701645,-0.29077184,0.39858958,183.08693,-27.087065000000003,30.22152,STN
813667840000.0,0.981177568435669,1.5959235429763794,6.740669250488281,3.1897730827331543,0.11521919071674347,-0.3295618,0.41599923,182.60464,-26.935484000000002,30.287218,STN
813673550000.0,0.9861781001091003,1.5587190389633179,6.735009670257568,3.194967031478882,0.15908285975456238,-0.38973203,0.42607849999999997,182.1226,-26.78681,30.359556,STN
813679200000.0,0.9911839365959167,1.522858738899231,6.735657215118408,3.1996285915374756,0.20270869135856628,-0.44959682,0.41599923,181.6747,-26.70147,30.421158000000002,STN
813684800000.0,0.9961856603622437,1.488420009613037,6.7416558265686035,3.203796863555908,0.2451164424419403,-0.51159966,0.40347649999999996,181.23117,-26.617582000000002,30.494159999999997,STN
813690400000.0,1.0011842250823975,1.4557074308395386,6.752063274383545,3.2060623168945312,0.28685933351516724,-0.5693264,0.3659083,180.8285,-26.590612,30.56103,STN
813695960000.0,1.0061858892440796,1.4251221418380737,6.765882968902588,3.2046239376068115,0.3288029730319977,-0.6188064999999999,0.35185838,180.42816000000002,-26.569817999999998,30.637966,STN
813701460000.0,1.011182188987732,1.3965389728546143,6.782811641693115,3.199789047241211,0.3712947368621826,-0.6579019,0.32223140000000006,180.06648,-26.593887,30.706469,STN
813707000000.0,1.0161832571029663,1.3698652982711792,6.802829265594482,3.1916067600250244,0.4140612781047821,-0.68203104,0.29199359999999996,179.71143999999998,-26.628752000000002,30.776726,STN
813712400000.0,1.0211801528930664,1.3460345268249512,6.824488639831543,3.1787800788879395,0.457250714302063,-0.6914994999999999,0.27488935,179.36192,-26.677883,30.84603,STN
813717850000.0,1.0261801481246948,1.3265314102172852,6.846013069152832,3.1589925289154053,0.499408096075058,-0.6921103,0.23701571,179.02617,-26.738709999999998,30.907059999999998,STN
813723300000.0,1.0311758518218994,1.311853051185608,6.86810827255249,3.1328494548797607,0.5416952967643738,-0.6985244,0.21258110000000002,178.73442,-26.875875,30.971190999999997,STN
813728700000.0,1.0362160205841064,1.3040647506713867,6.892516136169434,3.099374294281006,0.5848703980445862,-0.6954701,0.19639318,178.44653,-27.024396999999997,31.024573999999998,STN
813734100000.0,1.0412143468856812,1.3015260696411133,6.917847633361816,3.0634069442749023,0.6273072361946106,-0.7189884,0.19303341,178.18196,-27.196781,31.099543,STN
813739500000.0,1.046213984489441,1.305511236190796,6.943873405456543,3.02807879447937,0.6694520115852356,-0.7984009,0.18997909,177.92858999999999,-27.384325,31.180609000000004,STN
813744800000.0,1.0512092113494873,1.319413185119629,6.96885871887207,2.992060661315918,0.709985613822937,-0.88239485,0.18600847,177.6951,-27.591501,31.288488,STN
813750100000.0,1.0562083721160889,1.3513540029525757,6.9893059730529785,2.952465534210205,0.7476266026496887,-0.9492845999999999,0.1826487,177.47144,-27.798084000000003,31.406073,STN
813755400000.0,1.0612070560455322,1.3996374607086182,7.005654335021973,2.909935235977173,0.7818454504013062,-1.0164796999999999,0.17287487,177.24982,-27.985458,31.557213,STN
813760700000.0,1.0662068128585815,1.4575848579406738,7.020043849945068,2.8693997859954834,0.8124013543128967,-1.0867293,0.16493362,177.0399,-28.164484,31.719189,STN
813765950000.0,1.0712047815322876,1.5236496925354004,7.032858848571777,2.8316285610198975,0.8396848440170288,-1.1429288,0.15515977,176.72794,-28.209671000000004,31.968921999999996,STN
813771200000.0,1.0762039422988892,1.5935072898864746,7.04536247253418,2.80033278465271,0.8616402745246887,-1.2049317,0.13439035,176.43483,-28.239082,32.225765,STN
813776440000.0,1.081203818321228,1.6669437885284424,7.0575714111328125,2.775160312652588,0.8782423734664917,-1.2791518,0.118507855,176.07329,-28.175333000000002,32.5307,STN
813781700000.0,1.0862022638320923,1.7437145709991455,7.069498062133789,2.755751609802246,0.8900043368339539,-1.3683381000000001,0.09285152,175.73537,-28.102137,32.839529999999996,STN
813786900000.0,1.091203212738037,1.8234953880310059,7.081186294555664,2.7417736053466797,0.8972979784011841,-1.4352279,0.07422013,175.38345,-27.997208,33.154408000000004,STN
813792100000.0,1.0962035655975342,1.902292251586914,7.093006134033203,2.7315566539764404,0.9001824259757996,-1.464244,0.0580322,175.04893,-27.880445,33.46821,STN
813797300000.0,1.1012154817581177,1.9802120923995972,7.105048179626465,2.725433349609375,0.8990391492843628,-1.4627168,0.043066,174.83455,-27.840279,33.802444,STN
813802500000.0,1.1062425374984741,2.0561585426330566,7.118143558502197,2.728353261947632,0.8934642672538757,-1.4483615,0.04337143,174.62434,-27.780272999999998,34.131714,STN
813807700000.0,1.1112390756607056,2.1298911571502686,7.131967067718506,2.7384517192840576,0.8843612670898438,-1.4150693,0.050701816,174.44478,-27.73947,34.45178,STN
813812900000.0,1.1162368059158325,2.198890209197998,7.1470208168029785,2.7607598304748535,0.8699812293052673,-1.3744466999999998,0.055588737,174.26219,-27.67193,34.758446,STN
813818050000.0,1.1212306022644043,2.262695074081421,7.163295269012451,2.7955315113067627,0.8535515666007996,-1.3283265,0.07574729,174.06611999999998,-27.596573,35.05199,STN
813823200000.0,1.1262282133102417,2.319108724594116,7.1793293952941895,2.8392648696899414,0.8303471207618713,-1.2721269,0.10629055,173.8921,-27.509216,35.319717,STN
813828340000.0,1.131221890449524,2.3680360317230225,7.19475793838501,2.8903744220733643,0.8004359602928162,-1.2388347,0.14172074,173.70623999999998,-27.404833,35.579409999999996,STN
813833450000.0,1.1362189054489136,2.408797025680542,7.207347393035889,2.944958448410034,0.7634755969047546,-1.2299771000000002,0.17623462,173.52754,-27.287815000000002,35.80372,STN
813838570000.0,1.1412153244018555,2.4416332244873047,7.216629505157471,3.001667022705078,0.7214368581771851,-1.2464706,0.18967366,173.34242,-27.143606,36.023109999999996,STN
813843700000.0,1.146214485168457,2.4658541679382324,7.222618579864502,3.058814764022827,0.6742485761642456,-1.2822062,0.19975294,173.13947,-26.960955,36.219288,STN
813848800000.0,1.1512095928192139,2.481572389602661,7.225496768951416,3.11547589302063,0.623210608959198,-1.3307699,0.20677789,172.93837,-26.754368,36.419495,STN
813853900000.0,1.156205654144287,2.4889259338378906,7.225558280944824,3.1730222702026367,0.5693746209144592,-1.393689,0.20799962,172.73708,-26.522358,36.607525,STN
813859000000.0,1.161202311515808,2.488185405731201,7.223140716552734,3.2327282428741455,0.5131989121437073,-1.5085316999999998,0.20036379999999998,172.55518999999998,-26.269314,36.815178,STN
813864100000.0,1.1662003993988037,2.4800662994384766,7.2140374183654785,3.292577028274536,0.45565465092658997,-1.6465873,0.18875736,172.36072,-25.988332999999997,37.020027,STN
813869240000.0,1.1711976528167725,2.4651899337768555,7.196246147155762,3.3514676094055176,0.39733561873435974,-1.7913622999999999,0.16890424,172.1938,-25.69505,37.24773,STN
813874350000.0,1.1761997938156128,2.447056770324707,7.165276050567627,3.4047465324401855,0.3396829664707184,-1.9300288,0.1282817,172.0278,-25.385754000000002,37.477759999999996,STN
813879400000.0,1.181198239326477,2.4281320571899414,7.1191301345825195,3.4496610164642334,0.28552597761154175,-1.9807305,0.064751714,171.88496,-25.084432999999997,37.71112,STN
813884440000.0,1.1861953735351562,2.4083335399627686,7.059230327606201,3.488582134246826,0.23751065135002136,-1.9523253,0.014049901000000002,171.72527,-24.769098,37.940697,STN
813889500000.0,1.1911994218826294,2.387568712234497,6.986351490020752,3.5231549739837646,0.19828841090202332,-1.8915442,-0.02107485,171.58296,-24.479816,38.1638,STN
813894530000.0,1.1962018013000488,2.36562442779541,6.903459072113037,3.5558180809020996,0.16802547872066498,-1.8231273000000001,-0.053145275,171.44398,-24.200785,38.39282,STN
813899600000.0,1.2012001276016235,2.3423030376434326,6.812760829925537,3.5885229110717773,0.14601649343967438,-1.7311921000000001,-0.0580322,171.29025,-23.949373,38.596515999999994,STN
813904600000.0,1.2061971426010132,2.3194398880004883,6.716274738311768,3.620980978012085,0.12942881882190704,-1.6331482,-0.056199603,171.12906,-23.709324,38.793446,STN
813909700000.0,1.211195945739746,2.2985455989837646,6.615676403045654,3.6529600620269775,0.11704573035240173,-1.5800028999999998,-0.06078109,170.96088999999998,-23.495442999999998,38.97368,STN
813914700000.0,1.2161940336227417,2.2799789905548096,6.515148639678955,3.6851789951324463,0.10616899281740189,-1.4676038,-0.05955936,170.74007,-23.268541,39.119034,STN
813919760000.0,1.2211918830871582,2.2641115188598633,6.41875696182251,3.7183678150177,0.09650672972202301,-1.3295482,-0.061086524,170.50494,-23.056515,39.240463,STN
813924800000.0,1.2261896133422852,2.2525792121887207,6.332302570343018,3.7544806003570557,0.08783143013715744,-1.1643091,-0.054061572999999995,170.23956,-22.839638,39.338276,STN
813929860000.0,1.2311885356903076,2.2478718757629395,6.264429092407227,3.7964320182800293,0.07883715629577637,-0.95356065,-0.04153884,169.9371,-22.620882,39.388090000000005,STN
813934900000.0,1.2361862659454346,2.2546231746673584,6.230567455291748,3.8450891971588135,0.0676201656460762,-0.6814201999999999,-0.008857545999999999,169.57965,-22.393726,39.387074,STN
813939950000.0,1.241192102432251,2.279874086380005,6.253741264343262,3.9021995067596436,0.051271334290504456,-0.3866777,0.05467244,169.16508000000002,-22.145001999999998,39.331286999999996,STN
813945000000.0,1.246200442314148,2.329618215560913,6.356627464294434,3.964082717895508,0.03089429810643196,-0.19181168,0.13164146,168.72229,-21.908920000000002,39.22534,STN
813950040000.0,1.2511982917785645,2.408262014389038,6.556455612182617,4.027240753173828,0.0106753995642066,-0.15974127,0.19517145,168.24074,-21.659533,39.091747,STN
813955100000.0,1.2561956644058228,2.5189368724823,6.851972579956055,4.070032596588135,-0.00521050812676549,-0.18784106,0.21807889999999996,167.77671999999998,-21.501503,38.906220000000005,STN
813960130000.0,1.2611947059631348,2.6678216457366943,7.239333629608154,4.046549320220947,-0.016831569373607635,-0.12858713,0.22296582,167.27835,-21.336285,38.696342,STN
813965200000.0,1.266189694404602,2.854764938354492,7.695500373840332,3.961939573287964,-0.025945138186216354,-0.05589417,0.23273966,166.83792,-21.386263,38.481173999999996,STN
813970200000.0,1.2711879014968872,3.085850715637207,8.181206703186035,3.818290948867798,-0.0352892242372036,-0.10629055,0.24129178,166.40358,-21.438993,38.28247,STN
813975300000.0,1.2761844396591187,3.3556158542633057,8.686531066894531,3.6290135383605957,-0.044070228934288025,-0.30909783,0.24342979999999997,166.0712,-21.67977,38.22357,STN
813980300000.0,1.281184434890747,3.65728497505188,9.1917724609375,3.419651508331299,-0.049371957778930664,-0.6545420999999999,0.20433442,165.7808,-21.927335999999997,38.200103999999996,STN
813985370000.0,1.2861820459365845,3.970273494720459,9.669422149658203,3.1963064670562744,-0.049101006239652634,-1.0225884,0.08674286,165.86137,-22.376831,38.402344,STN
813990400000.0,1.2911815643310547,4.243129730224609,10.043841361999512,2.9719414710998535,-0.046940043568611145,-1.2293663000000001,-0.03726278,165.98486,-22.809929,38.624413,STN
813995460000.0,1.2961790561676025,4.477819919586182,10.320550918579102,2.7467446327209473,-0.04735212400555611,-1.1557571000000002,-0.064446285,166.22665,-23.258860000000002,38.969879999999996,STN
814000500000.0,1.3011783361434937,4.671880722045898,10.494601249694824,2.5201215744018555,-0.054383404552936554,-0.7440339,-0.0015271631,166.44815,-23.67782,39.252724,STN
814005500000.0,1.306176781654358,4.827991008758545,10.580495834350586,2.288001537322998,-0.06896703690290451,-0.4288274,0.093462385,166.52982,-23.902936999999998,39.577156,STN
814010500000.0,1.3111765384674072,4.950427532196045,10.668497085571289,2.005326747894287,-0.088763527572155,0.32070425,0.14110987,166.4421,-24.09834,39.683009999999996,STN
814015500000.0,1.3161729574203491,5.041408538818359,10.758380889892578,1.6758439540863037,-0.10950712114572525,0.98440933,0.18295415,166.15181,-24.089931,39.785275,STN
814020560000.0,1.321173906326294,5.094516277313232,10.863297462463379,1.3650873899459839,-0.12945450842380524,1.3820826000000002,0.18906279,165.76521,-24.064594,39.765522,STN
814025600000.0,1.326192855834961,5.10791540145874,10.984630584716797,1.0867555141448975,-0.14698782563209534,1.5106697,0.1572978,165.3022,-24.040672,39.645846999999996,STN
814030600000.0,1.3311930894851685,5.077962875366211,11.10620403289795,0.8747570514678955,-0.16047777235507965,1.4886786,0.07666359,165.17854,-24.281185,39.522865,STN
814035600000.0,1.3362090587615967,5.003392219543457,11.228670120239258,0.7351846098899841,-0.16615186631679535,1.4269812,0.0015271631,165.08163000000002,-24.644638,39.26931,STN
814040700000.0,1.3412150144577026,4.914906978607178,11.348664283752441,0.6893947720527649,-0.16110607981681824,1.4376712999999999,-0.07941248,164.9918,-25.048983,38.989395,STN
814045700000.0,1.3462395668029785,4.812180519104004,11.465807914733887,0.7390626668930054,-0.14486993849277496,1.4853188999999998,-0.124005646,164.81671,-25.528894,38.51795,STN
814050700000.0,1.3512356281280518,4.714301109313965,11.563108444213867,0.8168404698371887,-0.1205790787935257,1.4223998,-0.14049901,164.66556,-26.049039999999998,38.064009999999996,STN
814055700000.0,1.3562332391738892,4.620934963226318,11.639999389648438,0.924902617931366,-0.09242282807826996,1.1896601,-0.16035213,164.31964,-26.528801,37.439182,STN
814060700000.0,1.3612749576568604,4.535181522369385,11.685358047485352,0.9986810088157654,-0.06330922245979309,0.84665924,-0.19761491,164.00679,-27.036596000000003,36.85638,STN
814065700000.0,1.3662657737731934,4.456469535827637,11.707292556762695,1.036192774772644,-0.034021761268377304,0.5338961999999999,-0.24678956,163.7321,-27.5645,36.32181,STN
814070700000.0,1.3712619543075562,4.3803534507751465,11.711042404174805,1.0223546028137207,-0.005448686890304089,0.31764993,-0.2846632,163.3671,-27.994776,35.80265,STN
814075700000.0,1.3762547969818115,4.30501651763916,11.701481819152832,0.9580732583999634,0.022952672094106674,0.15241088,-0.28802297,163.05023,-28.432647999999997,35.348183,STN
814080660000.0,1.3812516927719116,4.230547904968262,11.688982009887695,0.8632599711418152,0.05158212035894394,-0.011301007,-0.27336220000000006,162.83643,-28.863445000000002,35.035427,STN
814085640000.0,1.3862464427947998,4.157051086425781,11.677398681640625,0.747029185295105,0.08317837119102478,-0.18692477,-0.24220806,162.64713,-29.305828,34.767094,STN
814090700000.0,1.3912506103515625,4.080237865447998,11.675461769104004,0.6246529817581177,0.12116433680057526,-0.36743546,-0.21258110000000002,162.6321,-29.838504999999998,34.623478000000006,STN
814095660000.0,1.3962482213974,3.99914813041687,11.685444831848145,0.5028901696205139,0.16594825685024261,-0.53023106,-0.17867808,162.6344,-30.382986,34.519295,STN
814100640000.0,1.4012452363967896,3.913217067718506,11.720308303833008,0.38910341262817383,0.216956228017807,-0.6301074999999999,-0.15668693,162.7374,-31.009165000000003,34.47385,STN
814105600000.0,1.4062421321868896,3.8224170207977295,11.784723281860352,0.2862326204776764,0.2719195485115051,-0.6597345,-0.14141529999999997,162.84892,-31.653307,34.44859,STN
814110600000.0,1.411238431930542,3.721766471862793,11.877853393554688,0.19450682401657104,0.3295043110847473,-0.66767573,-0.12370021,163.01221999999999,-32.375465000000005,34.414359999999995,STN
814115600000.0,1.4162358045578003,3.6093461513519287,11.998706817626953,0.11373202502727509,0.38537123799324036,-0.56779927,-0.093462385,163.14643999999998,-33.095463,34.361979999999996,STN
814120570000.0,1.4212312698364258,3.4816982746124268,12.125961303710938,0.04423385486006737,0.43803298473358154,-0.36071593,-0.084910266,163.28654,-33.90637,34.218253999999995,STN
814125550000.0,1.426228642463684,3.3378634452819824,12.252820014953613,-0.014152772724628448,0.48591867089271545,0.0061086523,-0.09315695,163.35442,-34.70391,34.017773,STN
814130600000.0,1.431270718574524,3.190157413482666,12.35505199432373,-0.0395345538854599,0.5273783802986145,0.6230826,-0.1563815,163.34589,-35.584885,33.629433,STN
814135600000.0,1.4362635612487793,3.045273780822754,12.434062004089355,-0.03811517730355263,0.5601339340209961,0.79473567,-0.17745635,163.33423,-36.430557,33.264385,STN
814140560000.0,1.4412591457366943,2.922215223312378,12.47270393371582,0.0021736384369432926,0.5890929102897644,0.9944886000000001,-0.1908954,163.16914,-37.32654,32.688263,STN
814145540000.0,1.4462549686431885,2.8304977416992188,12.465790748596191,0.08305300772190094,0.6130903363227844,0.99204516,-0.19150625,162.99835,-38.184425,32.121834,STN
814150500000.0,1.4512500762939453,2.779569149017334,12.414754867553711,0.19260235130786896,0.6337253451347351,0.84207773,-0.17654006,162.7142,-38.951767,31.517809000000003,STN
814155500000.0,1.4562453031539917,2.7737433910369873,12.321189880371094,0.3238791525363922,0.6518120169639587,0.61361414,-0.14477506,162.43483,-39.698593,30.939615000000003,STN
814160500000.0,1.4612399339675903,2.812009334564209,12.195755958557129,0.45923030376434326,0.667095422744751,0.33994650000000004,-0.1151481,161.99796,-40.19851,30.458115000000003,STN
814165500000.0,1.4662361145019531,2.8931217193603516,12.043919563293457,0.5904461145401001,0.6792855262756348,0.046120327,-0.070554934,161.60562,-40.6783,30.039694,STN
814170500000.0,1.4712315797805786,3.004448413848877,11.87907600402832,0.7088363766670227,0.6881564855575562,-0.22113322,-0.02107485,160.90076000000002,-40.792590000000004,29.77587,STN
814175550000.0,1.4762284755706787,3.139772653579712,11.70747184753418,0.8107085227966309,0.6932341456413269,-0.41813725,0.03481932,160.24014,-40.887833,29.568043,STN
814180500000.0,1.4812250137329102,3.291644334793091,11.532825469970703,0.8968130350112915,0.6927998661994934,-0.5381723,0.109650314,159.77934,-40.921467,29.568797999999997,STN
814185500000.0,1.486221194267273,3.4523184299468994,11.359038352966309,0.9677689075469971,0.6862521767616272,-0.56321776,0.20097467,159.32417,-40.925373,29.602814000000002,STN
814190560000.0,1.4912241697311401,3.6086983680725098,11.191262245178223,1.027634620666504,0.6718984842300415,-0.528093,0.27488935,159.01233,-40.895744,29.782263,STN
814195540000.0,1.496222734451294,3.7503530979156494,11.033656120300293,1.080130934715271,0.6519615650177002,-0.4550946,0.3295618,158.67703,-40.83535,29.970327,STN
814200500000.0,1.5012186765670776,3.8695271015167236,10.888260841369629,1.1256989240646362,0.6277807354927063,-0.35796702,0.36163223,158.37083,-40.73577,30.217777,STN
814205500000.0,1.5062154531478882,3.9584319591522217,10.757137298583984,1.1647313833236694,0.6007052659988403,-0.301462,0.36193767,158.04782,-40.612053,30.458578000000003,STN
814210500000.0,1.5112128257751465,4.015249729156494,10.640478134155273,1.1986194849014282,0.5741612315177917,-0.15515977,0.33658674,157.65765,-40.487217,30.644495000000003,STN
814215500000.0,1.5162101984024048,4.036038875579834,10.539084434509277,1.2293709516525269,0.5481690764427185,0.016187929,0.31856623,157.24251,-40.346934999999995,30.811622999999997,STN
814220500000.0,1.521207332611084,4.0265727043151855,10.448683738708496,1.2594903707504272,0.5242946147918701,0.18173242,0.28771752,156.70201,-40.22293,30.863135999999997,STN
814225500000.0,1.526203989982605,3.9930169582366943,10.364606857299805,1.291769027709961,0.5038573741912842,0.3286455,0.27214047,156.12274,-40.106113,30.881407,STN
814230500000.0,1.5311981439590454,3.9410274028778076,10.282885551452637,1.3272753953933716,0.4859091341495514,0.45753807,0.25778514,155.34645,-39.976368,30.754009999999997,STN
814235500000.0,1.5361982583999634,3.8769071102142334,10.198195457458496,1.3677088022232056,0.46924296021461487,0.5766568,0.25076020000000004,154.541,-39.859584999999996,30.595786999999998,STN
814240500000.0,1.5411959886550903,3.804431438446045,10.10899829864502,1.4129037857055664,0.4514954090118408,0.6740898,0.2648101,153.53485,-39.692679999999996,30.327713,STN
814245540000.0,1.5461963415145874,3.728513240814209,10.012031555175781,1.4632562398910522,0.43184512853622437,0.752586,0.2864958,152.5139,-39.533527,30.037762,STN
814250500000.0,1.5511915683746338,3.6508960723876953,9.908953666687012,1.5157952308654785,0.40848907828330994,0.8017605999999999,0.31490102,151.48286000000002,-39.367354999999996,29.700428000000002,STN
814255600000.0,1.55619215965271,3.573655843734741,9.801092147827148,1.566536784172058,0.38167357444763184,0.8216136999999999,0.32314770000000004,150.45058,-39.198944,29.351947999999997,STN
814260550000.0,1.5611871480941772,3.4970319271087646,9.68960952758789,1.6136101484298706,0.35029709339141846,0.82802784,0.3295618,149.38428000000002,-38.976093,28.984003,STN
814265500000.0,1.5661876201629639,3.4211080074310303,9.575478553771973,1.6527092456817627,0.31642574071884155,0.83016586,0.33383787,148.3261,-38.750126,28.612296999999998,STN
814270600000.0,1.5711957216262817,3.345632791519165,9.458181381225586,1.6848313808441162,0.2805180549621582,0.8304713,0.3368922,147.28386,-38.494217,28.236586,STN
814275560000.0,1.5761955976486206,3.270453453063965,9.337352752685547,1.7117481231689453,0.24391959607601166,0.81031275,0.34788775,146.25656,-38.23383,27.86528,STN
814280540000.0,1.5811938047409058,3.1959617137908936,9.213322639465332,1.7347583770751953,0.2065858095884323,0.79229224,0.3631594,145.23991,-37.958595,27.497942,STN
814285600000.0,1.5861947536468506,3.1241984367370605,9.087708473205566,1.758777141571045,0.16827917098999023,0.79320854,0.37140608,144.2359,-37.680454,27.129831,STN
814290570000.0,1.5911952257156372,3.0547256469726562,8.960796356201172,1.7832825183868408,0.12940961122512817,0.8051204000000001,0.38026363,143.25291,-37.392754,26.7701,STN
814295600000.0,1.5961984395980835,2.985201597213745,8.833374977111816,1.8050743341445923,0.09143955260515213,0.81245077,0.39736784,142.27946,-37.10581,26.412522999999997,STN
814300600000.0,1.6011970043182373,2.9157285690307617,8.70566463470459,1.8243343830108643,0.05515120178461075,0.8042041,0.42210788,141.31732,-36.79853,26.055914,STN
814305600000.0,1.6061954498291016,2.851531505584717,8.573983192443848,1.829801082611084,0.0208781436085701,0.7987063,0.43890667,140.3635,-36.497040000000005,25.697317,STN
814310560000.0,1.611191987991333,2.792782783508301,8.438298225402832,1.8212941884994507,-0.010835926979780197,0.7834346999999999,0.46211955,139.4184,-36.202946000000004,25.347033,STN
814315540000.0,1.6161905527114868,2.739220142364502,8.29866886138916,1.799368143081665,-0.04001344367861748,0.75319684,0.48075095,138.46884,-35.898758,24.99556,STN
814320500000.0,1.6211868524551392,2.6905357837677,8.155476570129395,1.7649503946304321,-0.0664965957403183,0.7293731,0.49785519999999994,137.52848999999998,-35.607372,24.648782999999998,STN
814325560000.0,1.626186728477478,2.647414207458496,8.00893497467041,1.7232301235198975,-0.09114517271518707,0.7318166,0.50823987,136.59929,-35.32904,24.307953,STN
814330540000.0,1.6311829090118408,2.6095657348632812,7.859542369842529,1.6753039360046387,-0.11578235030174255,0.7351763000000001,0.52381694,135.68088,-35.05604,23.975212,STN
814335600000.0,1.6361850500106812,2.576465606689453,7.70970344543457,1.628463864326477,-0.1406366229057312,0.7528914000000001,0.54367006,134.77025,-34.773742999999996,23.689995,STN
814340600000.0,1.6411861181259155,2.5477471351623535,7.559997081756592,1.5836440324783325,-0.16651026904582977,0.7651087,0.56321776,133.86731,-34.49072,23.405857,STN
814345550000.0,1.6461855173110962,2.5167906284332275,7.417904853820801,1.5463589429855347,-0.1919165700674057,0.7861836,0.5888741,132.97707,-34.20512,23.147560000000002,STN
814350500000.0,1.6511809825897217,2.481734275817871,7.285384654998779,1.5179355144500732,-0.21652233600616455,0.8384125,0.6221663000000001,132.08247,-33.91773,22.881666,STN
814355500000.0,1.6561810970306396,2.4426121711730957,7.161991119384766,1.4981218576431274,-0.24019117653369904,0.9282097,0.6365215999999999,131.23477,-33.638335999999995,22.628695999999998,STN
814360500000.0,1.6611775159835815,2.3998193740844727,7.047175407409668,1.4862457513809204,-0.26227307319641113,1.0622946000000002,0.65057147,130.36983,-33.365517,22.35664,STN
814365540000.0,1.6661776304244995,2.3522651195526123,6.944812774658203,1.481284260749817,-0.28275495767593384,1.2165382,0.64996064,129.48099,-33.09556,22.053059,STN
814370500000.0,1.6711781024932861,2.2998595237731934,6.855783462524414,1.4824957847595215,-0.3007943034172058,1.3539828,0.64873886,128.57771,-32.841286,21.72265,STN
814375500000.0,1.676177978515625,2.2452919483184814,6.7798662185668945,1.4843618869781494,-0.3159678280353546,1.4630222,0.63346726,127.60956000000002,-32.576405,21.293533,STN
814380550000.0,1.681178092956543,2.18992018699646,6.71665620803833,1.4841488599777222,-0.3266052007675171,1.5109752,0.5992588000000001,126.647026,-32.343212,20.843721,STN
814385600000.0,1.6862070560455322,2.1339449882507324,6.667215347290039,1.4784952402114868,-0.3334364891052246,1.5018122,0.5647449000000001,125.7374,-32.177372,20.367334,STN
814390600000.0,1.691206693649292,2.0783393383026123,6.629199504852295,1.4672034978866577,-0.3369900584220886,1.4337007,0.5335908,124.932541441432,-32.0960061880957,19.922719485490397,STN
814395560000.0,1.6962043046951294,2.021925926208496,6.603307247161865,1.4491792917251587,-0.3380754292011261,1.3594806000000002,0.5174029,124.04071,-32.005848,19.43006,STN
814400540000.0,1.7012040615081787,1.9642541408538818,6.58922004699707,1.4242968559265137,-0.33895644545555115,1.3341296999999999,0.47647488,123.255875,-31.986969000000002,18.967762,STN
814405500000.0,1.7062008380889893,1.9035733938217163,6.587369918823242,1.3962565660476685,-0.3397091329097748,1.2764030000000002,0.4569272,122.54193000000001,-32.05512,18.544315,STN
814410560000.0,1.7111999988555908,1.8379733562469482,6.598612308502197,1.3684366941452026,-0.34074726700782776,1.2302825000000002,0.42058071,121.8465,-32.13548,18.1185,STN
814415540000.0,1.716193437576294,1.7682682275772095,6.625392436981201,1.3460986614227295,-0.34207189083099365,1.1896601,0.38881573,121.21603999999999,-32.306847,17.7155,STN
814420500000.0,1.7211874723434448,1.6948633193969727,6.671341419219971,1.3351117372512817,-0.34391191601753235,1.1624765,0.34697145,120.60208,-32.485508,17.3165,STN
814425500000.0,1.7261818647384644,1.6193161010742188,6.730802059173584,1.3344871997833252,-0.3454259932041168,1.1551461,0.32498032,120.02685,-32.741432,16.909494,STN
814430500000.0,1.731176495552063,1.5426470041275024,6.79996395111084,1.3434197902679443,-0.3475593030452728,1.1777482,0.29199359999999996,119.462425,-32.998596,16.497515,STN
814435500000.0,1.7361716032028198,1.469358205795288,6.873383045196533,1.3632901906967163,-0.3512880504131317,1.2605205,0.25961772,118.89586000000001,-33.307896,16.0401,STN
814440450000.0,1.7411686182022095,1.4020413160324097,6.94779634475708,1.3947566747665405,-0.3560551404953003,1.393689,0.21655174,118.32516000000001,-33.621753999999996,15.564081,STN
814445400000.0,1.7461639642715454,1.3459386825561523,7.019425868988037,1.4419937133789062,-0.36248892545700073,1.5204436000000001,0.1695151,117.74786,-33.954334,15.043054000000001,STN
814450400000.0,1.7511593103408813,1.303768277168274,7.086286544799805,1.5071710348129272,-0.37261661887168884,1.606881,0.13836098,117.15857,-34.2725,14.503359,STN
814455460000.0,1.7561595439910889,1.279897928237915,7.145755290985107,1.592285394668579,-0.38961076736450195,1.6606371,0.13133603,116.53402,-34.54156,13.933101,STN
814460440000.0,1.7611554861068726,1.2777208089828491,7.195499897003174,1.6980749368667603,-0.4155307710170746,1.6807956999999998,0.12034045,115.90671999999999,-34.780506,13.353991,STN
814465500000.0,1.76615571975708,1.2982021570205688,7.2450995445251465,1.8346302509307861,-0.4512194097042084,1.6206254999999998,0.09162979,115.22446399999998,-34.881805,12.783164,STN
814470500000.0,1.7711557149887085,1.3412082195281982,7.30361795425415,2.0099105834960938,-0.4969862401485443,1.4468343000000001,0.056199603,114.56381999999999,-34.931915000000004,12.2414255,STN
814475500000.0,1.7761563062667847,1.4029221534729004,7.390868663787842,2.2266159057617188,-0.5541986227035522,1.0858128999999999,-0.003970624,113.82928500000001,-34.75563,11.7541685,STN
814480500000.0,1.7811568975448608,1.478822112083435,7.531371593475342,2.488370418548584,-0.6249648928642273,0.43279803,-0.105374254,113.20083999999999,-34.51775,11.374073,STN
814485540000.0,1.7861592769622803,1.5573607683181763,7.7339253425598145,2.7521603107452393,-0.7099788188934326,-0.32223140000000006,-0.23487769,112.67628,-34.129090000000005,11.135427,STN
814490600000.0,1.7911996841430664,1.6260857582092285,8.018267631530762,2.970374345779419,-0.8048512935638428,-0.73548174,-0.41141775,112.24642,-33.694427000000005,10.951869,STN
814495560000.0,1.796202301979065,1.700492262840271,8.35246753692627,3.1404356956481934,-0.9023018479347229,-0.35277468,-0.66859204,111.87552,-33.290896999999994,10.734001,STN
814500540000.0,1.801200270652771,1.7976735830307007,8.736435890197754,3.2450366020202637,-0.9927684664726257,0.09132435,-0.7968736999999999,111.57941399999999,-32.873745,10.59142,STN
814505500000.0,1.8061974048614502,1.925052523612976,9.15427303314209,3.308964252471924,-1.0748980045318604,1.0925325000000001,-0.98471475,111.13418,-32.754044,10.131495,STN
814510500000.0,1.8111960887908936,2.0974557399749756,9.576944351196289,3.377190589904785,-1.1411913633346558,1.8182403999999999,-1.070236,110.67461999999999,-32.677715,9.634267,STN
814515500000.0,1.8161935806274414,2.3026766777038574,9.988686561584473,3.4617626667022705,-1.1913694143295288,2.1939224999999998,-1.094976,110.201454,-32.960570000000004,9.078452,STN
814520500000.0,1.821190357208252,2.525710344314575,10.368236541748047,3.5795769691467285,-1.2277559041976929,2.1908681,-1.1163563,109.69385,-33.271427,8.436693,STN
814525500000.0,1.826188087463379,2.7638864517211914,10.712955474853516,3.7191476821899414,-1.2546993494033813,1.7773124,-1.1187996999999998,109.14634,-33.61254,7.9072146,STN
814530560000.0,1.8311883211135864,3.0133509635925293,11.017341613769531,3.862639904022217,-1.2797348499298096,1.1771374,-1.0754282,108.62565,-33.946007,7.43355,STN
814535540000.0,1.8361867666244507,3.2685625553131104,11.284360885620117,3.9967963695526123,-1.3080263137817383,0.54000485,-1.0085385,108.10476000000001,-34.124493,7.103455499999999,STN
814540600000.0,1.841188907623291,3.520482301712036,11.516531944274902,4.096395969390869,-1.343111515045166,0.040317107000000005,-0.8943066999999999,107.64336999999999,-34.266193,6.8975824999999995,STN
814545600000.0,1.8461867570877075,3.7654781341552734,11.715672492980957,4.163898468017578,-1.3817310333251953,-0.23365596,-0.7687739,107.32291399999998,-34.319885,6.8843255,STN
814550550000.0,1.85118567943573,3.9948902130126953,11.881455421447754,4.2000041007995605,-1.4199038743972778,-0.30207285,-0.6426301999999999,107.02721399999999,-34.3357,6.9483724,STN
814555500000.0,1.8561850786209106,4.2088398933410645,12.017732620239258,4.209560394287109,-1.453275203704834,-0.18875736,-0.5861251999999999,106.72946999999999,-34.31691,7.0609554999999995,STN
814560600000.0,1.861206293106079,4.405623912811279,12.130827903747559,4.201864719390869,-1.4749877452850342,0.13805555,-0.64996064,106.411125,-34.323044,7.1285987,STN
814565560000.0,1.8662041425704956,4.587841987609863,12.230419158935547,4.192111492156982,-1.4788589477539062,0.54153204,-0.7104363,106.01791999999999,-34.35176,7.143608,STN
814570540000.0,1.871202826499939,4.758356094360352,12.334917068481445,4.2160115242004395,-1.4646186828613281,0.7672467,-0.7556403,105.61633,-34.44065,7.1103334,STN
814575500000.0,1.8762023448944092,4.917688369750977,12.443841934204102,4.273547649383545,-1.4358854293823242,0.79779,-0.79412484,105.14971000000001,-34.58238,6.9906383000000005,STN
814580560000.0,1.8812024593353271,5.066010475158691,12.5560302734375,4.370336055755615,-1.3986891508102417,0.7199047,-0.8200866,104.674644,-34.792095,6.840317999999999,STN
814585540000.0,1.8862024545669556,5.202162265777588,12.667593002319336,4.499809741973877,-1.3589826822280884,0.57971114,-0.8017605999999999,104.23384,-35.03307,6.695119,STN
814590600000.0,1.891208291053772,5.317543983459473,12.759446144104004,4.638400554656982,-1.322124719619751,0.40317106,-0.8060366999999999,103.82321999999999,-35.297813,6.5711520000000005,STN
814595600000.0,1.896207571029663,5.412937164306641,12.83169174194336,4.782379150390625,-1.2890052795410156,0.31795537,-0.81245077,103.45294,-35.5422,6.4602556,STN
814600550000.0,1.9012070894241333,5.4781012535095215,12.866559982299805,4.901921272277832,-1.2588553428649902,0.17287487,-0.8145888000000001,103.12098,-35.780945,6.4046726,STN
814605600000.0,1.9062095880508423,5.513397693634033,12.86205005645752,4.996195316314697,-1.2317934036254883,0.06017022599999999,-0.8054258000000001,102.80009,-35.954097999999995,6.3344555,STN
814610600000.0,1.911207914352417,5.5095720291137695,12.778993606567383,5.044329643249512,-1.2063690423965454,-0.04734206,-0.7742717,102.49685,-36.123886,6.300845,STN
814615560000.0,1.9162074327468872,5.467960357666016,12.61999225616455,5.047956466674805,-1.1821205615997314,-0.105374254,-0.732122,102.17390999999999,-36.240284,6.231179,STN
814620540000.0,1.9212061166763306,5.409989833831787,12.413187026977539,5.0252509117126465,-1.1585783958435059,-0.13713925,-0.6713409,101.85246,-36.355,6.1913457,STN
814625500000.0,1.9262012243270874,5.343647480010986,12.170225143432617,4.983498573303223,-1.1358839273452759,-0.11484267,-0.60048056,101.51871,-36.46686,6.163431,STN
814630600000.0,1.9312020540237427,5.276669979095459,11.896156311035156,4.930666923522949,-1.1133246421813965,-0.04886922,-0.5109888,101.167854,-36.47014,6.079356,STN
814635550000.0,1.9361987113952637,5.2107439041137695,11.595144271850586,4.869319438934326,-1.0895259380340576,0.059864793,-0.43127087,100.79143,-36.48229,5.9953330000000005,STN
814640600000.0,1.941203236579895,5.150074481964111,11.280463218688965,4.807866096496582,-1.0636749267578125,0.21227567,-0.344528,100.405235,-36.443356,5.9053736,STN
814645600000.0,1.9461981058120728,5.095039367675781,10.957098960876465,4.748006820678711,-1.0338789224624634,0.31306845,-0.25228736,99.98940999999999,-36.42725,5.8212395,STN
814650560000.0,1.9511959552764893,5.042875289916992,10.635079383850098,4.689742565155029,-0.9998923540115356,0.36682457,-0.1441642,99.6195,-36.372208,5.767742,STN
814655540000.0,1.9561938047409058,4.992724895477295,10.317449569702148,4.633050441741943,-0.9633547067642212,0.3659083,-0.09162979,99.23201,-36.338844,5.71361,STN
814660500000.0,1.9611940383911133,4.940201282501221,10.0181884765625,4.582729816436768,-0.9249879121780396,0.32314770000000004,-0.07727446,98.89797,-36.286896,5.708418,STN
814665500000.0,1.9661916494369507,4.884446620941162,9.739900588989258,4.539613246917725,-0.8875589370727539,0.376293,0.01740966,98.514786,-36.240864,5.706837,STN
814670540000.0,1.971191167831421,4.82584810256958,9.488203048706055,4.501287937164307,-0.8482668995857239,0.38728857,0.04642576,98.177475,-36.209362,5.725598000000001,STN
814675500000.0,1.9761896133422852,4.764705181121826,9.263378143310547,4.466894149780273,-0.8085458874702454,0.41325033,0.02443461,97.81616,-36.176505999999996,5.7384677,STN
814680600000.0,1.9811899662017822,4.699861526489258,9.069928169250488,4.438157558441162,-0.7684024572372437,0.44837508,-0.017715093,97.42523,-36.166540000000005,5.7256865999999995,STN
814685550000.0,1.9861923456192017,4.63079833984375,8.909539222717285,4.415886402130127,-0.7282660603523254,0.45051312,-0.06994407,97.04098499999999,-36.170418,5.7116755999999995,STN
814690600000.0,1.991194486618042,4.55715274810791,8.772468566894531,4.392483234405518,-0.6876805424690247,0.4334089,-0.12767084,96.60157,-36.21329,5.647941599999999,STN
814695600000.0,1.996198058128357,4.478918552398682,8.65522289276123,4.365820407867432,-0.6476138830184937,0.38912117,-0.14874569,96.16894,-36.264645,5.591049,STN
814700560000.0,2.0011982917785645,4.397056579589844,8.550021171569824,4.33205509185791,-0.6086733341217041,0.35399640000000004,-0.20219639,95.66315,-36.354664,5.470192,STN
814705540000.0,2.0061986446380615,4.311885356903076,8.453749656677246,4.289860248565674,-0.5692198872566223,0.35613444,-0.26236662,95.165596,-36.46443,5.3515754,STN
814710600000.0,2.011204481124878,4.2251410484313965,8.362236976623535,4.241014003753662,-0.5272300243377686,0.37812558,-0.32314770000000004,94.56900999999999,-36.60652,5.1684847000000005,STN
814715600000.0,2.016204357147217,4.137794494628906,8.273859977722168,4.186809539794922,-0.4827737510204315,0.39614612,-0.36041048,93.98522,-36.765682,4.987918,STN
814720550000.0,2.02120304107666,4.051219940185547,8.183939933776855,4.131693363189697,-0.4360313415527344,0.38881573,-0.38545597,93.44832,-36.993584000000006,4.80405,STN
814725500000.0,2.0262014865875244,3.9659600257873535,8.090690612792969,4.077484130859375,-0.3868316411972046,0.33536503,-0.40011674,92.92425,-37.248867,4.6304145,STN
814730600000.0,2.031203031539917,3.883352756500244,7.99302864074707,4.0250139236450195,-0.3367054760456085,0.23823744,-0.38728857,92.44769000000001,-37.545856,4.4783044,STN
814735560000.0,2.0362040996551514,3.8038971424102783,7.890815258026123,3.9745893478393555,-0.2864021360874176,0.105374254,-0.36041048,91.98689,-37.86411,4.3538475,STN
814740600000.0,2.0412063598632812,3.7266342639923096,7.779424667358398,3.9246513843536377,-0.23669610917568207,-0.04520403,-0.31795537,91.53801,-38.175990000000006,4.2557673,STN
814745650000.0,2.046248197555542,3.650712728500366,7.654538154602051,3.8740434646606445,-0.1884670853614807,-0.16218472,-0.25992316,91.097115,-38.495262,4.1939178,STN
814750600000.0,2.051243543624878,3.576767683029175,7.519358158111572,3.822007894515991,-0.14178283512592316,-0.26511553,-0.19181168,90.64676,-38.788115999999995,4.160902,STN
814755600000.0,2.056239604949951,3.504244565963745,7.369215965270996,3.766700029373169,-0.0968703180551529,-0.35155296,-0.11575896,90.200356,-39.082256,4.1672707,STN
814760600000.0,2.0612359046936035,3.4335291385650635,7.206000804901123,3.706376314163208,-0.052804965525865555,-0.38698313,-0.03145956,89.703766,-39.325348,4.1776924,STN
814765600000.0,2.066232204437256,3.3649561405181885,7.03142786026001,3.6395103931427,-0.00960673950612545,-0.3839288,0.0580322,89.20022,-39.56924,4.21796,STN
814770550000.0,2.0712273120880127,3.297675132751465,6.852186679840088,3.5686588287353516,0.03350305184721947,-0.39431350000000004,0.13072516,88.71879,-39.78264,4.282341000000001,STN
814775530000.0,2.076226234436035,3.2311341762542725,6.67182731628418,3.495181083679199,0.07747320830821991,-0.37384954,0.19761491,88.21461,-40.00647,4.3576937000000004,STN
814780600000.0,2.0812320709228516,3.165001392364502,6.491782188415527,3.4194653034210205,0.12137890607118607,-0.36102137,0.27183503,87.75571,-40.22266,4.4691133,STN
814785560000.0,2.086230993270874,3.0991363525390625,6.314067363739014,3.342273235321045,0.1648329198360443,-0.34880406,0.35216382,87.27764,-40.450672,4.591719599999999,STN
814790540000.0,2.0912277698516846,3.0341708660125732,6.139584541320801,3.264267683029175,0.20719194412231445,-0.33933565,0.3903429,86.81280500000001,-40.676520000000004,4.7187996,STN
814795500000.0,2.0962252616882324,2.970824718475342,5.969398498535156,3.1862072944641113,0.24766792356967926,-0.32925636,0.46181414,86.32119,-40.903403999999995,4.8659362999999995,STN
814800500000.0,2.101221799850464,2.9103643894195557,5.804135322570801,3.1105687618255615,0.2854171097278595,-0.32834008,0.5323690999999999,85.83258000000001,-41.125454,5.0113277,STN
814805500000.0,2.1062185764312744,2.8538568019866943,5.6442694664001465,3.0394484996795654,0.3216591477394104,-0.32834008,0.5885687,85.33055999999999,-41.352364,5.1670017,STN
814810500000.0,2.111215829849243,2.801818609237671,5.490391731262207,2.971242904663086,0.3568161725997925,-0.34025195,0.6407976,84.816734,-41.57095,5.3342752,STN
814815600000.0,2.1162478923797607,2.755293846130371,5.343192100524902,2.903627634048462,0.39171102643013,-0.34269542,0.6808093000000001,84.29284,-41.79391,5.509061,STN
814820560000.0,2.121244192123413,2.712332010269165,5.205809116363525,2.8383071422576904,0.4272366762161255,-0.33078352,0.70829827,83.79908,-42.025192,5.7027264,STN
814825540000.0,2.1262426376342773,2.672165632247925,5.080300331115723,2.7757091522216797,0.46466168761253357,-0.31703907,0.7254025,83.29956,-42.269420000000004,5.9028160000000005,STN
814830500000.0,2.1312403678894043,2.6332240104675293,4.970141887664795,2.71620774269104,0.5046824216842651,-0.2968805,0.74128497,82.7912,-42.532270000000004,6.1138783,STN
814835560000.0,2.1362390518188477,2.594062089920044,4.878606796264648,2.66013240814209,0.5476489067077637,-0.29810223,0.7480045,82.2833,-42.815754,6.328997,STN
814840600000.0,2.1412413120269775,2.552743911743164,4.807843208312988,2.6080780029296875,0.593615710735321,-0.31826079999999995,0.7519751,81.7483,-43.129771999999996,6.534284599999999,STN
814845660000.0,2.146244525909424,2.507582664489746,4.759490013122559,2.560560703277588,0.6413974761962891,-0.37262779999999995,0.74189585,81.22348000000001,-43.46371,6.747167999999999,STN
814850640000.0,2.1512391567230225,2.4586973190307617,4.732139587402344,2.5176026821136475,0.6893511414527893,-0.44440445,0.72784597,80.60065,-43.814964,6.923673,STN
814855600000.0,2.156238555908203,2.405606985092163,4.726173400878906,2.4794564247131348,0.7369791865348816,-0.50976706,0.6969972,79.998535,-44.186424,7.10832,STN
814860600000.0,2.161234140396118,2.3487658500671387,4.740685939788818,2.447038173675537,0.7836642265319824,-0.56199604,0.6554584,79.49658000000001,-44.636986,7.316569,STN
814865600000.0,2.1662325859069824,2.288228988647461,4.77640962600708,2.4220378398895264,0.8285123705863953,-0.6270532,0.6227771,79.01769,-45.090603,7.5380745,STN
814870560000.0,2.1712281703948975,2.225179433822632,4.831254005432129,2.4040191173553467,0.8723214268684387,-0.71868294,0.58368176,78.64911,-45.624054,7.7665744000000005,STN
814875540000.0,2.17622709274292,2.1608715057373047,4.903958797454834,2.39286208152771,0.9167582988739014,-0.8167268,0.5342017,78.30575999999999,-46.164265,8.000167999999999,STN
814880500000.0,2.181220054626465,2.0943076610565186,4.990027904510498,2.3890268802642822,0.9623591899871826,-0.9275989,0.48349985,78.04203000000001,-46.762096,8.233748,STN
814885600000.0,2.186246871948242,2.0225272178649902,5.08621072769165,2.395008087158203,1.010380506515503,-1.061073,0.44226643,77.813934,-47.374752,8.480004,STN
814890550000.0,2.191244125366211,1.9481972455978394,5.189874172210693,2.4084415435791016,1.0607746839523315,-1.1435398,0.42180246,77.6336,-48.039146,8.718833,STN
814895600000.0,2.1962456703186035,1.8715429306030273,5.303852558135986,2.4302103519439697,1.1114619970321655,-1.2962561000000001,0.38789943,77.51079,-48.709255,8.980023,STN
814900600000.0,2.201237916946411,1.7927649021148682,5.425558090209961,2.4582760334014893,1.1639894247055054,-1.4807373,0.37140608,77.43677,-49.411384999999996,9.221258,STN
814905560000.0,2.2062342166900635,1.7110837697982788,5.552140235900879,2.489816904067993,1.217477560043335,-1.6789631999999999,0.35888332,77.40859,-50.11235,9.480061,STN
814910540000.0,2.211228370666504,1.6271798610687256,5.682817459106445,2.5241057872772217,1.2707195281982422,-1.8842138,0.33567044,77.44703,-50.830887,9.732314,STN
814915500000.0,2.2162249088287354,1.5441957712173462,5.815272808074951,2.557386875152588,1.3235982656478882,-2.10046,0.31612277,77.53824,-51.55208,10.010471,STN
814920500000.0,2.221220016479492,1.462979793548584,5.9478068351745605,2.5883662700653076,1.3760679960250854,-2.3084597999999996,0.29749137,77.70538,-52.289320000000004,10.273233,STN
814925500000.0,2.2262163162231445,1.3863515853881836,6.075354099273682,2.6125035285949707,1.4281667470932007,-2.4926357000000006,0.29168814,77.921974,-53.021747999999995,10.555634,STN
814930460000.0,2.2312123775482178,1.315958023071289,6.196425437927246,2.6296565532684326,1.4791982173919678,-2.6548203999999997,0.26022860000000003,78.21294,-53.76935,10.835206,STN
814935500000.0,2.236210823059082,1.257178544998169,6.306130409240723,2.638524293899536,1.5287145376205444,-2.7568347,0.19242255,78.5434,-54.511715,11.110874,STN
814940500000.0,2.241208553314209,1.2101800441741943,6.40698766708374,2.6415841579437256,1.5742897987365723,-2.7635542999999996,0.09712757,78.91443000000001,-55.2596,11.376532000000001,STN
814945530000.0,2.246206760406494,1.1788463592529297,6.509049892425537,2.6492185592651367,1.6123088598251343,-2.6929993999999997,-0.01740966,79.30665,-55.98429,11.610045,STN
814950500000.0,2.2512056827545166,1.163407802581787,6.616422653198242,2.6645243167877197,1.637868046760559,-2.5809057,-0.09682214,79.687996,-56.671623,11.843555,STN
814955560000.0,2.256214141845703,1.1673182249069214,6.744166374206543,2.699367046356201,1.6454459428787231,-2.4266622000000004,-0.12583824,80.05009,-57.292519999999996,12.031733500000001,STN
814960540000.0,2.2612125873565674,1.188942790031433,6.889225959777832,2.7499706745147705,1.631980299949646,-2.2666154,-0.12858713,80.343704,-57.81239,12.209928999999999,STN
814965500000.0,2.266211986541748,1.2307316064834595,7.05091667175293,2.8108198642730713,1.597843885421753,-2.0903810000000003,-0.13988814,80.59656,-58.238009999999996,12.345991999999999,STN
814970500000.0,2.271209239959717,1.291613221168518,7.225575923919678,2.8790860176086426,1.5464820861816406,-1.9275852,-0.17715092,80.7326,-58.522273999999996,12.468250999999999,STN
814975550000.0,2.2762081623077393,1.3719910383224487,7.401033878326416,2.944472074508667,1.4837450981140137,-1.7867808,-0.23090707,80.830635,-58.722954,12.558276,STN
814980500000.0,2.281205415725708,1.4702154397964478,7.575102806091309,3.011823892593384,1.4160338640213013,-1.6566665,-0.30970868,80.82282,-58.8345,12.649612,STN
814985600000.0,2.286206007003784,1.5837568044662476,7.735829830169678,3.1094627380371094,1.3479593992233276,-1.5989398000000001,-0.39095375,80.80604,-58.905003,12.715778,STN
814990560000.0,2.291203498840332,1.7113037109375,7.884024143218994,3.2349581718444824,1.282405972480774,-1.4792101,-0.42607849999999997,80.67600999999999,-58.93383000000001,12.815347000000001,STN
814995540000.0,2.2962024211883545,1.842340111732483,7.996163368225098,3.386366367340088,1.219222903251648,-1.3341296999999999,-0.5015204000000001,80.5459,-58.961266,12.870581,STN
815000500000.0,2.3012003898620605,1.9749174118041992,8.07042121887207,3.5618538856506348,1.156916618347168,-1.1563678999999998,-0.5357288,80.38,-58.97895,12.905092999999999,STN
815005500000.0,2.30619740486145,2.1137640476226807,8.118677139282227,3.784184455871582,1.0931127071380615,-0.8732319,-0.5183192,80.19691,-58.88908000000001,12.944711999999999,STN
815010500000.0,2.3111929893493652,2.2599496841430664,8.14533519744873,4.057908058166504,1.0241960287094116,-0.46883908,-0.4352415,79.9369,-58.771606000000006,12.950953,STN
815015500000.0,2.3161933422088623,2.4209558963775635,8.181047439575195,4.363856315612793,0.9461255669593811,0.116675265,-0.31581733,79.70317,-58.51775,12.942848,STN
815020500000.0,2.3211886882781982,2.596264123916626,8.22928237915039,4.69603157043457,0.8505668044090271,0.86009824,-0.17134771,79.31335,-58.173683,12.883182000000001,STN
815025550000.0,2.3261890411376953,2.784318685531616,8.294232368469238,5.030048370361328,0.7343499064445496,1.4947872,-0.0018325957999999999,78.86653000000001,-57.584230000000005,12.8024025,STN
815030530000.0,2.3311848640441895,2.983412265777588,8.37504768371582,5.361131191253662,0.6056238412857056,1.6456709999999999,0.1151481,78.35051999999999,-56.92646800000001,12.706984,STN
815035500000.0,2.3361852169036865,3.1937928199768066,8.484471321105957,5.6503214836120605,0.47695401310920715,1.1548406999999998,0.16340645,77.85748000000001,-56.126186,12.671348,STN
815040500000.0,2.3411831855773926,3.414339065551758,8.622709274291992,5.892648220062256,0.35206493735313416,-0.02443461,0.13164146,77.50581,-55.271866,12.726922,STN
815045540000.0,2.346184492111206,3.66253662109375,8.792679786682129,6.0369744300842285,0.23822642862796783,-1.5974126,0.023823743999999997,77.39029000000001,-54.441345,12.962974,STN
815050500000.0,2.3511803150177,3.9404234886169434,8.99244499206543,6.076857089996338,0.15150129795074463,-3.0527990000000003,-0.10415252,77.54724,-53.71021700000001,13.350886,STN
815055600000.0,2.3561813831329346,4.218827724456787,9.205975532531738,5.984294891357422,0.10525698959827423,-4.174348,-0.17409660000000002,77.99693,-53.22444,13.989026,STN
815060550000.0,2.361180305480957,4.490389347076416,9.428112030029297,5.762760162353516,0.09754777699708939,-4.777577,-0.113926366,78.67113499999999,-52.855796999999995,14.759134,STN
815065500000.0,2.3661813735961914,4.717248439788818,9.635916709899902,5.422891616821289,0.1143561601638794,-4.6944995,0.008246681,79.39654,-52.839367,15.727552,STN
815070500000.0,2.3711795806884766,4.892177104949951,9.82414436340332,4.97505521774292,0.14348599314689636,-3.9858955999999997,0.17134771,80.10477,-52.91494,16.671936,STN
815075500000.0,2.37617826461792,4.976318359375,9.989863395690918,4.4234232902526855,0.16814976930618286,-2.9553661,0.36377025,80.56974,-53.2517,17.60023,STN
815080540000.0,2.38118052482605,4.956188678741455,10.132495880126953,3.7720847129821777,0.17186865210533142,-1.7736471999999999,0.54000485,80.80593,-53.51965,18.384983,STN
815085500000.0,2.3861818313598633,4.839563369750977,10.254751205444336,3.0591564178466797,0.1409953087568283,-1.1737776000000002,0.60231316,81.07075999999999,-53.914840000000005,19.124064999999998,STN
815090570000.0,2.3911826610565186,4.631534099578857,10.358007431030273,2.295590877532959,0.09132294356822968,-0.18661933,0.5726861999999999,80.93936,-54.24462,19.62152,STN
815095550000.0,2.396182060241699,4.390992641448975,10.46301555633545,1.5270259380340576,0.011808168143033981,0.44318274,0.3277292,80.99133,-54.64508000000001,19.951101,STN
815100500000.0,2.4011833667755127,4.137303352355957,10.57642936706543,0.7675974369049072,-0.07484691590070724,0.90408057,-0.008857545999999999,80.86888,-55.054142000000006,20.119782999999998,STN
815105500000.0,2.4061832427978516,3.93350887298584,10.752985954284668,0.09295559674501419,-0.14874523878097534,1.3267993,-0.34972036,80.734604,-55.666869999999996,19.979044000000002,STN
815110550000.0,2.4111828804016113,3.799856662750244,11.009930610656738,-0.473444402217865,-0.19494038820266724,1.4926492,-0.6230826,80.59517,-56.334644,19.739079999999998,STN
815115530000.0,2.4161834716796875,3.6922926902770996,11.31241512298584,-0.7180368900299072,-0.197133868932724,1.3066407,-0.6951646,80.4882,-57.217980000000004,19.399601,STN
815120500000.0,2.4211838245391846,3.5912137031555176,11.64393138885498,-0.5612888932228088,-0.13589157164096832,1.5305228000000002,-0.6047566,80.23938000000001,-58.29906999999999,18.95938,STN
815125560000.0,2.4261868000030518,3.480421304702759,11.988557815551758,-0.14820030331611633,-0.009157509543001652,3.157868,-0.6075055,79.648224,-59.50800699999999,18.366947,STN
815130540000.0,2.431187391281128,3.35274338722229,12.337608337402344,0.43886756896972656,0.10226065665483475,4.0613375,-0.68386364,79.17784,-60.62669,17.854870000000002,STN
815135500000.0,2.436187505722046,3.2499501705169678,12.598410606384277,0.9747737050056458,0.14798688888549805,3.4981197999999996,-0.7284568,78.387794,-61.269962,17.05104,STN
815140600000.0,2.4412312507629395,3.198273181915283,12.708695411682129,1.3289062976837158,0.1492644101381302,2.5079072,-0.73853606,77.475876,-61.927727000000004,16.226923,STN
815145550000.0,2.44622802734375,3.186746120452881,12.7253999710083,1.57274329662323,0.14388151466846466,1.4718798,-0.7101309,76.64913,-62.212646,15.341612,STN
815150500000.0,2.4512245655059814,3.2222981452941895,12.639291763305664,1.6999143362045288,0.1385413259267807,0.37110063,-0.691194,76.13995,-62.31796,14.621567,STN
815155500000.0,2.4562206268310547,3.28145432472229,12.473130226135254,1.720619797706604,0.12477735430002213,-0.47616947,-0.6808093000000001,75.847824,-62.361313,14.224672,STN
815160500000.0,2.4612183570861816,3.3496148586273193,12.241588592529297,1.6421895027160645,0.10661953687667847,-1.033584,-0.6310238,75.77323,-62.403290000000005,13.950932,STN
815165540000.0,2.466217517852783,3.4217913150787354,11.97196102142334,1.5118736028671265,0.09260348230600357,-1.3918563999999998,-0.5161811,75.8373,-62.441734,13.974888,STN
815170500000.0,2.4712164402008057,3.495093584060669,11.680477142333984,1.3572492599487305,0.0873916745185852,-1.6771306000000001,-0.3830125,76.02113,-62.469276,14.072308999999999,STN
815175570000.0,2.476222276687622,3.579179048538208,11.392602920532227,1.171155333518982,0.09276118129491806,-1.8078557000000002,-0.20341812,76.23944,-62.569954,14.334923999999999,STN
815180550000.0,2.481220245361328,3.6820476055145264,11.133435249328613,0.9499351382255554,0.1099385991692543,-1.7873917000000001,0.0036651915999999997,76.46951999999999,-62.688477,14.649204000000001,STN
815185500000.0,2.4862194061279297,3.7953035831451416,10.918610572814941,0.6941266059875488,0.13258130848407745,-1.5448781999999999,0.0983493,76.68726,-62.83234399999999,15.009644,STN
815190600000.0,2.4912235736846924,3.9094772338867188,10.764939308166504,0.4050789475440979,0.16716942191123962,-1.131017,0.23487769,76.818665,-63.0125,15.407302,STN
815195600000.0,2.4962263107299805,4.008339881896973,10.670679092407227,0.10462815314531326,0.21396158635616302,-0.6976081000000001,0.30879238,76.94599000000001,-63.286156000000005,15.856442000000001,STN
815200600000.0,2.501224994659424,4.075243949890137,10.635071754455566,-0.18554791808128357,0.27346310019493103,-0.40164390000000005,0.27397305,76.99343,-63.598994999999995,16.277092,STN
815205600000.0,2.5062215328216553,4.104740142822266,10.643762588500977,-0.4574519693851471,0.343222439289093,-0.24587326,0.1695151,77.03952,-64.067444,16.679873999999998,STN
815210600000.0,2.5112524032592773,4.083980083465576,10.683226585388184,-0.6991063952445984,0.4207070767879486,-0.13530666,0.04886922,77.02378,-64.56902,17.036928,STN
815215600000.0,2.5162456035614014,4.028362274169922,10.73792839050293,-0.9071041345596313,0.5020382404327393,-0.022602014,-0.014049901000000002,77.01316,-65.19379,17.264223,STN
815220600000.0,2.521242380142212,3.9356560707092285,10.800174713134766,-1.0667707920074463,0.5827137231826782,0.09896017,-0.027488936000000002,76.97629,-65.822975,17.456670000000003,STN
815225600000.0,2.526235580444336,3.8133580684661865,10.859392166137695,-1.1785774230957031,0.658829391002655,0.2593123,-0.0290161,76.92305,-66.52293399999999,17.486303,STN
815230550000.0,2.531233787536621,3.670196294784546,10.897514343261719,-1.238160490989685,0.7257124185562134,0.44532076,-0.05375614,76.82831,-67.19174,17.493338,STN
815235500000.0,2.5362300872802734,3.514233112335205,10.91411018371582,-1.2484474182128906,0.7805179953575134,0.59315014,-0.08796459400000001,76.69046999999999,-67.85208,17.366595999999998,STN
815240500000.0,2.5412278175354004,3.37797212600708,10.89995288848877,-1.2065494060516357,0.8229457139968872,0.66553766,-0.09712757,76.51726500000001,-68.46709399999999,17.235086,STN
815245500000.0,2.5462234020233154,3.2640750408172607,10.857083320617676,-1.1192384958267212,0.8547294735908508,0.6356053,-0.07849618,76.30017,-69.01729,17.019121,STN
815250540000.0,2.551220417022705,3.196272134780884,10.786802291870117,-1.0097254514694214,0.8790246844291687,0.5503895999999999,-0.03145956,76.07468,-69.52741999999999,16.812302,STN
815255500000.0,2.5562174320220947,3.1724228858947754,10.690441131591797,-0.8833420276641846,0.8997788429260254,0.44135013,0.02321288,75.79039,-69.885735,16.64828,STN
815260500000.0,2.5612151622772217,3.1929218769073486,10.567925453186035,-0.7630509734153748,0.9186294078826904,0.33536503,0.092240654,75.526115,-70.20754000000001,16.511013000000002,STN
815265500000.0,2.566209077835083,3.2546658515930176,10.421185493469238,-0.6485386490821838,0.9364916086196899,0.28191432,0.16249016,75.14318,-70.33854000000001,16.51097,STN
815270460000.0,2.5712056159973145,3.316409111022949,10.27176570892334,-0.5414949655532837,0.9510742425918579,0.25900686,0.24709499,74.781075,-70.43451999999999,16.541693,STN
815275440000.0,2.5762014389038086,3.3654353618621826,10.126587867736816,-0.44214046001434326,0.9606964588165283,0.2501493,0.33139440000000003,74.42984,-70.50287,16.596636,STN
815280500000.0,2.5812106132507324,3.3960306644439697,9.992878913879395,-0.35365936160087585,0.9672666192054749,0.24770586,0.4089743,74.08545,-70.419106,16.825207000000002,STN
815285530000.0,2.586207866668701,3.408536911010742,9.872346878051758,-0.27618667483329773,0.964485228061676,0.25289822,0.43982297,73.741196,-70.29474,17.062082,STN
815290500000.0,2.5912063121795654,3.4048349857330322,9.767172813415527,-0.20868675410747528,0.9586942791938782,0.27672195,0.48105640000000005,73.38078,-70.18016,17.291004,STN
815295500000.0,2.596203327178955,3.3866536617279053,9.6775541305542,-0.15025679767131805,0.9473521113395691,0.30970868,0.4908302,73.01895999999999,-70.03514,17.516287,STN
815300540000.0,2.601202964782715,3.3604068756103516,9.59879207611084,-0.09748896956443787,0.9322195053100586,0.36071593,0.48380527,72.5936,-69.92974,17.683746,STN
815305500000.0,2.6062026023864746,3.329582691192627,9.52821159362793,-0.04852934554219246,0.9155982732772827,0.4266894,0.46731192,72.16103000000001,-69.81671999999999,17.846975,STN
815310500000.0,2.6112008094787598,3.297306537628174,9.463882446289062,0.005445808172225952,0.8989350199699402,0.47616947,0.43554693,71.72794,-69.75506999999999,17.950274,STN
815315550000.0,2.6162009239196777,3.2654309272766113,9.40456485748291,0.0697392076253891,0.8839899301528931,0.5195409000000001,0.41294490000000006,71.28564,-69.69523000000001,18.048222,STN
815320500000.0,2.6212000846862793,3.2360153198242188,9.347222328186035,0.14480818808078766,0.8709155917167664,0.54550266,0.37782016,70.873474,-69.670364,18.112125,STN
815325600000.0,2.62620210647583,3.2099735736846924,9.29035472869873,0.23084323108196259,0.8582287430763245,0.5467244000000001,0.34269542,70.46359,-69.65005,18.16928,STN
815330560000.0,2.6312012672424316,3.1857244968414307,9.232665061950684,0.32328006625175476,0.8453553318977356,0.5564981999999999,0.3115413,70.027565,-69.635864,18.197403,STN
815335600000.0,2.636202573776245,3.1625137329101562,9.173480033874512,0.4201841354370117,0.8294730186462402,0.5674938,0.28893927,69.60113,-69.621185,18.219382999999997,STN
815340600000.0,2.6412031650543213,3.136935234069824,9.112014770507812,0.5175221562385559,0.809260904788971,0.6053675000000001,0.27824909999999997,69.17004399999999,-69.58948000000001,18.232323,STN
815345570000.0,2.6462016105651855,3.1073412895202637,9.047934532165527,0.6132583618164062,0.7831104397773743,0.6569856,0.26389378,68.74269,-69.552155,18.237864000000002,STN
815350550000.0,2.651197671890259,3.071521282196045,8.980122566223145,0.7049413919448853,0.7518264055252075,0.7174611999999999,0.25503623,68.33538,-69.497536,18.240332000000002,STN
815355500000.0,2.6561968326568604,3.028377056121826,8.907974243164062,0.7914818525314331,0.7139732241630554,0.77091193,0.258396,67.923645,-69.42373,18.240251999999998,STN
815360500000.0,2.6611948013305664,2.977750301361084,8.830989837646484,0.8736537098884583,0.6723425984382629,0.820392,0.25167647,67.51344,-69.35181,18.219547,STN
815365550000.0,2.6661946773529053,2.9195632934570312,8.748875617980957,0.9519593119621277,0.6279334425926208,0.86162543,0.23487769,67.099884,-69.26444000000001,18.194414000000002,STN
815370530000.0,2.6711935997009277,2.8554372787475586,8.665151596069336,1.0280344486236572,0.5814797878265381,0.9257663,0.21074851,66.66617,-69.18056999999999,18.14142,STN
815375500000.0,2.676191568374634,2.7862794399261475,8.581585884094238,1.102765440940857,0.5334650278091431,0.9773844,0.20555615,66.235466,-69.08471999999999,18.087362,STN
815380560000.0,2.68119478225708,2.7121665477752686,8.498071670532227,1.1762853860855103,0.48540472984313965,1.1129965,0.18295415,65.77704,-69.0155,17.981588000000002,STN
815385540000.0,2.686195135116577,2.6342642307281494,8.415800094604492,1.25509774684906,0.4340783953666687,1.3060299,0.16768251,65.29966,-68.9249,17.87069,STN
815391400000.0,2.691991090774536,2.532310962677002,8.329854965209961,1.396523356437683,0.3558463454246521,2.1319196,0.15454891,63.046726,-68.445206,17.161951000000002,STN
815397140000.0,2.697744846343994,2.4287049770355225,8.246465682983398,1.5471991300582886,0.27637940645217896,2.1896465,0.15607607,62.412773,-68.26508000000001,16.925,STN
815402840000.0,2.7034573554992676,2.330047607421875,8.163939476013184,1.701007604598999,0.19912908971309662,2.1591032,0.1572978,61.785072,-68.04659000000001,16.643991,STN
815408550000.0,2.7091376781463623,2.2464652061462402,8.079610824584961,1.8492026329040527,0.12700484693050385,2.0525072,0.15882497,61.18175,-67.80974599999999,16.36338,STN
815414200000.0,2.714779853820801,2.191607713699341,7.994406223297119,1.99165678024292,0.06131240352988243,1.8713857,0.15088372,60.622654000000004,-67.53305,16.072357,STN
815419800000.0,2.7203876972198486,2.1875762939453125,7.909387588500977,2.1281235218048096,0.0015462171286344528,1.6563611,0.1572978,60.122130000000006,-67.2473,15.796332000000001,STN
815425400000.0,2.7259602546691895,2.2266860008239746,7.826279640197754,2.256089687347412,-0.05466048792004585,1.4789047,0.183565,59.672874,-66.93464,15.556784,STN
815430960000.0,2.731508731842041,2.281609058380127,7.754871845245361,2.3593385219573975,-0.11181090027093887,1.3979651000000002,0.24129178,59.272372999999995,-66.60303,15.337345999999998,STN
815436460000.0,2.7370219230651855,2.3461246490478516,7.693085193634033,2.4385793209075928,-0.17242655158042908,1.3860531999999999,0.33017266,58.861614,-66.15164,15.291897,STN
815442000000.0,2.742509365081787,2.4083962440490723,7.637695789337158,2.4909093379974365,-0.23580189049243927,1.4046847,0.40042216,58.469475,-65.68141999999999,15.257644,STN
815447400000.0,2.7479703426361084,2.4670586585998535,7.588374137878418,2.515259027481079,-0.2993319630622864,1.3970488,0.45142943,58.0707,-65.20463000000001,15.292342999999999,STN
815452850000.0,2.7534093856811523,2.5127997398376465,7.545032024383545,2.495779514312744,-0.3603065013885498,1.3921618,0.4905248,57.667152,-64.710045,15.335976,STN
815458300000.0,2.758850336074829,2.545414686203003,7.508140563964844,2.434887647628784,-0.41822683811187744,1.3509285,0.50946164,57.273293,-64.25954,15.406918,STN
815463660000.0,2.76424241065979,2.5672874450683594,7.4781084060668945,2.352968454360962,-0.4716443121433258,1.3344351,0.52198434,56.877373,-63.814834999999995,15.479873000000001,STN
815469040000.0,2.7696118354797363,2.578108310699463,7.455049991607666,2.248764991760254,-0.5216779112815857,1.255328,0.5195409000000001,56.52574,-63.497005,15.555081,STN
815474400000.0,2.774965524673462,2.573153257369995,7.444982528686523,2.141385793685913,-0.5693217515945435,1.1545353,0.52870387,56.18916,-63.185925,15.637419,STN
815479700000.0,2.780294179916382,2.5524885654449463,7.44843053817749,2.0362348556518555,-0.614100992679596,1.0070114,0.5525276,55.892418000000006,-62.885788,15.733220000000001,STN
815485000000.0,2.7856104373931885,2.510291814804077,7.473836898803711,1.9435869455337524,-0.6571123600006104,0.8054258000000001,0.5513059,55.649469999999994,-62.697872,15.817132999999998,STN
815490330000.0,2.7909035682678223,2.4470231533050537,7.521452903747559,1.8653504848480225,-0.6977176070213318,0.5839871999999999,0.5555819000000001,55.45383,-62.51529,15.9252405,STN
815495640000.0,2.7961864471435547,2.3603413105010986,7.591899394989014,1.7941972017288208,-0.7365983724594116,0.410196,0.5751295999999999,55.264275,-62.343628,16.01531,STN
815500900000.0,2.8014495372772217,2.2516040802001953,7.683290481567383,1.7270828485488892,-0.7736023664474487,0.3659083,0.58123827,55.104202,-62.179832,16.110939000000002,STN
815506100000.0,2.806701183319092,2.122554063796997,7.786521911621094,1.664160132408142,-0.8086180686950684,0.45906523,0.56413406,54.942634999999996,-62.035553,16.129917000000003,STN
815511400000.0,2.8119394779205322,1.9751001596450806,7.89702033996582,1.6053568124771118,-0.8415723443031311,0.602924,0.52412236,54.783978000000005,-61.89816,16.141747,STN
815516600000.0,2.8171656131744385,1.8212413787841797,8.004003524780273,1.5490269660949707,-0.8734214901924133,0.7473936,0.45173484,54.597363,-61.814406999999996,16.048344,STN
815521860000.0,2.822381019592285,1.6659597158432007,8.103260040283203,1.4944329261779785,-0.9054614901542664,0.88270026,0.3717115,54.382355000000004,-61.736706000000005,15.926770999999999,STN
815527100000.0,2.8275845050811768,1.515436053276062,8.19196891784668,1.4484570026397705,-0.9397982358932495,1.0613784,0.30451632,54.12235,-61.691063,15.6965685,STN
815532340000.0,2.8328142166137695,1.3721081018447876,8.268240928649902,1.4151196479797363,-0.9762930274009705,1.2241739,0.24465153,53.84112,-61.649754,15.434847,STN
815537500000.0,2.837995767593384,1.2378668785095215,8.332609176635742,1.4113240242004395,-1.012893795967102,1.3494013999999999,0.1908954,53.526382,-61.614146999999996,15.119760999999999,STN
815542700000.0,2.8431668281555176,1.1136513948440552,8.383365631103516,1.4513270854949951,-1.0524272918701172,1.3588698000000001,0.113926366,53.211859999999994,-61.5607,14.779726,STN
815547900000.0,2.8483264446258545,1.0087802410125732,8.427413940429688,1.5388253927230835,-1.098171591758728,1.2205088,0.021685716,52.90602,-61.455673,14.421429000000002,STN
815553050000.0,2.853477954864502,0.928415834903717,8.468855857849121,1.6755636930465698,-1.1512932777404785,0.9978484000000001,-0.07299839999999999,52.633247,-61.331436,14.05476,STN
815558200000.0,2.85862135887146,0.8823038339614868,8.524492263793945,1.8428075313568115,-1.2140687704086304,0.75441855,-0.19517145,52.414974,-61.041194999999995,13.664007000000002,STN
815563340000.0,2.8637571334838867,0.8746939301490784,8.602714538574219,2.030111074447632,-1.2852997779846191,0.5375614000000001,-0.33994650000000004,52.268375,-60.72087,13.271663,STN
815568450000.0,2.868884325027466,0.9090725183486938,8.714072227478027,2.2151403427124023,-1.3620779514312744,0.44501534,-0.43035457,52.157444,-60.201653,12.897948,STN
815573570000.0,2.8740053176879883,0.9919747114181519,8.87464714050293,2.3668627738952637,-1.4373199939727783,0.35338554,-0.61911196,52.14343,-59.68816999999999,12.49611,STN
815578700000.0,2.879120349884033,1.1111150979995728,9.075089454650879,2.478224754333496,-1.508698582649231,0.46975538,-0.7535023000000001,52.101448,-59.074690000000004,12.158269,STN
815583800000.0,2.8842296600341797,1.2543342113494873,9.306180953979492,2.542067050933838,-1.5708366632461548,0.7812967,-0.7828238000000001,52.05525,-58.49145,11.790499,STN
815588900000.0,2.889333486557007,1.4143571853637695,9.550972938537598,2.5991523265838623,-1.6187410354614258,1.1276573,-0.8332202,51.971375,-58.062725,11.500187,STN
815594000000.0,2.8944318294525146,1.5836360454559326,9.791736602783203,2.692270040512085,-1.6537563800811768,1.3185526,-0.929126,51.867676,-57.670715,11.174273,STN
815599100000.0,2.899522066116333,1.7657291889190674,10.02820110321045,2.8196961879730225,-1.681208610534668,1.2272283000000002,-1.0244209999999998,51.73012,-57.462475,10.926947,STN
815604240000.0,2.9046239852905273,1.9675166606903076,10.260649681091309,2.9832584857940674,-1.7050491571426392,0.97494096,-1.0916162,51.600613,-57.29121,10.664005,STN
815609300000.0,2.909703016281128,2.1867504119873047,10.489136695861816,3.154284954071045,-1.7275378704071045,0.72387534,-1.0809261000000001,51.490425,-57.03481,10.441918,STN
815614400000.0,2.914782762527466,2.4293386936187744,10.71624755859375,3.292750358581543,-1.748746633529663,0.59437186,-1.0329732,51.422413,-56.791740000000004,10.234900999999999,STN
815619440000.0,2.919853687286377,2.6793081760406494,10.933839797973633,3.412562370300293,-1.7645117044448853,0.5714644,-0.88300574,51.357788,-56.451730000000005,10.128003999999999,STN
815624500000.0,2.9249250888824463,2.9137818813323975,11.129094123840332,3.533790111541748,-1.7707933187484741,0.514654,-0.7593055000000001,51.333923,-56.139503000000005,10.047873,STN
815629530000.0,2.9299871921539307,3.1336617469787598,11.303574562072754,3.6560862064361572,-1.7654436826705933,0.5174029,-0.66828656,51.25327,-55.900925,10.074491,STN
815634600000.0,2.935054063796997,3.3396191596984863,11.457864761352539,3.7797749042510986,-1.7490988969802856,0.54733527,-0.63255095,51.171479999999995,-55.70483,10.113308,STN
815639600000.0,2.940112352371216,3.5322189331054688,11.602835655212402,3.9110212326049805,-1.7233378887176514,0.63041294,-0.65087694,51.046721999999995,-55.54575,10.146783000000001,STN
815644700000.0,2.9451706409454346,3.7115135192871094,11.758326530456543,4.063654899597168,-1.6894763708114624,0.5992588000000001,-0.6994406999999999,50.944435,-55.44191,10.187678,STN
815649700000.0,2.950220823287964,3.879495143890381,11.923012733459473,4.230913162231445,-1.6497690677642822,0.43829579999999996,-0.7742717,50.855717,-55.314434,10.212136,STN
815654760000.0,2.955272674560547,4.039797306060791,12.09648609161377,4.400457382202148,-1.607115626335144,0.36865717,-0.8356636999999999,50.760475,-55.22773000000001,10.215281,STN
815659800000.0,2.9603185653686523,4.191709518432617,12.272220611572266,4.570155620574951,-1.5617870092391968,0.33964106,-0.88208944,50.689696999999995,-55.14379,10.200343,STN
815664860000.0,2.9653656482696533,4.332336902618408,12.43319320678711,4.73498010635376,-1.5153093338012695,0.31581733,-0.91629785,50.643806,-55.08446,10.180954,STN
815669900000.0,2.970407724380493,4.460778713226318,12.57103443145752,4.889122486114502,-1.4669462442398071,0.26725355,-0.93187493,50.597908000000004,-55.05225,10.155624000000001,STN
815674950000.0,2.9754528999328613,4.567916393280029,12.629740715026855,4.996492385864258,-1.418474793434143,0.26419923,-0.9627235999999999,50.556065000000004,-55.03370699999999,10.113010000000001,STN
815680000000.0,2.98048996925354,4.656126976013184,12.619134902954102,5.0631184577941895,-1.3652780055999756,0.32620203,-0.98440933,50.49503,-55.041084,10.054585000000001,STN
815685040000.0,2.9855287075042725,4.73268461227417,12.568156242370605,5.110230445861816,-1.3068100214004517,0.40011674,-0.96883225,50.43209,-55.06515,9.995606,STN
815690100000.0,2.99056339263916,4.798391342163086,12.479981422424316,5.139193058013916,-1.2434332370758057,0.408058,-0.91599244,50.354893,-55.09478000000001,9.941912,STN
815695130000.0,2.995598077774048,4.854109764099121,12.357834815979004,5.150644779205322,-1.1792181730270386,0.32559118,-0.8368853999999999,50.27642,-55.141769999999994,9.903578,STN
815700200000.0,3.0006420612335205,4.899810791015625,12.202628135681152,5.145382404327393,-1.1159837245941162,0.20463985,-0.73426,50.18105,-55.18603,9.889012,STN
815705200000.0,3.005671977996826,4.932616233825684,12.024786949157715,5.130653381347656,-1.0559238195419312,0.10262536,-0.6398814,50.090477,-55.233096999999994,9.904391,STN
815710300000.0,3.010715961456299,4.952426433563232,11.822386741638184,5.105621337890625,-1.0012458562850952,0.005192355,-0.5335908,50.013836,-55.249355,9.968781,STN
815715300000.0,3.0157415866851807,4.969516754150391,11.60497760772705,5.064657211303711,-0.9521839022636414,-0.064446285,-0.41508293,49.937435,-55.254112,10.072252,STN
815720370000.0,3.020763874053955,4.983940124511719,11.371933937072754,5.007655143737793,-0.9091222882270813,-0.0125227375,-0.30329459999999997,49.839523,-55.21493,10.182116,STN
815725400000.0,3.025787115097046,4.995605945587158,11.123260498046875,4.941921234130859,-0.8691205978393555,0.14782938,-0.19547687,49.71255,-55.16554,10.314131,STN
815730460000.0,3.0308074951171875,5.004584789276123,10.859959602355957,4.871429920196533,-0.8281254768371582,0.31642818,-0.1282817,49.55883,-55.113240000000005,10.4539995,STN
815735500000.0,3.035829782485962,5.008062362670898,10.589547157287598,4.807090759277344,-0.7842365503311157,0.44165558,-0.07544186,49.356617,-55.056686,10.609749,STN
815740550000.0,3.0408527851104736,5.0051093101501465,10.315531730651855,4.753145694732666,-0.7369569540023804,0.50915617,-0.04276056599999999,49.12084,-55.01565,10.760621,STN
815745500000.0,3.0458712577819824,4.996665000915527,10.0465726852417,4.701837062835693,-0.6869068741798401,0.51251596,-0.042455133,48.877174,-54.981823,10.910541,STN
815750500000.0,3.050887107849121,4.983353137969971,9.788491249084473,4.647679805755615,-0.6368220448493958,0.5348125,-0.029932396,48.606194,-54.959152,11.059988,STN
815755560000.0,3.0559070110321045,4.963376045227051,9.54604434967041,4.594960689544678,-0.5871438384056091,0.5821546,-0.007330383,48.34657,-54.92893,11.191701,STN
815760540000.0,3.060922861099243,4.936322212219238,9.321097373962402,4.545814514160156,-0.5371668934822083,0.61422503,-0.015882496,48.088394,-54.916309999999996,11.320578,STN
815765500000.0,3.0659375190734863,4.899921894073486,9.115220069885254,4.49582576751709,-0.48768851161003113,0.593761,-0.020158553,47.81795,-54.911235999999995,11.450288,STN
815770500000.0,3.070950746536255,4.853429317474365,8.928586959838867,4.442986488342285,-0.4401633143424988,0.46822822,-0.029321532999999997,47.568226,-54.913380000000004,11.591206,STN
815775550000.0,3.0759634971618652,4.79652214050293,8.757359504699707,4.380137920379639,-0.39515459537506104,0.30543262,-0.037873644,47.31884,-54.921409999999995,11.7217045,STN
815780500000.0,3.0809760093688965,4.729269981384277,8.599116325378418,4.303659439086914,-0.35151901841163635,0.19761491,-0.04734206,47.089134,-54.937540000000006,11.863185000000001,STN
815785500000.0,3.085987091064453,4.653255462646484,8.450489044189453,4.21596622467041,-0.310306578874588,0.16676621,-0.076358154,46.86206,-54.96341700000001,11.985859,STN
815790560000.0,3.0910427570343018,4.5674285888671875,8.309504508972168,4.11603307723999,-0.26938602328300476,0.16829337,-0.1142318,46.65735,-55.005219999999994,12.117341999999999,STN
815795540000.0,3.096050977706909,4.476877689361572,8.175017356872559,4.013402462005615,-0.22716288268566132,0.1966986,-0.15088372,46.421640000000004,-55.089542,12.215069,STN
815800500000.0,3.1010587215423584,4.380455017089844,8.045825958251953,3.909822940826416,-0.18334846198558807,0.18845193,-0.19242255,46.20409,-55.187893,12.310215,STN
815805560000.0,3.1060657501220703,4.278498649597168,7.918999195098877,3.8103487491607666,-0.13662773370742798,0.16035213,-0.20586158,46.031406,-55.371815000000005,12.377653,STN
815810540000.0,3.1110713481903076,4.171346187591553,7.792604446411133,3.718200445175171,-0.08653703331947327,0.09315695,-0.21777347,45.877403,-55.57819,12.445625999999999,STN
815815500000.0,3.1160778999328613,4.062201499938965,7.665946960449219,3.6319587230682373,-0.03546968102455139,0.004886922,-0.23732115,45.758324,-55.823769999999996,12.492873,STN
815820500000.0,3.1210837364196777,3.9533803462982178,7.538635730743408,3.5505518913269043,0.017140818759799004,-0.10934488,-0.24220806,45.66166,-56.095946999999995,12.557527,STN
815825550000.0,3.126094341278076,3.843895435333252,7.406219005584717,3.472552537918091,0.06991003453731537,-0.19456059,-0.23701571,45.58829,-56.367424,12.601108,STN
815830500000.0,3.1310999393463135,3.7330217361450195,7.2644195556640625,3.396468162536621,0.12411542236804962,-0.23701571,-0.21563543,45.53002,-56.65915699999999,12.660153,STN
815835500000.0,3.136103630065918,3.6201233863830566,7.112516403198242,3.319692850112915,0.18034781515598297,-0.25442538,-0.1881465,45.47911,-56.953285,12.713298,STN
815840560000.0,3.141113042831421,3.504206657409668,6.949090003967285,3.238748550415039,0.2378806471824646,-0.22907446,-0.15149458,45.422115000000005,-57.255196,12.775607,STN
815845540000.0,3.1461129188537598,3.387335777282715,6.776762008666992,3.156510829925537,0.29716548323631287,-0.18875736,-0.12125675400000001,45.356182000000004,-57.554256,12.830549000000001,STN
815850500000.0,3.151115655899048,3.2713584899902344,6.596597671508789,3.076115608215332,0.3579787611961365,-0.16493362,-0.062308256,45.277164,-57.858936,12.902286,STN
815855500000.0,3.1561155319213867,3.1566152572631836,6.411024570465088,2.997701644897461,0.4191646873950958,-0.15332718,-0.006414085,45.190536,-58.17044,12.962381,STN
815860550000.0,3.1611568927764893,3.042752742767334,6.221092700958252,2.921140193939209,0.47954773902893066,-0.1554652,0.051923547,45.091682,-58.484159999999996,13.038533000000001,STN
815865500000.0,3.1661536693573,2.933307409286499,6.032723903656006,2.8463284969329834,0.5374941229820251,-0.17012598,0.08704830000000001,44.965786,-58.767166,13.116235999999999,STN
815870500000.0,3.1711552143096924,2.8316946029663086,5.8473944664001465,2.7715039253234863,0.5924174785614014,-0.17195857,0.15821409,44.82397,-59.039204000000005,13.218534,STN
815875560000.0,3.176161289215088,2.7380473613739014,5.666236877441406,2.697176933288574,0.6443487405776978,-0.172264,0.2144137,44.65996,-59.279037,13.322534,STN
815880540000.0,3.1811635494232178,2.6531982421875,5.492353916168213,2.624669313430786,0.6927962303161621,-0.18234327,0.27366763,44.490035999999996,-59.499590000000005,13.448964000000002,STN
815885500000.0,3.1861631870269775,2.5766983032226562,5.325971603393555,2.55387282371521,0.737896740436554,-0.21044308,0.3484986,44.29286,-59.684914,13.615107,STN
815890560000.0,3.1911709308624268,2.5083024501800537,5.170217990875244,2.484584093093872,0.7796007990837097,-0.25900686,0.40683624,44.100334000000004,-59.85378000000001,13.797759,STN
815895600000.0,3.1961781978607178,2.4471242427825928,5.024893760681152,2.4167380332946777,0.8171128034591675,-0.3371976,0.46731192,43.91616,-60.014687,14.012531,STN
815900600000.0,3.2011799812316895,2.389453649520874,4.893492221832275,2.3497891426086426,0.8523164391517639,-0.43066000000000004,0.5195409000000001,43.744137,-60.165222,14.249310000000001,STN
815905640000.0,3.2061853408813477,2.3344576358795166,4.776243686676025,2.2836592197418213,0.8848137855529785,-0.5510005,0.57543504,43.588234,-60.296955000000004,14.527505999999999,STN
815910600000.0,3.2111849784851074,2.2720677852630615,4.683742046356201,2.2193329334259033,0.9151886105537415,-0.6914994999999999,0.64751714,43.454746,-60.412163,14.837404999999999,STN
815915600000.0,3.216182231903076,2.202547550201416,4.614902973175049,2.1566920280456543,0.9437819123268127,-0.84513205,0.7107416999999999,43.373535,-60.546112,15.167983999999999,STN
815920600000.0,3.221181869506836,2.127676010131836,4.563942909240723,2.100498914718628,0.9698584675788879,-1.0170907,0.77824235,43.32443,-60.65362,15.536202,STN
815925560000.0,3.2261812686920166,2.048464298248291,4.527815341949463,2.052349328994751,0.9929990172386169,-1.2076806,0.85062987,43.3119,-60.737553000000005,15.940438,STN
815930600000.0,3.2312004566192627,1.9656777381896973,4.505679607391357,2.015122175216675,1.0130506753921509,-1.3964379999999998,0.9166033000000001,43.440329999999996,-60.90413,16.311628,STN
815935600000.0,3.2361960411071777,1.8810588121414185,4.494668006896973,1.9879734516143799,1.0293480157852173,-1.5986344,0.97219205,43.61565,-61.03858,16.717972,STN
815940570000.0,3.241196393966675,1.7963907718658447,4.493840217590332,1.9671528339385986,1.0434420108795166,-1.7910568999999998,1.033584,43.854929999999996,-61.172934999999995,17.110369,STN
815945550000.0,3.246192693710327,1.7129501104354858,4.501646995544434,1.9502211809158325,1.0561013221740723,-1.9727893,1.0601566,44.143547,-61.2845,17.522604,STN
815950500000.0,3.2511911392211914,1.6349395513534546,4.5169477462768555,1.9371427297592163,1.0693718194961548,-2.127949,1.0809261000000001,44.48305,-61.39581999999999,17.906448,STN
815955500000.0,3.256190299987793,1.5640735626220703,4.538901329040527,1.927748441696167,1.0845884084701538,-2.314874,1.073901,44.88041,-61.50105,18.303926,STN
815960560000.0,3.26119065284729,1.5012459754943848,4.568418502807617,1.9201101064682007,1.1024610996246338,-2.4147502999999997,1.0534371,45.309258,-61.620823,18.676514,STN
815965540000.0,3.2661895751953125,1.4467049837112427,4.605719566345215,1.913138747215271,1.1220345497131348,-2.5897632,1.0354166,45.81029,-61.73958199999999,19.064444,STN
815970500000.0,3.271188735961914,1.399690866470337,4.6526618003845215,1.9067820310592651,1.1462293863296509,-2.7748554,0.97249746,46.346016,-61.889393000000005,19.431322,STN
815975560000.0,3.2761919498443604,1.359701156616211,4.7099456787109375,1.9010019302368164,1.1754015684127808,-2.9846876,0.9016371,46.93848,-62.046677,19.798231,STN
815980540000.0,3.2811923027038574,1.327545404434204,4.778756141662598,1.8924939632415771,1.2116948366165161,-3.1743612,0.7974846,47.589794,-62.248180000000005,20.149483,STN
815985500000.0,3.2861921787261963,1.3040865659713745,4.860551834106445,1.8782618045806885,1.2544043064117432,-3.3417382000000004,0.69027776,48.2986,-62.473904000000005,20.48292,STN
815990600000.0,3.291193723678589,1.287744164466858,4.961129188537598,1.86677086353302,1.3042134046554565,-3.4724633999999996,0.5549710999999999,49.07435,-62.759098,20.782623,STN
