timestamp,rel_time,acc_x,acc_y,acc_z,gyro_x,gyro_y,gyro_z,azimuth,pitch,roll,label
0.0,0.0,0.0,0.0,0.0,0.0,-0.013744468000000001,0.026572637000000003,315.1107,-131.96184,23.110020000000002,STD
11601782000.0,1.4916251529939473e-05,0.004507388453930616,0.029202105477452278,0.001090391306206584,-0.00013246579328551888,-0.016798794,0.016798794,314.69882,-131.72975,23.168552,STD
34632696000.0,7.443450158461928e-05,0.013473602011799812,0.08717594295740128,0.003246394684538245,-0.00042089115595445037,-0.01282817,0.030543262,314.2882,-131.5093,23.236694,STD
68753640000.0,0.00020691176177933812,0.02678471989929676,0.17307202517986298,0.006427905056625605,-0.000831934972666204,-0.011911871999999999,0.02321288,313.87212999999997,-131.28717,23.297079999999998,STD
113471090000.0,0.000439025170635432,0.04426591098308563,0.2856519818305969,0.010580728761851788,-0.0013383683981373906,-0.016187929,0.028099801,313.45947,-131.07263,23.363682,STD
168154170000.0,0.0007960742805153131,0.06568823754787445,0.42333152890205383,0.01563810557126999,-0.001864515244960785,-0.01863139,0.03573562,313.04376,-130.86241,23.430037,STD
232055690000.0,0.0012990214163437486,0.09077497571706772,0.5842330455780029,0.02152354083955288,-0.002616112818941474,-0.02565634,0.030848695,312.62735,-130.65193,23.493479,STD
304335800000.0,0.001966814510524273,0.11921224743127823,0.766245424747467,0.028152376413345337,-0.00336939818225801,-0.019547688,0.038789943,312.21013999999997,-130.45299,23.563774,STD
384087200000.0,0.002815700601786375,0.15065832436084747,0.9670873284339905,0.035434357821941376,-0.004166473634541035,-0.016493361,0.03848451,311.7916,-130.25275,23.629623000000002,STD
470360200000.0,0.0038573581259697676,0.18475224077701569,1.1843702793121338,0.04327654093503952,-0.005043807905167341,-0.01863139,0.043982297000000004,311.3735,-130.059,23.699104000000002,STD
562186900000.0,0.005100231152027845,0.22112396359443665,1.4156593084335327,0.05158518999814987,-0.005911791231483221,-0.02076942,0.042455133,310.95162999999997,-129.8683,23.767498,STD
658603400000.0,0.006550166755914688,0.25940337777137756,1.658529281616211,0.06026767939329147,-0.006645580288022757,-0.023518313,0.038179077,310.52917,-129.68198,23.836245,STD
758669050000.0,0.008210934698581696,0.29922813177108765,1.9106132984161377,0.06923418492078781,-0.007502048742026091,-0.018936822,0.04184427,310.10468,-129.49847,23.907457,STD
861483040000.0,0.010082296095788479,0.34024879336357117,2.1696441173553467,0.07839977741241455,-0.008734284900128841,-0.021685716,0.03604105,309.6788,-129.31519,23.97392,STD
966197250000.0,0.012160887941718102,0.38213446736335754,2.4334864616394043,0.08768539875745773,-0.009777304716408253,-0.017104227,0.03940081,309.25012000000004,-129.14026,24.045376,STD
1072025900000.0,0.014444825239479542,0.42457935214042664,2.700162649154663,0.09701744467020035,-0.010898007079958916,-0.016798794,0.03145956,308.8187,-128.96106,24.111652,STD
1178252100000.0,0.016925806179642677,0.4673003554344177,2.967867136001587,0.10633065551519394,-0.012300333008170128,-0.02321288,0.03970624,308.3893,-128.78848,24.182385999999997,STD
1284231800000.0,0.01959715411067009,0.5100436210632324,3.234977960586548,0.11556617170572281,-0.013148060068488121,-0.027794369,0.03390302,307.95398,-128.61883999999998,24.248079999999998,STD
1389394800000.0,0.022450152784585953,0.5525826811790466,3.500058650970459,0.12467267364263535,-0.014001631177961826,-0.025961772999999997,0.029626964,307.5185,-128.44908,24.316107000000002,STD
1493243900000.0,0.025476614013314247,0.5947197079658508,3.7618567943573,0.13360559940338135,-0.015417871996760368,-0.025350908,0.024740042,307.0818,-128.28088,24.381678,STD
1595352800000.0,0.02866601012647152,0.6362828612327576,4.019298076629639,0.14232774078845978,-0.016104457899928093,-0.042455133,0.029626964,306.64856000000003,-128.1227,24.446286999999998,STD
1695362000000.0,0.032037340104579926,0.6771445870399475,4.271480083465576,0.1507997363805771,-0.017245091497898102,-0.03481932,0.020463986,306.20377,-127.95473999999999,24.509825,STD
1792974700000.0,0.03552233427762985,0.7169119119644165,4.517548084259033,0.15914571285247803,-0.01818089373409748,-0.034208454,0.023518313,305.76653999999996,-127.79912,24.574085,STD
1887951400000.0,0.03914168104529381,0.7552206516265869,4.756783962249756,0.16749703884124756,-0.019063608720898628,-0.03634648,0.018936822,305.32372999999995,-127.63971000000001,24.634817,STD
1980104800000.0,0.0428839735686779,0.7920024394989014,4.9887189865112305,0.17583292722702026,-0.019821126013994217,-0.04642576,0.025961772999999997,304.91336,-127.40616999999999,24.650195999999998,STD
2069294200000.0,0.04674144089221954,0.8272045850753784,5.213000774383545,0.18413858115673065,-0.020468199625611305,-0.03604105,0.028405233999999998,304.4967,-127.17508000000001,24.665968,STD
2155420000000.0,0.050705213099718094,0.8607954978942871,5.429383277893066,0.19240011274814606,-0.02165994793176651,-0.04062254,0.014966198,304.0858,-126.94393000000001,24.676170000000003,STD
2238419000000.0,0.05476405844092369,0.8927645087242126,5.637713432312012,0.20060305297374725,-0.022234806790947914,-0.04276056599999999,0.014966198,303.6738,-126.72523999999999,24.692235999999998,STD
2318259000000.0,0.05891426280140877,0.9231027364730835,5.837912559509277,0.20874205231666565,-0.02283237688243389,-0.04520403,0.014355333500000001,303.26122999999995,-126.50275400000001,24.704276999999998,STD
2394934200000.0,0.06314343214035034,0.9518285989761353,6.029977321624756,0.21680434048175812,-0.022866075858473778,-0.047036625,0.018936822,302.84988,-126.290146,24.71763,STD
2468462500000.0,0.06744657456874847,0.9789585471153259,6.213955402374268,0.224785715341568,-0.023397766053676605,-0.044898596,0.016798794,302.43716,-126.07553,24.72954,STD
2538879600000.0,0.07181654125452042,1.0045214891433716,6.389945030212402,0.23268073797225952,-0.02343427948653698,-0.05161811400000001,0.013439035,302.02795,-125.87154,24.741104,STD
2606237200000.0,0.07624934613704681,1.0285483598709106,6.558081150054932,0.2404879629611969,-0.023545963689684868,-0.05131268,0.010079277,301.61588,-125.66665,24.753513,STD
2670599900000.0,0.08073712140321732,1.0510824918746948,6.718534469604492,0.2482026070356369,-0.023498229682445526,-0.06994407,0.0061086523,301.2105,-125.46743000000001,24.761875,STD
2732042000000.0,0.0852743461728096,1.072167992591858,6.871499538421631,0.2558227777481079,-0.023266306146979332,-0.06505715,0.0018325957999999999,300.79794,-125.270905,24.772572,STD
2790646000000.0,0.08997724205255508,1.0916476249694824,7.017091274261475,0.263469934463501,-0.023029491305351257,-0.077579886,-0.0012217305,300.39522999999997,-125.07735,24.778364,STD
2846499800000.0,0.09459756314754486,1.109980583190918,7.155736923217773,0.2708977162837982,-0.02274109423160553,-0.076358154,-0.002443461,299.9869,-124.887695,24.786189999999998,STD
2899695600000.0,0.09925451129674911,1.1270092725753784,7.287574768066406,0.27823108434677124,-0.02289128489792347,-0.08552113,-0.004276057,299.5847,-124.69896999999999,24.790627999999998,STD
2950328700000.0,0.10394615679979324,1.142781376838684,7.412848472595215,0.2854727506637573,-0.022339433431625366,-0.08307768,-0.0036651915999999997,299.17896,-124.51834,24.797327,STD
2998495600000.0,0.10867040604352951,1.1573456525802612,7.531806468963623,0.29262542724609375,-0.02252730168402195,-0.08277224,-0.008552114,298.77557,-124.332726,24.80113,STD
3044293700000.0,0.1134224459528923,1.1707556247711182,7.64470100402832,0.29968905448913574,-0.022515302523970604,-0.073303826,-0.0015271631,298.37042,-124.15896599999999,24.809942000000003,STD
3087820000000.0,0.11819662898778915,1.1830662488937378,7.751783847808838,0.3066627085208893,-0.022057974711060524,-0.06597344599999999,-0.0015271631,298.168254110331,-124.072936357472,24.8145347851555,STD
3129170700000.0,0.12299469858407974,1.194319486618042,7.853298664093018,0.3135528862476349,-0.02179909124970436,-0.0571159,0.0076358155,297.9629,-123.98555,24.8192,STD
3168440400000.0,0.1278127282857895,1.204566240310669,7.949490547180176,0.32036033272743225,-0.021953098475933075,-0.04795292,0.013133603,297.555,-123.8143,24.829872,STD
3205721800000.0,0.13264776766300201,1.2138547897338867,8.040597915649414,0.3270866572856903,-0.022115329280495644,-0.033292156,0.01282817,297.14114,-123.64912,24.844051,STD
3241105200000.0,0.1375005841255188,1.2222261428833008,8.126850128173828,0.3337370753288269,-0.022429797798395157,-0.019547688,0.013439035,296.72552,-123.48631,24.860854999999997,STD
3274678500000.0,0.14236849546432495,1.2297258377075195,8.208474159240723,0.34031325578689575,-0.02255137264728546,-0.014966198,0.016493361,296.30838,-123.32796,24.878813,STD
3306526900000.0,0.1472492218017578,1.2363975048065186,8.285689353942871,0.34681710600852966,-0.022731076925992966,-0.013744468000000001,0.021685716,295.88837,-123.1716,24.898552,STD
3336733000000.0,0.15214435756206512,1.2422771453857422,8.358704566955566,0.3532542884349823,-0.02317543514072895,-0.005192355,0.017715093,295.46387000000004,-123.01646399999998,24.917818,STD
3365375800000.0,0.15705212950706482,1.24740469455719,8.427722930908203,0.3596269488334656,-0.02351614460349083,-0.017715093,0.010995574,295.04532,-122.86547,24.935345,STD
3392531900000.0,0.1619652956724167,1.2518280744552612,8.492945671081543,0.36593151092529297,-0.023596985265612602,-0.013744468000000001,0.020463986,294.62064,-122.71938,24.958591000000002,STD
3418274400000.0,0.16688688099384308,1.2555763721466064,8.554556846618652,0.3721747100353241,-0.023948319256305695,-0.016187929,0.018020526000000002,294.19912999999997,-122.57021999999999,24.974674,STD
3442673700000.0,0.17181730270385742,1.2586818933486938,8.612735748291016,0.37836042046546936,-0.024362174794077873,-0.011911871999999999,0.011911871999999999,293.77496,-122.42625,24.993161999999998,STD
3465797200000.0,0.176753968000412,1.2611804008483887,8.667654991149902,0.3844893276691437,-0.023783454671502113,-0.015882496,0.004581489,293.3534,-122.28639,25.009276999999997,STD
3487709300000.0,0.18169593811035156,1.2631036043167114,8.719480514526367,0.3905636966228485,-0.023283638060092926,-0.028099801,0.004886922,292.933,-122.1456,25.025152,STD
3508471300000.0,0.18664845824241638,1.264471411705017,8.768364906311035,0.39659184217453003,-0.02271285466849804,-0.04184427,0.010079277,292.51392000000004,-122.01019,25.039658,STD
3528141800000.0,0.1916029453277588,1.265325665473938,8.814464569091797,0.4025680422782898,-0.021783072501420975,-0.05161811400000001,-0.00030543262000000003,292.0955,-121.874275,25.049072,STD
3546776900000.0,0.1965610533952713,1.265689730644226,8.85792064666748,0.4084967076778412,-0.020950892940163612,-0.061391957000000004,0.008246681,291.68372,-121.74492,25.063433,STD
3564430000000.0,0.20152577757835388,1.2655833959579468,8.898866653442383,0.4143834710121155,-0.019578585401177406,-0.057726767000000005,0.013439035,291.26935,-121.61778000000001,25.074379999999998,SDL
3581151500000.0,0.20649300515651703,1.2650374174118042,8.937435150146484,0.42022672295570374,-0.017515992745757103,-0.033292156,0.0076358155,290.85138,-121.49246000000001,25.085579,SDL
3596990000000.0,0.21146243810653687,1.2640749216079712,8.973749160766602,0.4260285198688507,-0.015124078840017319,-0.0421497,0.0067195175,290.44333,-121.37216000000001,25.096441,SDL
3611991200000.0,0.21643564105033875,1.2627146244049072,9.007925033569336,0.4317927360534668,-0.012907363474369049,-0.021991148999999998,-0.0027488936,290.01782000000003,-121.25111399999999,25.108316000000002,SDL
3626198600000.0,0.2214108407497406,1.261286735534668,9.040181159973145,0.43680280447006226,-0.011278974823653698,0.002443461,-0.00061086525,289.5948,-121.13431000000001,25.122401999999997,SDL
3639654000000.0,0.22639630734920502,1.2599737644195557,9.07067584991455,0.44065535068511963,-0.009834300726652145,0.021991148999999998,-0.019242255,289.16418,-121.01308,25.129476999999998,SDL
3652396500000.0,0.2313750982284546,1.2587674856185913,9.099505424499512,0.44346439838409424,-0.00900239683687687,0.02321288,-0.036957346,288.78412000000003,-120.80776999999999,25.074041,SDL
3664463500000.0,0.2363593876361847,1.2576638460159302,9.126754760742188,0.445246160030365,-0.008425879292190075,0.015882496,-0.04428773,288.40128,-120.6051,25.018326000000002,SDL
3675890600000.0,0.24134787917137146,1.2566574811935425,9.152506828308105,0.44605785608291626,-0.006872175727039576,0.007941248,-0.05589417,288.0174,-120.40316999999999,24.957722,SDL
3686711400000.0,0.2463320642709732,1.2557419538497925,9.176841735839844,0.4459775388240814,-0.00473441369831562,-0.013133603,-0.06078109,287.64099999999996,-120.20336,24.896233,SDL
3696957800000.0,0.25131821632385254,1.254913330078125,9.199833869934082,0.4450324773788452,-0.0021411078050732613,-0.04428773,-0.077579886,287.26917000000003,-120.004456,24.827988,SDL
3706660300000.0,0.25630778074264526,1.2541673183441162,9.221552848815918,0.44326332211494446,0.001534001319669187,-0.06627888,-0.094989546,286.90176,-119.81181000000001,24.758505,SDL
3715847400000.0,0.26129624247550964,1.253498911857605,9.242067337036133,0.4407276511192322,0.0067864349111914635,-0.07452556,-0.12217305,286.53854,-119.61972,24.681739999999998,SDL
3724546400000.0,0.26628750562667847,1.2529045343399048,9.26144027709961,0.4374535083770752,0.01262167189270258,-0.086132,-0.15974127,286.18195,-119.42544,24.596878,SDL
3732783200000.0,0.271280437707901,1.252380132675171,9.279731750488281,0.4334830343723297,0.018130389973521233,-0.10018189999999999,-0.19211712,285.82813,-119.232025,24.506975,SDL
3740582300000.0,0.2762738764286041,1.2519218921661377,9.296998977661133,0.428856760263443,0.02305334247648716,-0.10170906,-0.23060162,285.47174,-119.03339,24.407265,SDL
3747966600000.0,0.2812647521495819,1.25152587890625,9.313297271728516,0.42361924052238464,0.02681969851255417,-0.070554934,-0.28283059999999993,285.10748,-118.82557,24.29862,SDL
3754958500000.0,0.28625988960266113,1.2511897087097168,9.3286771774292,0.41778111457824707,0.029263123869895935,-0.022602014,-0.33505958,284.7371,-118.61091599999999,24.183022,SDL
3761578400000.0,0.2912536859512329,1.250909447669983,9.34318733215332,0.4113917350769043,0.030470190569758415,0.02107485,-0.38056904,284.35672,-118.38693,24.059573999999998,SDL
3767846600000.0,0.29624634981155396,1.2506822347640991,9.356874465942383,0.40447989106178284,0.03195469453930855,0.059864793,-0.42058071,283.96155,-118.15686000000001,23.929276,SDL
3773781200000.0,0.30124297738075256,1.250505805015564,9.369781494140625,0.3970569372177124,0.036191366612911224,0.11301007,-0.45020768,283.54825,-117.92658,23.796452,SDL
3779400300000.0,0.30624035000801086,1.2503771781921387,9.381950378417969,0.38915979862213135,0.0433429591357708,0.18478674,-0.47067168,283.11746,-117.695145,23.662214000000002,SDL
3784720300000.0,0.31123724579811096,1.2502936124801636,9.393420219421387,0.38081756234169006,0.05227801948785782,0.26175576,-0.4908302,282.6692,-117.46601000000001,23.527016,SDL
3789757300000.0,0.31623393297195435,1.2502527236938477,9.404229164123535,0.3720530569553375,0.06255988776683807,0.3368922,-0.5204572000000001,282.1999,-117.24126000000001,23.39141,SDL
3794526500000.0,0.3212306797504425,1.2502522468566895,9.414411544799805,0.3628879487514496,0.07419821619987488,0.37720928,-0.5549710999999999,281.71854,-117.02031000000001,23.254623000000002,SDL
3799042000000.0,0.3262282907962799,1.2502901554107666,9.423999786376953,0.3533407747745514,0.08739742636680603,0.3659083,-0.6001751000000001,281.22968,-116.79878000000001,23.11111,SDL
3803317000000.0,0.3312235474586487,1.2503639459609985,9.433027267456055,0.3434423506259918,0.1027090772986412,0.30970868,-0.6404922,280.74277,-116.58039,22.962007999999997,SDL
3807364800000.0,0.3362235724925995,1.2504727840423584,9.441521644592285,0.3331884443759918,0.12177831679582596,0.22204952,-0.6798930000000001,280.26833999999997,-116.36523000000001,22.801025,SDL
3811197000000.0,0.3412565290927887,1.250618815422058,9.449506759643555,0.32250547409057617,0.14521875977516174,0.18692477,-0.7165449,279.79517000000004,-116.15418999999999,22.63307,SDL
3814825700000.0,0.34625160694122314,1.2507902383804321,9.457021713256836,0.3116411864757538,0.1709422469139099,0.1282817,-0.7189884,279.35787999999997,-115.953125,22.460554000000002,SDL
3818261000000.0,0.3512474000453949,1.250990867614746,9.464085578918457,0.30048611760139465,0.19713450968265533,0.10659598599999999,-0.72326446,278.91995,-115.75623999999999,22.282158,SDL
3821513700000.0,0.3562434911727905,1.2512191534042358,9.470722198486328,0.28905701637268066,0.22377055883407593,0.11636983,-0.72418076,278.4928,-115.57285,22.107058,SDL
3824593400000.0,0.3612389862537384,1.2514734268188477,9.476954460144043,0.27737125754356384,0.2506313920021057,0.13836098,-0.73364913,278.07,-115.39448,21.932585,SDL
3827509200000.0,0.36623483896255493,1.251752495765686,9.482803344726562,0.26543954014778137,0.27710282802581787,0.16829337,-0.7180721,277.6459,-115.22903400000001,21.770704000000002,SDL
3830270100000.0,0.37122946977615356,1.2520548105239868,9.488289833068848,0.25328004360198975,0.30255451798439026,0.16126843,-0.70463306,277.22778,-115.06681999999999,21.609274,SDL
3832884000000.0,0.3762263357639313,1.2523795366287231,9.49343204498291,0.24089381098747253,0.32818007469177246,0.15515977,-0.69974613,276.80307,-114.91528000000001,21.456146,SDL
3835359000000.0,0.3812223970890045,1.2527251243591309,9.498250007629395,0.228302463889122,0.35418182611465454,0.124311075,-0.7012733,276.3905,-114.77004,21.307095,SDL
3837702200000.0,0.3862212598323822,1.2530909776687622,9.502758979797363,0.21550531685352325,0.37904226779937744,0.06291912,-0.71959925,275.99014,-114.62468999999999,21.156435000000002,SDL
3839921000000.0,0.3912214934825897,1.2534759044647217,9.506977081298828,0.20251750946044922,0.4027082622051239,-0.043982297000000004,-0.74220127,275.61417,-114.48495,21.00336,SDL
3842021800000.0,0.3962186574935913,1.253878116607666,9.510919570922852,0.18936344981193542,0.42547130584716797,-0.17165314,-0.7666359,275.26324,-114.34431000000001,20.843637,SDL
3844011000000.0,0.40121620893478394,1.2542972564697266,9.51460075378418,0.17604123055934906,0.4484212100505829,-0.2846632,-0.8038987,274.9392,-114.20123000000001,20.672623,SDL
3845894400000.0,0.4062146544456482,1.2547324895858765,9.518034934997559,0.16255807876586914,0.4718247056007385,-0.35521814,-0.8347474,274.6409,-114.05893999999999,20.495916,SDL
3847677800000.0,0.4112524390220642,1.2551884651184082,9.52122688293457,0.1487971842288971,0.4950879216194153,-0.38453966,-0.883922,274.36166000000003,-113.90908,20.304256,SDL
3849366300000.0,0.41624751687049866,1.2556525468826294,9.524206161499023,0.13503387570381165,0.5189344882965088,-0.38942659999999996,-0.9505063,274.0942,-113.758125,20.101543,SDL
3850965000000.0,0.4212455749511719,1.2524875402450562,9.526277542114258,0.11991339176893234,0.5426334142684937,-0.3921755,-1.0256428,273.8322,-113.5986,19.88661,SDL
3852479000000.0,0.426242858171463,1.2441551685333252,9.527158737182617,0.10294338315725327,0.5673970580101013,-0.41172317,-1.0974194,273.57367,-113.43701000000001,19.658617,SDL
3853912400000.0,0.4312382638454437,1.230953335762024,9.526917457580566,0.0842335894703865,0.5933477282524109,-0.44318274,-1.17897,273.47202000000004,-113.23501599999999,19.346306,SDL
3855269800000.0,0.4362354576587677,1.2130697965621948,9.525598526000977,0.06384103000164032,0.6211709380149841,-0.47372600000000004,-1.2577715,273.37222,-113.03343000000001,19.021342999999998,SDL
3856555000000.0,0.441232830286026,1.1907850503921509,9.523266792297363,0.041870828717947006,0.6513365507125854,-0.49266282,-1.2907583,273.27686,-112.84119399999999,18.693434,SDL
3857772200000.0,0.44622939825057983,1.1643528938293457,9.519979476928711,0.01841665245592594,0.6819781064987183,-0.48991394,-1.3545936,273.1775,-112.63689,18.343094,SDL
3858924600000.0,0.451226145029068,1.1339751482009888,9.51578426361084,-0.006452004425227642,0.714242160320282,-0.48380527,-1.402852,273.08234,-112.45355,17.99569,SDL
3860016000000.0,0.4562240242958069,1.0998426675796509,9.510725021362305,-0.03266935795545578,0.7477493286132812,-0.5131268,-1.4337007,272.9943,-112.27516000000001,17.642189000000002,SDL
3861049200000.0,0.46122145652770996,1.0621867179870605,9.504854202270508,-0.060148075222969055,0.7821565866470337,-0.61300325,-1.4563028,272.92297,-112.10746,17.282276,SDL
3862027800000.0,0.46621838212013245,1.0211961269378662,9.498214721679688,-0.08882040530443192,0.8182461261749268,-0.7733554,-1.4587462,272.87756,-111.96036000000001,16.922268,SDL
3862954500000.0,0.4712150990962982,0.9770431518554688,9.49084758758545,-0.11862540245056152,0.8559445738792419,-0.93767816,-1.4495832,272.8618,-111.83075,16.561049,SDL
3863832200000.0,0.4762130081653595,0.9298685789108276,9.48278522491455,-0.14951655268669128,0.8927571177482605,-1.044885,-1.391551,272.87927,-111.72596000000001,16.214575,SDL
3864663400000.0,0.48123660683631897,0.8793397545814514,9.47396469116211,-0.18168163299560547,0.9280148148536682,-1.1029171999999998,-1.3368785,272.92992999999996,-111.64291000000001,15.870514000000002,SDL
3865450400000.0,0.48623359203338623,0.8266591429710388,9.46463394165039,-0.21454331278800964,0.9591798782348633,-1.1194104999999999,-1.2867876,273.00287000000003,-111.57568,15.545060000000001,SDL
3866196000000.0,0.49122998118400574,0.771446704864502,9.454719543457031,-0.24831067025661469,0.9845008254051208,-1.0384709,-1.2525792,273.06662,-111.51933000000001,15.241384,SDL
3866902000000.0,0.49622711539268494,0.7138116359710693,9.44424819946289,-0.28294822573661804,1.0041263103485107,-0.98532563,-1.2238685,273.14575,-111.47091,14.954386999999999,SDL
3867570300000.0,0.5012270212173462,0.6538413166999817,9.433239936828613,-0.3184303641319275,1.0183762311935425,-1.0161743,-1.1991285,273.22747999999996,-111.41926000000001,14.682539000000002,SDL
3868203700000.0,0.5062270164489746,0.5917105078697205,9.421734809875488,-0.35468703508377075,1.026527762413025,-1.0503827,-1.1640037,273.29767000000004,-111.36021000000001,14.431931,SDL
3868803500000.0,0.5112262964248657,0.5275514721870422,9.409762382507324,-0.3916684687137604,1.028922200202942,-1.0183123,-1.1212431,273.36,-111.29561000000001,14.199470499999999,SDL
3869371500000.0,0.5162230730056763,0.4615076780319214,9.397354125976562,-0.4293184280395508,1.0278685092926025,-0.9633345,-1.0888673,273.42712,-111.22737,13.979154000000001,SDL
3869909500000.0,0.5212211608886719,0.3936067521572113,9.38451862335205,-0.4676375091075897,1.024071216583252,-0.9034697,-1.0396926,273.4883,-111.15562,13.783891,SDL
3870419000000.0,0.526218831539154,0.32398083806037903,9.371286392211914,-0.5065735578536987,1.0200530290603638,-0.84604836,-1.0076222,273.53555,-111.08671000000001,13.602282,SDL
3870902000000.0,0.5312155485153198,0.2527325749397278,9.35767936706543,-0.5460883378982544,1.0178767442703247,-0.7464773,-0.98563105,273.55682,-111.02543999999999,13.444278,SDL
3871359000000.0,0.5362159609794617,0.1798563450574875,9.343700408935547,-0.5861968398094177,1.0172977447509766,-0.67347896,-0.99021256,273.56955,-110.96581,13.294563,SDL
3871792200000.0,0.5412169694900513,0.10549779236316681,9.32938003540039,-0.6268381476402283,1.018214464187622,-0.505491,-1.0045679,273.52805,-110.91720600000001,13.167616,SDL
3872202400000.0,0.5462145209312439,0.029815157875418663,9.314752578735352,-0.6679443717002869,1.0199124813079834,-0.31001409999999996,-1.0326678,273.45657,-110.87064,13.047369,SDL
3872591200000.0,0.5512211322784424,-0.047367293387651443,9.299785614013672,-0.7096133232116699,1.0221874713897705,-0.08552113,-1.0705414,273.32764,-110.826416,12.939669,SDL
3872959500000.0,0.5562195181846619,-0.12563230097293854,9.284564018249512,-0.7516471743583679,1.0254480838775635,0.0983493,-1.1334605,273.15106000000003,-110.77885,12.832875,SDL
3873308400000.0,0.5612173676490784,-0.20506888628005981,9.269072532653809,-0.7940995097160339,1.03110671043396,0.15241088,-1.2098186000000002,272.9443,-110.731674,12.722344999999999,SDL
3873639000000.0,0.5662146806716919,-0.28561246395111084,9.253326416015625,-0.8369469046592712,1.0398331880569458,0.08827003,-1.2983941,272.71393,-110.67966000000001,12.59912,SDL
3873952200000.0,0.5712131857872009,-0.3672393560409546,9.23733139038086,-0.8801859021186829,1.0515128374099731,-0.014660766,-1.4004086000000002,272.47305,-110.62363,12.455465,SDL
3874249000000.0,0.5762116312980652,-0.4498682916164398,9.221105575561523,-0.9237838983535767,1.0646860599517822,-0.0983493,-1.4978416,272.23922999999996,-110.56311000000001,12.288838,SDL
3874530300000.0,0.5812082886695862,-0.5334094762802124,9.204668045043945,-0.9677037000656128,1.0754644870758057,-0.18051068,-1.5610662,272.0297,-110.49133,12.099953,SDL
3874796900000.0,0.5862062573432922,-0.617876410484314,9.188018798828125,-1.0119589567184448,1.0830315351486206,-0.3390302,-1.625207,271.8583,-110.41071000000001,11.87635,SDL
3875049600000.0,0.5912046432495117,-0.7032014727592468,9.171172142028809,-1.0565228462219238,1.0883071422576904,-0.49571714,-1.6569718999999998,271.70825,-110.32446999999999,11.643442,SDL
3875289000000.0,0.5962029099464417,-0.7893304228782654,9.15414047241211,-1.101374626159668,1.0920644998550415,-0.5522222,-1.6575828999999997,271.57315,-110.22856999999999,11.403025,SDL
3875516000000.0,0.6012009978294373,-0.876218318939209,9.136933326721191,-1.1464978456497192,1.0948566198349,-0.48899764,-1.6612481,271.4467,-110.12586,11.156749000000001,SDL
3875731100000.0,0.6062005758285522,-0.9638578295707703,9.11955451965332,-1.19189453125,1.096116304397583,-0.38423425,-1.6566665,271.32617,-110.021286,10.918042,SDL
3875935000000.0,0.6111993789672852,-1.0521650314331055,9.102021217346191,-1.2375283241271973,1.094606876373291,-0.27824909999999997,-1.6398678,271.18958,-109.91322,10.693344999999999,SDL
3876128300000.0,0.6161974668502808,-1.1411043405532837,9.084342002868652,-1.2833865880966187,1.0899224281311035,-0.17440203,-1.5836681000000001,271.02936,-109.80712,10.49511,SDL
3876311500000.0,0.6212014555931091,-1.2281053066253662,9.062984466552734,-1.3290101289749146,1.0833715200424194,-0.012217305,-1.5265521999999998,270.82626,-109.69985,10.320648,SDL
3876485300000.0,0.6261988282203674,-1.3117039203643799,9.036457061767578,-1.3740348815917969,1.0771209001541138,0.2049453,-1.464244,270.5855,-109.59918,10.180626,SDL
3876650200000.0,0.6311966180801392,-1.3921136856079102,9.004871368408203,-1.418540596961975,1.0714638233184814,0.32925636,-1.4150693,270.7638,-109.46739,9.6159,SDL
3876806500000.0,0.6361953020095825,-1.4695066213607788,8.968485832214355,-1.4625577926635742,1.0663686990737915,0.59223384,-1.400714,270.84027000000003,-109.35842,9.101503999999998,SDL
3876954600000.0,0.6411921977996826,-1.544031023979187,8.927619934082031,-1.5060940980911255,1.0612032413482666,0.8145888000000001,-1.4092661,270.89136,-109.26903,8.61397,SDL
3877095000000.0,0.6461897492408752,-1.6158511638641357,8.882453918457031,-1.5491920709609985,1.0563130378723145,0.93034774,-1.4556919,270.89346,-109.19503,8.1449795,SDL
3877228500000.0,0.651188313961029,-1.685112714767456,8.833209991455078,-1.5918773412704468,1.0539460182189941,0.8866709,-1.5329663999999998,270.87155,-109.14014399999999,7.6817245,SDL
3877355000000.0,0.6561859846115112,-1.7519434690475464,8.78014850616455,-1.6341592073440552,1.0553838014602661,0.7284568,-1.6267341,270.84097,-109.09925,7.2122917,SDL
3877475200000.0,0.6611832976341248,-1.8164751529693604,8.723462104797363,-1.6760624647140503,1.0628165006637573,0.52534413,-1.7040085999999999,270.8268,-109.08973999999999,6.729825999999999,SDL
3877589200000.0,0.6662217378616333,-1.8790271282196045,8.662337303161621,-1.7178995609283447,1.0762662887573242,0.39003745,-1.7693712,270.82782000000003,-109.10796,6.2289769999999995,SDL
3877697200000.0,0.6712185144424438,-1.9393224716186523,8.598965644836426,-1.7591060400009155,1.0917013883590698,0.32742378,-1.8362609,270.85544,-109.14753,5.707539,SDL
3877799700000.0,0.6762153506278992,-1.9976688623428345,8.532509803771973,-1.799993872642517,1.1051745414733887,0.26267207,-1.8640553,270.91635,-109.21468999999999,5.1793118,SDL
3877897200000.0,0.681212842464447,-2.054172992706299,8.463118553161621,-1.8405841588974,1.1148043870925903,0.15027285,-1.8564194,271.0028,-109.299095,4.645203599999999,SDL
3877989800000.0,0.6862106919288635,-2.108931541442871,8.390955924987793,-1.8808908462524414,1.1202585697174072,-0.013744468000000001,-1.8402314999999998,271.11742999999996,-109.38888,4.1077666,SDL
3878077600000.0,0.6912082433700562,-2.162034749984741,8.316184043884277,-1.9209245443344116,1.1232898235321045,-0.12980886,-1.8164078000000001,271.24915,-109.48605,3.5809994,SDL
3878161000000.0,0.6962065696716309,-2.213575839996338,8.238917350769043,-1.9607073068618774,1.1239620447158813,-0.10445796,-1.7971655,271.3861,-109.57841,3.067898,SDL
3878240000000.0,0.7012051343917847,-2.2636356353759766,8.159299850463867,-2.000249147415161,1.122970700263977,0.043066,-1.7629571,271.52313,-109.67747,2.5784523,SDL
3878315400000.0,0.7062041163444519,-2.3122940063476562,8.077452659606934,-2.0395641326904297,1.120274305343628,0.21197024,-1.7629571,271.64426000000003,-109.77548,2.1016027999999998,SDL
3878387000000.0,0.7112023234367371,-2.3596203327178955,7.9935221672058105,-2.0786564350128174,1.1163216829299927,0.28710666,-1.7901406000000002,271.74994,-109.87738999999999,1.6431607,SDL
3878454800000.0,0.7162009477615356,-2.405690908432007,7.907591819763184,-2.1175456047058105,1.1138005256652832,0.25625798,-1.8619173,271.83295,-109.99213999999999,1.1895015,SDL
3878519600000.0,0.721200168132782,-2.450573682785034,7.81976318359375,-2.1562440395355225,1.1135786771774292,0.21380283,-1.9352211,271.89484,-110.11268600000001,0.7448188,SDL
3878581000000.0,0.7261988520622253,-2.494326591491699,7.730164527893066,-2.194754123687744,1.1153218746185303,0.23151793,-2.0259346999999996,271.9391,-110.246284,0.2898574,SDL
3878639400000.0,0.7311962842941284,-2.537006139755249,7.638908863067627,-2.2330806255340576,1.1169722080230713,0.25228736,-2.1108449,271.98645,-110.38946000000001,-0.17594935,SDL
3878695000000.0,0.7362434267997742,-2.578911304473877,7.544848918914795,-2.271592140197754,1.1177207231521606,0.28527406,-2.1630738,272.01935,-110.54700000000001,-0.64298874,SDL
3878748000000.0,0.7412399053573608,-2.619619607925415,7.450504779815674,-2.3095901012420654,1.1168341636657715,0.30879238,-2.1731532000000002,272.04456,-110.708405,-1.1087812,SDL
3878798200000.0,0.7462363839149475,-2.6594223976135254,7.354728698730469,-2.347439765930176,1.1157506704330444,0.41416663,-2.175291,272.03412000000003,-110.880394,-1.5632603999999999,SDL
3878846200000.0,0.7512326240539551,-2.698366641998291,7.257602691650391,-2.3851473331451416,1.1145296096801758,0.5516113,-2.125811,272.01288,-111.04948,-1.9895180000000001,SDL
3878891800000.0,0.7562299370765686,-2.7365047931671143,7.159165859222412,-2.422729730606079,1.1147733926773071,0.6417139000000001,-2.0775528000000003,271.97574,-111.23074,-2.3997848,SDL
3878935300000.0,0.7612273097038269,-2.7738747596740723,7.059513092041016,-2.460186719894409,1.1146461963653564,0.6582073,-2.05098,271.92456,-111.40423600000001,-2.78609,SDL
3878976700000.0,0.7662241458892822,-2.8105146884918213,6.958723068237305,-2.497520685195923,1.1149163246154785,0.6243043,-2.0476203,271.86572,-111.59058,-3.1523101000000002,SDL
3879016300000.0,0.7712220549583435,-2.846471071243286,6.856817722320557,-2.5347495079040527,1.1153512001037598,0.58001655,-2.0479257,271.80807000000004,-111.77458999999999,-3.5029489999999996,SDL
3879054000000.0,0.7762196660041809,-2.881774425506592,6.753887176513672,-2.5718698501586914,1.1146397590637207,0.54519725,-2.053118,271.75735,-111.95513000000001,-3.8478699,SDL
3879090000000.0,0.7812160849571228,-2.916454792022705,6.650010108947754,-2.6088805198669434,1.1136243343353271,0.5705481,-2.007914,271.7082,-112.13896000000001,-4.169176,SDL
3879124300000.0,0.7862153053283691,-2.95056414604187,6.545140743255615,-2.645815372467041,1.1155116558074951,0.5833763000000001,-1.9230038,271.6759,-112.33215,-4.477775599999999,SDL
3879157000000.0,0.7912133932113647,-2.9841151237487793,6.439423561096191,-2.6826517581939697,1.1221164464950562,0.5815437,-1.8359555,271.6464,-112.5308,-4.764739499999999,SDL
3879188300000.0,0.7962114214897156,-3.0171420574188232,6.332879543304443,-2.7194018363952637,1.1327804327011108,0.5681046999999999,-1.7620409,271.625,-112.73664,-5.0253760000000005,SDL
3879218200000.0,0.8012130856513977,-3.0496904850006104,6.225463390350342,-2.756096363067627,1.1452200412750244,0.49877146,-1.7012596999999998,271.62796000000003,-112.95003500000001,-5.2662463,SDL
3879246800000.0,0.8062250018119812,-3.081818103790283,6.117056369781494,-2.7927863597869873,1.1582012176513672,0.40561453,-1.672549,271.64648,-113.17492,-5.4944239999999995,SDL
3879274000000.0,0.81122225522995,-3.113431930541992,6.008301734924316,-2.8293004035949707,1.1713695526123047,0.32314770000000004,-1.666135,271.68597,-113.40472,-5.713578,SDL
3879300000000.0,0.8162192702293396,-3.1446239948272705,5.898887634277344,-2.86574387550354,1.184536099433899,0.25717425,-1.6795740000000001,271.748,-113.63634499999999,-5.9337279999999994,SDL
3879325000000.0,0.8212161064147949,-3.1784026622772217,5.793245315551758,-2.904574394226074,1.1973752975463867,0.18173242,-1.7101171999999998,271.83435,-113.868904,-6.161848,SDL
3879348700000.0,0.8262140154838562,-3.2160377502441406,5.693207263946533,-2.9468259811401367,1.2090094089508057,0.0693332,-1.7492126000000001,271.94666,-114.09949499999999,-6.4021930000000005,SDL
3879371500000.0,0.8312115669250488,-3.2572946548461914,5.598474979400635,-2.9922878742218018,1.2196979522705078,0.006414085,-1.7724255000000002,272.79767000000004,-114.29693,-6.4387364,SDL
3879393600000.0,0.8362156748771667,-3.302126884460449,5.50876522064209,-3.040930986404419,1.2297680377960205,-0.09468412,-1.8258762,273.66016,-114.5143,-6.5132804,SDL
3879414500000.0,0.8412181735038757,-3.3501782417297363,5.423810958862305,-3.0924253463745117,1.2396270036697388,-0.10293079,-1.8628335999999999,274.49496,-114.74691999999999,-6.588716499999999,SDL
3879434700000.0,0.8462157249450684,-3.401205062866211,5.343358993530273,-3.1465485095977783,1.2499535083770752,-0.048258353,-1.8509218,275.32172,-114.99649,-6.671550999999999,SDL
3879454000000.0,0.8512132167816162,-3.4551455974578857,5.26716947555542,-3.2032549381256104,1.2612922191619873,-0.010690141499999998,-1.820073,276.13693,-115.26425,-6.763907400000001,SDL
3879472700000.0,0.8562117218971252,-3.511867046356201,5.195014476776123,-3.2624285221099854,1.2757867574691772,-0.002443461,-1.8063285,276.9304,-115.55986000000001,-6.857195,SDL
3879490600000.0,0.861209511756897,-3.5711874961853027,5.126679420471191,-3.3239049911499023,1.2918853759765625,0.02565634,-1.8078557000000002,277.69763,-115.8652,-6.942908999999999,SDL
3879507600000.0,0.8662072420120239,-3.63297963142395,5.061960697174072,-3.387572765350342,1.3079887628555298,0.21594086,-1.7385224999999997,278.4192,-116.18423500000002,-6.989830499999999,SDL
3879524000000.0,0.8712062835693359,-3.6971423625946045,5.000665187835693,-3.4533443450927734,1.3277264833450317,0.48685959999999995,-1.6533068,279.10425,-116.541046,-7.023484700000001,SDL
3879540000000.0,0.8762170076370239,-3.7637691497802734,4.942609786987305,-3.5213212966918945,1.3492445945739746,0.6795876000000001,-1.5873333,279.75815,-116.89683500000001,-7.03556,SDL
3879555300000.0,0.8812135457992554,-3.8321940898895264,4.887624263763428,-3.590867042541504,1.3711622953414917,0.7296785,-1.5705346000000002,280.37686,-117.272095,-7.029669,SDL
3879570000000.0,0.8862125277519226,-3.902658462524414,4.835543155670166,-3.6622254848480225,1.392090916633606,0.6035349,-1.5671747999999999,280.99292,-117.65571000000001,-7.016999,SDL
3879584100000.0,0.8912107944488525,-3.9749884605407715,4.78621244430542,-3.735236406326294,1.4123274087905884,0.5290093000000001,-1.5338826,281.5845,-118.04915,-6.988259299999999,SDL
3879598000000.0,0.8962087631225586,-4.049093246459961,4.739484786987305,-3.8098204135894775,1.4338619709014893,0.6462954000000001,-1.4373658999999999,282.16393999999997,-118.45276000000001,-6.941675699999999,SDL
3879611400000.0,0.9012075066566467,-4.124901294708252,4.695221900939941,-3.885915756225586,1.459718108177185,0.7153232,-1.3662001,282.7719,-118.87816000000001,-6.9166512,SDL
3879624200000.0,0.9062066674232483,-4.202313423156738,4.653292655944824,-3.9634339809417725,1.4860519170761108,0.7180721,-1.3396275,283.37042,-119.29686000000001,-6.880669,SDL
3879636600000.0,0.9112047553062439,-4.281214237213135,4.613572597503662,-4.042270183563232,1.5097126960754395,0.54153204,-1.3848315,283.99393,-119.730515,-6.8700213,SDL
3879648600000.0,0.9162029027938843,-4.361546516418457,4.575943470001221,-4.12237548828125,1.5297847986221313,0.5864305999999999,-1.3750577,284.5695,-120.16467,-6.8181286,SDL
3879660200000.0,0.9212020039558411,-4.443253517150879,4.540294170379639,-4.203701019287109,1.5520427227020264,0.68111473,-1.3118331,285.17566,-120.62306000000001,-6.789952,SDL
3879671400000.0,0.926200807094574,-4.5262370109558105,4.506519317626953,-4.286157608032227,1.5787138938903809,0.700357,-1.2373075,285.78976,-121.08211000000001,-6.769199,SDL
3879682400000.0,0.9311990141868591,-4.610422134399414,4.474518775939941,-4.369678497314453,1.6069912910461426,0.75991637,-1.2061534,286.37076,-121.54468,-6.733314,SDL
3879693200000.0,0.9361997246742249,-4.6958088874816895,4.444198131561279,-4.4542694091796875,1.6348522901535034,0.8481864,-1.1731668,286.94943,-122.022125,-6.681267699999999,SDL
3879703400000.0,0.9411981701850891,-4.782235622406006,4.415468215942383,-4.539778232574463,1.6637189388275146,0.9443976999999999,-1.1218541000000002,287.5177,-122.519745,-6.6171136,SDL
3879713400000.0,0.9461970925331116,-4.869701862335205,4.388243675231934,-4.626209259033203,1.6941561698913574,1.1902708999999998,-1.0091494,288.04147,-123.02017,-6.50431,SDL
3879723000000.0,0.9511955380439758,-4.958133220672607,4.3624444007873535,-4.713495254516602,1.7295310497283936,1.1236867,-0.9294315000000001,288.62067,-123.55006399999999,-6.430878599999999,SDL
3879732800000.0,0.9561949372291565,-5.047508716583252,4.337994575500488,-4.801620006561279,1.764664649963379,0.9587530000000001,-0.88300574,289.17615,-124.06437,-6.3289833,SDL
3879742200000.0,0.9611937403678894,-5.137744903564453,4.314822196960449,-4.890506744384766,1.7954680919647217,0.6914994999999999,-0.9211848,289.7714,-124.58996599999999,-6.2684370000000005,SDL
3879751400000.0,0.9661923050880432,-5.2288031578063965,4.2928595542907715,-4.980122089385986,1.8195351362228394,0.80573124,-0.8378017,290.34143,-125.099106,-6.1460824,SDL
3879760300000.0,0.9711908102035522,-5.320643901824951,4.2720417976379395,-5.070430755615234,1.8455913066864014,0.8741482,-0.75594574,290.97906,-125.640274,-6.093977,SDL
3879769000000.0,0.9761901497840881,-5.413243770599365,4.252307891845703,-5.16141414642334,1.872912049293518,0.8891144,-0.6930265999999999,291.61115,-126.14681999999999,-6.0282817,SDL
3879777300000.0,0.9811882972717285,-5.5065202713012695,4.23360013961792,-5.252995014190674,1.8985815048217773,0.86406887,-0.6450737,292.24602999999996,-126.65066999999999,-5.954512599999999,SDL
3879785700000.0,0.9861894845962524,-5.600525379180908,4.2158637046813965,-5.345227241516113,1.922003984451294,0.77304995,-0.61117065,292.8993,-127.160706,-5.8906956,SDL
3879793900000.0,0.9912329316139221,-5.696053504943848,4.199042797088623,-5.43888521194458,1.9447153806686401,0.6426301999999999,-0.57971114,293.57306,-127.67316000000001,-5.8401246,SDL
3879801700000.0,0.9962303638458252,-5.79120397567749,4.183096885681152,-5.532125949859619,1.965516448020935,0.5662721,-0.5381723,294.26035,-128.17058,-5.798064,SDL
3879809600000.0,1.0012270212173462,-5.88690185546875,4.167975425720215,-5.625851154327393,1.9833370447158813,0.40500367,-0.5369505,294.9921,-128.66333,-5.807248,SDL
3879817200000.0,1.0062246322631836,-5.983153343200684,4.153634071350098,-5.720068454742432,1.9969199895858765,0.5888741,-0.41447207,295.68842,-129.13562,-5.743447,SDL
3879824800000.0,1.0112217664718628,-6.079901695251465,4.140031814575195,-5.814725399017334,2.01609468460083,0.6053675000000001,-0.30848694,296.45285,-129.64825,-5.751419,SDL
3879832000000.0,1.0162187814712524,-6.177124500274658,4.127129077911377,-5.90980339050293,2.037389039993286,0.6398814,-0.21410827,297.18777,-130.12056,-5.7098927,SDL
3879839500000.0,1.0212194919586182,-6.271810054779053,4.11017370223999,-6.000172138214111,2.058932065963745,0.6774496,-0.13713925,297.9307,-130.61151,-5.6575120000000005,SDL
3879846500000.0,1.0262176990509033,-6.362583637237549,4.087255001068115,-6.083620548248291,2.0800106525421143,0.7244862,-0.05009095,298.67935,-131.10898,-5.5872188,SDL
3879853600000.0,1.0312139987945557,-6.449655055999756,4.058681964874268,-6.160515308380127,2.1017239093780518,0.818254,-0.007941248,299.53986000000003,-132.23633,-6.4061737,SDL
3879860400000.0,1.0362141132354736,-6.5332465171813965,4.024606704711914,-6.231159210205078,2.123549699783325,0.8790351000000001,0.0571159,300.3617,-133.33217,-7.1608167,SDL
3879867300000.0,1.0412124395370483,-6.613519668579102,3.9854636192321777,-6.295928955078125,2.147418975830078,0.93126404,0.13133603,301.12686,-134.41806,-7.853960000000001,SDL
3879873800000.0,1.0462106466293335,-6.690658092498779,3.941483974456787,-6.355125904083252,2.1728482246398926,0.97066486,0.1872302,301.84918,-135.48016,-8.496761,SDL
3879880400000.0,1.0512094497680664,-6.764832019805908,3.8929061889648438,-6.409040927886963,2.1987617015838623,0.9618073,0.2321288,302.54706,-136.52505,-9.097878999999999,SDL
3879887000000.0,1.0562082529067993,-6.836197376251221,3.8399877548217773,-6.457959175109863,2.225003242492676,0.90285885,0.26206118,303.22366,-137.55711000000002,-9.667891000000001,SDL
3879893500000.0,1.061249852180481,-6.905086994171143,3.7818498611450195,-6.501806735992432,2.2511322498321533,0.8338310999999999,0.28985557,303.88486,-138.56992,-10.21042,SDL
3879899800000.0,1.0662455558776855,-6.971262454986572,3.721015691757202,-6.541542053222656,2.2768943309783936,0.77274454,0.32253686,304.53845,-139.56448,-10.735481,SDL
3879906000000.0,1.0712424516677856,-7.035059452056885,3.6564691066741943,-6.577028751373291,2.302243709564209,0.7165449,0.36743546,305.19073,-140.53955,-11.246527,SDL
3879912300000.0,1.0762391090393066,-7.096599102020264,3.5884439945220947,-6.608504295349121,2.326991081237793,0.6600399,0.42119157,305.84357,-141.49323,-11.744373,SDL
3879918400000.0,1.0812342166900635,-7.155995845794678,3.517160177230835,-6.63619327545166,2.350224256515503,0.59315014,0.44868052,306.4946,-142.42352,-12.235955,SDL
3879924400000.0,1.08623206615448,-7.213382244110107,3.442680597305298,-6.6602630615234375,2.3722517490386963,0.5018258,0.47158796,307.15485,-143.33357,-12.720406,SDL
3879930400000.0,1.0912296772003174,-7.268853187561035,3.365250587463379,-6.680930137634277,2.3934147357940674,0.40591997,0.49235737,307.8183,-144.22095,-13.201137,SDL
3879936500000.0,1.0962265729904175,-7.322508811950684,3.2850396633148193,-6.698379039764404,2.412505626678467,0.3304781,0.5103779,308.48477,-145.07968,-13.679712,SDL
3879942500000.0,1.1012259721755981,-7.374459266662598,3.202112913131714,-6.712756156921387,2.430025815963745,0.30543262,0.5299255999999999,309.15134,-145.9198,-14.150569,SDL
3879948300000.0,1.1062257289886475,-7.4247870445251465,3.116666316986084,-6.724240779876709,2.4456355571746826,0.26358834,0.53786683,309.82315,-146.73238,-14.627839000000002,SDL
3879954000000.0,1.111225962638855,-7.473578929901123,3.0288312435150146,-6.732985973358154,2.459632158279419,0.21868975,0.54519725,310.4929,-147.52213,-15.095455,SDL
3879959800000.0,1.116222858428955,-7.520900726318359,2.9388349056243896,-6.739168643951416,2.4717109203338623,0.17989981,0.54336464,311.1578,-148.28609,-15.559012,SDL
3879965600000.0,1.1212213039398193,-7.566850662231445,2.8466691970825195,-6.742887496948242,2.4794836044311523,0.17104226,0.52442783,311.81305,-149.01587,-16.015253,SDL
3879971300000.0,1.1262187957763672,-7.611491680145264,2.7525134086608887,-6.744293212890625,2.4830167293548584,0.19608775,0.5170974,312.4627,-149.72006000000002,-16.45897,SDL
3879977000000.0,1.1312520503997803,-7.655051231384277,2.6555187702178955,-6.743216514587402,2.48494553565979,0.3115413,0.5235115,313.09033,-150.40117,-16.871637,SDL
3879982600000.0,1.1362502574920654,-7.697290897369385,2.557628631591797,-6.7403388023376465,2.48299503326416,0.33322698,0.52290064,313.7177,-151.0358,-17.29164,SDL
3879988000000.0,1.1412464380264282,-7.738414764404297,2.4580798149108887,-6.735507488250732,2.47953724861145,0.31612277,0.51343226,314.32587,-151.65887,-17.68295,SDL
3879993600000.0,1.146242380142212,-7.778489112854004,2.356919288635254,-6.728814125061035,2.4743103981018066,0.2519819,0.50488013,314.9316,-152.24623,-18.070621,SDL
3879999000000.0,1.1512380838394165,-7.817569732666016,2.2542340755462646,-6.720358371734619,2.4661552906036377,0.16340645,0.48166725,315.53128,-152.80716,-18.462482,SDL
3880004600000.0,1.1562354564666748,-7.855718612670898,2.1500515937805176,-6.710217475891113,2.4553909301757812,0.08735373,0.46150870000000005,316.13144,-153.34564,-18.85836,SDL
3880010000000.0,1.1612319946289062,-7.892974376678467,2.044517993927002,-6.698502063751221,2.4409031867980957,0.016493361,0.44868052,316.73413,-153.84981000000002,-19.267385,SDL
3880015600000.0,1.1662286520004272,-7.929388999938965,1.9376819133758545,-6.685288429260254,2.421295166015625,-0.043982297000000004,0.43066000000000004,317.33435,-154.32036000000002,-19.686197,SDL
3880021100000.0,1.1712266206741333,-7.965012073516846,1.8295807838439941,-6.670646667480469,2.395895481109619,-0.10659598599999999,0.39736784,317.93237,-154.75542,-20.116747,SDL
3880026600000.0,1.1762237548828125,-7.999876976013184,1.7203346490859985,-6.654668807983398,2.3655989170074463,-0.1441642,0.36865717,318.52692,-155.15402,-20.547242999999998,SDL
3880032100000.0,1.1812208890914917,-8.034027099609375,1.609985113143921,-6.637420654296875,2.3304548263549805,-0.17745635,0.3387248,319.1157,-155.51082,-20.985859,SDL
3880037400000.0,1.1862257719039917,-8.067534446716309,1.4983900785446167,-6.618907928466797,2.290151834487915,-0.17837265,0.31795537,319.6955,-155.82631999999998,-21.416857,SDL
3880042600000.0,1.191224217414856,-8.100374221801758,1.3859707117080688,-6.599307060241699,2.2456324100494385,-0.15149458,0.30695978,320.26653999999996,-156.1067,-21.840207999999997,SDL
3880048000000.0,1.1962217092514038,-8.132603645324707,1.2726421356201172,-6.578636169433594,2.1988301277160645,-0.06352998,0.29810223,320.82043,-156.35521,-22.238815,SDL
3880053000000.0,1.201243281364441,-8.164362907409668,1.1577999591827393,-6.5567522048950195,2.150062084197998,0.03604105,0.30390546,321.3665,-156.56611999999998,-22.6157,SDL
3880058400000.0,1.2062407732009888,-8.195475578308105,1.0427443981170654,-6.534093856811523,2.1000516414642334,0.129198,0.29810223,321.89224,-156.75365,-22.963520000000003,SDL
3880063600000.0,1.2112374305725098,-8.226069450378418,0.926917314529419,-6.510527610778809,2.048246383666992,0.18539760000000002,0.2779437,322.4035,-156.91226,-23.28649,SDL
3880068800000.0,1.2162339687347412,-8.256176948547363,0.8103403449058533,-6.486096382141113,1.9954581260681152,0.20983220000000002,0.25473082,322.9004,-157.05225,-23.585745000000003,SDL
3880074000000.0,1.2212313413619995,-8.293034553527832,0.7001522183418274,-6.461147308349609,1.9423253536224365,0.21227567,0.22235495,323.3808,-157.17318999999998,-23.871284,SDL
3880079300000.0,1.2262287139892578,-8.342589378356934,0.602266788482666,-6.4359846115112305,1.8889964818954468,0.22296582,0.2144137,323.8536,-157.27303999999998,-24.140059,SDL
3880084600000.0,1.2312259674072266,-8.400298118591309,0.5157366394996643,-6.4109272956848145,1.8368656635284424,0.27214047,0.204029,324.11562999999995,-157.8767,-24.698458,SDL
3880089800000.0,1.2362240552902222,-8.46258544921875,0.4397432804107666,-6.3862175941467285,1.7845180034637451,0.36957347,0.20280726,324.35745,-158.44801,-25.229129999999998,SDL
3880095000000.0,1.2412214279174805,-8.527375221252441,0.3726069927215576,-6.36219596862793,1.732697606086731,0.48472157,0.20372356,324.59186,-158.99454,-25.79489,SDL
3880100300000.0,1.2462189197540283,-8.592576026916504,0.3126712739467621,-6.339212894439697,1.682206392288208,0.61178154,0.2134974,324.80298,-159.51872,-26.317148,SDL
3880105500000.0,1.2512156963348389,-8.653312683105469,0.259775847196579,-6.317204475402832,1.6332828998565674,0.7498371,0.21746802,324.98926,-160.0088,-26.840008,SDL
3880110800000.0,1.256213665008545,-8.70115852355957,0.21399009227752686,-6.296101093292236,1.5872271060943604,0.9071349,0.2312125,325.15375,-160.48587,-27.307858000000003,SDL
3880116000000.0,1.261211633682251,-8.733759880065918,0.1759340465068817,-6.274446487426758,1.5441792011260986,1.0812315000000001,0.25289822,325.28375,-160.93788,-27.76353,SDL
3880121300000.0,1.2662091255187988,-8.748242378234863,0.14641082286834717,-6.25057315826416,1.5056390762329102,1.2565498,0.26969699999999996,325.3902,-161.38828999999998,-28.162340000000004,SDL
3880126500000.0,1.2712088823318481,-8.746015548706055,0.12455154210329056,-6.2221150398254395,1.4706993103027344,1.4092661,0.26939157,325.43665,-161.81308,-28.521044,SDL
3880131800000.0,1.2762069702148438,-8.729361534118652,0.10894826799631119,-6.184749126434326,1.4378819465637207,1.5176947,0.24587326,325.4619,-162.23508999999999,-28.834345000000003,SDL
3880136700000.0,1.281205177307129,-8.696575164794922,0.09825407713651657,-6.14076566696167,1.4065206050872803,1.5732834,0.2321288,325.41965,-162.62184,-29.123403999999997,SDL
3880142000000.0,1.2862060070037842,-8.640979766845703,0.08901473134756088,-6.096250534057617,1.3740633726119995,1.632232,0.17715092,325.34406,-163.00124,-29.379927000000002,SDL
3880147000000.0,1.2912049293518066,-8.56417465209961,0.08113884180784225,-6.051276683807373,1.3412524461746216,1.6960673,0.118507855,325.1738,-163.3521,-29.688584999999996,SDL
3880152000000.0,1.2962037324905396,-8.467876434326172,0.07283122837543488,-6.003866195678711,1.308204174041748,1.7623463,0.077579886,324.98767000000004,-163.69106000000002,-29.97247,SDL
3880157000000.0,1.3012017011642456,-8.353239059448242,0.06396754831075668,-5.953988552093506,1.2757614850997925,1.8979582999999998,0.050396382999999996,324.77643,-164.02576000000002,-30.2134,SDL
3880162000000.0,1.3062018156051636,-8.228049278259277,0.046400535851716995,-5.881715297698975,1.2449500560760498,2.1276436000000003,0.04795292,324.42386,-164.36575,-30.412029999999998,SDL
3880167000000.0,1.3112025260925293,-8.093915939331055,0.019530562683939934,-5.785647869110107,1.216187596321106,2.3683245,0.033292156,324.0522,-164.70354,-30.563633000000003,SDL
3880171900000.0,1.3162007331848145,-7.964094638824463,-0.02729671448469162,-5.677034378051758,1.1878999471664429,2.5204299999999997,0.023823743999999997,323.52786000000003,-165.09682,-30.656571999999997,SDL
3880176800000.0,1.3211966753005981,-7.8399248123168945,-0.09444112330675125,-5.557733058929443,1.1590200662612915,2.5579982000000006,0.017715093,323.0058,-165.47972,-30.707188000000002,SDL
3880181800000.0,1.3261957168579102,-7.719918251037598,-0.17338186502456665,-5.44419002532959,1.1297422647476196,2.5555548999999997,0.0009162978999999999,322.26984,-165.99503,-30.812315,SDL
3880186800000.0,1.3311940431594849,-7.603724479675293,-0.2622021436691284,-5.338341236114502,1.0968648195266724,2.5265386000000003,-0.01038471,321.56692999999996,-166.4705,-30.898033,SDL
3880191800000.0,1.3361942768096924,-7.472376346588135,-0.3580561578273773,-5.246354579925537,1.0594727993011475,2.4569001,-0.005192355,320.76482999999996,-167.11975,-30.977556,SDL
3880196800000.0,1.3411900997161865,-7.319967746734619,-0.45935678482055664,-5.169825077056885,1.0184903144836426,2.4324653,0.01282817,320.00208,-167.72766000000001,-31.036362,SDL
3880201700000.0,1.3461893796920776,-7.154393196105957,-0.558060348033905,-5.110462665557861,0.975329577922821,2.3829854,0.039095376,319.1487,-168.48018000000002,-31.061487,SDL
3880206700000.0,1.3511871099472046,-6.979092597961426,-0.6517415046691895,-5.067819118499756,0.9292765259742737,2.3881776,0.035430185,318.3342,-169.17896000000002,-31.062815000000004,SDL
3880211700000.0,1.3561867475509644,-6.778093338012695,-0.732271134853363,-5.036384582519531,0.8800783753395081,2.445599,0.027794369,317.4354,-169.97911000000002,-30.911207,SDL
3880216700000.0,1.3611855506896973,-6.54373025894165,-0.7955767512321472,-5.012695789337158,0.8285863399505615,2.468812,-0.0061086523,316.5796,-170.73254,-30.759302,SDL
3880222000000.0,1.3661845922470093,-6.2879791259765625,-0.8520060181617737,-4.986207485198975,0.776615560054779,2.5613580000000002,0.025045475,315.6854,-171.53523,-30.431389000000003,SDL
3880227000000.0,1.3711848258972168,-6.016204833984375,-0.9058913588523865,-4.952791213989258,0.7245007753372192,2.6606236,0.05009095,314.8312,-172.28897,-30.093876,SDL
3880232000000.0,1.3761831521987915,-5.740105152130127,-0.9596151113510132,-4.913263320922852,0.6740727424621582,2.6981919999999997,0.046731193,314.24927,-172.79657,-29.490164,SDL
3880237000000.0,1.3811829090118408,-5.470583915710449,-1.0155606269836426,-4.8682146072387695,0.624737024307251,2.7220156,0.03145956,313.69183,-173.27716,-28.873346,SDL
3880242000000.0,1.3862265348434448,-5.206005096435547,-1.0744127035140991,-4.816734790802002,0.576060950756073,2.679255,0.028710667000000002,313.32544,-173.59833999999998,-28.125837,SDL
3880247000000.0,1.3912216424942017,-4.969275951385498,-1.1388260126113892,-4.7723612785339355,0.5271466970443726,2.564107,0.019242255,312.96594,-173.91145,-27.403526,SDL
3880252000000.0,1.3962249755859375,-4.7826948165893555,-1.2151498794555664,-4.74640417098999,0.4778442084789276,2.4843889999999997,0.011301007,312.6177,-174.21469,-26.693859999999997,SDL
3880257000000.0,1.4012248516082764,-4.637765884399414,-1.300005555152893,-4.730922698974609,0.4282718002796173,2.5485299,0.013133603,312.33286,-174.48248,-25.942304999999998,SDL
3880262000000.0,1.4062235355377197,-4.5197906494140625,-1.386749029159546,-4.706651210784912,0.38173192739486694,2.8487701000000003,0.017715093,312.0503,-174.75461,-25.154137,SDL
3880267000000.0,1.4112346172332764,-4.4214019775390625,-1.4778788089752197,-4.670828819274902,0.34053710103034973,3.1349603999999998,0.046731193,311.63324,-175.25633,-24.520643,SDL
3880272000000.0,1.4162315130233765,-4.2550225257873535,-1.6003942489624023,-4.59142541885376,0.30435362458229065,3.2058207999999997,0.08216137400000001,311.2375,-175.74986,-23.874695000000003,SDL
3880277000000.0,1.4212274551391602,-4.0192790031433105,-1.7526249885559082,-4.4756388664245605,0.27053797245025635,3.0564642,0.10415252,310.7442,-176.40063,-23.344662,SDL
3880282000000.0,1.4262248277664185,-3.701133966445923,-1.9122523069381714,-4.408732891082764,0.23648977279663086,2.2266037,0.1337795,310.30667,-177.02661,-23.000120000000003,SDL
3880287200000.0,1.431262493133545,-3.2960755825042725,-2.077781915664673,-4.396824359893799,0.1935618817806244,0.27091873,0.22876903,310.24664,-177.41652,-22.71635,SDL
3880292200000.0,1.4362616539001465,-2.8808748722076416,-2.213982105255127,-4.447267532348633,0.12821270525455475,-0.25442538,0.27091873,310.17357999999996,-177.7353,-22.264822,SDL
3880297200000.0,1.4412566423416138,-2.4516308307647705,-2.3195455074310303,-4.565378189086914,0.059639912098646164,-0.9651671000000001,0.31887165,310.1522,-178.06105,-22.05407,SDL
3880302100000.0,1.4462521076202393,-2.0183603763580322,-2.37334942817688,-4.738953590393066,-0.01647726446390152,-1.3738358999999998,0.25411993,310.1083,-178.25232,-21.903833,SDL
3880307000000.0,1.4512484073638916,-1.5864466428756714,-2.3664114475250244,-4.959932327270508,-0.0992647185921669,-1.5855006999999999,0.112704635,310.05536,-178.41814,-21.895617,SDL
3880312000000.0,1.4562578201293945,-1.173683762550354,-2.276843309402466,-5.211615085601807,-0.18550215661525726,-1.6639968999999997,-0.014660766,309.97076,-178.40005,-21.714254,SDL
3880317000000.0,1.4612531661987305,-0.7915298938751221,-2.1025383472442627,-5.477546691894531,-0.26989462971687317,-1.6215416999999999,-0.04520403,309.87207,-178.36137,-21.557442,SDL
3880322000000.0,1.4662481546401978,-0.4802377223968506,-1.8555831909179688,-5.7690324783325195,-0.3428717255592346,-1.3582588,0.08277224,309.79247999999995,-178.05858,-21.172710000000002,SDL
3880327000000.0,1.4712449312210083,-0.2538353204727173,-1.5443035364151,-6.089497089385986,-0.3934035003185272,-0.89644474,0.34666604,309.7456,-177.80092,-20.725635999999998,SDL
3880332000000.0,1.476241111755371,-0.12916868925094604,-1.2266650199890137,-6.454100131988525,-0.41759130358695984,-0.20952678,0.65087694,309.77853,-177.23956,-20.088388000000002,SDL
3880337000000.0,1.4812368154525757,-0.12040413171052933,-0.950934886932373,-6.875728130340576,-0.41760411858558655,0.39400807,0.8164214,309.84296,-176.7795,-19.358387,SDL
3880342000000.0,1.4862360954284668,-0.1670939177274704,-0.7900229692459106,-7.343161582946777,-0.40983566641807556,0.6948592,0.7254025,309.89282000000003,-176.14737,-18.697302,SDL
3880347000000.0,1.4912370443344116,-0.21332266926765442,-0.8074637651443481,-7.844726085662842,-0.4188236892223358,0.5296202,0.48441613,309.9346,-175.54012,-18.027409,SDL
3880352000000.0,1.4962334632873535,-0.2141576111316681,-0.9805006384849548,-8.36194133758545,-0.46851441264152527,-0.058337633,0.16646078,309.65686,-175.33133,-17.793266,SDL
3880357000000.0,1.5012303590774536,-0.12390828132629395,-1.2937980890274048,-8.87860107421875,-0.5710464715957642,-0.8390234000000001,-0.17623462,309.30942000000005,-174.98335,-17.684921,SDL
3880362000000.0,1.5062272548675537,0.027499521151185036,-1.703818440437317,-9.39112663269043,-0.7183625102043152,-1.3460416000000002,-0.2611449,308.9585,-175.01869,-17.663435,SDL
3880367000000.0,1.511224389076233,0.1756460964679718,-2.117544412612915,-9.891014099121094,-0.8788091540336609,-1.4037683,-0.049785517,308.60867,-174.89146000000002,-17.737448,SDL
3880372000000.0,1.5162206888198853,0.3097466826438904,-2.509714126586914,-10.37709903717041,-1.0179437398910522,-1.1979066999999999,0.22082779,308.36127,-175.03328,-17.617247,SDL
3880376900000.0,1.5212180614471436,0.40060076117515564,-2.8132271766662598,-10.845333099365234,-1.1350300312042236,-0.10354166,0.36621370000000003,308.11832000000004,-175.02655,-17.268862,SDL
3880382000000.0,1.526238203048706,0.4375728964805603,-3.0085132122039795,-11.289714813232422,-1.216837763786316,2.068695,0.8753699,308.03348,-175.14185,-16.535984,SDL
3880387000000.0,1.5312339067459106,0.4219684898853302,-3.0983941555023193,-11.70419979095459,-1.2794570922851562,2.5421157,1.0250318999999999,307.90567000000004,-175.23668,-16.001175,SDL
3880392000000.0,1.5362341403961182,0.3524073660373688,-3.068507671356201,-12.073760986328125,-1.3400250673294067,2.9880473999999997,1.2983941,307.9219,-175.1677,-14.931993499999999,SDL
3880397000000.0,1.5412331819534302,0.2358299046754837,-2.9097821712493896,-12.37063980102539,-1.4006370306015015,3.2461379,1.5531249,307.98117,-175.13666,-13.814295999999999,SDL
3880402000000.0,1.5462286472320557,0.0780336856842041,-2.625096559524536,-12.600605010986328,-1.4560004472732544,3.506061,1.8338174999999999,308.04846000000003,-174.89767,-12.744989,SDL
3880407000000.0,1.5512263774871826,-0.08759663999080658,-2.1585302352905273,-12.782099723815918,-1.4970842599868774,3.612657,2.1300871,308.18637,-174.67305,-11.675476,SDL
3880412000000.0,1.5562230348587036,-0.2528412342071533,-1.532194972038269,-12.922894477844238,-1.517357349395752,3.6264013999999998,2.3689353,308.1729,-174.27053999999998,-10.817921,SDL
3880417000000.0,1.5612201690673828,-0.3755771517753601,-0.8094848394393921,-13.051371574401855,-1.5150151252746582,3.6141841,2.4480424,308.18237,-173.9387,-9.958703,SDL
3880422000000.0,1.5662281513214111,-0.45442652702331543,0.004338823724538088,-13.16862678527832,-1.4932323694229126,3.5937202000000004,2.3109033,308.22525,-173.22236999999998,-9.109346,SDL
3880427000000.0,1.5712254047393799,-0.46594202518463135,0.8294054865837097,-13.283390998840332,-1.4520684480667114,3.5918877,2.0247128,308.21564,-172.65013000000002,-8.2790365,SDL
3880432000000.0,1.5762220621109009,-0.4087892770767212,1.6540753841400146,-13.387824058532715,-1.3936468362808228,3.6816847000000004,1.6584991000000002,308.20126,-171.81221000000002,-7.308057000000001,SDL
3880437000000.0,1.5812182426452637,-0.2533761262893677,2.310495376586914,-13.378227233886719,-1.32132887840271,3.7534616,1.3307699,308.08234,-171.11616999999998,-6.372380000000001,SDL
3880442000000.0,1.5862215757369995,-0.0020139182452112436,2.8040430545806885,-13.25754451751709,-1.2396965026855469,3.6092972999999997,1.2003502000000001,308.02466,-170.31715,-5.277953599999999,SDL
3880446900000.0,1.5912203788757324,0.27003493905067444,3.18813419342041,-13.084565162658691,-1.1526318788528442,3.3191364,1.244027,307.89954,-169.63522,-4.237023000000001,SDL
3880451800000.0,1.5962198972702026,0.5393311381340027,3.4808125495910645,-12.877815246582031,-1.0613685846328735,2.994767,1.3283265,307.73697000000004,-169.05423000000002,-3.2738270000000003,SDL
3880456800000.0,1.601217269897461,0.7843831181526184,3.693613290786743,-12.650394439697266,-0.9659675359725952,2.7046057999999995,1.4715744,307.75583,-168.73456000000002,-2.0977585,SDL
3880461800000.0,1.6062157154083252,0.9888486266136169,3.8348915576934814,-12.411884307861328,-0.8660796284675598,2.4932466,1.6392567999999998,307.80432,-168.47348,-1.0010927,SDL
3880466800000.0,1.6112133264541626,1.1481393575668335,3.926034688949585,-12.163969993591309,-0.7617648839950562,2.4092526000000003,1.8170186000000002,307.94107,-168.40317,0.08141844,SDL
3880471800000.0,1.616210699081421,1.260912299156189,3.9787137508392334,-11.907600402832031,-0.6541056632995605,2.2635612000000003,1.9077321,308.1078,-168.38394,1.0808809,SDL
3880476700000.0,1.6212053298950195,1.3319793939590454,3.9975106716156006,-11.644574165344238,-0.5489609837532043,2.101682,2.0628919999999997,308.3649,-168.51099,1.9928843999999997,SDL
3880481700000.0,1.626203179359436,1.3667200803756714,3.987973213195801,-11.377082824707031,-0.44676652550697327,1.8338174999999999,2.1972822999999995,308.65143,-168.68535,2.8267562,SDL
3880486700000.0,1.6312006711959839,1.3722292184829712,3.956604480743408,-11.11436939239502,-0.35184136033058167,1.4776831,2.322204,308.98096,-168.95044,3.4605349999999997,SDL
3880492000000.0,1.6362018585205078,1.3581541776657104,3.9125516414642334,-10.871712684631348,-0.26762327551841736,1.1866056999999999,2.4538457,309.35803,-169.21043,4.0322585,SDL
3880497000000.0,1.641204595565796,1.3265445232391357,3.8571205139160156,-10.647414207458496,-0.19391600787639618,1.0045679,2.5821273,309.74158,-169.53736999999998,4.3983097,SDL
3880502000000.0,1.646203637123108,1.2891349792480469,3.797515392303467,-10.433286666870117,-0.12511345744132996,0.8912524,2.6972754,310.1676,-169.85997,4.6953564000000005,SDL
3880507000000.0,1.6512022018432617,1.246152639389038,3.7338807582855225,-10.228769302368164,-0.0566081628203392,0.820392,2.7837129000000003,310.53222999999997,-170.25394,4.775139,SDL
3880511900000.0,1.6562005281448364,1.1941711902618408,3.6634631156921387,-10.026960372924805,0.013308549299836159,0.7275404999999999,2.864958,310.93457,-170.64728,4.8124986,SDL
3880516800000.0,1.6611989736557007,1.1213806867599487,3.5768301486968994,-9.806591033935547,0.08314533531665802,0.6267477,2.9113839,311.35483,-171.04506,4.820524,SDL
3880521800000.0,1.6661968231201172,1.0289467573165894,3.4748940467834473,-9.568721771240234,0.14981375634670258,0.56077427,2.9568932,311.7685,-171.49362,4.739772299999999,SDL
3880526800000.0,1.671195387840271,0.9202180504798889,3.3630211353302,-9.341599464416504,0.2106015682220459,0.5320636,2.9715540000000003,312.19205,-171.93631000000002,4.635256299999999,SDL
3880531800000.0,1.6761926412582397,0.7967222929000854,3.2428174018859863,-9.130342483520508,0.26395025849342346,0.5375614000000001,2.9715540000000003,312.62775,-172.36253,4.5172377,SDL
3880536800000.0,1.6811916828155518,0.6692383885383606,3.1144495010375977,-8.944812774658203,0.3089866638183594,0.57360244,2.9590313,313.11978,-172.80736000000002,4.364013,SDL
3880541700000.0,1.686187982559204,0.5406558513641357,2.9785654544830322,-8.78600788116455,0.3458445072174072,0.63621616,2.9520063,313.675012714786,-173.202160929803,4.224935528944069,SDL
3880548000000.0,1.6922683715820312,0.37752100825309753,2.7781519889831543,-8.717644691467285,0.3567778468132019,0.7635816,2.9391782,316.51828,-175.22388,3.5127397000000005,SDL
3880554000000.0,1.698271632194519,0.20932121574878693,2.5862467288970947,-8.641338348388672,0.36380791664123535,0.55833083,2.9535334,317.15036000000003,-175.61156,3.3099849999999997,SDL
3880560000000.0,1.704221487045288,0.03557233884930611,2.40325665473938,-8.558984756469727,0.3610062003135681,0.38515055,2.9654453,317.83652,-175.98247,3.1039455,SDL
3880566000000.0,1.7101205587387085,-0.14075867831707,2.236969232559204,-8.490030288696289,0.3508662283420563,0.42485678,2.9373455,318.51346,-176.33789,2.8926396,SDL
3880572200000.0,1.7159709930419922,-0.31864985823631287,2.0872256755828857,-8.43626594543457,0.3371647298336029,0.7263188,2.892447,319.22272000000004,-176.67488,2.706661,SDL
3880578000000.0,1.7217787504196167,-0.4921589195728302,1.9584628343582153,-8.414681434631348,0.3207426369190216,1.1911873,2.82403,319.91226,-176.9696,2.5730853,SDL
3880583700000.0,1.7275413274765015,-0.6620346903800964,1.8485110998153687,-8.419573783874512,0.30179375410079956,1.6664404,2.7577512000000004,320.6062,-177.22935,2.5232882,SDL
3880589500000.0,1.7332738637924194,-0.8340543508529663,1.749763011932373,-8.420388221740723,0.27944356203079224,2.0103576000000003,2.656042,321.2632,-177.46200000000002,2.5580112999999995,SDL
3880595200000.0,1.7389620542526245,-1.0071876049041748,1.661401629447937,-8.417292594909668,0.253303587436676,2.1954496,2.5350907000000005,321.9249,-177.6415,2.7115737999999996,SDL
3880601000000.0,1.7446115016937256,-1.1751106977462769,1.5850293636322021,-8.404069900512695,0.22139465808868408,2.39337,2.4181101000000003,322.54974,-177.78561000000002,2.9517903,SDL
3880606800000.0,1.7502357959747314,-1.337481141090393,1.5197722911834717,-8.380902290344238,0.18496829271316528,2.629164,2.3576342999999995,323.18807999999996,-177.89685,3.2571267999999995,SDL
3880612300000.0,1.755817174911499,-1.480043649673462,1.4545782804489136,-8.350773811340332,0.14322349429130554,2.8750372000000004,2.3173172,323.79138,-177.96643,3.6059382000000006,SDL
3880617800000.0,1.761366367340088,-1.6034859418869019,1.3893312215805054,-8.313785552978516,0.09600420296192169,3.071125,2.3020456,324.4033,-177.97743,4.021585,SDL
3880623300000.0,1.7668876647949219,-1.6935700178146362,1.3166465759277344,-8.270975112915039,0.042120933532714844,3.1713068,2.298686,324.99872,-177.9482,4.4631453,SDL
3880628800000.0,1.7723817825317383,-1.7494897842407227,1.2356603145599365,-8.222806930541992,-0.019568685442209244,3.2311716,2.2983804,325.58148,-177.87761,4.932118,SDL
3880634300000.0,1.7778502702713013,-1.7654972076416016,1.145005702972412,-8.172924995422363,-0.08648374676704407,3.270267,2.3212879,326.17188,-177.7946,5.4553519999999995,SDL
3880639800000.0,1.7832893133163452,-1.7415008544921875,1.0447710752487183,-8.122818946838379,-0.15847599506378174,3.2439999999999998,2.3328943,326.74953999999997,-177.66388,5.95907,SDL
3880645300000.0,1.7887083292007446,-1.641127347946167,0.9399825930595398,-8.066472053527832,-0.23434704542160034,3.1325168999999997,2.3533583,327.317,-177.55498,6.5012374,SDL
3880650800000.0,1.794106125831604,-1.4460022449493408,0.834021806716919,-8.000615119934082,-0.3124252259731293,2.9556715000000002,2.346028,327.86978,-177.41797,6.996471400000001,SDL
3880656300000.0,1.7994835376739502,-1.186973214149475,0.7380529642105103,-7.947376728057861,-0.3905907869338989,2.7293458,2.3212879,328.43948,-177.30281000000002,7.5545964,SDL
3880661800000.0,1.804839849472046,-0.8863453269004822,0.6594511866569519,-7.921480655670166,-0.4690181314945221,2.6181683999999996,2.3026567000000004,328.99826,-177.16433999999998,8.074022,SDL
3880667300000.0,1.8102097511291504,-0.5474888682365417,0.6033494472503662,-7.939142227172852,-0.5460330247879028,2.3548856,2.2250767000000002,329.56192000000004,-176.92368000000002,8.833827000000001,SDL
3880672600000.0,1.815528154373169,-0.1867705136537552,0.5660822987556458,-7.993725299835205,-0.624559223651886,2.291661,2.1884248,330.12377999999995,-176.66335,9.603294,SDL
3880677800000.0,1.82083261013031,0.19697372615337372,0.5488559603691101,-8.087136268615723,-0.6997958421707153,2.191479,2.1270328,330.63034,-176.35308999999998,10.436753999999999,SDL
3880683000000.0,1.826117753982544,0.597993016242981,0.5500632524490356,-8.214642524719238,-0.7706484794616699,2.1148154999999997,2.0555615,331.11987,-176.03799999999998,11.243289,SDL
3880688300000.0,1.8313874006271362,1.000543236732483,0.5726491808891296,-8.359557151794434,-0.8314583897590637,2.0314324,1.9758436999999998,331.53702000000004,-175.7011,12.122398,SDL
3880693500000.0,1.8366414308547974,1.3949962854385376,0.6177191138267517,-8.511364936828613,-0.8792286515235901,1.9434677,1.8991799999999999,331.93317,-175.40348999999998,12.95684,SDL
3880698800000.0,1.8418831825256348,1.7714489698410034,0.6919334530830383,-8.655746459960938,-0.9153866171836853,1.822211,1.844813,332.27527000000003,-175.10512,13.816689000000002,SDL
3880704000000.0,1.8471111059188843,2.123823404312134,0.7985885143280029,-8.783648490905762,-0.9435624480247498,1.6942346999999998,1.7858646,332.59366,-174.85773999999998,14.623276,SDL
3880709300000.0,1.852326512336731,2.450272798538208,0.9301842451095581,-8.881669044494629,-0.9647186994552612,1.6123788000000001,1.7446311999999997,332.85483,-174.61717,15.415797,SDL
3880714500000.0,1.8575319051742554,2.749756097793579,1.0811394453048706,-8.940391540527344,-0.9787736535072327,1.4953982,1.7293595000000002,333.1066,-174.42555,16.136233999999998,SDL
3880719700000.0,1.8627256155014038,3.0167224407196045,1.2406319379806519,-8.9537935256958,-0.985617458820343,1.3115277,1.743104,333.27643,-174.20705,16.783929999999998,SDL
3880725000000.0,1.8679118156433105,3.240692138671875,1.3921674489974976,-8.90948486328125,-0.9824929237365723,1.1078042,1.7617353,333.44034,-174.05011000000002,17.36985,SDL
3880730200000.0,1.8730874061584473,3.4236068725585938,1.52326238155365,-8.826287269592285,-0.9676687121391296,0.90010995,1.7278323,333.5403,-173.86803999999998,17.899403,SDL
3880735500000.0,1.8782533407211304,3.566838026046753,1.621091604232788,-8.722386360168457,-0.9413614273071289,0.72418076,1.6624697,333.63473999999997,-173.74838,18.362759,SDL
3880740700000.0,1.8834104537963867,3.6727981567382812,1.6820998191833496,-8.615890502929688,-0.9016600251197815,0.5384777,1.5372424,333.72722999999996,-173.69156999999998,18.756258,SDL
3880746000000.0,1.8885581493377686,3.7445507049560547,1.6923500299453735,-8.558335304260254,-0.849213182926178,0.3680463,1.3151928,333.7685,-173.68666000000002,19.087717,SDL
3880751200000.0,1.8936958312988281,3.790325880050659,1.6638354063034058,-8.560471534729004,-0.7858070135116577,0.24587326,1.0503827,333.81793,-173.81345,19.306303,SDL
3880756400000.0,1.8988274335861206,3.8192758560180664,1.6097756624221802,-8.637104034423828,-0.713506817817688,0.27947086,0.8008443000000001,333.79900000000004,-173.98232,19.509611,SDL
3880761700000.0,1.9039504528045654,3.837885618209839,1.5366227626800537,-8.772143363952637,-0.63166344165802,0.32834008,0.552833,333.81158,-174.33393999999998,19.568414999999998,SDL
3880767000000.0,1.909069299697876,3.8574533462524414,1.4546953439712524,-8.940686225891113,-0.5481753945350647,0.44318274,0.44012842,333.78152,-174.68399,19.65188,SDL
3880772000000.0,1.914178729057312,3.8843154907226562,1.363409399986267,-9.129936218261719,-0.45954927802085876,0.50976706,0.19761491,333.848,-175.17445,19.719632999999998,SDL
3880777000000.0,1.9192886352539062,3.9416441917419434,1.2580658197402954,-9.30288314819336,-0.37089329957962036,0.5186246,-0.054367005999999996,333.86688,-175.6348,19.799086,SDL
3880782000000.0,1.9243855476379395,4.031583309173584,1.134808897972107,-9.452436447143555,-0.28717365860939026,0.40683624,-0.37048978,333.85797,-176.10625,19.848726,SDL
3880786900000.0,1.9294800758361816,4.16718053817749,0.9797675609588623,-9.558497428894043,-0.21115487813949585,0.18478674,-0.743423,333.74854,-176.53015,19.863699,SDL
3880791800000.0,1.9345729351043701,4.347222328186035,0.7872893214225769,-9.616939544677734,-0.14462397992610931,-0.083383106,-1.1878275,333.51846,-176.91393,19.896828,SDL
3880796800000.0,1.9396613836288452,4.571362018585205,0.5430800914764404,-9.616040229797363,-0.0851871520280838,-0.36865717,-1.6514741999999998,333.16763,-177.23105,19.859935999999998,SDL
3880801800000.0,1.9447417259216309,4.835087299346924,0.2491423636674881,-9.5614652633667,-0.028657440096139908,-0.6792821,-2.0864103,332.7424,-177.53935,19.913342999999998,SDL
3880806800000.0,1.9498180150985718,5.119630813598633,-0.11323539167642593,-9.476521492004395,0.028863878920674324,-0.9663888,-2.4672847,332.19296,-177.79742,19.892431,SDL
3880811800000.0,1.9548871517181396,5.423450946807861,-0.5393638014793396,-9.363240242004395,0.09155606478452682,-1.2043208,-2.7281241,331.57318,-178.16623,19.959349,SDL
3880816700000.0,1.9599555730819702,5.720757484436035,-1.0486347675323486,-9.252347946166992,0.16275711357593536,-1.3295482,-2.8906142999999997,330.8661,-178.53981000000002,19.983004,SDL
3880821700000.0,1.965018630027771,6.006378650665283,-1.6391446590423584,-9.150056838989258,0.2434459775686264,-1.3264938999999998,-2.967278,330.1035,-178.93918,19.985113000000002,SDL
3880827000000.0,1.9700807332992554,6.282022476196289,-2.271927833557129,-9.056181907653809,0.33078935742378235,-1.3090841999999998,-2.944676,329.409,-179.59242,20.049475,SDL
3880832000000.0,1.9751369953155518,6.548446178436279,-2.931903839111328,-8.970293998718262,0.4194680452346802,-1.4395038999999998,-2.8460212000000005,328.7041,179.72342,20.08588,SDL
3880837000000.0,1.9801925420761108,6.8059844970703125,-3.5709664821624756,-8.873025894165039,0.504641592502594,-1.8304577000000002,-2.6847527,328.1756,178.72595,20.02805,SDL
3880842000000.0,1.985249638557434,7.055055141448975,-4.171909332275391,-8.757524490356445,0.5805555582046509,-2.4263567999999998,-2.4565945,327.66562000000005,177.7352,19.887992999999998,SDL
3880847000000.0,1.990299940109253,7.268301010131836,-4.703708648681641,-8.641932487487793,0.6426900029182434,-2.9782734,-2.2284365000000004,327.2536,176.61227,19.641605,SDL
3880851900000.0,1.9953463077545166,7.426193714141846,-5.144221782684326,-8.538819313049316,0.6901190280914307,-3.2220087000000004,-2.0207422,326.8574,175.53017,19.326649,SDL
3880856800000.0,2.00039005279541,7.520506381988525,-5.479456901550293,-8.453693389892578,0.7267189621925354,-3.2100967999999996,-1.8283197,326.4718,174.4975,18.976015,SDL
3880861800000.0,2.005432367324829,7.541742324829102,-5.693271636962891,-8.392739295959473,0.75705486536026,-3.134655,-1.606881,326.1179,173.49953,18.58294,SDL
3880866800000.0,2.010471820831299,7.49596643447876,-5.789834499359131,-8.342832565307617,0.7839510440826416,-2.944676,-1.4911219999999998,325.7106,172.68158,18.160168,SDL
3880871800000.0,2.0155088901519775,7.38813591003418,-5.773159503936768,-8.294295310974121,0.8057839870452881,-2.7192667,-1.2773192,325.38336,171.8739,17.773525,SDL
3880876800000.0,2.0205459594726562,7.2279744148254395,-5.657404899597168,-8.248811721801758,0.8248093724250793,-2.4523184,-1.1038336000000002,325.01662999999996,171.28633,17.35041,SDL
3880881800000.0,2.025580406188965,7.02360200881958,-5.454985618591309,-8.207439422607422,0.8416000604629517,-2.1453588,-0.97127575,324.70554,170.70313000000002,17.010310999999998,SDL
3880886700000.0,2.0306131839752197,6.776494979858398,-5.151970863342285,-8.162528991699219,0.8568285703659058,-1.7525723999999998,-0.8402450999999999,324.436,170.38583,16.699987,SDL
3880892000000.0,2.035651683807373,6.48420524597168,-4.664090156555176,-8.078744888305664,0.8719128966331482,-1.3475688,-0.70188415,324.2249,170.05936,16.483913,SDL
3880897000000.0,2.040679693222046,6.152557373046875,-4.012964725494385,-7.960573673248291,0.8877559304237366,-1.03786,-0.5403103,324.26465,170.2625,16.46844,SDL
3880902000000.0,2.045705795288086,5.830294132232666,-3.310490608215332,-7.777184963226318,0.9042033553123474,-0.96669424,-0.37262779999999995,324.3474,170.43411,16.481562,SDL
3880907000000.0,2.0507290363311768,5.528361797332764,-2.5854849815368652,-7.524906635284424,0.917576789855957,-1.0891727,-0.20250183,324.47497999999996,170.588,16.506773000000003,SDL
3880912000000.0,2.055752992630005,5.247104644775391,-1.9132298231124878,-7.228744029998779,0.9246055483818054,-1.1838568,-0.04520403,324.39902,171.08398,16.376846,SDL
3880917000000.0,2.060774087905884,4.9859089851379395,-1.3204255104064941,-6.90068244934082,0.9222909212112427,-1.135904,0.062308256,324.35696,171.58646000000002,16.244944,SDL
3880921900000.0,2.0657947063446045,4.7556352615356445,-0.8306329846382141,-6.569125175476074,0.9094054102897644,-1.1145236,0.10812314599999999,324.36676,172.31161,16.242373999999998,SDL
3880927000000.0,2.070845603942871,4.5619354248046875,-0.45892512798309326,-6.2440009117126465,0.8830941319465637,-1.1044444,0.14019357,324.3922,173.05844,16.23925,SDL
3880932000000.0,2.0758631229400635,4.400971412658691,-0.19612263143062592,-5.945833683013916,0.8422983884811401,-1.0793989,0.16035213,324.361,173.65419,16.179160999999997,SDL
3880937000000.0,2.0808804035186768,4.276329040527344,-0.06033574417233467,-5.68824577331543,0.7883760333061218,-1.0506883,0.15149458,324.3276,174.3082,16.12231,SDL
3880942000000.0,2.085901975631714,4.183249473571777,-0.050811413675546646,-5.501419544219971,0.721375584602356,-1.0555751,0.08643743400000001,324.29544,174.80489,16.06328,SDL
3880947000000.0,2.0909204483032227,4.116605758666992,-0.1611020565032959,-5.407004356384277,0.6429217457771301,-0.9761627,-0.01038471,324.2527,175.3747,16.038629999999998,SDL
3880952000000.0,2.0959339141845703,4.063702583312988,-0.35905173420906067,-5.402060031890869,0.5560991168022156,-0.7455609999999999,-0.13194689,324.25275,175.75287,16.071394,SDL
3880957000000.0,2.1009466648101807,4.017109394073486,-0.6260309219360352,-5.484636306762695,0.4663833677768707,-0.59528816,-0.28619036,324.21268,176.18661,16.108103,SDL
3880962000000.0,2.105962038040161,3.9704132080078125,-0.9494311213493347,-5.6456708908081055,0.37620750069618225,-0.27763826,-0.43585235,324.17694,176.36571999999998,16.142951999999998,SDL
3880967000000.0,2.1109731197357178,3.9156746864318848,-1.3115901947021484,-5.871840000152588,0.288298100233078,0.0018325957999999999,-0.50335294,324.124,176.57033,16.213514,SDL
3880972000000.0,2.1159815788269043,3.8441832065582275,-1.7063710689544678,-6.1500773429870605,0.19966953992843628,0.28099802,-0.63407815,324.09128,176.61243000000002,16.271162,SDL
3880977000000.0,2.120993137359619,3.7452166080474854,-2.1277973651885986,-6.466721534729004,0.11123914271593094,0.5323690999999999,-0.7629706999999999,324.04602,176.6652,16.402179999999998,SDL
3880982000000.0,2.126004934310913,3.6192779541015625,-2.5677638053894043,-6.807622909545898,0.024428749457001686,0.70463306,-0.89675015,324.0211,176.6052,16.474771,SDL
3880987000000.0,2.131016254425049,3.4661753177642822,-3.016375780105591,-7.155063152313232,-0.0586179718375206,0.7470882,-1.0244209999999998,323.96255,176.56981000000002,16.585112,SDL
3880991900000.0,2.13602352142334,3.3021559715270996,-3.4613051414489746,-7.501375675201416,-0.13398343324661255,0.61819565,-1.1355985,323.91718,176.41362,16.540632000000002,SDL
3880997000000.0,2.14106822013855,3.149158000946045,-3.8865132331848145,-7.837497711181641,-0.19737283885478973,0.29138273,-1.1869112,323.84467,176.25392,16.460482,SDL
3881002000000.0,2.1460702419281006,3.017282009124756,-4.2780914306640625,-8.158499717712402,-0.244297057390213,-0.13683382,-1.1646146000000002,323.77765,175.97731000000002,16.19581,SDL
3881007000000.0,2.1510753631591797,2.927541494369507,-4.611453056335449,-8.459904670715332,-0.27306175231933594,-0.58459806,-1.1200215,323.68503,175.66518,15.85021,SDL
3881012000000.0,2.1560773849487305,2.87953519821167,-4.884531497955322,-8.742764472961426,-0.2865716814994812,-0.9416488000000002,-1.0500773,323.58624,175.30081,15.419813000000001,SDL
3881017000000.0,2.1610825061798096,2.879066228866577,-5.083247184753418,-9.007875442504883,-0.2895626723766327,-1.1643091,-0.9251554,323.49747,174.88558999999998,14.919181,SDL
3881022000000.0,2.1660852432250977,2.9188625812530518,-5.21014404296875,-9.254977226257324,-0.2868436872959137,-1.1701124,-0.7257079000000001,323.4125,174.5279,14.501192999999999,SDL
3881027000000.0,2.171092987060547,2.9758718013763428,-5.252382755279541,-9.477703094482422,-0.280281662940979,-0.98440933,-0.49663344,323.36526000000003,174.12964,14.087257999999999,SDL
3881032000000.0,2.176098108291626,3.0385324954986572,-5.218542098999023,-9.67884349822998,-0.27278342843055725,-0.6462954000000001,-0.35918877,323.30273,173.88376,13.852673999999999,SDL
3881037000000.0,2.1811039447784424,3.083580255508423,-5.116121292114258,-9.862128257751465,-0.2674427330493927,-0.21838433,-0.28130344,323.29764,173.62955,13.699732000000001,SDL
3881042000000.0,2.1861093044281006,3.1107492446899414,-4.950052738189697,-10.027545928955078,-0.26451900601387024,0.25809056,-0.26236662,323.28394,173.55435,13.717443,SDL
3881047000000.0,2.191115617752075,3.1164536476135254,-4.726358890533447,-10.172533988952637,-0.26326489448547363,0.69913524,-0.28893927,323.29327,173.48602,13.844678,SDL
3881052000000.0,2.196117401123047,3.1055777072906494,-4.450076580047607,-10.29606819152832,-0.26103585958480835,1.0149527,-0.32070425,323.2906,173.63109,14.046702999999999,SDL
3881056900000.0,2.201120376586914,3.099364995956421,-4.126495361328125,-10.384432792663574,-0.2564677298069,1.0906999,-0.3155119,323.29092,173.7699,14.295098999999999,SDL
3881061800000.0,2.206122875213623,3.0990512371063232,-3.764040470123291,-10.443262100219727,-0.2508571445941925,1.1126909999999999,-0.29962940000000005,323.21054,174.05383,14.545886999999999,SDL
3881067000000.0,2.2111477851867676,3.1154258251190186,-3.3989510536193848,-10.497288703918457,-0.24229009449481964,0.91721416,-0.26939157,323.12417999999997,174.30336,14.747945000000001,SDL
3881072000000.0,2.2161481380462646,3.144949436187744,-3.0433549880981445,-10.55094051361084,-0.22312727570533752,0.8533788,-0.26175576,322.9772,174.63416,15.017079999999998,SDL
3881077000000.0,2.22114896774292,3.188157796859741,-2.747748613357544,-10.628303527832031,-0.20107914507389069,0.72204274,-0.2574797,322.82272,174.97136,15.205410999999998,SDL
3881082000000.0,2.2261505126953125,3.245974063873291,-2.5105414390563965,-10.724751472473145,-0.17060238122940063,0.61666846,-0.24281894,322.63797,175.26598,15.4082155,SDL
3881087000000.0,2.231154441833496,3.324193000793457,-2.334920883178711,-10.825699806213379,-0.13129974901676178,0.48716503,-0.22510384,322.44614,175.52553999999998,15.563285999999998,SDL
3881092000000.0,2.2361555099487305,3.4222941398620605,-2.2137396335601807,-10.927045822143555,-0.08367416262626648,0.31673363,-0.18784106,322.29062000000005,175.64588999999998,15.682673000000001,SDL
3881097000000.0,2.241157293319702,3.5469086170196533,-2.1223104000091553,-11.001233100891113,-0.030659601092338562,0.09987647,-0.12644911,322.1422,175.71815,15.749163000000001,SDL
3881102000000.0,2.24615740776062,3.6912107467651367,-2.059957504272461,-11.047989845275879,0.023126957938075066,-0.10262536,-0.073303826,322.03726,175.67053,15.798027,SDL
3881107000000.0,2.2511582374572754,3.815032958984375,-2.0337607860565186,-11.0540771484375,0.07460051774978638,-0.22204952,-0.040317107000000005,321.94232,175.59695,15.8076,SDL
3881112000000.0,2.256157636642456,3.919576406478882,-2.0415120124816895,-11.021988868713379,0.12271236628293991,-0.26022860000000003,-0.018325957,321.86963,175.43164,15.886184,SDL
3881117000000.0,2.2611584663391113,3.9992659091949463,-2.072352647781372,-10.956771850585938,0.16785326600074768,-0.3155119,-0.0070249503,321.80005,175.26608000000002,15.924179999999998,SDL
3881122000000.0,2.266158103942871,4.047269344329834,-2.1127195358276367,-10.864920616149902,0.20918862521648407,-0.43585235,0.009162978,321.7357,175.11196999999999,15.931270000000001,SDL
3881126900000.0,2.271160840988159,4.064066410064697,-2.159205913543701,-10.747832298278809,0.24641667306423187,-0.5882632,0.018020526000000002,321.72025,174.83258,15.914511,SDL
3881131800000.0,2.2761662006378174,4.049935817718506,-2.2056946754455566,-10.60777759552002,0.2770705223083496,-0.7626653,0.0076358155,321.69882,174.58012,15.85842,SDL
3881136800000.0,2.2811715602874756,4.011924743652344,-2.2492825984954834,-10.457554817199707,0.30164700746536255,-0.91874135,-0.0076358155,321.69797,174.29793999999998,15.720009,SDL
3881141800000.0,2.286172389984131,3.9569053649902344,-2.2871885299682617,-10.309515953063965,0.32022589445114136,-0.91782504,-0.0033597588,321.6983,174.0444,15.579845,SDL
3881146800000.0,2.291171073913574,3.8860082626342773,-2.318264961242676,-10.16239070892334,0.33394062519073486,-0.7959574,-0.008552114,321.70605,173.7956,15.387920000000001,SDL
3881151800000.0,2.2961719036102295,3.8010482788085938,-2.337804079055786,-10.012126922607422,0.34502002596855164,-0.6704246,-0.020463986,321.71295,173.56415,15.201723999999999,SDL
3881156700000.0,2.30116868019104,3.70355486869812,-2.3458046913146973,-9.86190414428711,0.35314875841140747,-0.61758476,-0.028099801,321.72974,173.36874,14.981159,SDL
3881161700000.0,2.3061697483062744,3.5943217277526855,-2.3408727645874023,-9.716821670532227,0.3594932556152344,-0.52931476,-0.06994407,321.73895,173.18421999999998,14.811287,SDL
3881166700000.0,2.311166524887085,3.477382183074951,-2.3245325088500977,-9.582625389099121,0.3620814085006714,-0.4728097,-0.11209377,321.74622,173.05217,14.609488,SDL
3881172000000.0,2.316166639328003,3.3581111431121826,-2.2978827953338623,-9.469853401184082,0.3595670461654663,-0.4111123,-0.17623462,321.73938,172.94206,14.439528,SDL
3881177000000.0,2.3211662769317627,3.2384533882141113,-2.2619869709014893,-9.37816333770752,0.3532150089740753,-0.32498032,-0.21777347,321.73495,172.90277,14.245919,SDL
3881182000000.0,2.326167106628418,3.1257097721099854,-2.2188711166381836,-9.310699462890625,0.34461337327957153,-0.226631,-0.24648413,321.72064,172.88596,14.078824,SDL
3881187000000.0,2.3311707973480225,3.020249366760254,-2.1702237129211426,-9.264593124389648,0.334321528673172,-0.112704635,-0.26816985,321.70908,172.97438,13.895016,SDL
3881191900000.0,2.3361711502075195,2.9233734607696533,-2.119722604751587,-9.234282493591309,0.3228527903556824,-0.0033597588,-0.28191432,321.69742,173.0708,13.743982,SDL
3881196800000.0,2.341172218322754,2.834501028060913,-2.068397283554077,-9.21779727935791,0.310725599527359,0.06169739,-0.30115658,321.6781,173.2142,13.605882000000001,SDL
3881201800000.0,2.3461720943450928,2.752681016921997,-2.0193440914154053,-9.210296630859375,0.2985936105251312,0.08704830000000001,-0.31581733,321.65976,173.35683999999998,13.492393,SDL
3881207000000.0,2.3511803150177,2.677456855773926,-1.9723981618881226,-9.211393356323242,0.2862454652786255,0.110872045,-0.32131509999999996,321.6122,173.49307,13.388739000000001,SDL
3881212000000.0,2.35618257522583,2.6065049171447754,-1.9271641969680786,-9.217960357666016,0.27463677525520325,0.112704635,-0.3277292,321.56167999999997,173.62265,13.29098,SDL
3881217000000.0,2.361182928085327,2.539444923400879,-1.883471965789795,-9.229109764099121,0.26366302371025085,0.099571034,-0.32589662,321.51132,173.74979,13.204197,SDL
3881222000000.0,2.3661816120147705,2.4752092361450195,-1.840859055519104,-9.240914344787598,0.2529810965061188,0.0842994,-0.33536503,321.45706,173.87372,13.121602,SDL
3881227000000.0,2.3711814880371094,2.413668632507324,-1.7985764741897583,-9.25270938873291,0.24239639937877655,0.06627888,-0.33414328,321.40536000000003,173.98836,13.038546,SDL
3881232000000.0,2.376183032989502,2.354891777038574,-1.7515803575515747,-9.259747505187988,0.23126892745494843,0.062002823,-0.33750305,321.35095,174.10381999999998,12.959109,SDL
3881237000000.0,2.3811838626861572,2.299086809158325,-1.6996279954910278,-9.263099670410156,0.22008338570594788,0.048563786,-0.34300083,321.29623,174.21756000000002,12.873331,SDL
3881242000000.0,2.386183500289917,2.2483644485473633,-1.63943350315094,-9.268031120300293,0.20742672681808472,0.033292156,-0.34941490000000003,321.24155,174.3399,12.789477,SDL
3881247000000.0,2.391188144683838,2.202503204345703,-1.571177363395691,-9.274497985839844,0.19417494535446167,0.00580322,-0.35857790000000006,321.17395,174.46623,12.705713000000001,SDL
3881252200000.0,2.3962197303771973,2.161418914794922,-1.4943759441375732,-9.282564163208008,0.1807992309331894,0.0027488936,-0.37507126,321.10406,174.59698,12.628345,SDL
3881257100000.0,2.401217222213745,2.1243834495544434,-1.411957025527954,-9.291749954223633,0.16800613701343536,-0.011301007,-0.38484509999999994,321.02493,174.71646,12.53888,SDL
3881262000000.0,2.406217336654663,2.0935208797454834,-1.3199272155761719,-9.306239128112793,0.15591110289096832,-0.004886922,-0.39278635,320.94376,174.83597,12.458445,SDL
3881267000000.0,2.4112114906311035,2.0688908100128174,-1.2185289859771729,-9.326582908630371,0.14463968575000763,-0.0033597588,-0.41233405,320.8576,174.9523,12.376797999999999,SDL
3881272000000.0,2.4162092208862305,2.0511646270751953,-1.1100001335144043,-9.350364685058594,0.1343921720981598,0.0061086523,-0.42394048,320.73572,175.11366,12.322689,SDL
3881277000000.0,2.421204090118408,2.0400259494781494,-0.995478630065918,-9.376805305480957,0.12529303133487701,0.02107485,-0.4334089,320.61047,175.26908999999998,12.274135000000001,SDL
3881282000000.0,2.4262030124664307,2.035245656967163,-0.8759896159172058,-9.406998634338379,0.11734618991613388,0.047036625,-0.43310347,320.46536000000003,175.45383999999999,12.24911,SDL
3881287000000.0,2.4312078952789307,2.036527395248413,-0.752011239528656,-9.441137313842773,0.11009956896305084,0.07880162,-0.41844269999999995,320.32336000000004,175.63159,12.232377,SDL
3881292000000.0,2.4362094402313232,2.0435218811035156,-0.6273701786994934,-9.480025291442871,0.10361351817846298,0.1160644,-0.39920044,320.15533,175.82376000000002,12.241228999999999,SDL
3881297000000.0,2.4412059783935547,2.055936336517334,-0.5033469796180725,-9.523792266845703,0.09884042292833328,0.1685988,-0.37904188,319.99356,176.00298,12.264796,SDL
3881302000000.0,2.4462063312530518,2.0722994804382324,-0.3855776786804199,-9.573376655578613,0.09575410932302475,0.22510384,-0.35399640000000004,319.8128,176.20192,12.309683999999999,SDL
3881307000000.0,2.451204538345337,2.091193437576294,-0.2784595787525177,-9.629068374633789,0.09374380111694336,0.27458394,-0.33108896,319.63833999999997,176.39014,12.36786,SDL
3881312000000.0,2.456202268600464,2.1093733310699463,-0.18331950902938843,-9.685677528381348,0.09312654286623001,0.32162055,-0.30604348,319.45795,176.58163000000002,12.456391,SDL
3881317000000.0,2.4612009525299072,2.12325119972229,-0.10171053558588028,-9.737475395202637,0.09423502534627914,0.3576616,-0.29657507,319.2798,176.76097,12.554946000000001,SDL
3881322200000.0,2.4662318229675293,2.132063388824463,-0.035711079835891724,-9.78209400177002,0.09578903019428253,0.37384954,-0.28893927,319.10098,176.92616,12.648388,SDL
3881327100000.0,2.4712283611297607,2.1365914344787598,0.016674039885401726,-9.819173812866211,0.09768342971801758,0.3857614,-0.2864958,318.92357999999996,177.07903000000002,12.749647,SDL
3881332000000.0,2.4762253761291504,2.1375086307525635,0.05621812492609024,-9.848702430725098,0.09947686642408371,0.37751472,-0.2883284,318.76205,177.20628,12.836910000000001,SDL
3881337000000.0,2.481227159500122,2.1360690593719482,0.08511549979448318,-9.871349334716797,0.10119100660085678,0.34147367,-0.29626966,318.59906,177.32896000000002,12.918472,SDL
3881342000000.0,2.4862232208251953,2.132817506790161,0.1052282527089119,-9.88791561126709,0.10269985347986221,0.28893927,-0.30085114,318.4492,177.40791000000002,12.97932,SDL
3881347000000.0,2.4912233352661133,2.128974676132202,0.12025429308414459,-9.899393081665039,0.10494215786457062,0.23854288,-0.30665436,318.29663,177.48146,13.030084,SDL
3881352000000.0,2.4962241649627686,2.1245803833007812,0.13050982356071472,-9.906099319458008,0.10699985176324844,0.20891592,-0.31429017,318.15823,177.53568,13.063961,SDL
3881357000000.0,2.501220226287842,2.120203971862793,0.13669365644454956,-9.90661907196045,0.1088990569114685,0.15699236,-0.30970868,318.0218,177.58473,13.077408,SDL
3881362000000.0,2.5062172412872314,2.1163322925567627,0.13928933441638947,-9.899507522583008,0.11004595458507538,0.10415252,-0.30634892,317.8835,177.6374,13.082906,SDL
3881367000000.0,2.5112149715423584,2.11340594291687,0.1407022476196289,-9.88565444946289,0.11134333163499832,0.06780604,-0.30390546,317.7553,177.67172,13.0771675,SDL
3881372000000.0,2.516211986541748,2.111642599105835,0.14229165017604828,-9.865741729736328,0.1120995283126831,0.032375857,-0.29871312,317.62973,177.7123,13.057939999999999,SDL
3881377000000.0,2.5212085247039795,2.110518455505371,0.14509160816669464,-9.841378211975098,0.11156206578016281,0.013439035,-0.29779682,317.50656000000004,177.7414,13.041925,SDL
3881382000000.0,2.526207447052002,2.1097028255462646,0.14973098039627075,-9.813590049743652,0.10981617122888565,0.003970624,-0.29932398,317.3854,177.77275,13.020092,SDL
3881387000000.0,2.5312070846557617,2.109311103820801,0.15649555623531342,-9.782468795776367,0.10700763016939163,0.016798794,-0.28313604,317.268,177.81017,13.007306,SDL
3881392100000.0,2.5362343788146973,2.1094813346862793,0.16587597131729126,-9.747594833374023,0.10338839888572693,0.016798794,-0.27977628,317.14758,177.85362,12.989872,SDL
3881397000000.0,2.541231393814087,2.110455274581909,0.17772379517555237,-9.710299491882324,0.09846452623605728,0.025961772999999997,-0.2843578,317.02643,177.91019,12.984453,SDL
3881402000000.0,2.5462300777435303,2.1126914024353027,0.19288209080696106,-9.67026138305664,0.0924520418047905,0.047036625,-0.27488935,316.91168,177.96915,12.98349,SDL
3881407000000.0,2.5512280464172363,2.1157076358795166,0.2096678614616394,-9.630328178405762,0.08508341759443283,0.058337633,-0.26206118,316.7912,178.03409,12.996839999999999,SDL
3881412000000.0,2.556226968765259,2.119079828262329,0.22659239172935486,-9.593039512634277,0.07722850888967514,0.0983493,-0.25686884,316.67264,178.10093999999998,13.024988,SDL
3881417000000.0,2.5612244606018066,2.1216092109680176,0.24271005392074585,-9.558496475219727,0.06821330636739731,0.12217305,-0.25534168,316.54834,178.18889,13.059967,SDL
3881422000000.0,2.566220760345459,2.1222925186157227,0.2572353482246399,-9.526771545410156,0.05912511795759201,0.1554652,-0.25167647,316.4272,178.27428,13.108967999999999,SDL
3881427000000.0,2.5712177753448486,2.1215388774871826,0.2711310386657715,-9.497617721557617,0.0492841862142086,0.16920967,-0.25625798,316.30145,178.36879,13.163195000000002,SDL
3881432000000.0,2.5762176513671875,2.119819402694702,0.28554344177246094,-9.470771789550781,0.03886084631085396,0.19058995,-0.25350907,316.17953,178.46338,13.228357999999998,SDL
3881437000000.0,2.581218719482422,2.117811679840088,0.30035194754600525,-9.446118354797363,0.028179125860333443,0.20983220000000002,-0.25381452,316.05962999999997,178.55888000000002,13.290576999999999,SDL
3881442000000.0,2.586217164993286,2.1164238452911377,0.3153969943523407,-9.423547744750977,0.017057469114661217,0.2284636,-0.23823744,315.9455,178.6583,13.357776000000001,SDL
3881447000000.0,2.5912129878997803,2.115617036819458,0.3305487036705017,-9.403046607971191,0.005730926524847746,0.23579398,-0.23884831,315.8191,178.76163,13.417757,SDL
3881452000000.0,2.5962109565734863,2.1153604984283447,0.3456537425518036,-9.384652137756348,-0.006619729101657867,0.25961772,-0.23640485,315.69855,178.8715,13.486838,SDL
3881457000000.0,2.6012065410614014,2.116797924041748,0.3602103888988495,-9.3682861328125,-0.01906094327569008,0.28160888,-0.22907446,315.57666,178.97983,13.558879000000001,SDL
3881462000000.0,2.6062088012695312,2.121772527694702,0.37347501516342163,-9.35395336151123,-0.03165299817919731,0.310625,-0.22052236,315.45602,179.09464,13.638615,SDL
3881466900000.0,2.611203193664551,2.129906177520752,0.385543555021286,-9.341485023498535,-0.044078584760427475,0.32711834,-0.20372356,315.3382,179.2107,13.720804000000001,SDL
3881471800000.0,2.6162009239196777,2.1411750316619873,0.39645910263061523,-9.330828666687012,-0.05654190480709076,0.34238997,-0.20433442,315.21768,179.33035,13.809431,SDL
3881476800000.0,2.621197462081909,2.158705949783325,0.40526440739631653,-9.321880340576172,-0.06855262070894241,0.35979962,-0.19333886,315.11023,179.44652,13.906032000000002,SDL
3881481800000.0,2.6261978149414062,2.188828468322754,0.4100410044193268,-9.314596176147461,-0.0807534009218216,0.3622431,-0.18325958,315.00195,179.56732,14.000779000000001,SDL
3881486800000.0,2.631199836730957,2.22941517829895,0.41122403740882874,-9.309240341186523,-0.09287367761135101,0.36682457,-0.183565,314.88687000000004,179.68368999999998,14.117491000000001,SDL
3881491800000.0,2.6361989974975586,2.2736032009124756,0.4099422097206116,-9.307291984558105,-0.10478751361370087,0.36346483,-0.18081611,314.7752,179.80058,14.229973000000001,SDL
3881496700000.0,2.6411995887756348,2.3212008476257324,0.4063173234462738,-9.308536529541016,-0.11692912876605988,0.36438109999999996,-0.16523905,314.65502999999995,179.9175,14.375767999999999,SDL
3881501700000.0,2.6461989879608154,2.370798349380493,0.4008694291114807,-9.311731338500977,-0.12843996286392212,0.37384954,-0.16096300000000002,314.532,-179.96918,14.519533,SDL
3881507000000.0,2.6512045860290527,2.4222187995910645,0.3937442898750305,-9.316723823547363,-0.13974428176879883,0.38026363,-0.14080444,314.41592,-179.85751000000002,14.670827,SDL
3881512000000.0,2.656203508377075,2.4728825092315674,0.3863376975059509,-9.322111129760742,-0.15091821551322937,0.38453966,-0.13622294,314.2963,-179.74661,14.820341,SDL
3881517000000.0,2.661198616027832,2.5228517055511475,0.3786573112010956,-9.327879905700684,-0.16113854944705963,0.37965274,-0.13713925,314.17944,-179.64412,14.974038,SDL
3881522000000.0,2.666198492050171,2.5715932846069336,0.3722246289253235,-9.333885192871094,-0.17105837166309357,0.38728857,-0.13316862,314.06516,-179.53867,15.12845,SDL
3881527000000.0,2.6711959838867188,2.618967294692993,0.3673647940158844,-9.340063095092773,-0.1804332733154297,0.38698313,-0.13164146,313.94977,-179.43798999999999,15.275255,SDL
3881531900000.0,2.6761958599090576,2.6647074222564697,0.36606648564338684,-9.346787452697754,-0.18904811143875122,0.38912117,-0.12064589,313.8341,-179.33923000000001,15.421682999999998,SDL
3881536800000.0,2.681195020675659,2.7087607383728027,0.36884206533432007,-9.354154586791992,-0.1968131959438324,0.40103304,-0.11362094,313.71768,-179.24284,15.567054,SDL
3881541800000.0,2.6861939430236816,2.749788999557495,0.37464529275894165,-9.361066818237305,-0.20424583554267883,0.40103304,-0.11056661,313.59888,-179.14081000000002,15.707241,SDL
3881546800000.0,2.691192388534546,2.78735089302063,0.38295477628707886,-9.367098808288574,-0.21124981343746185,0.41141775,-0.10079276599999999,313.48407000000003,-179.0442,15.850162,SDL
3881551800000.0,2.6961913108825684,2.823251962661743,0.39323940873146057,-9.371414184570312,-0.21788053214550018,0.41050145,-0.10598512,313.35004,-178.93752,15.984044,SDL
3881556800000.0,2.701190233230591,2.858238935470581,0.4052238464355469,-9.373751640319824,-0.2241578847169876,0.4111123,-0.09865474,313.22275,-178.83461,16.11802,SDL
3881561800000.0,2.7061879634857178,2.8928909301757812,0.4179983139038086,-9.375214576721191,-0.22941705584526062,0.42210788,-0.089491755,313.09033,-178.72722,16.248875,SDL
3881566700000.0,2.7111868858337402,2.9275081157684326,0.4311273992061615,-9.376340866088867,-0.23441222310066223,0.41935900000000004,-0.08307768,312.9596,-178.61862,16.372913,SDL
3881571700000.0,2.7161858081817627,2.9630775451660156,0.4435582756996155,-9.3765287399292,-0.23879936337471008,0.42424592,-0.07788532,312.82965,-178.50482,16.505497000000002,SDL
3881577000000.0,2.7212233543395996,3.0004639625549316,0.45479634404182434,-9.375380516052246,-0.24235042929649353,0.42088616,-0.0720821,312.702,-178.39505,16.631823,SDL
3881582000000.0,2.726222515106201,3.0390138626098633,0.46454280614852905,-9.37366008758545,-0.24538670480251312,0.4156938,-0.06566802,312.57153,-178.2844,16.760946,SDL
3881587000000.0,2.7312231063842773,3.079488754272461,0.4723037779331207,-9.371612548828125,-0.2482774406671524,0.40530908,-0.058643065,312.4432,-178.17763,16.884539999999998,SDL
3881592000000.0,2.73622989654541,3.121938705444336,0.47802889347076416,-9.369312286376953,-0.2503793239593506,0.39645153,-0.05955936,312.31073,-178.0768,17.013128,SDL
3881597000000.0,2.741229295730591,3.1669974327087402,0.4803490936756134,-9.36757755279541,-0.2515878677368164,0.3924809,-0.058948494000000004,312.1811,-177.9792,17.137096,SDL
3881601900000.0,2.746222734451294,3.2145400047302246,0.4794369339942932,-9.366378784179688,-0.2529924511909485,0.37262779999999995,-0.055588737,312.057,-177.88095,17.266448999999998,SDL
3881606800000.0,2.7512221336364746,3.263772964477539,0.4745534658432007,-9.366907119750977,-0.2538338601589203,0.34697145,-0.047647487,311.93484,-177.79256,17.389711,SDL
3881611800000.0,2.7562179565429688,3.314230442047119,0.46584150195121765,-9.369331359863281,-0.2544839084148407,0.32986724,-0.03573562,311.81537000000003,-177.70332,17.506742000000003,SDL
3881616800000.0,2.7612156867980957,3.365536689758301,0.4543166160583496,-9.372557640075684,-0.25496912002563477,0.30665436,-0.029932396,311.69867,-177.6251,17.622625,SDL
3881621800000.0,2.7662134170532227,3.4174532890319824,0.44053906202316284,-9.376089096069336,-0.2555098533630371,0.28221974,-0.030848695,311.58423,-177.5483,17.730356,SDL
3881627000000.0,2.771214723587036,3.4679043292999268,0.42516934871673584,-9.379332542419434,-0.25522416830062866,0.2452624,-0.02107485,311.49207,-177.48838999999998,17.840094,SDL
3881632000000.0,2.776214361190796,3.515401601791382,0.40876320004463196,-9.38187313079834,-0.2546607255935669,0.22479841,-0.022602014,311.3967,-177.42549,17.94443,SDL
3881637000000.0,2.7812154293060303,3.5596256256103516,0.3935697376728058,-9.384258270263672,-0.2541435956954956,0.20372356,-0.019547688,311.31512000000004,-177.37296,18.046612,SDL
3881642000000.0,2.7862138748168945,3.6005191802978516,0.3806461989879608,-9.386759757995605,-0.25334474444389343,0.19303341,-0.025045475,311.23096,-177.32343999999998,18.143059,SDL
3881647200000.0,2.7912471294403076,3.6381101608276367,0.37133240699768066,-9.388702392578125,-0.2525721788406372,0.18631389999999998,-0.022602014,311.15305,-177.27449,18.226578,SDL
3881652200000.0,2.7962429523468018,3.672830581665039,0.3653334975242615,-9.389891624450684,-0.2513361871242523,0.1777618,-0.021380282999999996,311.07372999999995,-177.22975,18.30433,SDL
3881657200000.0,2.8012380599975586,3.7057836055755615,0.36158832907676697,-9.390804290771484,-0.24972659349441528,0.17592919,-0.01863139,310.9939,-177.18231,18.378447,SDL
3881662200000.0,2.8062336444854736,3.7380237579345703,0.35882511734962463,-9.391928672790527,-0.2476005107164383,0.18387043,-0.01740966,310.9145,-177.13898999999998,18.45114,SDL
3881667100000.0,2.8112306594848633,3.7697200775146484,0.3568354845046997,-9.392959594726562,-0.24490408599376678,0.17287487,-0.017715093,310.84308,-177.08762,18.527632,SDL
3881672000000.0,2.8162271976470947,3.8009889125823975,0.3554565906524658,-9.393683433532715,-0.24189560115337372,0.16279559,-0.008246681,310.7751,-177.04007,18.604733,SDL
3881677000000.0,2.8212246894836426,3.8312909603118896,0.35430818796157837,-9.393027305603027,-0.23824985325336456,0.15210545,-0.00580322,310.7076,-176.99239,18.681976000000002,SDL
3881682000000.0,2.826225996017456,3.8602263927459717,0.3530969023704529,-9.390172958374023,-0.23395197093486786,0.15851954,-0.0036651915999999997,310.64297,-176.94898999999998,18.759396,SDL
3881687000000.0,2.8312251567840576,3.88786244392395,0.35182884335517883,-9.385286331176758,-0.22919948399066925,0.13927728,0.00030543262000000003,310.58383,-176.90243999999998,18.830479,SDL
3881692000000.0,2.8362245559692383,3.9142706394195557,0.35050588846206665,-9.378456115722656,-0.224277064204216,0.13469578,0.0009162978999999999,310.5241,-176.85957,18.905535,SDL
3881697000000.0,2.841226816177368,3.9397149085998535,0.34937581419944763,-9.369964599609375,-0.21914492547512054,0.12858713,0.00030543262000000003,310.46576,-176.82138,18.972885,SDL
3881702000000.0,2.846223831176758,3.9645204544067383,0.3487841486930847,-9.360252380371094,-0.2129841148853302,0.13072516,0.006414085,310.40972999999997,-176.79088000000002,19.03969,SDL
3881707000000.0,2.8512203693389893,3.9884448051452637,0.3481796383857727,-9.34953498840332,-0.207542285323143,0.13072516,0.0012217305,310.36368,-176.75761,19.126009,SDL
3881712000000.0,2.8562185764312744,4.010822296142578,0.3462478220462799,-9.338300704956055,-0.20183703303337097,0.14263703,0.0070249503,310.32232999999997,-176.73753,19.214285,SDL
3881717200000.0,2.861239194869995,4.031543254852295,0.34288880228996277,-9.326963424682617,-0.1969892531633377,0.14385876,0.006414085,310.27443999999997,-176.70668,19.300482000000002,SDL
3881722200000.0,2.8662350177764893,4.050596237182617,0.3383561372756958,-9.316117286682129,-0.19217194616794586,0.14905111,0.004581489,310.22745,-176.68317,19.3889,SDL
3881727200000.0,2.8712308406829834,4.068016052246094,0.332581490278244,-9.30572509765625,-0.1873020976781845,0.15149458,0.004581489,310.211566779153,-176.66877879393002,19.436325111821102,SDL
3881732100000.0,2.876227855682373,4.083886623382568,0.32562509179115295,-9.29576301574707,-0.18259410560131073,0.15210545,-0.00061086525,310.19562,-176.65433000000002,19.48394,SDL
3881737000000.0,2.8812263011932373,4.0983428955078125,0.3181528151035309,-9.286426544189453,-0.17812074720859528,0.1563815,-0.01038471,310.16122,-176.62444,19.578037,SDL
3881742000000.0,2.8862290382385254,4.111588478088379,0.31173890829086304,-9.278247833251953,-0.17362534999847412,0.14996742,-0.0015271631,310.1306,-176.59944,19.667599,SDL
3881747000000.0,2.891226291656494,4.123703479766846,0.3063036799430847,-9.27114200592041,-0.16935324668884277,0.14508049,-0.005192355,310.10516,-176.57701,19.753801,SDL
3881752000000.0,2.896223545074463,4.134215831756592,0.301439106464386,-9.265388488769531,-0.16498327255249023,0.14477506,-0.015271631,310.08002,-176.55786,19.837077999999998,SDL
3881757000000.0,2.9012186527252197,4.14317512512207,0.29708200693130493,-9.260934829711914,-0.16034157574176788,0.1432479,-0.015271631,310.05646,-176.5405,19.916404999999997,SDL
3881762000000.0,2.906217098236084,4.151973724365234,0.29343003034591675,-9.257174491882324,-0.15628907084465027,0.13194689,-0.030543262,310.02426,-176.5166,19.988739000000002,SDL
3881767000000.0,2.9112112522125244,4.160793304443359,0.29046231508255005,-9.253981590270996,-0.15207816660404205,0.12950343,-0.032070424,309.9958,-176.50034,20.061317000000003,SDL
3881772000000.0,2.916208505630493,4.1696457862854,0.28815585374832153,-9.251336097717285,-0.14825443923473358,0.11942416,-0.031154128,309.96985,-176.47958,20.129177,SDL
3881777000000.0,2.921204090118408,4.178520679473877,0.2864666283130646,-9.249202728271484,-0.14442288875579834,0.12308934,-0.034208454,309.9417,-176.46219,20.198211999999998,SDL
3881782000000.0,2.9262025356292725,4.187217712402344,0.28516262769699097,-9.247084617614746,-0.14056764543056488,0.11789699,-0.034513887,309.9148,-176.44461,20.260096,SDL
3881787200000.0,2.931213617324829,4.195695400238037,0.2841719686985016,-9.24483585357666,-0.13695041835308075,0.09712757,-0.029932396,309.8885,-176.4271,20.316832,SDL
3881792200000.0,2.9362125396728516,4.202996253967285,0.284126877784729,-9.24294662475586,-0.13302136957645416,0.09162979,-0.024740042,309.8628,-176.40921,20.380085,SDL
3881797200000.0,2.9412097930908203,4.208559513092041,0.2854331433773041,-9.241697311401367,-0.1289273202419281,0.09040806,-0.027488936000000002,309.8362,-176.39043999999998,20.436927999999998,SDL
3881802100000.0,2.9462077617645264,4.212561130523682,0.28819581866264343,-9.240498542785645,-0.1250840127468109,0.09193522,-0.021685716,309.81577000000004,-176.37125,20.494787,SDL
3881807000000.0,2.951206684112549,4.215122699737549,0.2924061417579651,-9.239117622375488,-0.12123391777276993,0.09162979,-0.022602014,309.7923,-176.35442,20.550003,SDL
3881812000000.0,2.9562058448791504,4.216324329376221,0.29798251390457153,-9.237565994262695,-0.1172146275639534,0.09285152,-0.023823743999999997,309.76904,-176.33638,20.601933,SDL
3881817000000.0,2.9612040519714355,4.216242790222168,0.30484703183174133,-9.23585319519043,-0.1139955222606659,0.08735373,-0.019242255,309.74725,-176.31531999999999,20.650524,SDL
3881822000000.0,2.9662013053894043,4.2152180671691895,0.3122061491012573,-9.233990669250488,-0.1102806031703949,0.08246681,-0.02321288,309.72864,-176.2992,20.703039999999998,SDL
3881827000000.0,2.971200466156006,4.213526248931885,0.3194136321544647,-9.231986999511719,-0.10627534240484238,0.09040806,-0.02321288,309.71222,-176.2805,20.756315,SDL
3881832000000.0,2.976196527481079,4.211199760437012,0.3265782296657562,-9.229848861694336,-0.10285791009664536,0.07971791,-0.02321288,309.68987999999996,-176.25291,20.797714000000003,SDL
3881837000000.0,2.9811959266662598,4.208230972290039,0.33387187123298645,-9.227568626403809,-0.09954121708869934,0.0693332,-0.026267206,309.6663,-176.2302,20.840135999999998,SDL
3881842000000.0,2.9861972332000732,4.204568386077881,0.34157031774520874,-9.225448608398438,-0.09636872261762619,0.06719518,-0.032375857,309.63892000000004,-176.20888,20.878801,SDL
3881847000000.0,2.991196870803833,4.20012092590332,0.3500833511352539,-9.223931312561035,-0.09279559552669525,0.059864793,-0.032070424,309.61287999999996,-176.19136,20.912146,LYI
3881852000000.0,2.9961917400360107,4.194943428039551,0.3593520224094391,-9.222978591918945,-0.08944544196128845,0.05131268,-0.029932396,309.5852,-176.1698,20.942324,LYI
3881857000000.0,3.001190423965454,4.189042568206787,0.3693757653236389,-9.222576141357422,-0.08648543059825897,0.03848451,-0.03756821,309.55496,-176.14954,20.96825,LYI
3881862000000.0,3.0061862468719482,4.182376861572266,0.38029658794403076,-9.222295761108398,-0.08335762470960617,0.032986722999999996,-0.03848451,309.52752999999996,-176.13301,20.993358999999998,LYI
3881867000000.0,3.01118540763855,4.174604892730713,0.39282748103141785,-9.220812797546387,-0.08041278272867203,0.03848451,-0.032375857,309.50012000000004,-176.114,21.017431,LYI
3881871900000.0,3.016184091567993,4.165829658508301,0.40689027309417725,-9.21826171875,-0.07806436717510223,0.02443461,-0.03726278,309.46484,-176.08276,21.02325,LYI
3881876800000.0,3.021186590194702,4.156251430511475,0.4227449595928192,-9.215084075927734,-0.07569461315870285,0.023823743999999997,-0.03634648,309.43307000000004,-176.05624,21.034594,LYI
3881881800000.0,3.026184558868408,4.1460137367248535,0.44007670879364014,-9.211359977722168,-0.07353253662586212,0.017104227,-0.041233405,309.39453,-176.02018999999999,21.038773000000003,LYI
3881886800000.0,3.031184434890747,4.135875225067139,0.4571548402309418,-9.207387924194336,-0.07119268923997879,0.01985312,-0.044593163,309.35693,-175.98782,21.045607,LYI
3881891800000.0,3.0361862182617188,4.125830173492432,0.4739927649497986,-9.203180313110352,-0.06866826862096786,0.022296581,-0.04276056599999999,309.30975,-175.95813,21.050179,LYI
3881896800000.0,3.0411863327026367,4.1158881187438965,0.4907512664794922,-9.198934555053711,-0.06626210361719131,0.024740042,-0.03940081,309.2625,-175.92886000000001,21.055708,LYI
3881901800000.0,3.046182632446289,4.10605001449585,0.5074685215950012,-9.1947021484375,-0.0639190599322319,0.0290161,-0.04062254,309.21477999999996,-175.90164,21.062561,LYI
3881906700000.0,3.0511810779571533,4.096590518951416,0.5239155888557434,-9.19100570678711,-0.06191248819231987,0.032375857,-0.04428773,309.16525,-175.87485,21.07088,LYI
3881912000000.0,3.0561814308166504,4.087900638580322,0.5397515892982483,-9.188568115234375,-0.06011051684617996,0.04520403,-0.0421497,309.11728,-175.84984,21.083305,LYI
3881917000000.0,3.06118106842041,4.080175399780273,0.5541460514068604,-9.18729019165039,-0.05816041678190231,0.040011674,-0.040317107000000005,309.07428,-175.81909,21.095979999999997,LYI
3881922000000.0,3.0661795139312744,4.073615074157715,0.5662673711776733,-9.187085151672363,-0.055760812014341354,0.045814894,-0.04276056599999999,309.03036000000003,-175.78984,21.115166000000002,LYI
3881927000000.0,3.071180582046509,4.068434715270996,0.5766100287437439,-9.187232971191406,-0.05427040159702301,0.04184427,-0.03573562,308.99036,-175.7565,21.129913000000002,LYI
3881932000000.0,3.0761804580688477,4.064853191375732,0.5857400298118591,-9.186932563781738,-0.05289197713136673,0.03390302,-0.036957346,308.9474,-175.7291,21.144709,LYI
3881937000000.0,3.081181764602661,4.0626373291015625,0.5935711860656738,-9.186436653137207,-0.051131244748830795,0.022602014,-0.03634648,308.90894,-175.7043,21.154111999999998,LYI
3881941900000.0,3.086186647415161,4.060878276824951,0.5994040966033936,-9.186983108520508,-0.04918763041496277,0.017715093,-0.04153884,308.86874,-175.6783,21.162874,LYI
3881946800000.0,3.0911865234375,4.059540748596191,0.6033958196640015,-9.188484191894531,-0.04729876667261124,0.015271631,-0.035124752999999995,308.83252000000005,-175.65633,21.172985,LYI
3881951800000.0,3.0961856842041016,4.058608055114746,0.6056194305419922,-9.190905570983887,-0.04590122029185295,0.01740966,-0.03848451,308.7921,-175.63239,21.182651999999997,LYI
3881956800000.0,3.1011853218078613,4.0580596923828125,0.606162965297699,-9.194201469421387,-0.04475720599293709,0.005192355,-0.037873644,308.75568,-175.61119,21.187756,LYI
3881961800000.0,3.106184959411621,4.057097434997559,0.6064514517784119,-9.197163581848145,-0.04352766275405884,0.005192355,-0.042455133,308.74073558002203,-175.600696363727,21.192593285957397,LYI
3881966800000.0,3.1111841201782227,4.055168628692627,0.6074878573417664,-9.19895076751709,-0.04224970191717148,-0.0076358155,-0.028099801,308.72583,-175.59023,21.197418,LYI
3881972000000.0,3.116210460662842,4.052578926086426,0.6089605093002319,-9.200366973876953,-0.04125145450234413,-0.013744468000000001,-0.034513887,308.69165,-175.5649,21.205072,LYI
3881977000000.0,3.1212103366851807,4.049688816070557,0.6105740070343018,-9.201926231384277,-0.04042034596204758,-0.013133603,-0.04520403,308.66864,-175.5524,21.209032,LYI
3881982000000.0,3.126209259033203,4.045987606048584,0.6127021312713623,-9.203413009643555,-0.03898243606090546,-0.0125227375,-0.03970624,308.64487,-175.54027,21.206179000000002,LYI
3881987000000.0,3.1312084197998047,4.040964126586914,0.6157296895980835,-9.204566955566406,-0.038093201816082,-0.00580322,-0.036651913,308.6173,-175.52097,21.205235000000002,LYI
3881992000000.0,3.136209726333618,4.034922122955322,0.6194911003112793,-9.20557689666748,-0.03780478611588478,-0.0070249503,-0.025961772999999997,308.59448,-175.50578000000002,21.201523,LYI
3881997000000.0,3.141209840774536,4.028219699859619,0.6237888336181641,-9.206656455993652,-0.037515465170145035,-0.006414085,-0.028405233999999998,308.5687,-175.49039,21.200241000000002,LYI
3882002000000.0,3.1462056636810303,4.020904064178467,0.6285855770111084,-9.207799911499023,-0.03714389726519585,0.008552114,-0.016798794,308.55237,-175.47894,21.208012,LYI
3882007000000.0,3.1512115001678467,4.0129547119140625,0.6338944435119629,-9.209010124206543,-0.036710742861032486,0.007941248,-0.012217305,308.53372,-175.46678,21.211325,LYI
3882011900000.0,3.1562061309814453,4.004959583282471,0.6393001675605774,-9.210015296936035,-0.036626219749450684,0.019242255,-0.0125227375,308.5166,-175.454,21.22235,LYI
3882016800000.0,3.1612043380737305,3.9980263710021973,0.6440362930297852,-9.210204124450684,-0.03659503534436226,0.01985312,-0.0015271631,308.5047,-175.44484,21.230404,LYI
3882021800000.0,3.1661996841430664,3.9920833110809326,0.648147463798523,-9.209637641906738,-0.036646898835897446,0.020158553,-0.002443461,308.4879,-175.42983999999998,21.236985999999998,LYI
3882026800000.0,3.1711997985839844,3.987095832824707,0.6516562700271606,-9.208334922790527,-0.0371517650783062,0.030543262,-0.0021380284,308.4747,-175.4143,21.246809,LYI
3882031800000.0,3.176194906234741,3.982898235321045,0.6545367240905762,-9.20666790008545,-0.037743665277957916,0.030543262,0.0030543262,308.46299999999997,-175.40081999999998,21.25374,LYI
3882036800000.0,3.1811952590942383,3.9791579246520996,0.6565625667572021,-9.205674171447754,-0.038076139986515045,0.02687807,0.0036651915999999997,308.44992,-175.38669,21.26228,LYI
3882042000000.0,3.186234951019287,3.9758803844451904,0.6576905846595764,-9.205391883850098,-0.03813045844435692,0.027794369,0.0076358155,308.4386,-175.37427,21.276042999999998,LYI
3882047000000.0,3.1912314891815186,3.9729716777801514,0.6581759452819824,-9.205610275268555,-0.03891436383128166,0.037873644,0.012217305,308.42752,-175.35844,21.291126000000002,LYI
3882052000000.0,3.1962246894836426,3.9704442024230957,0.6579562425613403,-9.206382751464844,-0.03957510367035866,0.029626964,0.00580322,308.41254,-175.35128999999998,21.301395,LYI
3882057000000.0,3.201221466064453,3.968292236328125,0.6571215391159058,-9.207240104675293,-0.039809975773096085,0.03940081,0.014966198,308.40295,-175.34431,21.31979,LYI
3882062000000.0,3.2062196731567383,3.966496229171753,0.6557281613349915,-9.208051681518555,-0.04084619879722595,0.040011674,0.008857545999999999,308.38727,-175.32963999999998,21.332382,LYI
3882067000000.0,3.2112174034118652,3.9650354385375977,0.6538098454475403,-9.208819389343262,-0.04119238257408142,0.04550946,0.010995574,308.38464,-175.32088000000002,21.345238000000002,LYI
3882072000000.0,3.216214179992676,3.9638917446136475,0.6513959169387817,-9.20954704284668,-0.04199215769767761,0.04886922,0.010079277,308.37917999999996,-175.30205,21.357128,LYI
3882076900000.0,3.2212162017822266,3.9623217582702637,0.649133563041687,-9.210683822631836,-0.04255398362874985,0.05131268,0.016493361,308.37646,-175.29106000000002,21.370228,LYI
3882081800000.0,3.2262139320373535,3.959784507751465,0.6475172638893127,-9.21254825592041,-0.04318353161215782,0.04520403,0.016798794,308.37167,-175.27594,21.38131,LYI
3882086800000.0,3.231212854385376,3.9562113285064697,0.6468060612678528,-9.215229988098145,-0.04374697431921959,0.040011674,0.015882496,308.3726,-175.26736,21.39629,LYI
3882092000000.0,3.2362172603607178,3.9515771865844727,0.6471338272094727,-9.218770027160645,-0.04449199512600899,0.0421497,0.02321288,308.37597999999997,-175.25826,21.411386,LYI
3882097000000.0,3.2412164211273193,3.9458742141723633,0.6493168473243713,-9.222274780273438,-0.0450996495783329,0.053145275,0.021685716,308.37667999999996,-175.2495,21.424135,LYI
3882102000000.0,3.246213912963867,3.939051389694214,0.6539936661720276,-9.225118637084961,-0.04544703662395477,0.051923547,0.027183502999999998,308.38196,-175.24216,21.434042,LYI
3882107000000.0,3.251211404800415,3.931535243988037,0.6608709692955017,-9.227422714233398,-0.045873574912548065,0.046120327,0.02565634,308.39052999999996,-175.22247,21.441542000000002,LYI
3882112000000.0,3.256222724914551,3.9238758087158203,0.6696927547454834,-9.22933292388916,-0.04627738147974014,0.051923547,0.024129177,308.40027000000003,-175.20564,21.451828,LYI
3882117000000.0,3.2612199783325195,3.9161336421966553,0.680131196975708,-9.230895042419434,-0.046366676688194275,0.055588737,0.03176499,308.40713999999997,-175.18427,21.45818,LYI
