timestamp,rel_time,acc_x,acc_y,acc_z,gyro_x,gyro_y,gyro_z,azimuth,pitch,roll,label
0.0,0.0,0.0,0.0,0.0,0.0,0.75625116,0.06994407,90.68596,-15.064454000000001,55.597424,STD
14844195000.0,1.4796611139900051e-05,-0.0018983493791893125,0.029422275722026825,0.0010499786585569382,-0.003741930238902569,0.74128497,0.08796459400000001,91.41196,-15.738807000000001,55.171787,STD
44311683000.0,8.084859291557223e-05,-0.005633461754769087,0.08783592283725739,0.0031185196712613106,-0.011157363653182983,0.7257079000000001,0.09315695,92.126396,-16.418566000000002,54.722187,STD
87968560000.0,0.000213437553611584,-0.011135566048324108,0.17438389360904694,0.006168166641145945,-0.022222138941287994,0.7086037,0.11056661,92.81433,-17.086502,54.272854,STD
145183390000.0,0.00044520446681417525,-0.018293671309947968,0.2878209352493286,0.010139931924641132,-0.036755405366420746,0.66248333,0.11056661,93.50126999999999,-17.756697,53.825054,STD
215148970000.0,0.0008011472527869046,-0.02698109857738018,0.4265519976615906,0.014965609647333622,-0.05368472635746002,0.59528816,0.111177474,94.17331,-18.428245999999998,53.381843999999994,STD
296909280000.0,0.001303059863857925,-0.03705491125583649,0.588686466217041,0.02056778408586979,-0.07145345956087112,0.52595496,0.109650314,94.84185,-19.106606,52.942809999999994,STD
389389750000.0,0.0019707530736923218,-0.04835871607065201,0.7720984220504761,0.026861460879445076,-0.08913654834032059,0.45081854,0.10323623,95.51436,-19.79309,52.51334,STD
491429460000.0,0.0028191942255944014,-0.060729388147592545,0.9744899272918701,0.03375758230686188,-0.10577854514122009,0.3744604,0.101098195,96.18746999999999,-20.495005,52.093582,STD
601813350000.0,0.003859679214656353,-0.07400017231702805,1.1934549808502197,0.0411648154258728,-0.1205090880393982,0.31703907,0.09315695,96.86321,-21.215971,51.677334,STD
719303100000.0,0.005101439077407122,-0.08800318837165833,1.4265410900115967,0.04899106174707413,-0.13277308642864227,0.07147124,0.04734206,97.60863499999999,-21.961945,51.307175,STD
842665200000.0,0.006550351157784462,-0.10257425159215927,1.6713048219680786,0.057146020233631134,-0.13232287764549255,-0.010995574,0.013133603,98.30658000000001,-22.774732999999998,50.90433,STD
970696360000.0,0.008210926316678524,-0.11755426228046417,1.9253621101379395,0.06554210931062698,-0.12612320482730865,0.0125227375,0.020158553,99.02699,-23.560963,50.523323,STD
1102243800000.0,0.010080344043672085,-0.13279734551906586,2.1864280700683594,0.07409851998090744,-0.12166545540094376,0.03634648,0.01740966,99.766914,-24.385326,50.142376,STD
1236222500000.0,0.012159420177340508,-0.14816299080848694,2.4523520469665527,0.08273767679929733,-0.11768709123134613,0.028710667000000002,0.023518313,100.48394,-25.234485999999997,49.755497,STD
1371627000000.0,0.01444144919514656,-0.16352781653404236,2.721140146255493,0.09139092266559601,-0.11348883807659149,0.035124752999999995,0.018020526000000002,101.17487,-26.075101999999998,49.348064,STD
1507540300000.0,0.0169206652790308,-0.17877894639968872,2.990973711013794,0.09999547898769379,-0.10889337211847305,0.027488936000000002,0.010995574,101.8507,-26.906525,48.937096000000004,STD
1643138100000.0,0.01962788589298725,-0.19378222525119781,3.260225296020508,0.10847942531108856,-0.1046561673283577,0.029626964,0.013133603,102.50057,-27.728409000000003,48.515137,STD
1777690900000.0,0.022481828927993774,-0.20851755142211914,3.527433395385742,0.11682583391666412,-0.1004021093249321,0.03023783,0.01985312,103.13401,-28.547289000000003,48.086872,STD
1910562500000.0,0.02550734393298626,-0.22288043797016144,3.791342258453369,0.12497874349355698,-0.09590816497802734,0.02107485,0.020158553,103.75126999999999,-29.359993,47.652126,STD
2041207300000.0,0.028694098815321922,-0.23680999875068665,4.050868511199951,0.13290376961231232,-0.0915418341755867,0.026572637000000003,0.023823743999999997,104.34121999999999,-30.162334,47.209965000000004,STD
2169165700000.0,0.032033588737249374,-0.25025475025177,4.3050994873046875,0.14057186245918274,-0.08718504011631012,0.022296581,0.02565634,104.91812,-30.959609999999998,46.765209999999996,STD
2294057800000.0,0.035520896315574646,-0.2631702423095703,4.553281307220459,0.14795811474323273,-0.08330130577087402,0.02565634,0.016187929,105.4738,-31.749985,46.310916999999996,STD
2415577300000.0,0.0391458198428154,-0.2755262851715088,4.79480504989624,0.15504512190818787,-0.07948073744773865,0.027794369,0.025961772999999997,106.00671399999999,-32.529736,45.857464,STD
2533484400000.0,0.042888153344392776,-0.2873103618621826,5.029191493988037,0.16182450950145721,-0.0756889283657074,0.021685716,0.025045475,106.52798,-33.306065000000004,45.396214,STD
2647598800000.0,0.04674297943711281,-0.2985037863254547,5.256083011627197,0.1682855784893036,-0.0717608630657196,0.014049901000000002,0.01985312,107.02938999999999,-34.07443,44.93231,STD
2757793700000.0,0.05070258304476738,-0.30909714102745056,5.475225925445557,0.17442260682582855,-0.0679531916975975,0.0033597588,0.024740042,107.51371,-34.83266,44.468815,STD
2863987700000.0,0.05476275831460953,-0.3190838098526001,5.686458587646484,0.18023163080215454,-0.06438673287630081,0.008857545999999999,0.029932396,107.97903400000001,-35.585033,43.999984999999995,STD
2966139700000.0,0.0589141920208931,-0.3284669816493988,5.889698028564453,0.1857137233018875,-0.06085198000073433,0.013439035,0.027183502999999998,108.4317,-36.33127,43.530056,STD
3064243000000.0,0.0631452351808548,-0.3372563421726227,6.084928035736084,0.1908734142780304,-0.0571572370827198,0.019242255,0.022602014,108.86476,-37.06933,43.057915,STD
3158319000000.0,0.06744878739118576,-0.3454611897468567,6.272191047668457,0.19571532309055328,-0.05365955829620361,0.03268129,0.021380282999999996,109.27746599999999,-37.798836,42.58254,STD
3248414800000.0,0.07181749492883682,-0.3530941307544708,6.451577186584473,0.2002459168434143,-0.0505843423306942,0.025045475,0.027183502999999998,109.67876000000001,-38.520214,42.109203,STD
3334596200000.0,0.07624924927949905,-0.36016565561294556,6.623217582702637,0.20447081327438354,-0.04756598547101021,0.027183502999999998,0.027794369,110.05845,-39.236259999999994,41.630179999999996,STD
3416945600000.0,0.0807456225156784,-0.3666849136352539,6.787275791168213,0.20839519798755646,-0.04426482692360878,0.02321288,0.024129177,110.42725,-39.944294,41.153465000000004,STD
3495558000000.0,0.085287906229496,-0.3726811707019806,6.943936824798584,0.21203389763832092,-0.04148618504405022,0.028405233999999998,0.0290161,110.77603,-40.640144,40.67751,STD
3570539200000.0,0.08987468481063843,-0.37816929817199707,7.093409061431885,0.2153950035572052,-0.038976363837718964,0.014049901000000002,0.03268129,111.11926000000001,-41.331142,40.204338,STD
3642001200000.0,0.09450047463178635,-0.3831687569618225,7.235914707183838,0.2184889167547226,-0.036161135882139206,0.023823743999999997,0.020463986,111.44126000000001,-42.017456,39.725075,STD
3710062700000.0,0.09922316670417786,-0.38764217495918274,7.37169885635376,0.22129911184310913,-0.03426666930317879,0.019547688,0.029932396,111.7545,-42.685726,39.257305,STD
3774845000000.0,0.10392139852046967,-0.39171552658081055,7.500979900360107,0.22388648986816406,-0.0323687344789505,0.027794369,0.028405233999999998,112.05173500000001,-43.3554,38.782112,STD
3836472200000.0,0.10864661633968353,-0.39535796642303467,7.624012470245361,0.2262376993894577,-0.03015138767659664,0.021685716,0.028405233999999998,112.340546,-44.01305,38.31397,STD
3895068500000.0,0.11339469254016876,-0.3988229036331177,7.740541458129883,0.22841759026050568,-0.027804816141724586,0.023823743999999997,0.025350908,112.6127,-44.66362,37.84448,STD
3950758000000.0,0.11816990375518799,-0.4023646414279938,7.850294589996338,0.2304893434047699,-0.02579762041568756,0.013744468000000001,0.023518313,112.87874599999999,-45.305737,37.379925,STD
4003664000000.0,0.12296842783689499,-0.4058607816696167,7.954370021820068,0.23212280869483948,-0.02421000599861145,0.021685716,0.022602014,113.1298,-45.941520000000004,36.91695,STD
4053907000000.0,0.12778878211975098,-0.4091809391975403,8.053922653198242,0.23295845091342926,-0.022494373843073845,0.022296581,0.02443461,113.37432,-46.5694,36.459167,STD
4101606200000.0,0.13262157142162323,-0.4126718044281006,8.14871883392334,0.23380568623542786,-0.020849598571658134,0.03481932,0.022602014,113.590355,-47.193855,35.98413,STD
4146877000000.0,0.1374719738960266,-0.4169849157333374,8.238188743591309,0.23610976338386536,-0.019818207249045372,0.02565634,0.017715093,113.80181,-47.80924,35.51474,STD
4189831800000.0,0.14233697950839996,-0.421672523021698,8.322664260864258,0.2389901727437973,-0.01869492419064045,0.03970624,0.01740966,113.98163600000001,-48.426792,35.027813,STD
4230579700000.0,0.1472206860780716,-0.4258679151535034,8.402547836303711,0.24071715772151947,-0.017725924029946327,0.03359759,0.014660766,114.160576,-49.035244,34.546745,STD
4269226300000.0,0.15211531519889832,-0.4298703670501709,8.47826862335205,0.24139593541622162,-0.017225846648216248,0.046731193,0.012217305,114.295525,-49.640327,34.041340000000005,STD
4305872700000.0,0.15702557563781738,-0.43435654044151306,8.550530433654785,0.2411184161901474,-0.016477439552545547,0.04520403,0.01038471,114.42683000000001,-50.238566999999996,33.543147999999995,STD
4340617000000.0,0.1619425117969513,-0.43925538659095764,8.61949348449707,0.2399512678384781,-0.016462136059999466,0.05161811400000001,0.004276057,114.51758000000001,-50.834216999999995,33.020206,STD
4373552800000.0,0.16686810553073883,-0.4441578984260559,8.685383796691895,0.23781004548072815,-0.016544582322239876,0.053145275,0.003970624,114.59971999999999,-51.42174,32.505672,STD
4404770000000.0,0.17180068790912628,-0.4492110013961792,8.748337745666504,0.23774299025535583,-0.016493357717990875,0.049480084,-0.0012217305,114.64268999999999,-52.016247,31.956879999999998,STD
4434354500000.0,0.1767420470714569,-0.45573458075523376,8.808384895324707,0.26639923453330994,-0.01618589647114277,0.04917465,0.0036651915999999997,114.673454,-52.598125,31.418383000000002,STD
4462389000000.0,0.18168888986110687,-0.4636358916759491,8.865667343139648,0.32202276587486267,-0.01613742858171463,0.043982297000000004,0.003970624,114.65738,-53.1868,30.84045,STD
4488952300000.0,0.18663907051086426,-0.4715957045555115,8.92061710357666,0.37384480237960815,-0.01575128734111786,0.03573562,0.006414085,114.63299599999999,-53.76474,30.274853000000004,STD
4514119000000.0,0.19159448146820068,-0.4780927002429962,8.973722457885742,0.3861299455165863,-0.015823084861040115,0.035430185,0.008246681,114.59971999999999,-54.328743,29.718908000000003,STD
4537961000000.0,0.1965523511171341,-0.4844452738761902,9.023833274841309,0.37462660670280457,-0.014755991287529469,0.03970624,0.0070249503,114.36944,-54.839767,29.060934000000003,STD
4560546400000.0,0.20152205228805542,-0.4919690191745758,9.069796562194824,0.3538326919078827,-0.014394043944776058,0.047036625,0.008552114,114.14171,-55.32941999999999,28.420588000000002,STD
4581940000000.0,0.20649655163288116,-0.5005198121070862,9.112089157104492,0.32847392559051514,-0.014327075332403183,0.041233405,-0.0015271631,113.94046999999999,-55.90493000000001,27.734499,STD
4602203000000.0,0.21146690845489502,-0.5095454454421997,9.15307331085205,0.3366539180278778,-0.014328577555716038,0.045814894,0.007330383,113.72963,-56.458785999999996,27.069843,STD
4621395300000.0,0.21643780171871185,-0.5190371870994568,9.19283390045166,0.3771851360797882,-0.014151385985314846,0.05100725,0.0125227375,113.42263,-57.05505,26.290468,STD
4639572000000.0,0.22141702473163605,-0.5251288414001465,9.231253623962402,0.38940900564193726,-0.013756186701357365,0.037873644,0.0015271631,113.122574,-57.63386,25.533852,STD
4656786300000.0,0.22639518976211548,-0.5277727246284485,9.268359184265137,0.37069523334503174,-0.013609354384243488,0.036957346,0.0033597588,112.81709,-58.189453,24.802770000000002,STD
4673088500000.0,0.23137643933296204,-0.5299513339996338,9.302637100219727,0.34614959359169006,-0.013909020461142063,0.03573562,-0.00030543262000000003,112.14192,-58.717909999999996,23.743567000000002,STD
4688526700000.0,0.23635537922382355,-0.5322450399398804,9.333944320678711,0.3208300769329071,-0.013575229793787003,0.02687807,0.005497787,111.50932,-59.212887,22.738012,STD
4703146000000.0,0.24133946001529694,-0.5355961918830872,9.36349105834961,0.3163219690322876,-0.012804025784134865,0.0076358155,0.0076358155,110.712975,-59.802569999999996,21.456804,STD
4716990000000.0,0.24632644653320312,-0.5404397249221802,9.391946792602539,0.3428327739238739,-0.01231760811060667,0.0076358155,0.014660766,109.96876499999999,-60.343906000000004,20.25173,STD
4730098500000.0,0.2513149380683899,-0.5455525517463684,9.418159484863281,0.38050273060798645,-0.011710689403116703,-0.002443461,0.014049901000000002,109.17033400000001,-60.90371999999999,18.882832999999998,STD
4742511000000.0,0.2563038766384125,-0.5498656630516052,9.441130638122559,0.4119466245174408,-0.010794533416628838,0.0027488936,0.014660766,108.42428999999998,-61.411030000000004,17.600548,STD
4754264600000.0,0.2612936198711395,-0.5535818934440613,9.461368560791016,0.4368186295032501,-0.010089686140418053,0.005192355,0.016187929,107.64521,-61.834377,16.218641,STD
4765393600000.0,0.2662833631038666,-0.5568457245826721,9.479256629943848,0.455016165971756,-0.009828906506299973,-0.014049901000000002,0.008552114,106.93072,-62.208286,14.925931,STD
4775931000000.0,0.27127423882484436,-0.5602506995201111,9.495671272277832,0.4710327088832855,-0.009549461305141449,-0.014966198,0.010690141499999998,106.32705,-62.569576,13.728321,STD
4785908000000.0,0.2762811481952667,-0.5642218589782715,9.511213302612305,0.48794102668762207,-0.009301144629716873,-0.013439035,0.019242255,105.75939,-62.890553000000004,12.59866,STD
4795354600000.0,0.28127339482307434,-0.5684615969657898,9.525928497314453,0.5046828389167786,-0.008366521447896957,-0.00580322,0.015577064,105.22208,-63.19648000000001,11.520519,STD
4804299000000.0,0.2862662076950073,-0.5727452039718628,9.539860725402832,0.5202645063400269,-0.008034762926399708,-0.00061086525,0.01282817,104.70581999999999,-63.46553,10.501457,STD
4812768000000.0,0.2912561595439911,-0.5775841474533081,9.55357837677002,0.5338385105133057,-0.007818276062607765,0.0021380284,0.010690141499999998,104.19354,-63.708755000000004,9.5115185,STD
4820786000000.0,0.29625561833381653,-0.5834628343582153,9.567604064941406,0.5446144938468933,-0.007613310590386391,0.01740966,0.007330383,103.939498909019,-63.82059821156321,9.03056176046926,STD
4828378000000.0,0.30125197768211365,-0.5882624983787537,9.581977844238281,0.5525040626525879,-0.007289086002856493,0.01160644,0.009773844,103.696625,-63.927525,8.570747,STD
4835566000000.0,0.3062457740306854,-0.5901867747306824,9.596776962280273,0.5573537349700928,-0.006770587991923094,0.017104227,0.009773844,103.21288,-64.12659000000001,7.670951,STD
4842371000000.0,0.31123822927474976,-0.5897723436355591,9.611529350280762,0.559305727481842,-0.006263422779738903,0.010079277,0.0036651915999999997,102.73198000000001,-64.3121,6.7934813,STD
4848814700000.0,0.3162311315536499,-0.5877769589424133,9.625496864318848,0.5584820508956909,-0.005978537257760763,0.002443461,0.0021380284,102.26276999999999,-64.48161,5.960679,STD
4854915300000.0,0.32122695446014404,-0.5849354863166809,9.638324737548828,0.5545000433921814,-0.0059203761629760265,-0.0030543262,-0.0012217305,101.80592,-64.64464,5.172519,STD
4860691300000.0,0.32623085379600525,-0.5820319056510925,9.649616241455078,0.5468891263008118,-0.0057513960637152195,-0.00580322,0.00030543262000000003,101.359985,-64.797005,4.423983,STD
4866159700000.0,0.33124658465385437,-0.579133927822113,9.659514427185059,0.5355324745178223,-0.006112188566476107,-0.00580322,0.0067195175,100.92757399999999,-64.94306,3.7221322,STD
4871337000000.0,0.3362397253513336,-0.5768892765045166,9.668885231018066,0.518792986869812,-0.005705138202756643,-0.01160644,0.00061086525,100.50593,-65.08904,3.0509605,STD
4876239000000.0,0.3412324786186218,-0.575317919254303,9.677810668945312,0.4967325031757355,-0.0057266391813755035,-0.016798794,-0.0070249503,100.07121,-65.222466,2.3912277000000004,STD
4880880000000.0,0.34622815251350403,-0.57447350025177,9.686689376831055,0.471559077501297,-0.006088770925998688,-0.0009162978999999999,-0.0015271631,99.63821,-65.35435,1.7623268,STD
4885274000000.0,0.3513053357601166,-0.5744996070861816,9.69560432434082,0.44217899441719055,-0.006512987893074751,-0.006414085,0.0018325957999999999,99.2117,-65.49379,1.1421072,STD
4889434400000.0,0.3562994599342346,-0.5748634338378906,9.703536033630371,0.4113120436668396,-0.0067681255750358105,0.0009162978999999999,-0.005497787,98.783615,-65.628334,0.546391,STD
4893373400000.0,0.36129236221313477,-0.5756871104240417,9.710326194763184,0.37777650356292725,-0.006977119483053684,0.009773844,-0.0012217305,98.35396,-65.770966,-0.025222183999999998,STD
4897102600000.0,0.3662828207015991,-0.5763452053070068,9.716479301452637,0.34285151958465576,-0.00779346190392971,0.02321288,-0.01160644,97.927605,-65.907555,-0.5777618,STD
4900633700000.0,0.37128180265426636,-0.5764520168304443,9.722305297851562,0.30720633268356323,-0.008191961795091629,0.011301007,-0.0033597588,97.50647,-66.047134,-1.0976427,STD
4903976600000.0,0.3762798309326172,-0.5763537883758545,9.72812557220459,0.27368512749671936,-0.008845924399793148,0.01282817,0.0012217305,97.0763,-66.18816,-1.600711,STD
4907141700000.0,0.38127660751342773,-0.5762608051300049,9.73414421081543,0.24398155510425568,-0.009025583043694496,0.005497787,-0.0033597588,96.65458000000001,-66.333145,-2.0795866999999997,STD
4910138500000.0,0.38627102971076965,-0.5764764547348022,9.739897727966309,0.21805687248706818,-0.009081734344363213,0.007330383,-0.0030543262,96.23418000000001,-66.4829,-2.5320837000000003,STD
4912976000000.0,0.39126548171043396,-0.5771998763084412,9.745084762573242,0.19585011899471283,-0.008874469436705112,-0.0070249503,-0.0018325957999999999,95.822586,-66.63439,-2.9632494,STD
4915662400000.0,0.39625975489616394,-0.5776435136795044,9.750189781188965,0.17761874198913574,-0.00890612043440342,-0.005497787,0.0015271631,95.4111,-66.77956999999999,-3.3714242,STD
4918206300000.0,0.4012579917907715,-0.5773432850837708,9.755502700805664,0.16347968578338623,-0.009131405502557755,-0.016493361,0.0061086523,95.00862,-66.92571,-3.7584053999999996,STD
4920615000000.0,0.4062546491622925,-0.5765661597251892,9.76090145111084,0.1529156118631363,-0.008986597880721092,-0.02687807,0.009162978,94.61571500000001,-67.06782,-4.1314964,STD
4922895000000.0,0.4112512171268463,-0.5755733847618103,9.76626968383789,0.1454852968454361,-0.009272702969610691,-0.029932396,0.009162978,94.2257,-67.20445,-4.4877625,STD
4925054000000.0,0.4162440598011017,-0.5743860602378845,9.771944046020508,0.14115598797798157,-0.009478454478085041,-0.03023783,0.004886922,93.84191,-67.33707,-4.8236513,STD
4927098000000.0,0.42124277353286743,-0.5730124711990356,9.778314590454102,0.1400514841079712,-0.009282596409320831,-0.023823743999999997,0.0076358155,93.45874,-67.46978,-5.1435623,STD
4929034000000.0,0.4262549579143524,-0.5719218850135803,9.784690856933594,0.141820028424263,-0.009341329336166382,-0.021991148999999998,0.008246681,93.08653000000001,-67.59405500000001,-5.4492283,STD
4930867000000.0,0.43125253915786743,-0.571630597114563,9.790233612060547,0.14571797847747803,-0.009055116213858128,-0.02443461,0.015882496,92.71504,-67.72447,-5.7392645,STD
4932602000000.0,0.4362489879131317,-0.5720194578170776,9.794615745544434,0.15347380936145782,-0.00881670881062746,-0.01038471,0.018936822,92.34727,-67.84425999999999,-6.022266,STD
4934245300000.0,0.44124552607536316,-0.5729107856750488,9.797456741333008,0.16709460318088531,-0.008932824246585369,0.00030543262000000003,0.011911871999999999,91.983376,-67.96428,-6.293499,STD
4935801000000.0,0.4462454617023468,-0.5742796659469604,9.799391746520996,0.18594641983509064,-0.008668378926813602,-0.0021380284,0.0125227375,91.62365,-68.08191,-6.551213,STD
4937274000000.0,0.4512432813644409,-0.57608562707901,9.801054000854492,0.20923388004302979,-0.008125037886202335,0.003970624,0.013439035,91.26199,-68.19755,-6.8013,STD
4938669000000.0,0.4562408924102783,-0.5783088803291321,9.80245590209961,0.23675788938999176,-0.0075943744741380215,0.0076358155,0.0036651915999999997,90.91877,-68.29899,-7.0340395000000004,STD
4939990000000.0,0.46123814582824707,-0.580413281917572,9.80370044708252,0.266105979681015,-0.00733614806085825,0.005497787,0.007330383,90.57648499999999,-68.40262,-7.2533827,STD
4941241000000.0,0.46623533964157104,-0.581917405128479,9.804878234863281,0.29511043429374695,-0.007221900392323732,0.0061086523,0.006414085,90.236374,-68.50621,-7.467862599999999,STD
4942425000000.0,0.4712401032447815,-0.5833982229232788,9.806106567382812,0.3225966989994049,-0.007195127196609974,-0.005192355,0.0036651915999999997,89.92031999999999,-68.59116999999999,-7.6622925,STD
4943546700000.0,0.47624143958091736,-0.5855452418327332,9.807518005371094,0.3471279442310333,-0.0075441570952534676,-0.0036651915999999997,0.010690141499999998,89.602264,-68.67581,-7.847828999999999,STD
4944609000000.0,0.48123618960380554,-0.5884367227554321,9.809517860412598,0.3681190609931946,-0.008086190558969975,-0.009162978,0.013133603,89.29713000000001,-68.75855,-8.025008999999999,STD
4945614500000.0,0.4862312376499176,-0.5922494530677795,9.812755584716797,0.3844965696334839,-0.008550506085157394,-0.00030543262000000003,0.019242255,88.988976,-68.84273,-8.193808,STD
4946566600000.0,0.4912293553352356,-0.5972694754600525,9.816268920898438,0.39661020040512085,-0.009136573411524296,0.004886922,0.01740966,88.68221,-68.92806999999999,-8.359604,STD
4947468400000.0,0.4962259829044342,-0.6037403345108032,9.819103240966797,0.40488705039024353,-0.00977279432117939,-0.004276057,0.008552114,88.37946,-69.014626,-8.51835,STD
4948322400000.0,0.5012228488922119,-0.6109676957130432,9.821605682373047,0.408073753118515,-0.010407663881778717,0.0021380284,0.012217305,88.056076,-69.10561,-8.681383,STD
4949131400000.0,0.5062179565429688,-0.6180529594421387,9.824217796325684,0.4045284688472748,-0.011513295583426952,0.0015271631,0.012217305,87.89930135527241,-69.1490892013645,-8.76297174626267,STD
4949897400000.0,0.511213481426239,-0.6250126957893372,9.826942443847656,0.3950720727443695,-0.012120519764721394,0.007941248,-0.008552114,87.741295,-69.19291,-8.8452015,STD
4950623000000.0,0.5162095427513123,-0.6318681836128235,9.829788208007812,0.38105398416519165,-0.012662828899919987,0.0061086523,-0.010690141499999998,87.41982,-69.28817,-9.005908999999999,STD
4951310000000.0,0.5212081670761108,-0.6380822658538818,9.832724571228027,0.36379408836364746,-0.01356689166277647,0.011911871999999999,-0.0067195175,87.078094,-69.39749,-9.162902,STD
4951960500000.0,0.526210606098175,-0.6429362297058105,9.835710525512695,0.3449845314025879,-0.014243724755942822,0.016493361,-0.013133603,86.741425,-69.5086,-9.315575,STD
4952576500000.0,0.5312083959579468,-0.6465338468551636,9.838736534118652,0.32478293776512146,-0.015177479013800621,0.01863139,-0.0076358155,86.392845,-69.631165,-9.456268,STD
4953160000000.0,0.5362073183059692,-0.6486772298812866,9.842788696289062,0.30239421129226685,-0.01611030288040638,0.019547688,-0.016493361,86.048386,-69.75317,-9.595908999999999,STD
4953713000000.0,0.5412042140960693,-0.6494340896606445,9.84789752960205,0.27789053320884705,-0.017188742756843567,0.02565634,-0.009162978,85.70318,-69.876274,-9.723583999999999,STD
4954237000000.0,0.5462019443511963,-0.6486291289329529,9.85365104675293,0.2527924180030823,-0.018665475770831108,0.02321288,-0.01160644,85.36014,-70.007286,-9.843834,STD
4954733000000.0,0.551205039024353,-0.646296501159668,9.859994888305664,0.22723694145679474,-0.01952635683119297,0.03023783,-0.0015271631,85.01423,-70.14483,-9.953795,STD
4955202700000.0,0.5562043190002441,-0.6433414816856384,9.866494178771973,0.20034855604171753,-0.02200164832174778,0.040317107000000005,0.0015271631,84.66091999999999,-70.27789,-10.061096000000001,STD
4955648000000.0,0.5612026453018188,-0.6402870416641235,9.872903823852539,0.17155323922634125,-0.02353115752339363,0.055588737,0.0018325957999999999,84.3068,-70.42562,-10.161626,STD
4956069300000.0,0.5661990642547607,-0.6362753510475159,9.879362106323242,0.1440383791923523,-0.026216233149170876,0.05955936,0.0018325957999999999,84.13043017214841,-70.4939876445066,-10.206181365990199,STD
4956469000000.0,0.5711978077888489,-0.6307942867279053,9.885956764221191,0.1196729764342308,-0.02940930798649788,0.06719518,-0.002443461,83.951324,-70.563416,-10.251428,STD
4956847300000.0,0.5762034058570862,-0.6234172582626343,9.893288612365723,0.10059487819671631,-0.03298564255237579,0.08002335,0.00061086525,83.59389,-70.71181999999999,-10.335228,STD
4957206000000.0,0.5812095403671265,-0.6138142347335815,9.901896476745605,0.08872406929731369,-0.03695737197995186,0.0842994,-0.007330383,83.22815,-70.85874,-10.413513,SDL
4957545700000.0,0.5862085819244385,-0.6010246276855469,9.912959098815918,0.08540356904268265,-0.04169407859444618,0.08246681,-0.003970624,82.86488,-71.00015,-10.481592,SDL
4957867600000.0,0.591204822063446,-0.5829082131385803,9.92891788482666,0.09401559084653854,-0.046601563692092896,0.07574729,-0.0036651915999999997,82.50645,-71.13971,-10.547976,SDL
4958173000000.0,0.5962029695510864,-0.5622509717941284,9.947810173034668,0.11102061718702316,-0.05277758464217186,0.07299839999999999,-0.00030543262000000003,82.165054,-71.260315,-10.599729,SDL
4958461600000.0,0.6012063026428223,-0.5432091951370239,9.96672534942627,0.13123631477355957,-0.05978016182780266,0.083383106,0.002443461,81.82551,-71.381096,-10.648251,SDL
4958735300000.0,0.6062029600143433,-0.5266196131706238,9.985055923461914,0.15461456775665283,-0.06671882420778275,0.08216137400000001,0.0070249503,81.530525,-71.49245,-10.666995,SDL
4958995000000.0,0.6112025380134583,-0.5140079259872437,10.001893997192383,0.1816454380750656,-0.07447595149278641,0.08093964,0.009162978,81.23529,-71.59519,-10.684546000000001,SDL
4959240700000.0,0.6161968111991882,-0.5055608749389648,10.016633033752441,0.21130521595478058,-0.08212894946336746,0.09865474,0.009162978,80.943535,-71.6898,-10.701161,SDL
4959474000000.0,0.6211971640586853,-0.5020883083343506,10.02807331085205,0.24240054190158844,-0.08982986211776733,0.10995574,0.0076358155,80.65661,-71.779205,-10.715394,SDL
4959695000000.0,0.6261932849884033,-0.5032085180282593,10.036603927612305,0.27358749508857727,-0.09808073937892914,0.113926366,0.0061086523,80.38539,-71.84923,-10.73563,SDL
4959904000000.0,0.6311949491500854,-0.5089603662490845,10.042594909667969,0.30206990242004395,-0.10662437975406647,0.1142318,0.008857545999999999,80.11458,-71.91957,-10.753928,SDL
4960102600000.0,0.6361899375915527,-0.5186142921447754,10.046244621276855,0.3282710015773773,-0.11546146869659424,0.096516706,0.004581489,79.8604,-71.96513,-10.789199,SDL
4960291000000.0,0.641189455986023,-0.5314531922340393,10.047523498535156,0.35285812616348267,-0.12447869777679443,0.10629055,0.010995574,79.600266,-72.01166500000001,-10.820625,SDL
4960469000000.0,0.6461887359619141,-0.5472455024719238,10.046594619750977,0.37592098116874695,-0.13342230021953583,0.10079276599999999,-0.0012217305,79.34894,-72.04386,-10.869177,SDL
4960638500000.0,0.6511924862861633,-0.5644056797027588,10.043623924255371,0.39752429723739624,-0.14177533984184265,0.08827003,-0.0061086523,79.09921999999999,-72.07969,-10.911483,SDL
4960799000000.0,0.6561911702156067,-0.5826637148857117,10.038799285888672,0.4177527129650116,-0.1490321308374405,0.06750060599999999,-0.016493361,78.852325,-72.10129,-10.971728,SDL
4960951000000.0,0.6611911654472351,-0.6016426086425781,10.031158447265625,0.4340707063674927,-0.15591846406459808,0.048563786,-0.01985312,78.612,-72.1231,-11.027322999999999,SDL
4961095000000.0,0.6661866903305054,-0.621099054813385,10.020450592041016,0.44554832577705383,-0.1615588217973709,0.038789943,-0.021991148999999998,78.37908,-72.15172,-11.08145,SDL
4961232000000.0,0.6711912751197815,-0.6400571465492249,10.007301330566406,0.4540206491947174,-0.1657429039478302,0.025961772999999997,-0.02565634,78.15812,-72.179825,-11.132652,SDL
4961362000000.0,0.6762564182281494,-0.6580049395561218,9.991669654846191,0.4603053629398346,-0.16944356262683868,0.009468411,-0.028099801,77.9444,-72.20936,-11.180191,SDL
4961485000000.0,0.6812537908554077,-0.6732595562934875,9.974859237670898,0.46495136618614197,-0.17244240641593933,-0.007941248,-0.03145956,77.72355999999999,-72.24745,-11.230307,SDL
4961602000000.0,0.6862509846687317,-0.6842159628868103,9.956263542175293,0.4674731194972992,-0.1743861734867096,-0.031154128,-0.028405233999999998,77.51207,-72.290306,-11.274716,SDL
4961713000000.0,0.6912475824356079,-0.6917942762374878,9.937572479248047,0.4668896198272705,-0.17617753148078918,-0.039095376,-0.026572637000000003,77.30694,-72.33378,-11.320835,SDL
4961818600000.0,0.6962441802024841,-0.6966368556022644,9.919877052307129,0.4626062512397766,-0.17764553427696228,-0.042455133,-0.018020526000000002,77.10915,-72.38431,-11.360215,SDL
4961919000000.0,0.7012425065040588,-0.69940185546875,9.903725624084473,0.455725759267807,-0.1785469800233841,-0.029932396,-0.020158553,76.902,-72.44009399999999,-11.3948765,SDL
4962013700000.0,0.7062408328056335,-0.7009732127189636,9.889899253845215,0.4477470815181732,-0.17923761904239655,-0.023518313,-0.021991148999999998,76.69959,-72.4978,-11.424151,SDL
4962104000000.0,0.7112576365470886,-0.7012408375740051,9.878437042236328,0.43842360377311707,-0.17932173609733582,-0.02107485,-0.018936822,76.48352,-72.57449,-11.443904,SDL
4962189300000.0,0.716251015663147,-0.6982319355010986,9.870304107666016,0.4236161410808563,-0.17995481193065643,-0.01740966,-0.02076942,76.268425,-72.646385,-11.463941,SDL
4962270600000.0,0.7212467789649963,-0.6917924880981445,9.865596771240234,0.40301454067230225,-0.18001699447631836,-0.020463986,-0.017104227,76.043976,-72.73447,-11.471917999999999,SDL
4962347600000.0,0.7262463569641113,-0.6834023594856262,9.862862586975098,0.3770095705986023,-0.179164320230484,-0.029626964,-0.015271631,75.823364,-72.82129,-11.478961,SDL
4962421000000.0,0.731243908405304,-0.6752016544342041,9.860015869140625,0.3462049067020416,-0.1775595098733902,-0.009468411,-0.013439035,75.59785500000001,-72.91053000000001,-11.484949,SDL
4962491000000.0,0.7362410426139832,-0.667181134223938,9.857064247131348,0.31141701340675354,-0.17521007359027863,-0.0012217305,-0.014660766,75.35341,-73.03286,-11.48056,SDL
4962557000000.0,0.7412351369857788,-0.6593369841575623,9.854019165039062,0.27371272444725037,-0.17355555295944214,0.02076942,-0.010079277,75.10167,-73.1535,-11.474471000000001,SDL
4962620000000.0,0.7462862133979797,-0.6515102386474609,9.850485801696777,0.23488914966583252,-0.1711427867412567,0.030848695,-0.00580322,74.84045400000001,-73.3,-11.461158,SDL
4962679500000.0,0.7512844204902649,-0.6437724828720093,9.846485137939453,0.1978064626455307,-0.16820751130580902,0.04917465,-0.0067195175,74.573715,-73.44207,-11.448298,SDL
4962736700000.0,0.7562772631645203,-0.6360511779785156,9.84190559387207,0.1623040735721588,-0.16485895216464996,0.062002823,-0.011911871999999999,74.29573,-73.59597,-11.437028,SDL
4962790700000.0,0.7612728476524353,-0.6256847381591797,9.835969924926758,0.13015058636665344,-0.161395862698555,0.06352998,-0.015271631,74.01886,-73.74976,-11.424127,SDL
4962842000000.0,0.7662650346755981,-0.6125395894050598,9.828685760498047,0.10137622058391571,-0.15748250484466553,0.063224554,-0.014049901000000002,73.74209,-73.90515,-11.410204,SDL
4962891300000.0,0.7712600827217102,-0.5981694459915161,9.819892883300781,0.0775257870554924,-0.1533382087945938,0.06261369,-0.00580322,73.464935,-74.06329000000001,-11.386782,SDL
4962938000000.0,0.7762566208839417,-0.5831047892570496,9.809621810913086,0.05884062498807907,-0.14913806319236755,0.06017022599999999,0.0018325957999999999,73.19159,-74.22155,-11.361514999999999,SDL
4962982600000.0,0.7812541127204895,-0.5676311254501343,9.797246932983398,0.04754776880145073,-0.1454547494649887,0.048563786,0.009468411,72.92644,-74.38128,-11.321626,SDL
4963025000000.0,0.7862489223480225,-0.5519061088562012,9.782572746276855,0.04438870772719383,-0.1415119618177414,0.05100725,0.0125227375,72.66084000000001,-74.54363000000001,-11.280598,SDL
4963065400000.0,0.7912455201148987,-0.5362831950187683,9.765697479248047,0.044546306133270264,-0.13777929544448853,0.05222898,0.014966198,72.41139,-74.69311,-11.236361,SDL
4963104000000.0,0.7963067889213562,-0.5207047462463379,9.74604320526123,0.04705975949764252,-0.13527102768421173,0.0580322,0.014966198,72.16263000000001,-74.83912,-11.191728999999999,SDL
4963141000000.0,0.8013128042221069,-0.5052469968795776,9.72490406036377,0.05086694657802582,-0.13281504809856415,0.0580322,0.014049901000000002,71.93083,-74.968056,-11.14715,SDL
4963176000000.0,0.8063066601753235,-0.4895572364330292,9.7017240524292,0.05605489760637283,-0.13048994541168213,0.08155051,0.020463986,71.69287,-75.09376,-11.101625,SDL
4963209600000.0,0.8112994432449341,-0.4741852283477783,9.676385879516602,0.06253184378147125,-0.12863057851791382,0.09040806,0.021380282999999996,71.473526,-75.21238000000001,-11.053966,SDL
4963241600000.0,0.8162909746170044,-0.4596324563026428,9.648921966552734,0.0701533630490303,-0.1275051236152649,0.099571034,0.016798794,71.24969499999999,-75.32941,-11.007087,SDL
4963272000000.0,0.8212864995002747,-0.4452691972255707,9.61980152130127,0.07897376269102097,-0.12666752934455872,0.10476339,0.016798794,71.02973,-75.4429,-10.957275,SDL
4963301300000.0,0.8262842297554016,-0.43046605587005615,9.589581489562988,0.08901157975196838,-0.126346617937088,0.116675265,0.019547688,70.80764,-75.552414,-10.90865,SDL
4963329000000.0,0.831278920173645,-0.4156067967414856,9.559383392333984,0.09924106299877167,-0.12667763233184814,0.10262536,0.03145956,70.60029,-75.656624,-10.856995,SDL
4963356000000.0,0.8362733721733093,-0.40130022168159485,9.531033515930176,0.10796850174665451,-0.12686078250408173,0.10781772,0.04062254,70.38628,-75.76151,-10.806778999999999,SDL
4963381500000.0,0.8412646651268005,-0.38867682218551636,9.506217956542969,0.11489009857177734,-0.1274573802947998,0.110872045,0.04153884,70.17826,-75.85470600000001,-10.758208999999999,SDL
4963406000000.0,0.8462586998939514,-0.38208556175231934,9.49161434173584,0.11856704950332642,-0.12777802348136902,0.10079276599999999,0.0421497,69.974236,-75.95237,-10.70689,SDL
4963430000000.0,0.8512516617774963,-0.3811316192150116,9.486556053161621,0.11921161413192749,-0.12658406794071198,0.093767814,0.042455133,69.76584,-76.05577,-10.65408,SDL
4963452300000.0,0.8562528491020203,-0.38569843769073486,9.490839004516602,0.11688674986362457,-0.12377717345952988,0.10751228,0.043066,69.55648000000001,-76.16048,-10.601655000000001,SDL
4963474000000.0,0.8612449765205383,-0.3957367241382599,9.502352714538574,0.11200514435768127,-0.12022460997104645,0.13347405,0.03848451,69.342926,-76.26346,-10.553078999999999,SDL
4963494300000.0,0.8662416338920593,-0.41281887888908386,9.518218994140625,0.10477031022310257,-0.1159498393535614,0.14080444,0.032375857,69.13292,-76.3715,-10.504522999999999,SDL
4963514000000.0,0.8712384104728699,-0.43516120314598083,9.538273811340332,0.09582433104515076,-0.11066580563783646,0.17959438,0.02443461,68.88373,-76.48006,-10.481372,SDL
4963533000000.0,0.8762513399124146,-0.4596865773200989,9.562952995300293,0.0863008126616478,-0.1053052693605423,0.19975294,0.0070249503,68.64178000000001,-76.584435,-10.460933,SDL
4963551400000.0,0.8812456727027893,-0.48587438464164734,9.591327667236328,0.07635687291622162,-0.09930260479450226,0.22296582,-0.0018325957999999999,68.38364,-76.68444000000001,-10.459544000000001,SDL
4963568700000.0,0.8862395286560059,-0.5132333040237427,9.623736381530762,0.06735535711050034,-0.09282224625349045,0.24892759999999997,-0.017104227,68.12371999999999,-76.77897,-10.463612,SDL
4963585500000.0,0.8912342190742493,-0.5414851903915405,9.660059928894043,0.05977395549416542,-0.08619892597198486,0.28038713,-0.028099801,67.85956999999999,-76.8736,-10.467803,SDL
4963602000000.0,0.8962303996086121,-0.569719135761261,9.699014663696289,0.0531623549759388,-0.08057967573404312,0.30329459999999997,-0.03359759,67.59249,-76.96306,-10.479546000000001,SDL
4963617500000.0,0.9012345671653748,-0.5972592830657959,9.739677429199219,0.0471733920276165,-0.07503200322389603,0.34147367,-0.03848451,67.3165,-77.05344000000001,-10.493258,SDL
4963632700000.0,0.9062327146530151,-0.6242501735687256,9.7794828414917,0.04207547754049301,-0.07021947205066681,0.35521814,-0.0421497,67.04629,-77.13252,-10.5114355,SDL
4963647400000.0,0.9112305045127869,-0.6508263349533081,9.817167282104492,0.03801703453063965,-0.06652611494064331,0.3659083,-0.040927973,66.77038,-77.21025999999999,-10.527973,SDL
4963661500000.0,0.9162253737449646,-0.6757680177688599,9.851347923278809,0.03431032970547676,-0.06342024356126785,0.3830125,-0.030543262,66.49225600000001,-77.28603000000001,-10.546199,SDL
4963675000000.0,0.9212223887443542,-0.6984052062034607,9.881268501281738,0.030557354912161827,-0.06223784387111664,0.37507126,-0.02321288,66.22284,-77.35421,-10.561497,SDL
4963688000000.0,0.9262266755104065,-0.7190384864807129,9.905855178833008,0.027085037901997566,-0.06272991746664047,0.364992,-0.025961772999999997,65.95014,-77.41456600000001,-10.5791855,SDL
4963701000000.0,0.9312249422073364,-0.7379789352416992,9.924504280090332,0.024153731763362885,-0.06470955908298492,0.35491269999999997,-0.021991148999999998,65.683815,-77.47349,-10.589998,SDL
4963713000000.0,0.936224102973938,-0.7553016543388367,9.937414169311523,0.02174363099038601,-0.06804866343736649,0.34208453,0.0012217305,65.420746,-77.53031999999999,-10.595327000000001,SDL
4963724400000.0,0.9412220120429993,-0.7710976600646973,9.944928169250488,0.01982411928474903,-0.0723329558968544,0.32009340000000003,0.008857545999999999,65.16804,-77.58145999999999,-10.60106,SDL
4963736000000.0,0.9462206363677979,-0.7857545018196106,9.94704818725586,0.020535698160529137,-0.07834220677614212,0.28588495,0.00030543262000000003,64.92845,-77.628815,-10.602125,SDL
4963747000000.0,0.9512231349945068,-0.8000170588493347,9.943446159362793,0.028559189289808273,-0.08544733375310898,0.24007004,0.005192355,64.70201999999999,-77.68009,-10.594549,SDL
4963758000000.0,0.9562196731567383,-0.8138926029205322,9.934626579284668,0.04324403405189514,-0.09298767894506454,0.20097467,-0.0009162978999999999,64.48475,-77.71231999999999,-10.598884,SDL
4963768500000.0,0.9612177014350891,-0.8271695971488953,9.924233436584473,0.05982329696416855,-0.10222595930099487,0.20066923,0.004276057,64.27261,-77.74216,-10.596919999999999,SDL
4963778400000.0,0.9662153720855713,-0.8397390246391296,9.91439437866211,0.07551900297403336,-0.11565978080034256,0.20769419,0.004276057,64.07339,-77.76100000000001,-10.595872,SDL
4963788400000.0,0.9712136387825012,-0.8620331883430481,9.912999153137207,0.08493343740701675,-0.13176336884498596,0.26389378,0.004276057,63.9808826885116,-77.7553245834978,-10.599301474239999,SDL
4963798000000.0,0.9762185215950012,-0.8982847929000854,9.9232177734375,0.08591277152299881,-0.14949917793273926,0.29046643,0.004886922,63.886269999999996,-77.74951999999999,-10.602808999999999,SDL
4963807300000.0,0.9812164902687073,-0.9419273734092712,9.937931060791016,0.0784728154540062,-0.16902439296245575,0.25289822,-0.0036651915999999997,63.73534,-77.733246,-10.60793,SDL
4963816000000.0,0.9862143993377686,-0.9883766174316406,9.951860427856445,0.062142059206962585,-0.1888275295495987,0.19120082,-0.044898596,63.564217000000006,-77.69528000000001,-10.626112,SDL
4963825000000.0,0.9912122488021851,-1.0381884574890137,9.963401794433594,0.03840576112270355,-0.2088286578655243,0.16065755,-0.08124508,63.38460500000001,-77.641014,-10.668686,SDL
4963834000000.0,0.9962095618247986,-1.092073917388916,9.970589637756348,0.008957053534686565,-0.22823591530323029,0.11148291,-0.111177474,63.233177000000005,-77.57944499999999,-10.716691,SDL
4963842400000.0,1.001207709312439,-1.1469871997833252,9.972555160522461,-0.022878216579556465,-0.2466251701116562,0.089186326,-0.1423316,63.06275,-77.51408,-10.782942,SDL
4963851000000.0,1.0062085390090942,-1.1984896659851074,9.967876434326172,-0.05229027196764946,-0.2650761604309082,0.12644911,-0.15974127,62.893657999999995,-77.44369499999999,-10.8514185,SDL
4963859000000.0,1.0112061500549316,-1.2454012632369995,9.957345008850098,-0.07918712496757507,-0.28392744064331055,0.22235495,-0.1695151,62.70455,-77.3649,-10.938915,SDL
4963867000000.0,1.016202449798584,-1.2842170000076294,9.942046165466309,-0.10305176675319672,-0.3033692538738251,0.28985557,-0.18387043,62.517773,-77.280754,-11.029436,SDL
4963875000000.0,1.021229863166809,-1.314260721206665,9.923164367675781,-0.12413565069437027,-0.32594195008277893,0.33444872,-0.22296582,62.31986,-77.17681,-11.130349,SDL
4963883000000.0,1.0262292623519897,-1.3368330001831055,9.903482437133789,-0.14319278299808502,-0.3535296320915222,0.34116822,-0.23945917,62.117825,-77.06944,-11.2260475,SDL
4963890000000.0,1.0312244892120361,-1.3521738052368164,9.884661674499512,-0.15812644362449646,-0.38127484917640686,0.36865717,-0.26878070000000004,61.897830000000006,-76.95795,-11.326788,SDL
4963897400000.0,1.0362199544906616,-1.3613958358764648,9.870377540588379,-0.16469119489192963,-0.41073179244995117,0.3930918,-0.30451632,61.682705000000006,-76.825035,-11.430614,SDL
4963905000000.0,1.041215419769287,-1.365206003189087,9.860897064208984,-0.16446872055530548,-0.4420534074306488,0.42058071,-0.32528573,61.454815,-76.69846,-11.52084,SDL
4963912000000.0,1.0462135076522827,-1.3647286891937256,9.857207298278809,-0.1604139357805252,-0.4747334122657776,0.45142943,-0.35369098,61.22578000000001,-76.55884,-11.620827,SDL
4963919000000.0,1.051217794418335,-1.3602571487426758,9.858687400817871,-0.15379737317562103,-0.5083901286125183,0.49480084,-0.376293,60.999109999999995,-76.40996,-11.712543499999999,SDL
4963926000000.0,1.0562188625335693,-1.3526517152786255,9.863249778747559,-0.1496410220861435,-0.5424017906188965,0.50885075,-0.39522982,60.778544999999994,-76.25356,-11.808163,SDL
4963932600000.0,1.0612154006958008,-1.342097282409668,9.87071418762207,-0.1478026658296585,-0.5755124092102051,0.50946164,-0.41172317,60.5546,-76.09599,-11.899151,SDL
4963939400000.0,1.0662111043930054,-1.3299081325531006,9.877128601074219,-0.15268434584140778,-0.6085838675498962,0.5027421,-0.44715336,60.335964000000004,-75.92638000000001,-11.998014999999999,SDL
4963946000000.0,1.071251630783081,-1.3162251710891724,9.881057739257812,-0.16668331623077393,-0.6408206820487976,0.49907690000000005,-0.47494772,60.12235,-75.75976,-12.096337,SDL
4963953000000.0,1.0762481689453125,-1.3025908470153809,9.88058090209961,-0.1852516233921051,-0.6712255477905273,0.535118,-0.50243664,59.876266,-75.59713,-12.193996,SDL
4963959300000.0,1.0812430381774902,-1.289428949356079,9.87352180480957,-0.20816726982593536,-0.6996845006942749,0.5852089,-0.52839845,59.634240000000005,-75.43186,-12.296254,SDL
4963965600000.0,1.0862376689910889,-1.2761446237564087,9.858025550842285,-0.23441417515277863,-0.7275058031082153,0.62796944,-0.5497787,59.356869999999994,-75.28073,-12.395761,SDL
4963972000000.0,1.0912319421768188,-1.2622750997543335,9.832751274108887,-0.26314184069633484,-0.7544955015182495,0.65576386,-0.5729916,59.077034,-75.130646,-12.500591,SDL
4963978000000.0,1.0962319374084473,-1.2471520900726318,9.797821044921875,-0.2940087914466858,-0.7813490033149719,0.69913524,-0.5864305999999999,58.76735,-74.98151,-12.610771000000002,SDL
4963984500000.0,1.1012279987335205,-1.2304511070251465,9.754024505615234,-0.32656827569007874,-0.8080736398696899,0.73761976,-0.59956425,58.458973,-74.83166,-12.723813999999999,SDL
4963991000000.0,1.1062242984771729,-1.2119381427764893,9.70020866394043,-0.35503771901130676,-0.8340576887130737,0.74097955,-0.6044512,58.138732999999995,-74.68158000000001,-12.841676,SDL
4963997000000.0,1.111218810081482,-1.1914184093475342,9.635381698608398,-0.37328165769577026,-0.8595847487449646,0.7153232,-0.6072,57.823505000000004,-74.531654,-12.9578905,SDL
4964003000000.0,1.1162132024765015,-1.1737029552459717,9.56652545928955,-0.36629295349121094,-0.8851349949836731,0.70554936,-0.6044512,57.491627,-74.383385,-13.071163,SDL
4964008600000.0,1.1212106943130493,-1.1618108749389648,9.498085975646973,-0.324799120426178,-0.9114396572113037,0.6600399,-0.5934556,57.18448000000001,-74.23879000000001,-13.175286999999999,SDL
4964014400000.0,1.126208782196045,-1.1553902626037598,9.430068016052246,-0.2509358525276184,-0.9389631152153015,0.5876524000000001,-0.5699373000000001,56.91111,-74.073715,-13.272321,SDL
4964020000000.0,1.1312049627304077,-1.154833197593689,9.371556282043457,-0.16775630414485931,-0.9683892130851746,0.49388456,-0.53878313,56.66284,-73.91143000000001,-13.356975,SDL
4964026000000.0,1.1361994743347168,-1.160061240196228,9.324933052062988,-0.08243196457624435,-0.9996327757835388,0.39461896,-0.47372600000000004,56.440506000000006,-73.76116999999999,-13.418339999999999,SDL
4964031700000.0,1.1411972045898438,-1.176703691482544,9.286766052246094,-0.007980333641171455,-1.0325807332992554,0.2773328,-0.3921755,56.35750600000001,-73.47451,-13.50999,SDL
4964037400000.0,1.1461966037750244,-1.204752802848816,9.256240844726562,0.05473925918340683,-1.066035270690918,0.17195857,-0.3286455,56.302216,-73.19586,-13.582192000000001,SDL
4964043000000.0,1.1512097120285034,-1.249544620513916,9.232104301452637,0.1095065027475357,-1.0980650186538696,0.10995574,-0.27885997,56.268375,-72.9059,-13.642062,SDL
4964049000000.0,1.1562100648880005,-1.3124346733093262,9.212785720825195,0.15970681607723236,-1.127785563468933,0.083383106,-0.24831672,56.255463,-72.62472,-13.685535999999999,SDL
4964054700000.0,1.1612091064453125,-1.3911694288253784,9.194971084594727,0.2123941332101822,-1.1548641920089722,0.08002335,-0.24678956,56.221493,-72.34073000000001,-13.750282,SDL
4964060500000.0,1.1662086248397827,-1.4825553894042969,9.174896240234375,0.27537694573402405,-1.1803044080734253,0.04520403,-0.2843578,56.207558,-72.05816,-13.8135195,SDL
4964066300000.0,1.1712067127227783,-1.5782052278518677,9.15131664276123,0.3456205129623413,-1.2043401002883911,0.014966198,-0.35399640000000004,56.201225,-71.73592,-13.92384,SDL
4964071500000.0,1.176208734512329,-1.6717923879623413,9.123176574707031,0.42097190022468567,-1.228885293006897,-0.0030543262,-0.43676865,56.207466000000004,-71.403076,-14.044916,SDL
4964077000000.0,1.1812103986740112,-1.7585922479629517,9.088590621948242,0.4953263998031616,-1.2544175386428833,-0.025961772999999997,-0.52870387,56.25394,-70.97995999999999,-14.228837,SDL
4964082000000.0,1.1862095594406128,-1.8345204591751099,9.04590129852295,0.5634050369262695,-1.2814701795578003,-0.025961772999999997,-0.605062,56.306152000000004,-70.54256,-14.427659,SDL
4964087000000.0,1.1912087202072144,-1.8984143733978271,8.993948936462402,0.6236604452133179,-1.3084484338760376,-0.0125227375,-0.6786713000000001,56.37195,-70.04439,-14.67133,SDL
4964092500000.0,1.1962063312530518,-1.9474008083343506,8.930126190185547,0.6726006865501404,-1.3347865343093872,0.003970624,-0.7324274000000001,56.44481700000001,-69.53697,-14.925035000000001,SDL
4964097700000.0,1.2012015581130981,-1.983925700187683,8.852958679199219,0.7123381495475769,-1.3595256805419922,-0.005192355,-0.7724390999999999,56.510290000000005,-69.024,-15.184529000000001,SDL
4964103000000.0,1.206207275390625,-2.011080026626587,8.758426666259766,0.7457155585289001,-1.3830928802490234,-0.047036625,-0.8002335,56.588696,-68.50989,-15.447662,SDL
4964108000000.0,1.2112040519714355,-2.031641960144043,8.649909973144531,0.7758186459541321,-1.4049808979034424,-0.07727446,-0.8368853999999999,56.64974,-68.01756,-15.704424,SDL
4964113400000.0,1.2162007093429565,-2.0487427711486816,8.529163360595703,0.8068647384643555,-1.4253443479537964,-0.12492194,-0.86376345,56.734516000000006,-67.53183,-15.955313,SDL
4964118700000.0,1.2211982011795044,-2.0625598430633545,8.396784782409668,0.8388112187385559,-1.444655179977417,-0.1881465,-0.9077458,56.824303,-67.03058,-16.2152,SDL
4964124000000.0,1.226200819015503,-2.0740010738372803,8.251930236816406,0.867215096950531,-1.4624484777450562,-0.19822577,-0.93859446,56.919093999999994,-66.54054000000001,-16.47306,SDL
4964129000000.0,1.231202244758606,-2.0837838649749756,8.094868659973145,0.8891236782073975,-1.4799772500991821,-0.18692477,-0.96761054,57.034330000000004,-66.04793000000001,-16.73289,SDL
4964134400000.0,1.2362021207809448,-2.0929758548736572,7.929784774780273,0.9388468265533447,-1.4974182844161987,-0.19120082,-0.9831876,57.175095,-65.51276999999999,-17.00779,SDL
4964139700000.0,1.241201400756836,-2.1021535396575928,7.7589945793151855,1.0339492559432983,-1.5161923170089722,-0.24007004,-1.0088439,57.334686,-64.97235,-17.28375,SDL
4964145000000.0,1.2461998462677002,-2.1129331588745117,7.595393657684326,1.158037543296814,-1.5386048555374146,-0.29077184,-1.0198395,57.492340000000006,-64.40320600000001,-17.564846,SDL
4964150000000.0,1.2512019872665405,-2.1269521713256836,7.451699256896973,1.295599341392517,-1.56538987159729,-0.39370266,-1.0369438,57.68676800000001,-63.825092000000005,-17.839029999999998,SDL
4964155400000.0,1.2562004327774048,-2.1495237350463867,7.328192234039307,1.4380513429641724,-1.59663987159729,-0.5128214,-1.029308,58.045673,-63.068287,-18.126348,SDL
4964160600000.0,1.2612009048461914,-2.1869821548461914,7.225993633270264,1.576729655265808,-1.6316285133361816,-0.61575216,-1.0186177,58.437527,-62.299907999999995,-18.401411,SDL
4964166000000.0,1.2661998271942139,-2.2382395267486572,7.1448869705200195,1.7037426233291626,-1.6679917573928833,-0.68111473,-1.0149527,58.88528,-61.472319999999996,-18.663607,SDL
4964171000000.0,1.2711979150772095,-2.30253005027771,7.084595203399658,1.81380033493042,-1.7033448219299316,-0.6826419,-1.0021244,59.346244999999996,-60.649105000000006,-18.90894,SDL
4964176400000.0,1.2762017250061035,-2.376403570175171,7.039349555969238,1.9053298234939575,-1.7348443269729614,-0.6426301999999999,-0.9807440999999999,59.801556000000005,-59.81791,-19.163187,SDL
4964181600000.0,1.2811992168426514,-2.4555962085723877,7.002686023712158,1.977583408355713,-1.7605957984924316,-0.6178902,-0.95111716,60.26136999999999,-59.010909999999996,-19.402110999999998,SDL
4964187000000.0,1.2861987352371216,-2.5359699726104736,6.969004154205322,2.034398317337036,-1.7802870273590088,-0.61544675,-0.9114109,60.65127,-58.257583999999994,-19.649635,SDL
4964192000000.0,1.2911978960037231,-2.613849401473999,6.933539390563965,2.079495906829834,-1.794224739074707,-0.65209866,-0.8940013000000001,61.04554,-57.53868000000001,-19.885395000000003,SDL
4964197300000.0,1.296195387840271,-2.6826744079589844,6.895532608032227,2.1142210960388184,-1.8032851219177246,-0.7153232,-0.8915578000000002,61.380577,-56.875057,-20.117712,SDL
4964202600000.0,1.3011986017227173,-2.7369470596313477,6.8542351722717285,2.1395018100738525,-1.8091769218444824,-0.81214535,-0.8924741,61.732487,-56.241215000000004,-20.330364000000003,SDL
4964208000000.0,1.3062001466751099,-2.774531602859497,6.810693264007568,2.162651777267456,-1.813127040863037,-0.8387180000000001,-0.89461213,62.05389399999999,-55.63539,-20.542253,SDL
4964213000000.0,1.3111999034881592,-2.793069362640381,6.765766620635986,2.1904964447021484,-1.8170619010925293,-0.88361657,-0.90224797,62.40569,-55.04348,-20.734837,SDL
4964218300000.0,1.3161967992782593,-2.792454242706299,6.720600605010986,2.2270169258117676,-1.8222194910049438,-0.9593639000000002,-0.9147707,62.746795999999996,-54.48101,-20.899254,SDL
4964223500000.0,1.3211970329284668,-2.7716317176818848,6.676591873168945,2.2778332233428955,-1.8305530548095703,-1.0800097,-0.93645644,63.112896,-53.91659,-21.050154,SDL
4964229000000.0,1.3261923789978027,-2.7360048294067383,6.637266159057617,2.341749906539917,-1.8425769805908203,-1.196685,-0.98746365,63.506527,-53.33854300000001,-21.16563,SDL
4964234000000.0,1.331192970275879,-2.6927621364593506,6.609127998352051,2.4187519550323486,-1.8577038049697876,-1.2577715,-1.029308,63.917725,-52.75663,-21.270638,SDL
4964239300000.0,1.3361927270889282,-2.6425094604492188,6.591390132904053,2.507795572280884,-1.8763543367385864,-1.2825116,-1.0803152,64.3769,-52.125042,-21.337759,SDL
4964244500000.0,1.3411896228790283,-2.5881807804107666,6.59023380279541,2.5954339504241943,-1.8978360891342163,-1.2425,-1.1478158,64.84164,-51.481693,-21.416557,SDL
4964250000000.0,1.3461871147155762,-2.530172824859619,6.60568904876709,2.6804423332214355,-1.9214122295379639,-1.1291844,-1.2119566000000002,65.2991,-50.8266,-21.511164,SDL
4964255000000.0,1.3511896133422852,-2.4650001525878906,6.643056392669678,2.7608070373535156,-1.9459130764007568,-0.9923506,-1.2681563,65.7651,-50.136482,-21.58098,SDL
4964260000000.0,1.3561909198760986,-2.3913798332214355,6.703795433044434,2.835620880126953,-1.9709312915802002,-0.91446525,-1.2947289,66.22021,-49.441463,-21.66319,SDL
4964265500000.0,1.3611903190612793,-2.3094754219055176,6.7803730964660645,2.891413927078247,-1.9951045513153076,-0.88422745,-1.2971723,66.61308000000001,-48.789204,-21.727642000000003,SDL
4964270700000.0,1.3661882877349854,-2.219533681869507,6.868631362915039,2.9217543601989746,-2.0183639526367188,-0.9053023000000001,-1.2611313,66.994484,-48.14484,-21.789063,SDL
4964276000000.0,1.3711906671524048,-2.1229748725891113,6.952873229980469,2.9361233711242676,-2.0394396781921387,-0.94225967,-1.2015719999999999,67.29893,-47.592663,-21.794732999999997,SDL
4964280700000.0,1.3762000799179077,-2.02062726020813,7.0260138511657715,2.939300537109375,-2.05794358253479,-1.0067059,-1.1249083,67.60217,-47.061405,-21.777796,SDL
4964286000000.0,1.3812012672424316,-1.9162538051605225,7.076279163360596,2.9401097297668457,-2.074761390686035,-1.1096367,-1.0763446,67.80255,-46.645733,-21.717926000000002,SDL
4964290700000.0,1.386200189590454,-1.8113956451416016,7.097409725189209,2.9428913593292236,-2.089103937149048,-1.1777482,-1.0442741,67.996086,-46.259106,-21.640623,SDL
4964296000000.0,1.3911954164505005,-1.7087019681930542,7.094781875610352,2.95278000831604,-2.1020636558532715,-1.1481212,-1.0317514,68.154724,-45.89333,-21.542317999999998,SDL
4964301000000.0,1.396263837814331,-1.6092302799224854,7.066127300262451,2.97592830657959,-2.116513967514038,-1.044885,-1.0118983,68.30154,-45.535915,-21.440027,SDL
4964306000000.0,1.401258945465088,-1.514441967010498,7.026876926422119,3.0087924003601074,-2.1338889598846436,-1.0012082,-1.0036516,68.50863000000001,-45.102913,-21.329542,SDL
4964310600000.0,1.406256079673767,-1.4252400398254395,6.97929048538208,3.060760498046875,-2.152437925338745,-0.91813046,-1.0231993000000001,68.68087,-44.675407,-21.248829,SDL
4964316000000.0,1.4112482070922852,-1.3411190509796143,6.93456506729126,3.1231136322021484,-2.1753861904144287,-0.8530733,-1.0369438,68.92935,-44.129246,-21.162735,SDL
4964320500000.0,1.4162425994873047,-1.2614811658859253,6.910756587982178,3.1832339763641357,-2.2017505168914795,-0.79076505,-1.0207558,69.15424,-43.588196,-21.089214000000002,SDL
4964326000000.0,1.4212583303451538,-1.188378930091858,6.908193588256836,3.2414369583129883,-2.227426052093506,-0.8173377,-1.0091494,69.45575,-42.96369,-21.002685999999997,SDL
4964331000000.0,1.4262583255767822,-1.1424838304519653,6.9244160652160645,3.2987678050994873,-2.2495031356811523,-0.84391034,-0.99204516,69.7352,-42.34554,-20.921494,SDL
4964336000000.0,1.4312505722045898,-1.1230175495147705,6.95896053314209,3.355337381362915,-2.269036293029785,-0.85154617,-0.94042706,69.94631,-41.78971,-20.815707999999997,SDL
4964341000000.0,1.4362465143203735,-1.1352033615112305,7.00282096862793,3.4172191619873047,-2.287626266479492,-0.82527894,-0.8524625,70.14084,-41.255596000000004,-20.701124,SDL
4964345700000.0,1.4412426948547363,-1.1801741123199463,7.0503621101379395,3.487393856048584,-2.3076834678649902,-0.76144356,-0.73639804,70.308105,-40.73789,-20.57779,SDL
4964351000000.0,1.4462389945983887,-1.2504087686538696,7.099526405334473,3.5651752948760986,-2.329829454421997,-0.75594574,-0.6075055,70.38828000000001,-40.277415999999995,-20.495588,SDL
4964355700000.0,1.45124351978302,-1.334542155265808,7.146845817565918,3.6500556468963623,-2.353562355041504,-0.78984874,-0.54611355,70.45153,-39.825053999999994,-20.410772,SDL
4964361000000.0,1.4562379121780396,-1.430686116218567,7.192368507385254,3.7409253120422363,-2.3797905445098877,-0.8549059000000001,-0.46700647,70.48826,-39.34015,-20.368603,SDL
4964365600000.0,1.4612343311309814,-1.5388215780258179,7.242466449737549,3.840573787689209,-2.407388210296631,-0.97158116,-0.44532076,70.54335999999999,-38.860157,-20.308076999999997,SDL
4964371000000.0,1.466230869293213,-1.6581367254257202,7.300394058227539,3.9499452114105225,-2.437861204147339,-1.0436633,-0.42149702,70.585365,-38.37762,-20.228839999999998,SDL
4964375600000.0,1.4712272882461548,-1.7794020175933838,7.35650634765625,4.059658050537109,-2.4727816581726074,-1.0601566,-0.42149702,70.662094,-37.8278,-20.167257,SDL
4964381000000.0,1.4762275218963623,-1.893937587738037,7.401615142822266,4.160852909088135,-2.5108869075775146,-1.0946705,-0.43310347,70.75447,-37.277287,-20.085857,SDL
4964385600000.0,1.4812262058258057,-1.9955418109893799,7.433096885681152,4.255541801452637,-2.549647331237793,-1.1588113000000002,-0.43279803,70.84540600000001,-36.696846,-20.006172,SDL
4964391000000.0,1.4862234592437744,-2.0800514221191406,7.44918966293335,4.345184326171875,-2.5897276401519775,-1.176221,-0.37507126,70.92362,-36.10923,-19.922209,SDL
4964395500000.0,1.4912210702896118,-2.150956869125366,7.441413402557373,4.4229817390441895,-2.6301462650299072,-1.1838568,-0.32314770000000004,71.01324,-35.493958,-19.822367,SDL
4964401000000.0,1.4962199926376343,-2.2109713554382324,7.403885364532471,4.484125137329102,-2.6670923233032227,-1.1545353,-0.35521814,71.10563,-34.893425,-19.734299,SDL
4964406000000.0,1.501223087310791,-2.2630982398986816,7.334693908691406,4.536959171295166,-2.6993672847747803,-1.1187996999999998,-0.36774087,71.19883,-34.260975,-19.609026,SDL
4964410700000.0,1.5062222480773926,-2.3104233741760254,7.233266353607178,4.5897603034973145,-2.7276923656463623,-1.0797043,-0.37018433,71.29073000000001,-33.646716999999995,-19.498839999999998,SDL
4964416000000.0,1.5112197399139404,-2.360395908355713,7.105134963989258,4.655332565307617,-2.749380588531494,-1.0665708,-0.3933972,71.42259,-32.995678000000005,-19.398888,SDL
4964420700000.0,1.5162147283554077,-2.4203319549560547,6.956053256988525,4.746199607849121,-2.765322685241699,-1.067487,-0.3744604,71.53968,-32.374588,-19.300846,SDL
4964426000000.0,1.521213173866272,-2.508165121078491,6.76826286315918,4.851651668548584,-2.7774853706359863,-1.1151345,-0.35918877,71.751144,-31.65843,-19.190342,SDL
4964430600000.0,1.5262149572372437,-2.6419858932495117,6.5241546630859375,4.960182189941406,-2.7876975536346436,-1.1520919,-0.34025195,71.953224,-30.97672,-19.081263,SDL
4964436000000.0,1.5312139987945557,-2.8143470287323,6.236112594604492,5.07171106338501,-2.7957541942596436,-1.2400563999999998,-0.29321529999999996,72.25686999999999,-30.176940000000002,-18.943962,SDL
4964440600000.0,1.5362101793289185,-2.993382692337036,5.967272758483887,5.188171863555908,-2.8036906719207764,-1.3726143,-0.30604348,72.5787,-29.389158000000002,-18.796158,SDL
4964446000000.0,1.5412040948867798,-3.1787660121917725,5.71661901473999,5.309321403503418,-2.811155319213867,-1.536326,-0.29016098,73.055954,-28.334328000000003,-18.698933,SDL
4964450600000.0,1.5462017059326172,-3.358835458755493,5.484442234039307,5.432261943817139,-2.819052219390869,-1.6737707999999998,-0.27885997,73.53423000000001,-27.291277,-18.576992,SDL
4964456000000.0,1.551216721534729,-3.531372308731079,5.2696051597595215,5.556142807006836,-2.8273911476135254,-1.8216002,-0.26053402,74.012146,-26.270063,-18.4084,SDL
4964460500000.0,1.5562127828598022,-3.6882786750793457,5.064838409423828,5.673192024230957,-2.837141275405884,-2.0534234000000002,-0.24617869,74.488945,-25.240019,-18.202871,SDL
4964466000000.0,1.5612332820892334,-3.828981637954712,4.869632244110107,5.783661365509033,-2.8486342430114746,-2.2162192000000003,-0.25503623,74.943855,-24.217825,-17.970917,SDL
4964471000000.0,1.566230297088623,-3.9491446018218994,4.689101696014404,5.886444568634033,-2.8594985008239746,-2.3338106,-0.25961772,75.39401,-23.220594000000002,-17.691648,SDL
4964475700000.0,1.5712263584136963,-4.048729419708252,4.5228352546691895,5.981795310974121,-2.8692140579223633,-2.4471262,-0.24190263,75.83469000000001,-22.22454,-17.352165,SDL
4964481000000.0,1.5762239694595337,-4.123800754547119,4.362879753112793,6.064378261566162,-2.877223491668701,-2.5121834,-0.24037547,76.26491,-21.25011,-17.0023,SDL
4964485700000.0,1.5812199115753174,-4.175194263458252,4.207911014556885,6.134158611297607,-2.884838819503784,-2.6178630000000003,-0.26572640000000003,76.69174,-20.291437,-16.618807,SDL
4964491000000.0,1.586215615272522,-4.189629554748535,4.066741943359375,6.211789131164551,-2.8905506134033203,-2.600148,-0.19883664,77.04648,-19.380272,-16.211810999999997,SDL
4964495700000.0,1.5912110805511475,-4.158588409423828,3.945242166519165,6.311383247375488,-2.8910748958587646,-2.6548203999999997,-0.11545353400000001,77.401596,-18.50401,-15.767698000000001,SDL
4964501000000.0,1.5962098836898804,-4.124034881591797,3.8359618186950684,6.4231953620910645,-2.8877949714660645,-2.6868908,-0.10079276599999999,77.73647,-17.635324,-15.289863,SDL
4964506000000.0,1.6012214422225952,-4.112613201141357,3.7341020107269287,6.541290760040283,-2.8807179927825928,-2.7348437000000003,-0.12950343,78.04929,-16.813566,-14.800547,SDL
4964511000000.0,1.6062182188034058,-4.126178741455078,3.6377360820770264,6.6614298820495605,-2.8715603351593018,-2.8457158,-0.15210545,78.3548,-16.040478,-14.207645000000001,SDL
4964515600000.0,1.611212968826294,-4.1676411628723145,3.545746088027954,6.782258033752441,-2.8583004474639893,-3.0079005000000003,-0.14966199,78.65573,-15.319938,-13.608982000000001,SDL
4964521000000.0,1.6162078380584717,-4.226585388183594,3.426352024078369,6.89736270904541,-2.8416290283203125,-3.2052099999999997,-0.12614368,78.91783000000001,-14.587335999999999,-12.992716,SDL
4964525500000.0,1.6212072372436523,-4.296065330505371,3.2586119174957275,7.002602577209473,-2.824885845184326,-3.4034357,-0.09285152,79.17403,-13.882232,-12.350278,SDL
4964531000000.0,1.6262052059173584,-4.375788688659668,3.0482676029205322,7.09346866607666,-2.807293176651001,-3.5888332999999997,-0.00580322,79.38391999999999,-13.183907500000002,-11.675021000000001,SDL
4964535500000.0,1.6312024593353271,-4.465766429901123,2.7992613315582275,7.166006565093994,-2.7864060401916504,-3.7384953000000003,0.092240654,79.57500999999999,-12.521934,-10.970121,SDL
4964541000000.0,1.6361987590789795,-4.562802314758301,2.5310347080230713,7.215292453765869,-2.762660264968872,-3.8087449999999996,0.1957823,79.79704,-11.7104225,-10.243064,SDL
4964545500000.0,1.6411951780319214,-4.6640753746032715,2.2608985900878906,7.236861228942871,-2.736485004425049,-3.8231,0.30268374,79.97236,-10.941392,-9.502616,SDL
4964550700000.0,1.6461964845657349,-4.752237319946289,2.0134496688842773,7.237643718719482,-2.709507465362549,-3.8386772000000002,0.42058071,80.148155,-10.054324000000001,-8.751939,SDL
4964556000000.0,1.6511950492858887,-4.815340995788574,1.8056806325912476,7.223666191101074,-2.6804189682006836,-3.8912115,0.50518554,80.27711,-9.211975,-8.000861,SDL
4964560700000.0,1.6561909914016724,-4.851701259613037,1.6425487995147705,7.1957197189331055,-2.650097370147705,-3.8841867,0.6010914,80.345535,-8.351877,-7.278747,SDL
4964566000000.0,1.6611871719360352,-4.859469413757324,1.5291169881820679,7.154397487640381,-2.6194546222686768,-3.8139372000000002,0.700357,80.36169,-7.520244,-6.5737853,SDL
4964570600000.0,1.6661832332611084,-4.834511756896973,1.451208472251892,7.10743522644043,-2.5880846977233887,-3.7177260000000003,0.7641924,80.30566,-6.792101,-5.8433447,SDL
4964576000000.0,1.6711822748184204,-4.772543430328369,1.3958851099014282,7.061992645263672,-2.555407762527466,-3.5595120000000002,0.79076505,80.20877,-6.0874233,-5.166762,SDL
4964580600000.0,1.6761826276779175,-4.67325496673584,1.3713479042053223,7.023343086242676,-2.521005392074585,-3.350596,0.8051204000000001,80.04508,-5.5198402,-4.4835477,SDL
4964586000000.0,1.6811838150024414,-4.535236835479736,1.389078974723816,6.998523712158203,-2.4836182594299316,-3.1080822999999995,0.81336707,79.86030600000001,-4.981923999999999,-3.8719435,SDL
4964590600000.0,1.686180591583252,-4.356454849243164,1.4419658184051514,6.978757381439209,-2.4424126148223877,-2.8032605999999998,0.8164214,79.64859,-4.5225525,-3.265523,SDL
4964596000000.0,1.691179633140564,-4.121428489685059,1.5156378746032715,6.938032150268555,-2.396322250366211,-2.4617869999999997,0.8720101,79.4098,-4.104068,-2.7541225,SDL
4964600500000.0,1.6961778402328491,-3.8356871604919434,1.5991851091384888,6.8812384605407715,-2.345460891723633,-2.3075435,0.91904676,79.12329,-3.8440019999999997,-2.2148537999999998,SDL
4964606000000.0,1.701178789138794,-3.5052881240844727,1.6695325374603271,6.817378520965576,-2.29439640045166,-2.1331415000000002,1.0363328,78.79723,-3.6088936,-1.7906915,SDL
4964611000000.0,1.7061885595321655,-3.1259255409240723,1.7208796739578247,6.754119396209717,-2.2421305179595947,-2.8002062000000003,1.3203851999999998,78.399086,-3.4724800000000005,-1.0234478999999999,SDL
4964615700000.0,1.7111897468566895,-2.588361978530884,1.6170035600662231,6.856691837310791,-2.207397222518921,-3.2033772000000003,1.4483615,78.00708,-3.2599354,-0.40018696,SDL
4964621000000.0,1.7162731885910034,-1.8445860147476196,1.3100851774215698,7.166928768157959,-2.178405284881592,-3.111442,1.3408492,77.65831,-3.0605333,0.5583406999999999,SDL
4964625700000.0,1.7212674617767334,-1.0610010623931885,0.8906266689300537,7.527353286743164,-2.1069769859313965,-2.8564060000000002,1.1618657,77.29899999999999,-3.0448348999999997,1.5624198999999999,SDL
4964631000000.0,1.7262643575668335,-0.20163609087467194,0.3028232753276825,7.967281341552734,-2.014206886291504,-2.275473,0.48105640000000005,77.27216999999999,-2.3250532,3.0073898,SDL
4964635600000.0,1.73126220703125,0.6711751818656921,-0.30979740619659424,8.433503150939941,-1.852465271949768,-1.4138476,-0.50640726,77.355034,-2.1397998,4.240583,SDL
4964641000000.0,1.7362594604492188,1.547428011894226,-0.9248307347297668,8.916813850402832,-1.6305716037750244,0.71868294,-1.5519031,77.61206999999999,-2.1007347000000003,4.890697,SDL
4964645600000.0,1.7412564754486084,2.255514621734619,-1.5200488567352295,9.37192440032959,-1.376570701599121,1.8310685000000002,-1.598329,77.908936,-1.7912371999999999,5.799155000000001,SDL
4964651000000.0,1.746259093284607,2.7042016983032227,-2.0842020511627197,9.775018692016602,-1.0955919027328491,2.764776,-0.97585726,78.268196,-1.8864431000000002,6.079085,SDL
4964655600000.0,1.7512547969818115,2.8953070640563965,-2.62803316116333,10.130668640136719,-0.796381413936615,2.593123,-0.3051272,78.60226,-2.0889575000000002,6.435529,SDL
4964661000000.0,1.7562533617019653,2.7689156532287598,-3.179842233657837,10.442035675048828,-0.5131003856658936,0.5180137,0.48258355,78.713875,-2.3472114,7.022594000000001,SDL
4964665500000.0,1.7612481117248535,2.388775110244751,-3.721322774887085,10.662277221679688,-0.2610796093940735,-1.7797560000000001,1.2562444,78.68316999999999,-2.6477191,7.1328053,SDL
4964671000000.0,1.766244649887085,1.8784589767456055,-4.203704357147217,10.649007797241211,-0.030709747225046158,-2.8539624,1.7345519,78.510475,-2.988897,7.4842052,SDL
4964676000000.0,1.7712451219558716,1.2841827869415283,-4.612732410430908,10.415692329406738,0.18188130855560303,-3.0219505,1.9211711999999999,78.35594,-3.0828109,7.603358999999999,SDL
4964681000000.0,1.7762542963027954,0.7120094895362854,-4.907622337341309,9.977423667907715,0.3758505582809448,-2.5854871,1.8359555,78.11695999999999,-3.1501759999999996,7.860961,SDL
4964686000000.0,1.78125,0.16151335835456848,-5.101716995239258,9.362215042114258,0.53765469789505,-1.6001616,1.536326,77.94916500000001,-3.2346866000000003,7.8018227,SDL
4964690700000.0,1.7862462997436523,-0.32962310314178467,-5.149055480957031,8.835458755493164,0.6436478495597839,-1.1557571000000002,1.3979651000000002,77.73429,-3.1521765999999998,7.777979400000001,SDL
4964696000000.0,1.7912410497665405,-0.76065993309021,-5.053521633148193,8.419961929321289,0.7000271677970886,-1.1939361000000002,1.4434745,77.52569,-2.9851186000000003,7.614430400000001,SDL
4964700700000.0,1.7962371110916138,-1.1273083686828613,-4.800352096557617,8.225358963012695,0.733559787273407,-1.8732183,1.496009,77.298454,-3.0030806,7.582259,SDL
4964706000000.0,1.8012323379516602,-1.4305155277252197,-4.3909735679626465,8.28322696685791,0.7675842046737671,-3.6395352,1.6887368999999999,77.02424,-2.8923872000000004,7.8694158,SDL
4964710600000.0,1.806230902671814,-1.7131179571151733,-3.925474166870117,8.401582717895508,0.8183515667915344,-5.5491,1.8649716,76.7002,-3.1149678,8.453794,SDL
4964716000000.0,1.8112235069274902,-1.9900561571121216,-3.441715717315674,8.512847900390625,0.8832767009735107,-6.261063,1.7852536,76.4012,-3.3358989,9.189993,SDL
4964720600000.0,1.8162182569503784,-2.21094012260437,-2.9226057529449463,8.420272827148438,0.9420397877693176,-6.32948,1.7012596999999998,76.04856,-3.9196765,10.313663,SDL
4964726000000.0,1.821218729019165,-2.366483688354492,-2.365328788757324,8.08673095703125,0.9754852056503296,-6.226244,1.7959439,75.70318,-4.464050299999999,11.575139,SDL
4964731000000.0,1.8262230157852173,-2.4450178146362305,-1.7957074642181396,7.609745979309082,0.9852226376533508,-6.1349196,2.0259346999999996,75.38235999999999,-5.0795527,12.828713,SDL
4964736000000.0,1.8312299251556396,-2.430257558822632,-1.2456337213516235,7.108089923858643,0.9939853549003601,-5.955019999999999,2.228742,75.06418000000001,-5.667152,14.012829,SDL
4964741000000.0,1.8362280130386353,-2.3711740970611572,-0.7116085886955261,6.6141438484191895,1.0148146152496338,-5.9088993,2.2736403999999997,74.768364,-6.4652634,15.529854,SDL
4964746000000.0,1.8412230014801025,-2.315239429473877,-0.1891593486070633,6.1602396965026855,1.0466116666793823,-5.9589906,2.1862867,74.49469,-7.2437,17.020819,SDL
4964751000000.0,1.8462194204330444,-2.136138916015625,0.3225208520889282,5.793576240539551,1.085682988166809,-6.0466495,1.9825631000000001,74.27024,-8.103491,18.759676000000002,SDL
4964755700000.0,1.851219892501831,-1.7282015085220337,0.8241059184074402,5.553340911865234,1.1270344257354736,-6.145304,1.6865988999999997,74.16188000000001,-9.005377000000001,20.506866,SDL
4964761000000.0,1.8562172651290894,-1.1608073711395264,1.2992693185806274,5.433449745178223,1.168721318244934,-6.221968,1.450805,74.17758,-9.981424,22.250875,SDL
4964765700000.0,1.8612157106399536,-0.48647281527519226,1.7343953847885132,5.432206153869629,1.198371410369873,-6.2476244,1.3967433999999999,74.30056,-10.916209,23.995120999999997,SDL
4964771000000.0,1.866214632987976,0.26924118399620056,2.1165835857391357,5.531127452850342,1.203278660774231,-6.2323527,1.4877623,74.335464,-11.679292,26.213772,SDL
4964775600000.0,1.871213674545288,1.0681004524230957,2.4226248264312744,5.704212188720703,1.1750116348266602,-6.071084,1.68385,74.40619000000001,-12.3050375,28.348976,SDL
4964781000000.0,1.8762099742889404,1.8947536945343018,2.647960662841797,5.928865909576416,1.111952543258667,-5.7140336,1.9019289000000001,74.11538,-12.496221,30.52911,SDL
4964785600000.0,1.8812100887298584,2.7216079235076904,2.7743570804595947,6.163148403167725,1.02549409866333,-5.1349335,2.0888536,73.7716,-12.545208,32.490784000000005,SDL
4964791000000.0,1.8862097263336182,3.5401034355163574,2.821253538131714,6.372855186462402,0.9282122850418091,-4.310876,2.2360723,73.3003,-12.261507,34.386109999999995,SDL
4964795500000.0,1.8912080526351929,4.336337566375732,2.8163230419158936,6.49891996383667,0.8261043429374695,-3.7827830000000002,2.4086416,72.74244,-11.859211,36.110077000000004,SDL
4964801000000.0,1.8962064981460571,5.1072821617126465,2.7682833671569824,6.581333160400391,0.7170020937919617,-2.5821273,2.5048529999999998,72.016136,-11.180759,37.53451,SDL
4964806000000.0,1.901210069656372,5.846514701843262,2.690220355987549,6.6890363693237305,0.6044198274612427,-1.5537357,2.8600712,71.10235,-10.416936999999999,38.809670000000004,SDL
4964811300000.0,1.9062278270721436,6.545773506164551,2.58337140083313,6.805999279022217,0.4757816195487976,-1.6261233,3.5072827000000006,70.00845,-9.400459,40.217842,SDL
4964816000000.0,1.9112237691879272,7.115755081176758,2.4600229263305664,6.7900390625,0.33389636874198914,-2.7614164,3.5824192000000004,68.97936999999999,-8.419835,41.563774,SDL
4964821000000.0,1.9162402153015137,7.5489726066589355,2.318053722381592,6.625638484954834,0.17836317420005798,-3.7091737,3.5500432999999996,67.66592,-7.175565,42.861645,SDL
4964826000000.0,1.921236276626587,7.882837772369385,2.1728787422180176,6.319192886352539,0.01589946076273918,-3.9211440000000004,3.2913419999999998,66.41019,-5.939896,44.191185,SDL
4964830700000.0,1.9262371063232422,8.115206718444824,2.02361798286438,5.86356258392334,-0.14077092707157135,-3.5647042,2.8820622000000005,65.20689399999999,-4.7134795,45.62304,SDL
4964836000000.0,1.9312330484390259,8.28851318359375,1.8512625694274902,5.330728530883789,-0.27872323989868164,-2.9068022,2.3115141,64.12835,-3.5918026,46.956608,SDL
4964840600000.0,1.9362279176712036,8.413819313049316,1.651685118675232,4.738022327423096,-0.39125585556030273,-2.1282544,1.6447546000000002,63.20989599999999,-2.6203794,48.09025,SDL
4964846000000.0,1.941222906112671,8.541290283203125,1.4213085174560547,4.171980857849121,-0.477444589138031,-1.4141531,1.0509937,62.434822,-1.8174131000000002,49.134315,SDL
4964851000000.0,1.9462522268295288,8.68200397491455,1.1554309129714966,3.6481781005859375,-0.5420302748680115,-0.7263188,0.48380527,61.91076700000001,-1.2228453000000001,49.927128,SDL
4964856000000.0,1.9512574672698975,8.854002952575684,0.8656668066978455,3.1939237117767334,-0.5909334421157837,-0.032986722999999996,0.005192355,61.48198299999999,-0.74570173,50.51808,SDL
4964860600000.0,1.9562524557113647,9.06753158569336,0.5516701340675354,2.8216755390167236,-0.6260315775871277,0.52503866,-0.41996986,61.284313,-0.45082790000000006,50.929756,SDL
4964866000000.0,1.9612462520599365,9.335036277770996,0.2301124930381775,2.5581417083740234,-0.6495416760444641,0.70616025,-0.76083267,61.15175,-0.135243,51.367798,SDL
4964870500000.0,1.9662405252456665,9.662741661071777,-0.08752736449241638,2.4176406860351562,-0.6703827381134033,0.5635232,-0.9819659,61.157425,0.09596248,51.731606,SDL
4964876000000.0,1.9712384939193726,10.028968811035156,-0.38696643710136414,2.291309356689453,-0.6988377571105957,0.46670106,-1.0170907,61.126780000000004,0.41611590000000004,52.072857,SDL
4964881000000.0,1.9762393236160278,10.423539161682129,-0.6631425619125366,2.1356894969940186,-0.7384564280509949,0.6261369000000001,-0.8588764999999999,61.106494999999995,0.73293346,52.375240000000005,SDL
4964885700000.0,1.9812355041503906,10.820481300354004,-0.9335055351257324,1.9353886842727661,-0.7884646654129028,1.0421360999999998,-0.5751295999999999,61.011402000000004,1.1367393,52.570827,SDL
4964891000000.0,1.9862322807312012,11.208733558654785,-1.2064117193222046,1.6829417943954468,-0.8428559303283691,1.5231925,-0.27214047,60.843174,1.5950996000000002,52.69074200000001,SDL
4964895700000.0,1.9912291765213013,11.574258804321289,-1.501153588294983,1.419434666633606,-0.8959111571311951,1.7644843000000001,-0.040927973,60.584553,2.0960705,52.886017,SDL
4964901000000.0,1.9962266683578491,11.909132957458496,-1.8289119005203247,1.1694952249526978,-0.9450646042823792,2.1694880000000003,0.03145956,60.293354,2.6322967999999998,52.882946,SDL
4964905600000.0,2.001225471496582,12.213303565979004,-2.184131145477295,0.9535075426101685,-0.9859502911567688,2.4236077999999996,0.13164146,59.830204,3.2485974,52.963226,SDL
4964911000000.0,2.00622296333313,12.486655235290527,-2.56046724319458,0.7933597564697266,-1.0153789520263672,2.5818220000000003,0.20036379999999998,59.386996999999994,3.8464646,52.93954,SDL
4964915600000.0,2.0112195014953613,12.702024459838867,-2.9318740367889404,0.690772294998169,-1.032235860824585,2.7858509999999996,0.29962940000000005,58.791336,4.576486,52.790440000000004,SDL
4964921000000.0,2.0162148475646973,12.826569557189941,-3.267514944076538,0.6485251784324646,-1.040544033050537,3.0219505,0.36682457,58.23047,5.282158,52.572685,SDL
4964925600000.0,2.021209716796875,12.859134674072266,-3.5545601844787598,0.6540271043777466,-1.0477908849716187,3.162144,0.44776422,57.574596,6.1071815,52.211006,SDL
4964931000000.0,2.026217460632324,12.793349266052246,-3.776318311691284,0.6955264806747437,-1.0559537410736084,3.271489,0.5412266,56.950523,6.917631599999999,51.779415,SDL
4964935500000.0,2.0312137603759766,12.639667510986328,-3.935378074645996,0.7648924589157104,-1.0666115283966064,3.3615913,0.66645396,56.39194499999999,7.747821000000001,51.140545,SDL
4964941000000.0,2.0362110137939453,12.389654159545898,-4.0172600746154785,0.8524819016456604,-1.0781337022781372,3.4101553,0.8323039000000001,55.832497,8.599359,50.47637,SDL
4964945500000.0,2.0412068367004395,12.05316162109375,-4.023744583129883,0.949553370475769,-1.0879024267196655,3.4061847000000003,1.0366384,55.37066,9.402706,49.6446,SDL
4964950700000.0,2.04620623588562,11.640880584716797,-3.9515345096588135,1.0402119159698486,-1.0939764976501465,3.3139439,1.2223413,54.886265,10.233494,48.821007,SDL
4964956000000.0,2.051203489303589,11.134038925170898,-3.7938575744628906,1.1310827732086182,-1.0942575931549072,3.164893,1.3310753,54.4937,10.968299,47.89909,SDL
4964960700000.0,2.0562009811401367,10.46180248260498,-3.5163919925689697,1.241102695465088,-1.0923100709915161,2.9773571,1.4132367000000001,54.05737,11.736051,47.01068,SDL
4964966000000.0,2.0612058639526367,9.642236709594727,-3.1344597339630127,1.3701496124267578,-1.0909546613693237,2.666427,1.4761559,53.63974399999999,12.388055,46.149906,SDL
4964970700000.0,2.066201686859131,8.812570571899414,-2.7626965045928955,1.5179858207702637,-1.0873925685882568,2.2638667000000003,1.5076154,53.199726,13.029481,45.374179999999996,SDL
4964976000000.0,2.0712664127349854,7.9571404457092285,-2.397491931915283,1.6913423538208008,-1.0817252397537231,1.8420641,1.4789047,53.171783,13.311066,44.37883,SDL
4964980600000.0,2.0762643814086914,7.138087272644043,-2.0682098865509033,1.8543435335159302,-1.0747159719467163,1.4688255,1.4272866000000002,53.09904,13.578915,43.47137,SDL
4964986000000.0,2.081263303756714,6.3566203117370605,-1.782596230506897,2.003293991088867,-1.06749427318573,1.2516629,1.3750577,53.00795,13.826959,42.631374,SDL
4964990600000.0,2.086256504058838,5.628166675567627,-1.556322455406189,2.1326024532318115,-1.0613735914230347,1.1673635,1.382388,52.933871999999994,14.069887,41.686058,SDL
4964996000000.0,2.091249942779541,4.970346450805664,-1.4089395999908447,2.235504627227783,-1.0583137273788452,0.9450084999999999,1.3765849,52.841488,14.296475,40.833584,SDL
4965001000000.0,2.0962533950805664,4.392431259155273,-1.344819188117981,2.3014369010925293,-1.0566539764404297,0.5626069,1.3405437,52.67952,14.613944,40.00197,SDL
4965006000000.0,2.1012496948242188,3.8961806297302246,-1.3595545291900635,2.3260130882263184,-1.057133674621582,0.038179077,1.2516629,52.497223,14.927648999999999,39.264343,SDL
4965010500000.0,2.106245517730713,3.4840240478515625,-1.45355224609375,2.29598331451416,-1.0597689151763916,-0.5699373000000001,1.1163563,52.1725,15.437270000000002,38.666145,SDL
4965016000000.0,2.111238956451416,3.1559255123138428,-1.624475359916687,2.2019593715667725,-1.0633054971694946,-1.1328496000000001,0.9272934000000002,51.841854,15.921741,38.19985,SDL
4965020500000.0,2.1162328720092773,2.9174373149871826,-1.8791850805282593,2.0445425510406494,-1.0665396451950073,-1.425454,0.6979135000000001,51.367805,16.644632,37.913452,SDL
4965025700000.0,2.1212306022644043,2.781752109527588,-2.2327468395233154,1.8224252462387085,-1.0644415616989136,-1.3090841999999998,0.39553526,50.963463,17.30425,37.684296,SDL
4965031000000.0,2.1262264251708984,2.7425472736358643,-2.667085647583008,1.5649878978729248,-1.0487009286880493,-0.8732319,-0.052839845,50.450123,18.210451000000003,37.666977,SDL
4965035700000.0,2.13122296333313,2.7976269721984863,-3.1571249961853027,1.3242361545562744,-1.0121502876281738,-0.3903429,-0.6444628000000001,50.107986,18.977665,37.647583000000004,SDL
4965041000000.0,2.136220693588257,2.9430863857269287,-3.684922218322754,1.1171985864639282,-0.9536685943603516,0.040011674,-1.3423764,49.66652,20.027164000000003,37.865986,SDL
4965045600000.0,2.1412158012390137,3.175614595413208,-4.205437183380127,0.9918653964996338,-0.87287837266922,0.35613444,-2.072971,49.51556,20.816166,38.036182000000004,SDL
4965051000000.0,2.146214246749878,3.4899790287017822,-4.709564208984375,0.969793975353241,-0.7688524127006531,0.45998153,-2.7614164,49.518615999999994,21.480495,38.28549,SDL
4965056000000.0,2.1512420177459717,3.883418560028076,-5.170118808746338,1.1266340017318726,-0.6485586166381836,0.22296582,-3.3108897000000006,49.7213,21.906136,38.60179,SDL
4965061000000.0,2.1562352180480957,4.331451892852783,-5.592956066131592,1.415260910987854,-0.5279856324195862,-0.27763826,-3.6071593999999996,50.082409999999996,22.050627,39.071953,SDL
4965065600000.0,2.1612298488616943,4.850931167602539,-5.947728157043457,1.8230990171432495,-0.431417852640152,-0.74006325,-3.5784485,50.480824,22.12971,39.60753,SDL
4965071000000.0,2.166222333908081,5.43873929977417,-6.232015609741211,2.3364269733428955,-0.375611275434494,-0.6310238,-3.2122349999999997,50.878056,22.232135999999997,40.101757,SDL
4965076000000.0,2.1712636947631836,6.044278144836426,-6.451969146728516,2.742004632949829,-0.36094915866851807,0.26236662,-2.514016,51.410740000000004,22.165357999999998,40.433285,SDL
4965081000000.0,2.176260232925415,6.6481614112854,-6.6260528564453125,3.0538032054901123,-0.37571656703948975,1.600467,-1.5427402,51.846714,22.30451,40.517918,SDL
4965085500000.0,2.181253671646118,7.191420555114746,-6.7592010498046875,3.266935110092163,-0.403679221868515,2.5650232,-0.5002986,52.264908,22.359686,40.447959999999995,SDL
4965090700000.0,2.1862480640411377,7.5638957023620605,-6.867969989776611,3.3902482986450195,-0.4342535734176636,2.636189,0.04734206,52.61314,22.568711999999998,40.205128,SDL
4965096000000.0,2.1912434101104736,7.802199363708496,-6.938577651977539,3.432088851928711,-0.4631659686565399,2.2479842,0.17715092,52.841705000000005,22.75725,40.079792,SDL
4965100700000.0,2.196239948272705,7.940610408782959,-6.957862854003906,3.400104522705078,-0.49533936381340027,1.6209308999999998,0.3203988,52.866417000000006,23.085787,39.913536,SDL
4965106000000.0,2.2012405395507812,7.99390983581543,-6.926681041717529,3.3037500381469727,-0.5313161611557007,1.1059716,0.39553526,52.848890000000004,23.547242999999998,39.648711999999996,SDL
4965110600000.0,2.206238269805908,7.9784064292907715,-6.847689151763916,3.1540637016296387,-0.5678009986877441,0.81306165,0.44379359999999995,52.727776,24.029598,39.469425,SDL
4965116000000.0,2.211233139038086,7.904635429382324,-6.72744607925415,2.975050210952759,-0.5997045040130615,0.5900958000000001,0.4538729,52.542609999999996,24.516517999999998,39.36699,SDL
4965120600000.0,2.2162277698516846,7.782681465148926,-6.572122097015381,2.7911570072174072,-0.6185950040817261,0.3631594,0.42027529999999996,52.304844,24.974686,39.335426,SDL
4965126000000.0,2.2212231159210205,7.624110698699951,-6.395902156829834,2.6131858825683594,-0.6177598237991333,0.12797627,0.35185838,52.054874,25.360641,39.363724,SDL
4965131000000.0,2.2262330055236816,7.440013408660889,-6.2138352394104,2.4537599086761475,-0.5962806940078735,-0.052534412999999995,0.24312437,51.79505,25.678986,39.44368,SDL
4965136000000.0,2.231226682662964,7.235405921936035,-6.027872562408447,2.310915946960449,-0.5555832386016846,-0.099265605,0.09865474,51.594722999999995,25.860889999999998,39.529675,SDL
4965140500000.0,2.2362236976623535,7.009243488311768,-5.840045928955078,2.2068352699279785,-0.49991461634635925,0.055283304000000005,-0.08399397,51.443985,25.946625,39.6345,SDL
4965146000000.0,2.2412164211273193,6.7635931968688965,-5.651291847229004,2.1426398754119873,-0.4350210130214691,0.32436943,-0.25992316,51.349056,25.946545,39.745964,SDL
4965150500000.0,2.246213674545288,6.527286052703857,-5.470022678375244,2.126936435699463,-0.3662284016609192,0.6038403,-0.42027529999999996,51.386146999999994,25.857244,39.767967,SDL
4965155700000.0,2.2512121200561523,6.304294586181641,-5.297210216522217,2.158043384552002,-0.29748836159706116,0.82772243,-0.5525276,51.510517,25.708288,39.764590000000005,SDL
4965161000000.0,2.256211280822754,6.112475872039795,-5.136935710906982,2.243966579437256,-0.22913992404937744,0.8943066999999999,-0.6808093000000001,51.773067,25.483349,39.640465,SDL
4965165700000.0,2.2612051963806152,5.955601692199707,-4.98988676071167,2.3838627338409424,-0.16257835924625397,0.816116,-0.79320854,52.08045,25.2306,39.517292,SDL
4965171000000.0,2.266200542449951,5.836937427520752,-4.862274646759033,2.560039758682251,-0.10019885748624802,0.60048056,-0.88361657,52.457237,24.913584,39.303577000000004,SDL
4965175700000.0,2.271198034286499,5.755564212799072,-4.754635810852051,2.767038345336914,-0.04531073570251465,0.35246924,-0.9783006999999999,52.830195999999994,24.588154,39.142703999999995,SDL
4965181000000.0,2.2761974334716797,5.71304988861084,-4.668082237243652,2.980109214782715,4.364518463262357e-05,0.15363261,-1.0555751,53.238395999999995,24.201725,39.026306,SDL
4965185600000.0,2.2811968326568604,5.709371566772461,-4.602787494659424,3.183842420578003,0.0356561578810215,0.0009162978999999999,-1.0931433000000002,53.607822,23.833560000000002,38.971046,SDL
4965191000000.0,2.2861928939819336,5.74583625793457,-4.562283515930176,3.357084035873413,0.0632830560207367,-0.059253927000000005,-1.1007791999999998,53.995937,23.447838,38.953140000000005,SDL
4965195600000.0,2.2911901473999023,5.823783874511719,-4.549179553985596,3.4852664470672607,0.08733785897493362,-0.1160644,-1.1172725000000001,54.355185999999996,23.077479999999998,38.979440000000004,SDL
4965201000000.0,2.2961905002593994,5.940352916717529,-4.56118106842041,3.5802807807922363,0.10851553827524185,-0.16584991,-1.1172725000000001,54.683292,22.736298,39.077709999999996,SDL
4965205500000.0,2.301191806793213,6.092777252197266,-4.596341133117676,3.6483561992645264,0.1305178850889206,-0.2510656,-1.0855075,54.977759999999996,22.402807,39.193659999999994,SDL
4965211000000.0,2.3061890602111816,6.279417514801025,-4.64720344543457,3.7082679271698,0.15530306100845337,-0.32834008,-1.0198395,55.21329,22.112875,39.428604,SDL
4965215500000.0,2.311185359954834,6.499735355377197,-4.70865535736084,3.773498773574829,0.18073691427707672,-0.39431350000000004,-0.91354895,55.406296,21.844582,39.664215000000006,SDL
4965221000000.0,2.3161818981170654,6.7323198318481445,-4.771449089050293,3.8562495708465576,0.20455490052700043,-0.43676865,-0.7632760999999999,55.50585,21.627932,40.00213,SDL
4965226000000.0,2.321183443069458,6.965765476226807,-4.83065938949585,3.9629969596862793,0.22261101007461548,-0.4578435,-0.6243043,55.563683,21.443842,40.32928,SDL
4965230700000.0,2.3261830806732178,7.187541961669922,-4.882235050201416,4.083607196807861,0.2319568395614624,-0.43799037,-0.50243664,55.568394,21.282925,40.696335,SDL
4965236000000.0,2.331181764602661,7.384125232696533,-4.921634197235107,4.207874774932861,0.23362629115581512,-0.37415496,-0.38759398,55.533043000000006,21.16702,41.029068,SDL
4965240700000.0,2.336177349090576,7.554640293121338,-4.948526859283447,4.3321452140808105,0.22819124162197113,-0.2843578,-0.2959642,55.5175,21.062051999999998,41.3105,SDL
4965246000000.0,2.341174602508545,7.683783054351807,-4.955928802490234,4.4328293800354,0.2175440937280655,-0.21135938,-0.23732115,55.484055000000005,20.997657999999998,41.559371999999996,SDL
4965250600000.0,2.3461740016937256,7.768927097320557,-4.941400051116943,4.501728057861328,0.20484371483325958,-0.15882497,-0.20250183,55.484505000000006,20.938116,41.730614,SDL
4965256000000.0,2.3511803150177,7.797839164733887,-4.895689010620117,4.5126752853393555,0.19199001789093018,-0.14080444,-0.19639318,55.482569999999996,20.90004,41.882427,SDL
4965261000000.0,2.3561928272247314,7.776604175567627,-4.822606086730957,4.47198486328125,0.18203505873680115,-0.16004670000000001,-0.22571471,55.507042000000006,20.848976,42.003788,SDL
4965266000000.0,2.3611905574798584,7.743024826049805,-4.747766971588135,4.4191179275512695,0.17721711099147797,-0.21807889999999996,-0.27947086,55.53379399999999,20.789351999999997,42.129517,SDL
4965270600000.0,2.366185188293457,7.6971755027771,-4.671020030975342,4.354101657867432,0.17918314039707184,-0.2968805,-0.35796702,55.572113,20.69121,42.29703,SDL
4965276000000.0,2.3711841106414795,7.64641809463501,-4.599169731140137,4.285820960998535,0.18770183622837067,-0.3304781,-0.45142943,55.63086,20.562801,42.474037,SDL
4965281000000.0,2.3761844635009766,7.592852592468262,-4.533654689788818,4.216668605804443,0.20354712009429932,-0.31520647,-0.52320606,55.702614000000004,20.396373999999998,42.66257,SDL
4965286000000.0,2.3811848163604736,7.538857936859131,-4.479273796081543,4.152590274810791,0.2257751077413559,-0.29871312,-0.5934556,55.80219,20.194828,42.873184,SDL
4965290500000.0,2.3861801624298096,7.485161304473877,-4.436819076538086,4.095022201538086,0.2523528039455414,-0.23365596,-0.6227771,55.922337,19.967636,43.068034999999995,SDL
4965295700000.0,2.3911798000335693,7.4349260330200195,-4.3993144035339355,4.054567337036133,0.27984175086021423,-0.14752395,-0.7021896,56.082542000000004,19.721404999999997,43.256927000000005,SDL
4965301000000.0,2.396178960800171,7.388707637786865,-4.364925384521484,4.032570838928223,0.3105699121952057,-0.08124508,-0.77946407,56.25784,19.44441,43.434383000000004,SDL
4965305700000.0,2.4011824131011963,7.350649356842041,-4.3278045654296875,4.030290603637695,0.3428671061992645,-0.06963864,-0.8399397,56.46085,19.183588,43.584026,SDL
4965311000000.0,2.4061808586120605,7.323592662811279,-4.283688545227051,4.047617435455322,0.3751196563243866,-0.032375857,-0.8775079,56.694992000000006,18.904865,43.71419,SDL
4965315600000.0,2.4111781120300293,7.309304714202881,-4.22958517074585,4.085014820098877,0.4050999581813812,-0.00580322,-0.929126,56.99333000000001,18.599682,43.81116,SDL
4965321000000.0,2.4161744117736816,7.3087334632873535,-4.163665771484375,4.142343521118164,0.43203383684158325,-0.03604105,-0.95325524,57.28524399999999,18.295942,43.911429999999996,SDL
4965326000000.0,2.421220064163208,7.324746131896973,-4.0814008712768555,4.2205705642700195,0.4559697210788727,-0.09162979,-0.96852684,57.633269999999996,17.938875,44.001675,SDL
4965331000000.0,2.426225185394287,7.352428913116455,-3.988025426864624,4.310972213745117,0.4773440659046173,-0.16707164,-0.9630291,57.965030000000006,17.593270999999998,44.102207,SDL
4965335600000.0,2.4312210083007812,7.391238212585449,-3.8828814029693604,4.409804821014404,0.49544697999954224,-0.24129178,-0.95111716,58.340584,17.182562,44.212070000000004,SDL
4965341000000.0,2.4362168312072754,7.439425945281982,-3.766780138015747,4.511650562286377,0.5100133419036865,-0.27977628,-0.9236283000000002,58.69086,16.792257,44.325962,SDL
4965345500000.0,2.4412155151367188,7.4931464195251465,-3.640855550765991,4.613692283630371,0.5218175649642944,-0.26419923,-0.88422745,59.076294,16.330763,44.442978000000004,SDL
4965351000000.0,2.4462177753448486,7.546720504760742,-3.5067009925842285,4.711654186248779,0.5303720831871033,-0.22571471,-0.82650065,59.428295,15.902376,44.55469,SDL
4965356000000.0,2.451219081878662,7.596931457519531,-3.3679792881011963,4.804080009460449,0.5366150736808777,-0.15485434,-0.75869465,59.81205,15.418335999999998,44.666103,SDL
4965360700000.0,2.4562153816223145,7.640863418579102,-3.2280027866363525,4.8896589279174805,0.5400674939155579,-0.0888809,-0.6826419,60.160553,14.972609,44.75764,SDL
4965365400000.0,2.4612104892730713,7.676649570465088,-3.0883231163024902,4.9704179763793945,0.5402106642723083,-0.009773844,-0.61483586,60.524227,14.504407,44.831577,SDL
4965370700000.0,2.466205358505249,7.701362133026123,-2.9513731002807617,5.049230575561523,0.5382952690124512,0.058643065,-0.548557,60.851535999999996,14.068760000000001,44.880974,SDL
4965376000000.0,2.4712023735046387,7.716682434082031,-2.818352699279785,5.1288652420043945,0.5342519283294678,0.08674286,-0.50946164,61.173869999999994,13.635615,44.924595000000004,SDL
4965381000000.0,2.476247549057007,7.723425388336182,-2.690481185913086,5.2139573097229,0.5292032957077026,0.076052725,-0.4859433,61.46589,13.227166,44.95532,SDL
4965386000000.0,2.481240749359131,7.725806713104248,-2.5667731761932373,5.302488327026367,0.5227470993995667,0.064446285,-0.46517387,61.769794,12.8314705,44.96058,SDL
4965390600000.0,2.4862353801727295,7.726443290710449,-2.443185806274414,5.399245738983154,0.5163745880126953,-0.004886922,-0.453262,62.045306999999994,12.447353999999999,44.983973999999996,SDL
4965396000000.0,2.49122953414917,7.725436210632324,-2.32138991355896,5.497581958770752,0.5091696977615356,-0.124311075,-0.42332962,62.309002,12.085801,44.99727,SDL
4965401000000.0,2.496232271194458,7.722813606262207,-2.2039387226104736,5.587100505828857,0.5008350014686584,-0.25381452,-0.39522982,62.5472,11.737217,45.032585,SDL
4965406000000.0,2.501232147216797,7.7177839279174805,-2.092103958129883,5.665409564971924,0.4907144606113434,-0.355829,-0.38362336,62.790096,11.382856,45.076374,SDL
4965410500000.0,2.5062310695648193,7.706392765045166,-1.9916746616363525,5.720130920410156,0.47984737157821655,-0.46639562,-0.34972036,62.988147999999995,11.049612,45.1533,SDL
4965416000000.0,2.51124906539917,7.689000129699707,-1.902671456336975,5.750889778137207,0.47022679448127747,-0.52564955,-0.3390302,63.198482999999996,10.711594,45.248478000000006,SDL
4965420500000.0,2.5162429809570312,7.670881748199463,-1.825207233428955,5.760908126831055,0.46383723616600037,-0.54825157,-0.35063666,63.389267000000004,10.380847,45.36014,SDL
4965426000000.0,2.5212628841400146,7.651744842529297,-1.760027289390564,5.747467517852783,0.4624272286891937,-0.5369505,-0.37568212,63.571674,10.067741999999999,45.492459999999994,SDL
4965431000000.0,2.5262703895568848,7.635181427001953,-1.7015749216079712,5.729043006896973,0.46569886803627014,-0.52015173,-0.41966440000000005,63.758965,9.744688,45.62768,SDL
4965435700000.0,2.531266450881958,7.623620510101318,-1.6464664936065674,5.717093467712402,0.47268643975257874,-0.49632803,-0.47403142,63.956680000000006,9.406323,45.75645,SDL
4965441000000.0,2.536261796951294,7.614511489868164,-1.5936224460601807,5.714405059814453,0.482605904340744,-0.45753807,-0.5216789000000001,64.14649,9.083865,45.92603,SDL
4965445700000.0,2.54125714302063,7.603318691253662,-1.5412824153900146,5.725732803344727,0.49414536356925964,-0.39614612,-0.5186246,64.337944,8.756371000000001,46.077984,SDL
4965451000000.0,2.546250820159912,7.586846828460693,-1.487007975578308,5.746973514556885,0.5058186054229736,-0.36132678,-0.5155702999999999,64.56243,8.411495,46.220936,SDL
4965455600000.0,2.5512516498565674,7.5592875480651855,-1.4264432191848755,5.772090911865234,0.5163651704788208,-0.34238997,-0.5128214,64.78399999999999,8.070542,46.34701,SDL
4965461000000.0,2.5562493801116943,7.522216796875,-1.3584554195404053,5.796512603759766,0.525438129901886,-0.3323107,-0.50426924,65.038,7.723076299999999,46.42287,SDL
4965465600000.0,2.5612454414367676,7.476646423339844,-1.2816202640533447,5.816141128540039,0.5334741473197937,-0.32284227,-0.49266282,65.28234,7.3847723,46.4914,SDL
4965471000000.0,2.566241502761841,7.423874378204346,-1.1964800357818604,5.8292317390441895,0.540512204170227,-0.30176744,-0.48472157,65.54948,7.0345592,46.535828,SDL
4965476000000.0,2.5712411403656006,7.365227222442627,-1.1034668684005737,5.833682060241699,0.5463775396347046,-0.28496864,-0.48044549999999997,65.80445999999999,6.6962113,46.577273999999996,SDL
4965481000000.0,2.576237678527832,7.3039703369140625,-1.0027505159378052,5.8318305015563965,0.5526465177536011,-0.24465153,-0.47525316,66.08697,6.323624,46.611090000000004,SDL
4965485500000.0,2.5812346935272217,7.244682312011719,-0.893669605255127,5.826709270477295,0.5588744282722473,-0.2321288,-0.48441613,66.36321,5.960786,46.64741,SDL
4965491000000.0,2.5862317085266113,7.190944194793701,-0.7767427563667297,5.8217973709106445,0.56512850522995,-0.2321288,-0.48716503,66.66828000000001,5.5607714999999995,46.69155,SDL
4965496000000.0,2.5912282466888428,7.1478729248046875,-0.6524550914764404,5.821929454803467,0.5722700953483582,-0.26053402,-0.48258355,66.96325,5.1637197,46.73901,SDL
4965500700000.0,2.596223831176758,7.11599063873291,-0.5210648775100708,5.8279266357421875,0.5809680819511414,-0.29016098,-0.48075095,67.297775,4.716674299999999,46.802784,SDL
4965506000000.0,2.601231813430786,7.097112655639648,-0.3819306790828705,5.841714859008789,0.5905373096466064,-0.35155296,-0.47311515,67.61501,4.277846,46.880959999999995,SDL
4965510700000.0,2.6062304973602295,7.091037273406982,-0.23674502968788147,5.8611979484558105,0.601207971572876,-0.43279803,-0.45937067,67.96516,3.7836,46.980140000000006,SDL
4965516000000.0,2.6112279891967773,7.102379322052002,-0.08597397804260254,5.8824076652526855,0.6112937331199646,-0.5516113,-0.42821655,68.29117600000001,3.3055307999999997,47.103046,SDL
4965520600000.0,2.616222858428955,7.1296892166137695,0.06886995583772659,5.903164863586426,0.6205326914787292,-0.63591075,-0.40072759999999996,68.630066,2.7798195,47.254146999999996,SDL
4965526000000.0,2.6212196350097656,7.170330047607422,0.22241993248462677,5.913900852203369,0.6284816861152649,-0.68508536,-0.37812558,68.94740999999999,2.273022,47.421963,SDL
4965530600000.0,2.6262216567993164,7.223790645599365,0.37483900785446167,5.915029048919678,0.6345421075820923,-0.6966918000000001,-0.34880406,69.274,1.7332488000000001,47.63043,SDL
4965536000000.0,2.6312201023101807,7.287101745605469,0.5206160545349121,5.908235549926758,0.6395633816719055,-0.66614854,-0.32375857,69.58596,1.2106078000000002,47.831387,SDL
4965540600000.0,2.636213541030884,7.359331130981445,0.6590880751609802,5.894150257110596,0.6439589262008667,-0.5992588000000001,-0.30451632,69.88164,0.70933485,48.0162,SDL
4965546000000.0,2.641211748123169,7.438114643096924,0.7897571325302124,5.881182670593262,0.647908627986908,-0.5109888,-0.30482176,70.2018,0.17883003,48.22927,SDL
4965551000000.0,2.6462111473083496,7.521768093109131,0.9125776886940002,5.873550891876221,0.6504921317100525,-0.441961,-0.2761111,70.494675,-0.32410955,48.419136,SDL
4965556000000.0,2.6512105464935303,7.607872009277344,1.0277920961380005,5.871771812438965,0.6518962383270264,-0.37690386,-0.23732115,70.78084,-0.8246150999999999,48.61268,SDL
4965561000000.0,2.6562092304229736,7.692427158355713,1.1354846954345703,5.87699556350708,0.6499374508857727,-0.29657507,-0.20341812,71.04889,-1.296226,48.773990000000005,SDL
4965565700000.0,2.661205530166626,7.772824764251709,1.2362525463104248,5.8853302001953125,0.6452996134757996,-0.20525073,-0.16218472,71.29330999999999,-1.7440232,48.91683,SDL
4965571000000.0,2.6662039756774902,7.846645355224609,1.3306313753128052,5.8932204246521,0.6381743550300598,-0.105068825,-0.12308934,71.51463000000001,-2.1629717,49.028324,SDL
4965575700000.0,2.6712024211883545,7.912701606750488,1.4198298454284668,5.898868560791016,0.6293453574180603,-0.02565634,-0.09132435,71.712715,-2.5515925999999998,49.109875,SDL
4965581000000.0,2.676204204559326,7.969720840454102,1.5050270557403564,5.900454521179199,0.619440495967865,0.03390302,-0.05131268,71.88067,-2.913359,49.166129999999995,SDL
4965585600000.0,2.6812033653259277,8.016682624816895,1.5868721008300781,5.899441242218018,0.6092333793640137,0.04642576,-0.041233405,72.06044,-3.2634733,49.211704,SDL
4965591000000.0,2.686201572418213,8.051965713500977,1.6661394834518433,5.897462368011475,0.5995213985443115,0.06047566,-0.02107485,72.20959,-3.5925364,49.239544,SDL
4965595600000.0,2.6912009716033936,8.069068908691406,1.7441649436950684,5.893766403198242,0.5900665521621704,0.050396382999999996,0.004276057,72.353264,-3.9112217000000005,49.272484000000006,SDL
4965601000000.0,2.6961991786956787,8.060088157653809,1.8225020170211792,5.887444496154785,0.5813922882080078,0.025961772999999997,0.028099801,72.48333000000001,-4.2209244,49.305126,SDL
4965605600000.0,2.701197862625122,8.030648231506348,1.9000598192214966,5.878721237182617,0.573147714138031,-0.01985312,0.05161811400000001,72.614586,-4.524948999999999,49.334362,SDL
4965611000000.0,2.70620059967041,7.993300437927246,1.9739830493927002,5.867969036102295,0.5661238431930542,-0.064751714,0.06383542,72.737015,-4.8240447,49.370033,SDL
4965615500000.0,2.711195945739746,7.949915885925293,2.0437114238739014,5.855217933654785,0.5598486661911011,-0.11178834,0.07452556,72.870316,-5.127008,49.385692999999996,SDL
4965621000000.0,2.7161917686462402,7.905142307281494,2.1062872409820557,5.839709758758545,0.5540056228637695,-0.15882497,0.06658431,73.00504000000001,-5.427788,49.413567,SDL
4965626000000.0,2.721191167831421,7.860796928405762,2.1621758937835693,5.821675777435303,0.548506498336792,-0.24220806,0.047647487,73.14634000000001,-5.725477,49.46102,SDL
4965631000000.0,2.7261927127838135,7.821807861328125,2.212092876434326,5.801609516143799,0.5438864231109619,-0.32620203,0.014660766,73.29727,-6.025182,49.5199,SDL
4965636000000.0,2.7312097549438477,7.788264751434326,2.2563138008117676,5.779552936553955,0.5402287840843201,-0.41477749999999997,-0.02443461,73.4651,-6.320066000000001,49.599779999999996,SDL
4965640700000.0,2.73620867729187,7.761438369750977,2.2963855266571045,5.756655693054199,0.5378566384315491,-0.462425,-0.05955936,73.64532,-6.619485000000001,49.68777,SDL
4965645400000.0,2.7412023544311523,7.74120569229126,2.332443952560425,5.732865810394287,0.5360015630722046,-0.4654793,-0.08857546,73.83346,-6.912309599999999,49.7952,SDL
4965650700000.0,2.746201276779175,7.729476451873779,2.3635904788970947,5.708816051483154,0.5341964960098267,-0.45570546,-0.119729586,74.03666,-7.210144500000001,49.906345,SDL
4965656000000.0,2.7511980533599854,7.725854396820068,2.3900372982025146,5.68464469909668,0.5318202972412109,-0.40194935,-0.14019357,74.23980999999999,-7.5056963,50.00096,SDL
4965660600000.0,2.7561984062194824,7.733291149139404,2.4160525798797607,5.6615800857543945,0.5286266207695007,-0.344528,-0.15760323,74.44161,-7.796895,50.092316,SDL
4965666000000.0,2.761192798614502,7.751956462860107,2.443059206008911,5.640008926391602,0.5251148343086243,-0.2843578,-0.17379116,74.64136500000001,-8.086117999999999,50.16344,SDL
4965670600000.0,2.7661964893341064,7.778100490570068,2.4716243743896484,5.622405529022217,0.5198857188224792,-0.26022860000000003,-0.17592919,74.84186,-8.356188000000001,50.244026,SDL
4965676000000.0,2.7711966037750244,7.810237884521484,2.501621723175049,5.608905792236328,0.512575089931488,-0.23976462,-0.15057829,75.02621500000001,-8.615192,50.307156,SDL
4965680500000.0,2.7761971950531006,7.846397876739502,2.535203695297241,5.599571704864502,0.5031148195266724,-0.23854288,-0.129198,75.22057,-8.871542,50.38463,SDL
4965686000000.0,2.7811970710754395,7.884322166442871,2.5746419429779053,5.594425678253174,0.491554319858551,-0.23793201,-0.111177474,75.39787,-9.109699,50.455494,SDL
4965690500000.0,2.786195993423462,7.919560432434082,2.6159746646881104,5.590154647827148,0.4789496064186096,-0.25228736,-0.089186326,75.5867,-9.34545,50.535713,SDL
4965696000000.0,2.7911946773529053,7.948420524597168,2.6558988094329834,5.583993911743164,0.4640541672706604,-0.23854288,-0.06811147,75.759315,-9.559289999999999,50.606384000000006,SDL
4965701000000.0,2.7961950302124023,7.970009803771973,2.692318916320801,5.5745015144348145,0.4474621117115021,-0.20433442,-0.053450707,75.94726,-9.781624,50.680294,SDL
4965706000000.0,2.8012468814849854,7.98272180557251,2.7234866619110107,5.559996128082275,0.4303218722343445,-0.16432275,-0.046731193,76.12149000000001,-9.989717500000001,50.746677000000005,SDL
4965711000000.0,2.806243658065796,7.9896368980407715,2.7488253116607666,5.542544841766357,0.414225310087204,-0.14080444,-0.062308256,76.298225,-10.197332000000001,50.80173,SDL
4965715700000.0,2.8112401962280273,7.98992395401001,2.765192985534668,5.521396636962891,0.3987424373626709,-0.1151481,-0.071776666,76.45899,-10.391777000000001,50.844116,SDL
4965721000000.0,2.8162336349487305,7.984737873077393,2.773455858230591,5.498837471008301,0.38354751467704773,-0.10231992599999999,-0.09315695,76.63034,-10.584475999999999,50.88193,SDL
4965725600000.0,2.8212335109710693,7.974874496459961,2.7740728855133057,5.476804733276367,0.36986231803894043,-0.08827003,-0.10934488,76.795006,-10.777511,50.910571999999995,SDL
4965731000000.0,2.8262295722961426,7.961184978485107,2.7674639225006104,5.456043720245361,0.357720285654068,-0.06505715,-0.12095132,76.95034,-10.952551,50.93235,SDL
4965735600000.0,2.8312268257141113,7.945459842681885,2.752911329269409,5.4394307136535645,0.3468601703643799,-0.06078109,-0.13286320000000001,77.10863499999999,-11.129562,50.953140000000005,SDL
4965741000000.0,2.8362228870391846,7.928447246551514,2.7320661544799805,5.427389621734619,0.33631837368011475,-0.059864793,-0.13133603,77.25446,-11.282689999999999,50.964484999999996,SDL
4965745600000.0,2.841217517852783,7.9113569259643555,2.707411289215088,5.420910835266113,0.32562217116355896,-0.063224554,-0.14141529999999997,77.4058,-11.438585,50.973372999999995,SDL
4965751000000.0,2.8462133407592773,7.894610404968262,2.6797897815704346,5.420357704162598,0.31570762395858765,-0.061391957000000004,-0.14966199,77.531746,-11.568375999999999,50.973362,SDL
4965756000000.0,2.851212501525879,7.879268169403076,2.651081085205078,5.427000045776367,0.30619123578071594,-0.07666359,-0.1554652,77.659935,-11.6938095,50.978184000000006,SDL
4965761000000.0,2.8562092781066895,7.86628532409668,2.622513771057129,5.439258098602295,0.2969866693019867,-0.09773844,-0.16279559,77.792816,-11.805176,50.97475,SDL
4965765500000.0,2.861205816268921,7.858333587646484,2.5970675945281982,5.4540605545043945,0.28713321685791016,-0.13255776,-0.17012598,77.928314,-11.911789,50.978737,SDL
4965770700000.0,2.866218328475952,7.855447769165039,2.5751686096191406,5.470629692077637,0.2773491144180298,-0.14446963,-0.1685988,78.050804,-12.001994,50.977882,SDL
4965776000000.0,2.871264696121216,7.858050346374512,2.561953544616699,5.48025369644165,0.2671423554420471,-0.16401732,-0.17379116,78.18160999999999,-12.087803,50.986990000000006,SDL
4965780700000.0,2.8762595653533936,7.864368915557861,2.5548739433288574,5.484984874725342,0.2565680146217346,-0.17165314,-0.17195857,78.30784,-12.1696,50.998385999999996,SDL
4965786000000.0,2.881253957748413,7.873847961425781,2.5514414310455322,5.486100673675537,0.24553172290325165,-0.19975294,-0.16829337,78.437515,-12.246531,51.019726,SDL
4965790600000.0,2.8862483501434326,7.885715484619141,2.5497703552246094,5.4847893714904785,0.2337651252746582,-0.22113322,-0.17134771,78.56546,-12.318586999999999,51.040240000000004,SDL
4965796000000.0,2.891242027282715,7.9016265869140625,2.5484564304351807,5.482724189758301,0.22151874005794525,-0.24709499,-0.16798794,78.72197,-12.412881,51.09023,SDL
4965800600000.0,2.8962433338165283,7.922214031219482,2.5469722747802734,5.480528831481934,0.2087693065404892,-0.27214047,-0.15668693,78.87485500000001,-12.499260000000001,51.144405,SDL
4965806000000.0,2.9012551307678223,7.946484565734863,2.5440921783447266,5.478654384613037,0.19534830749034882,-0.29840767,-0.1518,79.03622,-12.586015,51.21218,SDL
4965810600000.0,2.906249761581421,7.973244667053223,2.5392377376556396,5.477352619171143,0.18153569102287292,-0.32192600000000005,-0.14446963,79.19066,-12.664598,51.28478,SDL
4965816000000.0,2.9112436771392822,8.002019882202148,2.5309252738952637,5.474987983703613,0.16748254001140594,-0.33200526,-0.1282817,79.3482,-12.7360325,51.36711,SDL
4965820500000.0,2.9162375926971436,8.032170295715332,2.517965316772461,5.470083236694336,0.15276218950748444,-0.33383787,-0.11301007,79.500755,-12.79916,51.451042,SDL
4965826000000.0,2.9212377071380615,8.0621976852417,2.5004873275756836,5.462357521057129,0.1377357542514801,-0.3304781,-0.10170906,79.6392,-12.843621,51.55063,SDL
4965831000000.0,2.9262380599975586,8.090087890625,2.47884202003479,5.451554775238037,0.12297296524047852,-0.31795537,-0.090713486,79.76617399999999,-12.880831,51.646107,SDL
4965835700000.0,2.931232213973999,8.113663673400879,2.4544119834899902,5.436985969543457,0.10854116082191467,-0.29932398,-0.07574729,79.86536,-12.897478,51.739647,SDL
4965841000000.0,2.9362285137176514,8.130879402160645,2.4282217025756836,5.417834281921387,0.09456919878721237,-0.26328292,-0.05589417,79.94977,-12.908799,51.823485999999995,SDL
4965845700000.0,2.9412217140197754,8.142644882202148,2.4009668827056885,5.3959879875183105,0.08130928128957748,-0.2321288,-0.04642576,80.02169,-12.906069,51.911095,SDL
4965851000000.0,2.946218967437744,8.14963436126709,2.3732123374938965,5.373109340667725,0.06865835934877396,-0.21410827,-0.03023783,80.0763,-12.896175999999999,51.99228,SDL
4965855700000.0,2.951215982437134,8.152112007141113,2.3447985649108887,5.3506855964660645,0.05645375698804855,-0.20341812,-0.019547688,80.12512,-12.881998,52.069824,SDL
4965861000000.0,2.956212043762207,8.150254249572754,2.3154265880584717,5.330940246582031,0.04491584748029709,-0.19730948,-0.0076358155,80.16278,-12.864616999999999,52.14301,SDL
4965865600000.0,2.961207866668701,8.145135879516602,2.285099744796753,5.314011573791504,0.034155599772930145,-0.19058995,0.0015271631,80.183426,-12.839300999999999,52.21312,SDL
4965871000000.0,2.9662060737609863,8.138710975646973,2.2537567615509033,5.30035400390625,0.024196678772568703,-0.19761491,0.006414085,80.20143,-12.813153,52.283695,SDL
4965875600000.0,2.9712040424346924,8.131736755371094,2.2214114665985107,5.289239406585693,0.014524335041642189,-0.20311269,0.008857545999999999,80.216835,-12.776177,52.35257,SDL
4965881000000.0,2.976201295852661,8.125365257263184,2.1880149841308594,5.279642105102539,0.005286070983856916,-0.23182335,0.01160644,80.23461,-12.74005,52.427677,SDL
4965885500000.0,2.981201410293579,8.119430541992188,2.15328049659729,5.2715163230896,-0.0032482545357197523,-0.24465153,0.023518313,80.23865500000001,-12.694405,52.491240000000005,SDL
4965891000000.0,2.986198663711548,8.113289833068848,2.1159584522247314,5.264867782592773,-0.011523090302944183,-0.24678956,0.024129177,80.24908,-12.650163000000001,52.556396,SDL
4965895500000.0,2.9911959171295166,8.107368469238281,2.076430082321167,5.260206699371338,-0.019487155601382256,-0.2501493,0.023518313,80.25731,-12.594812,52.63065699999999,SDL
4965901000000.0,2.996196985244751,8.103029251098633,2.0357131958007812,5.259342670440674,-0.026945406571030617,-0.23365596,0.033292156,80.2573,-12.538099,52.698719999999994,SDL
4965906000000.0,3.0012049674987793,8.101061820983887,1.994332194328308,5.261608600616455,-0.03420151397585869,-0.22602014,0.026572637000000003,80.25603000000001,-12.470897,52.766796,SDL
4965910700000.0,3.00620174407959,8.103928565979004,1.9540818929672241,5.26504373550415,-0.04160807654261589,-0.23335053,0.029932396,80.24577,-12.399648,52.834076,SDL
4965916000000.0,3.011197566986084,8.111549377441406,1.9148613214492798,5.269633769989014,-0.049157075583934784,-0.24495697,0.037873644,80.21667,-12.310759,52.904030000000006,SDL
4965920700000.0,3.0161936283111572,8.121304512023926,1.8774206638336182,5.2705302238464355,-0.057394351810216904,-0.25625798,0.04734206,80.187004,-12.219111999999999,52.97383000000001,SDL
4965926000000.0,3.021195650100708,8.132894515991211,1.8417398929595947,5.267376899719238,-0.06608789414167404,-0.27336220000000006,0.043676864,80.163055,-12.129453999999999,53.045193000000005,LYI
4965930600000.0,3.0261950492858887,8.145647048950195,1.8075189590454102,5.255753040313721,-0.07415536046028137,-0.28893927,0.055283304000000005,80.12730400000001,-12.028210000000001,53.128704000000006,LYI
4965936000000.0,3.031193733215332,8.159310340881348,1.7745915651321411,5.234144687652588,-0.08216726779937744,-0.301462,0.057726767000000005,80.099976,-11.927629,53.21168,LYI
4965940600000.0,3.0361905097961426,8.17113208770752,1.743668794631958,5.204319000244141,-0.08895460516214371,-0.29840767,0.055283304000000005,80.08291,-11.837723,53.299564000000004,LYI
4965946000000.0,3.041186809539795,8.180458068847656,1.714860439300537,5.16698694229126,-0.09453380852937698,-0.2910773,0.05222898,80.0665,-11.748315,53.38661999999999,LYI
4965950600000.0,3.046185255050659,8.187256813049316,1.6880948543548584,5.125550746917725,-0.09875765442848206,-0.2724459,0.038789943,80.05912,-11.669144000000001,53.494675,LYI
4965956000000.0,3.0511865615844727,8.191557884216309,1.6632895469665527,5.0823187828063965,-0.1018611416220665,-0.26022860000000003,0.034208454,80.04888000000001,-11.592410000000001,53.59955600000001,LYI
4965960500000.0,3.0561840534210205,8.194269180297852,1.6409969329833984,5.042667388916016,-0.10372493416070938,-0.2519819,0.014966198,80.0689,-11.540739,53.70705,LYI
4965966000000.0,3.06118106842041,8.195816040039062,1.621422290802002,5.008954048156738,-0.10498479753732681,-0.25137106,0.007330383,61.72620799999999,-11.489462,53.811028,LYI
4965970500000.0,3.0661776065826416,8.197101593017578,1.6035643815994263,4.980584621429443,-0.10621007531881332,-0.26267207,-0.00030543262000000003,61.761005000000004,-11.448057,53.918324,LYI
4965975700000.0,3.0711801052093506,8.198567390441895,1.5869072675704956,4.957213878631592,-0.10701195150613785,-0.2519819,-0.015882496,61.791743999999994,-11.413852,54.015167000000005,LYI
4965981000000.0,3.0761804580688477,8.1990327835083,1.5699228048324585,4.940567970275879,-0.10816175490617752,-0.23701571,-0.017104227,61.829014,-11.378919,54.103203,LYI
4965985700000.0,3.081176996231079,8.197748184204102,1.5516260862350464,4.931707382202148,-0.10905495285987854,-0.24678956,-0.029932396,61.862595,-11.353874000000001,54.18975,LYI
4965991000000.0,3.086174249649048,8.195149421691895,1.5315709114074707,4.924671649932861,-0.109037846326828,-0.27000242,-0.039095376,61.902676,-11.330225,54.2659,LYI
4965995600000.0,3.0911712646484375,8.19163703918457,1.5094298124313354,4.91433048248291,-0.10923326015472412,-0.29321529999999996,-0.048563786,61.94761999999999,-11.307427,54.341156000000005,LYI
4966001000000.0,3.0961737632751465,8.1871976852417,1.4858061075210571,4.901251792907715,-0.10878344625234604,-0.3051272,-0.055588737,62.003640000000004,-11.277344,54.409523,LYI
4966005600000.0,3.1011767387390137,8.181872367858887,1.4611977338790894,4.885953426361084,-0.1083250492811203,-0.30818152,-0.05955936,62.063469999999995,-11.246827,54.478615000000005,LYI
4966011000000.0,3.10617733001709,8.176172256469727,1.4357863664627075,4.868553638458252,-0.10751669853925705,-0.31306845,-0.06719518,62.126205000000006,-11.214792,54.562056999999996,LYI
4966015600000.0,3.111177682876587,8.171049118041992,1.4098166227340698,4.849075794219971,-0.10639332979917526,-0.30695978,-0.08552113,62.188846999999996,-11.186803999999999,54.639053000000004,LYI
4966021000000.0,3.1161744594573975,8.167572975158691,1.3844963312149048,4.828693866729736,-0.10428807139396667,-0.29321529999999996,-0.09193522,62.244167000000004,-11.152228,54.724102,LYI
4966025500000.0,3.121175527572632,8.16709041595459,1.3612275123596191,4.8086957931518555,-0.10183924436569214,-0.2779437,-0.09712757,62.300903000000005,-11.121574,54.80251,LYI
4966031000000.0,3.12617564201355,8.169366836547852,1.3401070833206177,4.790012359619141,-0.09800712764263153,-0.26908615,-0.11026118,62.354366000000006,-11.099314,54.885372,LYI
4966036000000.0,3.1311769485473633,8.174199104309082,1.321718692779541,4.775537490844727,-0.09488383680582047,-0.25473082,-0.12370021,62.415638,-11.074029,54.959396,LYI
4966040700000.0,3.1361749172210693,8.18145751953125,1.306034803390503,4.764710426330566,-0.09093407541513443,-0.2443461,-0.11942416,62.45219,-11.058942,55.031169999999996,LYI
4966045500000.0,3.141171932220459,8.191146850585938,1.2932356595993042,4.756765365600586,-0.08737386018037796,-0.24648413,-0.12644911,62.49841,-11.0448675,55.097846999999994,LYI
4966050700000.0,3.146172046661377,8.202779769897461,1.2830613851547241,4.750152111053467,-0.0831732302904129,-0.24404067,-0.12797627,62.5334,-11.034285,55.163013,LYI
4966056000000.0,3.1511728763580322,8.21545124053955,1.2750884294509888,4.741995334625244,-0.07996150106191635,-0.2611449,-0.12858713,62.5775,-11.01999,55.231228,LYI
4966060700000.0,3.156172752380371,8.22888469696045,1.2691493034362793,4.7321696281433105,-0.07661166042089462,-0.27275133,-0.13133603,62.60975,-11.018035000000001,55.29131700000001,LYI
4966066000000.0,3.1611785888671875,8.242091178894043,1.2649935483932495,4.71968936920166,-0.07345662266016006,-0.28527406,-0.13439035,62.647152,-11.013003,55.35409,LYI
4966071000000.0,3.1661901473999023,8.255131721496582,1.2625991106033325,4.70466423034668,-0.06994885206222534,-0.28619036,-0.12675454,62.6669,-11.012673,55.423878,LYI
4966076400000.0,3.171231746673584,8.268599510192871,1.2628024816513062,4.686622142791748,-0.06625363975763321,-0.28619036,-0.12797627,62.68768000000001,-11.014617,55.4933,LYI
4966081000000.0,3.1762378215789795,8.282231330871582,1.2649348974227905,4.666543483734131,-0.06158338487148285,-0.27458394,-0.11453723,62.696472,-11.024288,55.56920600000001,LYI
4966086000000.0,3.181232213973999,8.29572582244873,1.2688905000686646,4.644918441772461,-0.057568956166505814,-0.2519819,-0.109650314,62.711780000000005,-11.032478,55.638732999999995,LYI
4966090500000.0,3.1862263679504395,8.308764457702637,1.2744802236557007,4.622337341308594,-0.05345919728279114,-0.23732115,-0.10781772,62.71631,-11.043408,55.705948,LYI
4966096000000.0,3.19122052192688,8.321495056152344,1.282067894935608,4.600054740905762,-0.049226634204387665,-0.22785273,-0.10231992599999999,62.70685,-11.061347999999999,55.780772999999996,LYI
4966101000000.0,3.1962227821350098,8.334040641784668,1.2919671535491943,4.5789594650268555,-0.04461737349629402,-0.21746802,-0.10293079,62.69446,-11.081608000000001,55.848713000000004,LYI
4966106000000.0,3.2012252807617188,8.346406936645508,1.3037947416305542,4.559106349945068,-0.04061185568571091,-0.20952678,-0.10048734,62.676888,-11.103225,55.922343999999995,LYI
4966111000000.0,3.206220865249634,8.358600616455078,1.3171812295913696,4.540554523468018,-0.03654308617115021,-0.20769419,-0.094989546,62.652714,-11.127412,55.99279,LYI
4966115700000.0,3.2112157344818115,8.371636390686035,1.3320642709732056,4.5247673988342285,-0.03189356252551079,-0.21868975,-0.09712757,62.622930000000004,-11.161575,56.066444,LYI
4966121000000.0,3.21621036529541,8.386956214904785,1.3483209609985352,4.5138840675354,-0.02729649841785431,-0.22510384,-0.09407325,62.594432999999995,-11.191689,56.137184,LYI
4966125700000.0,3.2212073802948,8.404662132263184,1.3660173416137695,4.50642728805542,-0.022439826279878616,-0.23609942,-0.09437868,62.557148,-11.230936999999999,56.217530000000004,LYI
4966131000000.0,3.226205825805664,8.424789428710938,1.3851743936538696,4.5010504722595215,-0.01815124973654747,-0.24678956,-0.084910266,62.52267,-11.264689,56.29819499999999,LYI
4966135600000.0,3.2312021255493164,8.446166038513184,1.4048539400100708,4.496970176696777,-0.013554071076214314,-0.25350907,-0.076358154,62.488842000000005,-11.310379,56.36918299999999,LYI
4966141000000.0,3.2361981868743896,8.467180252075195,1.4237436056137085,4.493107318878174,-0.009673931635916233,-0.24007004,-0.057726767000000005,62.461093999999996,-11.346647,56.437325,LYI
