acc_x,acc_y,acc_z,gyro_x,gyro_y,gyro_z,label
0.0,0.0,0.0,0.0,0.12797627,0.18845193,1
-0.0011314555304124954,0.27621757984161377,-0.008265038952231405,-0.003426440292969346,-0.021685716,0.1423316,1
-0.026870734989643097,0.9188172221183776,-0.0407094731926918,-0.02218533679842949,-0.083383106,-0.08307768,1
-0.0505838505923748,1.874504327774048,-0.13813133537769318,-0.0403866358101368,0.17592919,-0.22693644,1
0.010708495043218136,2.9677753448486333,-0.2757675349712372,-0.013398069888353348,0.41813725,-0.25686884,1
0.12395376712083815,4.01823091506958,-0.4034655392169952,0.03880738839507103,0.61850107,-0.16646078,1
0.24428938329219815,4.96057653427124,-0.477898508310318,0.07859181612730026,0.63316184,-0.06841691,1
0.3405405580997467,5.809950828552246,-0.4800618886947632,0.0985829308629036,0.27916542,0.10567969,1
0.3525450825691223,6.573391914367676,-0.4399289190769196,0.08736920356750487,-0.21319197,0.21624629,1
0.2663780152797699,7.267219066619872,-0.44122761487960815,0.041497673839330666,-0.3979787,0.25320363,1
0.08155538141727448,7.881209373474121,-0.4982286393642426,-0.01926806755363941,-0.20677789,0.23426682,1
-0.17593897879123688,8.350165367126465,-0.5758220553398132,-0.09139059484004974,0.06750060599999999,0.17806722,1
-0.4406841695308685,8.647623062133789,-0.6499851942062378,-0.17726880311965942,0.22021692,0.04428773,1
-0.6569812893867493,8.839263916015625,-0.7249178290367126,-0.2445793449878693,0.16432275,-0.03023783,1
-0.741124153137207,8.99142074584961,-0.8056574463844299,-0.2513902485370636,0.051618114000000014,-0.19639318,1
-0.679792046546936,9.136415481567383,-0.7663386464118958,-0.19315187633037567,-0.008552114,-0.22388211,1
-0.4892986118793488,9.300298690795898,-0.7756767272949219,-0.11291784048080444,0.03176499,-0.19028452,1
-0.2382615357637405,9.453125953674316,-0.8507683277130127,-0.044667262583971024,0.03848451,-0.092240654,1
-0.014673042111098766,9.572260856628418,-0.7217916250228882,-0.014269849285483359,-0.11301007,0.052839845,1
0.034387271851301186,9.646117210388184,-0.5917372107505798,-0.02979244850575924,-0.23548855,0.16218472,1
-0.0752691775560379,9.681300163269043,-0.5569442510604858,-0.05577822774648666,-0.06719518,0.099265605,1
-0.26002761721611023,9.689364433288574,-0.6123986840248108,-0.05954933539032936,0.14080444,-0.060170225999999986,1
-0.3850581049919128,9.708014488220217,-0.6992375254631042,-0.040865279734134674,0.2779437,-0.15027285,1
-0.3921231031417847,9.732278823852539,-0.7712875008583069,-0.012864928692579271,0.3136793,-0.19028452,1
-0.26901480555534363,9.732333183288574,-0.7783315777778625,0.011966372840106487,0.22357668,-0.16065755,1
-0.13734914362430573,9.715805053710938,-0.7413496375083923,0.02599877119064331,0.16035213,-0.04795292,1
-0.0562802404165268,9.691226959228516,-0.6512314081192017,0.04078129678964615,0.17104226,0.083383106,5
-0.08135420829057692,9.687088966369627,-0.4788406193256378,0.05138711631298065,0.18784106,0.17806722,5
-0.3518492877483368,9.798979759216307,-0.2491655349731445,0.02485163882374764,-0.04795292,0.16829337,5
-0.7421447038650513,9.889856338500977,-0.14776693284511566,-0.036737781018018716,-0.34300083,0.0033597588,5
-1.010050892829895,9.88182258605957,-0.19439931213855746,-0.06959732621908188,-0.44348818,-0.10598512,5
-1.1449995040893557,9.793182373046877,-0.2559354305267334,-0.053440336138010025,-0.65118235,-0.15485434,5
-1.1981909275054932,9.742414474487305,-0.4734213352203369,-0.030667725950479507,-0.5925393,-0.15851954,5
-1.1870330572128296,9.899456024169922,-0.913966178894043,0.02022498100996017,-0.17562376,-0.08093964,5
-1.0839623212814329,10.089876174926758,-1.4820261001586914,0.12220945209264755,0.70157874,-0.04337143,5
-0.7389505505561829,10.171479225158693,-1.599140167236328,0.33879446983337397,-0.24312437,-0.1957823,5
-0.07921823114156723,10.111557960510254,-1.15741765499115,0.5489982962608337,-0.2947425,0.16768251,5
0.5782076716423035,9.945191383361816,-0.6914436221122742,0.5622320175170898,0.1337795,0.51923543,5
0.7639321684837341,9.872879028320312,-0.4623720943927765,0.4523289799690247,0.124311075,0.49235737,5
0.4379503428936005,9.86101531982422,-0.5414332151412964,0.3590852916240692,0.28008172,0.18753563,5
-0.041629694402217865,9.865694999694824,-0.6893542408943176,0.3413980007171631,0.66889745,0.005497787,5
-0.3590995967388153,9.887815475463867,-0.8193964958190918,0.319110244512558,0.6936375,-0.07299839999999999,5
-0.5119642019271851,9.89609146118164,-0.9077531695365906,0.2886329889297485,0.5656611999999999,-0.060170225999999986,5
-0.5667948126792908,9.89154815673828,-0.9389238953590392,0.2672659754753113,0.5897904,0.00030543262000000003,5
-0.5293218493461609,9.862908363342283,-0.9652680158615112,0.25197941064834595,0.48563787,0.02443461,5
-0.4869124591350555,9.819497108459473,-1.0131599903106692,0.2464055567979813,0.4034765,0.09560041,5
-0.4793001115322113,9.79755973815918,-1.059860110282898,0.2492431700229645,0.5635232,0.118507855,5
-0.4683199226856232,9.792229652404783,-1.054545760154724,0.2496232092380524,0.6444628000000001,0.16707164,5
-0.4474282264709473,9.77381706237793,-0.9835525751113892,0.2402971833944321,0.6044512,0.19608775,5
-0.4929792881011963,9.72974681854248,-0.9223772883415222,0.22046592831611636,0.6044512,0.18051068,5
-0.6265190243721008,9.685279846191406,-0.9180148243904114,0.19854690134525302,0.6200281999999999,0.12675454,5
-0.7819695472717285,9.676801681518556,-0.9262216687202454,0.18739168345928192,0.6133086999999999,0.07696902,5
-0.8927688002586365,9.874879837036133,-0.8993409872055054,0.20090678334236145,0.5152648,0.015577064,5
-0.957267165184021,10.23577117919922,-0.813676118850708,0.1888011246919632,0.6001751000000001,-0.04153884,5
-0.984266996383667,10.672913551330566,-0.7693365216255188,0.13760530948638916,0.5888741,-0.113926366,5
-0.9940370321273804,11.190041542053224,-0.8224408030509949,0.09684496372938156,0.5907066999999999,-0.22021692,5
-1.0623546838760376,11.721687316894533,-0.8402619361877441,0.04361589252948761,0.7141015000000001,-0.28619036,5
-1.1757718324661257,12.100665092468262,-0.7219359874725342,-0.03829538449645042,0.8723155999999999,-0.33475417,5
-1.2320302724838257,12.334555625915527,-0.4216070771217346,-0.13246354460716248,0.93462384,-0.43310347,5
-1.2870546579360962,12.429719924926758,-0.024792304262518883,-0.2908174395561218,0.86101454,-0.5983425,5
-1.4154353141784668,12.30118179321289,0.33935004472732544,-0.5109543204307556,0.72509706,-0.88147855,5
-1.5772738456726074,12.0504150390625,0.67416912317276,-0.772750735282898,0.5348125,-1.1429288,5
-1.7064614295959473,11.889753341674805,0.9387598633766174,-1.0287094116210938,0.743423,-1.3744466999999998,5
-1.8967182636260984,11.877639770507812,0.9682646989822388,-1.2487828731536863,1.1563678999999998,-1.5280794,5
-2.2221953868865967,11.996039390563965,0.7583869099617004,-1.376582145690918,1.4556919,-1.4679091999999998,5
-2.6416077613830566,12.136903762817385,0.4915383756160736,-1.4137097597122192,2.0030272,-1.3622295,5
-3.1304903030395512,12.19182300567627,0.4434890747070313,-1.3440922498703003,0.70402217,-2.1502457,5
-3.1698527336120605,12.277740478515625,0.7155127525329591,-1.225971221923828,0.0143553335,-2.5396724,5
-2.618699073791504,12.268800735473633,0.9672733545303344,-1.2973204851150513,-0.8335256,-2.288912,5
-1.993588089942932,12.089024543762207,1.1428138017654421,-1.4282668828964231,-1.4706581,-2.067168,5
-1.6896706819534302,11.770336151123047,1.0964757204055786,-1.5589544773101809,-1.5253305,-1.8527542,5
-1.80573832988739,11.221514701843262,0.8107239007949829,-1.6095479726791382,-0.83199847,-1.8280143,5
-2.018038511276245,10.523099899291992,0.7036877870559692,-1.5973129272460938,-0.5119051,-1.5506815,5
-2.177462100982666,9.859171867370604,0.8355458974838257,-1.5623836517333984,-0.5900958000000001,-1.3695598999999998,5
-2.279125213623047,9.297849655151367,1.1535407304763794,-1.5348452329635618,-0.84849185,-1.4401149,5
-2.239438772201538,8.88277816772461,1.4973033666610718,-1.5035629272460938,-1.5525141000000002,-1.4422529,5
-2.1382591724395748,8.426434516906737,1.5529540777206419,-1.4582210779190063,-1.9917262,-1.2932017,5
-2.0648667812347408,7.782353401184082,1.4395204782485962,-1.4170671701431274,-1.9620992,-1.001819,5
-2.0871431827545166,7.055189609527588,1.37994384765625,-1.3649203777313232,-1.9058995,-0.7104363,5
-2.2425005435943604,6.32163667678833,1.3700077533721924,-1.2532554864883425,-1.6823229,-0.47342056,5
-2.552807092666626,5.724935531616211,1.4598208665847778,-1.0572713613510132,-1.6297885,-0.1020145,5
-2.9205262660980225,5.29620885848999,1.6590604782104492,-0.7700164914131165,-1.2406673,0.03573562,5
-3.219395160675049,4.936010837554932,1.9858261346817017,-0.4063982665538788,-0.7877107,0.12370021,5
-3.566412210464477,4.567575931549072,2.446639060974121,-0.04657711833715439,0.24190263,-0.0711658,5
-3.753666400909424,4.5349388122558585,2.9748332500457764,0.2093360722064972,0.53878313,0.13164146,5
-3.2990283966064453,4.855137348175049,3.1842079162597656,0.4678850173950195,-0.20158553,0.61544675,5
-2.8227245807647705,5.185108661651611,2.8792054653167725,0.7763089537620544,-0.04520403,0.8164214,5
-2.7131364345550537,5.872448444366455,2.5505566596984863,0.9831823706626892,1.6062702,0.86009824,5
-2.670546293258667,7.346306800842285,2.59377670288086,1.1270185708999634,1.1640037,1.2742649,5
-2.697115182876587,8.765897750854492,2.68432354927063,1.248034954071045,0.786489,1.2800682,5
-2.608394145965576,9.423428535461426,2.602245330810547,1.317085862159729,0.89461213,1.0934488000000002,5
-2.292698621749878,9.652081489562988,2.562217235565185,1.3465584516525269,0.7367035,1.1426234,5
-1.898944854736328,9.9652738571167,2.5211756229400635,1.3280043601989746,0.6123924,1.3836098,5
-1.6893583536148071,10.561234474182127,2.320120096206665,1.2847846746444702,0.64965516,1.5641204,5
-1.624208927154541,11.018404960632324,1.9938814640045168,1.259767770767212,0.73731434,1.6029103999999998,5
-1.5399869680404663,11.1611967086792,1.6580908298492432,1.2465062141418457,0.65057147,1.7018706,5
-1.390182614326477,11.194488525390623,1.3976705074310305,1.1970173120498655,0.39003745,2.130698,5
-1.27519428730011,11.358599662780762,1.1924047470092771,1.087394952774048,0.14019357,2.3924537,5
-1.3419557809829712,11.542073249816895,0.9784570336341858,0.9815696477890016,-0.12522738,1.853976,5
-1.5968384742736816,11.539966583251953,0.7701526880264282,0.920351266860962,-0.27488935,1.3335188999999998,5
-1.9047908782958984,11.205643653869627,0.5539906620979309,0.9084914922714232,-0.33108896,1.0137309,5
-2.0354876518249507,10.7694091796875,0.4251975417137146,0.91974937915802,-0.33994650000000004,0.8216136999999999,5
-2.047597885131836,10.307381629943848,0.4331023693084717,0.908966898918152,-0.7852673000000001,0.6951646,5
-1.9595556259155276,9.807743072509766,0.4612802267074585,0.8730286359786987,-0.98349303,0.50762904,5
-1.7409782409667969,9.251639366149902,0.1140657439827919,0.7926458716392517,-0.040011674,0.14172074,5
-1.3929386138916016,8.764514923095701,-0.4295542538166046,0.7528511285781859,0.9831876,0.07880162,5
-0.8830657601356506,8.372707366943361,-0.5485049486160278,0.8390393257141113,1.0644327,0.30665436,5
-0.5344911217689514,8.242336273193361,-0.3040475845336914,0.8745984435081482,1.0060950000000002,0.30634892,5
-0.4926785826683045,8.327348709106445,-0.04875316843390465,0.8867862820625305,0.8726209999999999,0.4822781,5
-0.7426699995994568,8.54288387298584,0.15905191004276276,0.8776202201843262,0.7644979000000001,0.5858198,5
-1.1615959405899048,8.764519691467285,0.2615509331226349,0.8378984928131104,0.6426301999999999,0.65087694,5
-1.659716010093689,8.933485984802246,0.31852614879608154,0.7574653625488281,0.27763826,0.6007859999999999,5
-2.143625259399414,9.097984313964844,0.4581530094146729,0.6557801961898804,-0.032375857,0.5384777,5
-2.526062488555908,9.44029140472412,0.6826991438865662,0.5499237179756165,-0.24312437,0.28771752,5
-2.6352875232696533,10.237727165222168,0.8050355911254883,0.4623113870620728,-0.5384777,0.13011430000000002,5
-2.348198890686035,11.128775596618652,0.8223850131034851,0.3686264455318451,-0.07360926,-0.0033597588,5
-1.8702857494354248,11.860251426696776,0.9640738368034364,0.2511163651943207,-0.007330383,-0.19211712,5
-1.480007886886597,12.39333438873291,1.1853708028793335,0.10759572684764862,-0.064446285,-0.39400807,5
-1.2962015867233276,12.879923820495605,1.3605388402938845,-0.05829096585512161,0.048563786,-0.56291234,5
-1.1718251705169678,13.169520378112793,1.473946452140808,-0.25362566113471985,0.46731192,-0.8005389,5
-1.0760895013809204,13.026955604553224,1.6260782480239868,-0.485963761806488,0.8060366999999999,-0.9786061,5
-1.0979459285736084,12.711588859558105,1.6988400220870972,-0.7261304259300232,0.84696466,-1.2666291,5
-1.2198227643966677,12.397817611694336,1.5731754302978516,-0.922232985496521,0.71929383,-1.5741998,5
-1.3538079261779783,12.251199722290039,1.2058922052383425,-1.0684684514999392,1.0497719,-1.6245961000000002,5
-1.4525480270385742,12.252971649169922,0.7871456742286682,-1.1304336786270142,1.3588698,-1.4184291,5
-1.6405371427536009,12.154183387756348,0.6742730736732483,-1.0863065719604492,0.58551437,-1.7580702,5
-1.7989424467086792,11.895310401916506,0.6971705555915833,-0.9693034291267396,-0.22724187,-2.3872614,5
-1.6383721828460691,11.539241790771484,0.7692208290100098,-0.949874758720398,-0.09254608,-2.4184155,5
-1.2959011793136597,11.201926231384276,0.889095664024353,-0.9881198406219482,-0.15485434,-2.316401,5
-0.9678732752799988,10.917909622192383,1.0393579006195068,-1.0169447660446167,-0.49571714,-2.1700988,5
-0.8702272176742554,10.425810813903807,1.0491710901260376,-1.0189945697784424,-0.5213734999999999,-2.0463986000000003,5
-0.9427823424339294,9.811841011047363,1.0210394859313965,-1.011865735054016,-1.2116512,-2.0372355,5
-1.1793321371078491,9.182440757751463,0.9500377774238586,-1.051565408706665,-1.2892311,-2.1920900000000003,5
-1.4333841800689695,8.676529884338379,1.0392990112304688,-1.135498046875,-1.5488489,-2.230269,5
-1.537373661994934,8.337133407592772,1.1727546453475952,-1.2255566120147705,-1.7901406000000002,-2.0402899,5
-1.461937427520752,7.961016178131103,1.2405436038970947,-1.2732306718826294,-2.081218,-1.7284433,5
-1.4237477779388428,7.47233772277832,1.2149237394332886,-1.2830163240432741,-2.0115793,-1.382999,5
-1.5275849103927612,6.961891174316406,1.139130711555481,-1.231122612953186,-1.5460999,-0.97402465,5
-1.715559720993042,6.5821595191955575,1.1780056953430176,-1.0957331657409668,-1.3927728,-0.4783075,5
-2.0034403800964355,6.300356388092041,1.4848498106002808,-0.8815771341323853,-1.3567317,-0.081855945,5
-2.2696635723114014,5.979866027832031,1.9400558471679688,-0.5843126773834229,-1.072374,0.2864958,5
-2.482102632522583,5.607532978057861,2.281949281692505,-0.2394543290138245,0.204029,0.7263188,5
-2.5539846420288086,5.30810546875,2.964797258377075,0.07933743298053741,0.99021256,0.95264435,5
-2.719670295715332,5.552489280700684,3.9113848209381104,0.2811945974826813,1.1539245,0.68875057,5
-2.942724704742432,6.662705421447754,4.017703056335448,0.5379974246025085,0.6713409,1.42973,5
-3.2098164558410645,8.275750160217285,4.277513980865479,0.7008962035179138,-0.16462818,1.559539,5
-3.2419512271881104,9.51546859741211,4.106492519378662,0.7689447402954102,0.5213734999999999,1.5827519,5
-2.7861862182617188,9.61451244354248,3.6661179065704346,0.8332133293151855,0.84482664,1.42973,5
-2.2205979824066158,9.28229808807373,3.111383438110352,0.9434062242507936,1.5351044,1.466382,5
-1.6526944637298584,9.2537841796875,2.6086537837982178,1.0441501140594482,1.9407189,1.8432859,5
-1.3535295724868774,9.904175758361816,2.233241558074951,1.1444652080535889,1.7919732,2.1920900000000003,5
-1.4693918228149414,11.02149486541748,1.897899150848389,1.2181881666183472,1.432479,2.0735822,5
-1.8447734117507932,11.856695175170898,1.597770094871521,1.2755343914031982,1.1472049,1.9172006,5
-2.2018532752990723,12.04331874847412,1.4658827781677246,1.2709481716156006,0.8023715,1.8955148,5
-2.364957094192505,11.789551734924315,1.466728925704956,1.1887729167938232,0.108123146,1.8912388,5
-2.4009079933166504,11.314187049865724,1.4356639385223389,1.034782648086548,-0.6411031,1.611768,5
-2.387211799621582,10.749387741088867,1.1912798881530762,0.873892605304718,-0.8002335,1.3274102,5
-2.34234881401062,10.18675136566162,0.8053117394447327,0.797693133354187,-0.6377433000000001,1.0665708,5
-2.1943867206573486,9.692891120910645,0.4690289497375488,0.8350340723991394,-0.9978484,0.84665924,5
-1.9681787490844729,9.332978248596193,0.2677802443504333,0.9189594388008118,-0.6740898,0.7031059000000001,5
-1.668057203292847,9.05476188659668,0.1816759705543518,0.9329827427864076,-0.1994475,0.6976081000000001,5
-1.4225627183914185,8.778386116027832,0.03277444839477539,0.8885687589645386,0.12461651,0.61269784,5
-1.2305347919464111,8.493885040283201,-0.13204172253608704,0.8895280957221985,0.39553526,0.5235115,5
-1.0484004020690918,8.337456703186035,-0.06481865048408507,0.9070403575897216,0.54825157,0.43310347,5
-0.8986846208572388,8.385160446166992,0.18482013046741488,0.8936455845832825,0.62125,0.419359,5
-0.9314847588539124,8.642312049865723,0.401398241519928,0.8410303592681885,0.61361414,0.37293324,5
-1.1428959369659424,8.833810806274414,0.4716171622276306,0.7663545012474059,0.52656585,0.31612277,5
-1.27507221698761,8.941149711608887,0.5398694276809692,0.6784968972206116,0.46944994,0.41263947,5
-1.3880345821380615,9.036654472351074,0.6452775597572327,0.5701689124107361,0.5369505,0.3662137,5
-1.5471704006195068,9.25386905670166,0.6528951525688171,0.4675472378730774,0.3839288,0.24312437,5
-1.6945818662643433,9.549532890319824,0.5881574153900146,0.3955000936985016,0.1826487,0.3576616,5
-2.039935111999512,10.037513732910156,0.3787199854850769,0.3540179431438446,-0.46761733,0.3839288,5
-2.3928184509277344,10.636406898498537,0.14256514608860016,0.3273231387138367,-0.73914695,0.3659083,5
-2.1970393657684326,11.267632484436035,0.2601216733455658,0.30635225772857666,-0.6747006999999999,0.4016439000000001,5
-1.453543186187744,12.097481727600098,0.7890260219573975,0.25653186440467834,-0.34880406,0.15302174,5
-0.8398987650871277,12.830336570739744,1.2039848566055298,0.14107535779476166,0.0580322,-0.23243423,5
-0.7452205419540405,12.955754280090332,1.486935257911682,-0.032658323645591736,0.21227567,-0.559858,5
-0.973815143108368,12.574630737304688,1.7120752334594729,-0.2593351304531097,0.63071835,-0.8295549999999999,5
-1.239586353302002,12.09630012512207,1.8921798467636108,-0.5052139163017273,0.5919284,-1.2455542,5
-1.4893332719802856,11.754657745361328,1.8917245864868164,-0.7402929663658142,0.5345071,-1.8008307,5
-1.5918666124343872,11.787132263183596,1.437095284461975,-0.9148463606834412,1.1291844,-2.0775528000000003,5
-1.548754334449768,12.090850830078125,0.8358928561210632,-1.0252829790115356,1.9187278000000003,-1.8594738,5
-1.3912445306777954,12.360722541809082,0.4595000147819519,-1.0411921739578247,1.9446895,-1.6334536,5
-1.2091014385223389,12.291976928710938,0.4751036167144776,-0.9822205305099488,0.48349985,-1.7232508999999998,5
-0.9941473603248596,11.8840913772583,0.5946398973464966,-0.8826812505722046,-0.46609017,-2.147802,5
-0.6535170078277588,11.485224723815918,0.8778578042984009,-0.8912848830223083,-0.07666359,-2.4266622000000004,5
-0.4324924051761627,11.187256813049316,1.257657527923584,-0.9525826573371888,-0.20189096,-2.2922719,5
-0.4214153587818146,10.838821411132812,1.493283987045288,-0.9905194640159608,-0.24251351,-2.1713204,5
-0.7191435694694519,10.243062019348145,1.3714640140533447,-0.9943856596946716,-0.38698313,-2.146275,5
-1.157252073287964,9.595420837402344,1.15838885307312,-0.9798778891563416,-1.1808025,-2.2101104,5
-1.592210054397583,9.06734848022461,1.0036791563034058,-0.9756561517715454,-1.5668694,-2.0894647,5
-1.7833768129348757,8.675240516662598,1.159661889076233,-1.0068279504775999,-1.7296648999999995,-1.8897116000000005,5
-1.7497678995132446,8.384188652038574,1.3190349340438845,-1.052011013031006,-2.2003367000000003,-1.7373008,5
-1.5864808559417725,8.063755989074707,1.284388542175293,-1.060067892074585,-2.1429152,-1.484708,5
-1.376597881317139,7.693023204803468,1.1378471851348877,-1.0242557525634766,-1.8225164,-1.0803152,5
-1.187859296798706,7.28787899017334,0.9992367625236512,-0.9321733713150024,-1.3060299,-0.5852089,5
-1.0792421102523804,6.882400035858153,1.0105644464492798,-0.7799514532089233,-0.9728029,-0.20158553,5
-1.1014097929000854,6.488587379455566,1.2426097393035889,-0.5779113173484802,-0.84635377,0.021991149,5
-1.219633936882019,6.105937004089356,1.656181573867798,-0.3247465193271637,-0.7684685,0.28405234,5
-1.365750432014465,5.800806522369385,2.017479658126831,-0.026078047230839733,0.00061086525,0.67256266,5
-1.688991904258728,5.684366703033447,2.4101290702819824,0.22805537283420566,1.3060299,0.6123924,5
-2.2991602420806885,6.157999515533447,3.262277841567993,0.3511436879634857,2.1224513,0.25411993,5
-2.712296724319458,7.43648624420166,3.1345243453979488,0.5058538317680359,0.86009824,1.2302825000000002,5
-2.969324111938477,9.11888313293457,3.75988507270813,0.614535927772522,-0.59864795,1.5995506000000002,5
-3.0271201133728027,10.230687141418457,3.7950363159179688,0.5925305485725403,0.18387043,1.6383406,5
-2.7840847969055176,10.300126075744627,3.4543566703796387,0.5411579608917236,0.4352415,1.5809193,5
-2.4325451850891118,9.828168869018556,2.926828622817993,0.5990768074989319,0.8881981,1.5448782,5
-2.0646414756774902,9.341468811035156,2.3988046646118164,0.6872556209564209,1.2544118,1.7256943,5
-1.8578810691833496,9.177857398986816,1.865109205245972,0.8147210478782654,1.681712,1.8936822,5
-1.9244534969329836,9.661529541015623,1.4912452697753906,0.9585214257240297,1.7672331,1.7782288,5
-2.1916894912719727,10.418407440185547,1.241136908531189,1.086445689201355,1.6129897,1.5958854,5
-2.532496452331543,10.973029136657717,1.1111562252044678,1.1877944469451904,1.5778649,1.6438384,5
-2.71484637260437,11.025053024291992,1.189175009727478,1.2234318256378174,1.0699303999999998,1.7217237,5
-2.743664026260376,10.707040786743164,1.3596194982528689,1.1671918630599976,0.118202426,1.5558738,5
-2.6551668643951416,10.238605499267578,1.3799715042114258,1.0272235870361328,-0.31795537,1.183246,5
-2.4735379219055176,9.77981662750244,1.1868634223937988,0.8623810410499573,-0.21074851,0.87689704,5
-2.2070958614349365,9.507474899291992,0.8917946219444275,0.7436285614967346,-0.19028452,0.79259765,5
-1.8966460227966309,9.436981201171877,0.5932680368423462,0.7085120677947998,-0.49021935,0.8393288000000001,5
-1.669748067855835,9.39147663116455,0.3208412230014801,0.7708088755607605,-0.5384777,0.87872964,5
-1.6328074932098389,9.299352645874023,0.2428083717823029,0.8733477592468262,-0.591623,0.9224065,5
-1.6752800941467283,9.083688735961914,0.4156476259231568,0.8863391280174255,-0.56199604,0.84757555,5
-1.6769198179244995,8.842839241027832,0.5117471814155579,0.805186927318573,-0.58276546,0.69913524,5
-1.609027862548828,8.662724494934082,0.29379889369010925,0.7298651337623596,-0.14263703,0.54702985,5
-1.4225844144821167,8.606342315673826,0.0041510541923344135,0.7406598925590515,0.05681047,0.4089743,5
-1.1242653131484983,8.692198753356934,-0.07739834487438202,0.7675956487655641,0.102319926,0.34330627,5
-0.8027487993240356,8.837874412536621,-0.09207700937986374,0.7336698174476624,0.37751472,0.3323107,5
-0.5583018064498901,8.953691482543945,0.052465442568063736,0.6621277332305908,0.16707164,0.34025195,5
-0.4224100112915039,9.040396690368652,0.25871482491493225,0.5957922339439392,0.4361577999999999,0.32589662,5
-0.3553256690502167,9.290118217468262,0.4316509664058685,0.5376567840576172,0.5729916,0.33505958,5
-0.4558583199977875,9.611091613769533,0.40779754519462585,0.4807734489440918,0.9211848,0.31948254,5
-0.7494172453880309,9.729083061218262,0.2391824573278427,0.43038177490234375,0.75777835,0.3436117,5
-1.126197099685669,9.60800075531006,0.049263227730989456,0.392333447933197,0.2883284,0.32925636,5
-1.4260387420654297,9.545994758605957,-0.11081093549728394,0.3601383566856384,-0.07666359,0.26297748,5
-1.6320639848709106,10.11113166809082,-0.22188343107700348,0.3461013436317444,-0.47219884,0.087659165,5
-1.3977688550949097,11.009414672851562,-0.026845496147871014,0.30946558713912964,-0.35124752,-0.116675265,5
-0.928772509098053,11.727359771728516,0.4203382730484009,0.21699173748493195,-0.21899518,-0.24037547,5
-0.5164768695831299,12.303973197937012,0.6557751297950745,0.11266527324914932,0.3915646,-0.3023783,5
-0.2828157842159271,12.712294578552244,0.8124006986618042,-0.00949688348919153,0.5766568,-0.41325033,5
-0.2681047022342682,12.781248092651367,0.8842559456825256,-0.19517257809638974,1.0115929,-0.55741453,5
-0.4415105581283569,12.501577377319336,0.9186753630638124,-0.4252029955387116,1.1756102,-0.7849618,5
-0.716460645198822,12.221639633178713,1.0105057954788208,-0.6795248985290527,0.784351,-1.1001683,5
-1.0633573532104492,12.11156177520752,0.9801431894302368,-0.900778353214264,0.23579398,-1.4187346,5
-1.4324277639389038,12.12163543701172,0.6852458715438843,-1.0453426837921145,0.34666604,-1.570229,5
-1.7889299392700195,12.178544044494627,0.23376893997192386,-1.124059557914734,1.0955868,-1.6514741999999998,5
-2.0541832447051998,12.251708030700685,-0.03333558142185211,-1.1203960180282593,1.5335772,-1.733941,5
-2.151061534881592,12.31039810180664,0.13923406600952148,-0.9977063536643982,0.5363397,-2.0748038,5
-1.8343414068222048,12.266780853271484,0.4700145125389099,-0.8656284809112549,-0.00030543262000000003,-2.1569653,5
-1.2954144477844238,12.061644554138185,0.7862868309020996,-0.8597058653831482,-0.26389378,-2.3774874,5
-0.7692775726318359,11.812776565551758,1.0267192125320437,-0.9345689415931702,-0.7180721,-2.2043072999999995,5
-0.4935216307640076,11.422184944152832,1.108861207962036,-1.0164470672607422,-0.6591236,-1.9596558,5
-0.5342274308204651,10.812077522277832,1.0285351276397705,-1.0344002246856692,-0.7324274000000001,-1.8548924,5
-0.7700092792510986,10.033093452453613,0.88572096824646,-1.0221951007843018,-0.9114109,-1.9126191000000003,5
-0.969468116760254,9.32424545288086,0.9087010025978088,-1.0681995153427124,-0.99265605,-1.7318029,5
-1.1015487909317017,8.780782699584961,1.0077096223831177,-1.1665924787521362,-1.3014483,-1.5445728,5
-1.2128667831420898,8.366896629333496,1.108999729156494,-1.2248579263687134,-1.5534303,-1.520749,5
-1.2438561916351318,8.004742622375487,1.1300959587097168,-1.248738408088684,-1.6465873,-1.3582588,5
-1.234800934791565,7.487143516540527,1.0366154909133911,-1.2452261447906494,-1.5796975,-0.98654735,5
-1.2595573663711548,6.868076801300049,0.9667630791664124,-1.1883138418197632,-1.3573426000000002,-0.54825157,5
-1.4107667207717896,6.346743583679199,0.9516066908836364,-1.0399988889694214,-1.1716396,-0.24129178,5
-1.668647289276123,5.953412055969237,1.033147931098938,-0.8020117878913879,-0.93218035,0.024740042,5
-1.951929807662964,5.661448001861572,1.2790310382843018,-0.4955447018146515,-0.5748241999999999,0.2669481,5
-2.3222692012786865,5.43854284286499,1.654640793800354,-0.18122269213199613,0.41386122,0.5207626000000001,5
-2.698204040527344,5.559496402740479,2.3359923362731934,0.058837063610553735,0.97341377,0.52687126,5
-2.66013240814209,6.158406734466553,3.191797971725464,0.23844316601753235,0.54519725,0.84299403,5
-2.4924538135528564,7.195238590240479,3.163856029510498,0.4223073422908783,0.44593164,1.1704178,5
-2.744997978210449,8.316740989685059,2.988595724105835,0.6092085838317871,0.6310238,1.1472049,5
-2.9608364105224614,9.324142456054688,3.15494966506958,0.6534605622291565,0.3023783,1.2742649,5
-2.914645910263061,9.626556396484377,2.9325852394104004,0.6655132174491882,0.33139440000000003,1.3359623,5
-2.6760802268981934,9.444998741149902,2.4874825477600098,0.7544420957565308,0.82924956,1.3854424,5
-2.370355129241944,9.292070388793944,2.0653243064880367,0.8793777227401733,1.2800682,1.5653422,5
-2.104576826095581,9.45553493499756,1.7588928937911987,1.0260326862335205,1.3548992,1.666135,5
-1.9917211532592771,10.062657356262207,1.5564851760864258,1.1410360336303709,1.2250903,1.7095063999999998,5
-2.005392551422119,10.726000785827637,1.382503867149353,1.1973060369491575,0.88147855,1.8209893,5
-2.0802078247070312,11.216924667358398,1.2427036762237549,1.2078866958618164,0.52106804,2.0234911,5
-2.1314866542816158,11.383957862854006,1.1619492769241333,1.176526427268982,0.13347405,2.0366247,5
-2.102791786193848,11.234169006347656,1.1087342500686646,1.1152276992797852,-0.19181168,1.7415768,5
-2.053363561630249,10.88230800628662,0.9931251406669616,1.0134137868881226,-0.3390302,1.3136656999999998,5
-2.0663926601409908,10.492911338806152,0.9143566489219666,0.8841592669487,-0.55833083,1.1539245,5
-2.061352014541626,10.08950138092041,0.8079864382743835,0.7926930785179138,-1.02717,1.0830641,5
-1.99616014957428,9.76363754272461,0.6383421421051025,0.7758991122245789,-1.2724323,0.91690874,5
-1.891295075416565,9.495305061340332,0.4553970396518707,0.8019229173660278,-1.1743883999999998,0.7593055000000001,5
-1.6824268102645874,9.234859466552734,0.3175310492515564,0.8156176209449768,-0.78893244,0.72509706,5
-1.346768498420715,8.977787971496582,0.1988106518983841,0.7668995261192322,-0.36987892,0.8164214,5
-0.9800116419792176,8.733950614929201,0.0026415612082928423,0.7122020721435547,-0.017104227,0.7287621999999999,5
-0.7336206436157227,8.560205459594728,-0.18433943390846247,0.6955714225769043,0.16065755,0.6243043,5
-0.6400730609893799,8.473171234130861,-0.3196808397769928,0.7083967924118042,0.16584991,0.4718934,5
-0.6088426113128662,8.541739463806152,-0.32259345054626465,0.7201631665229797,0.112399206,0.49296826,5
-0.5445080399513245,8.745715141296388,-0.18033649027347565,0.7164676785469055,0.015577064,0.5195409000000001,5
-0.34072741866111755,8.984135627746582,0.03124399110674858,0.7091931700706482,0.09437868,0.5375614000000001,5
-0.09166587144136427,9.348706245422363,0.20432566106319427,0.685822069644928,0.027488936,0.5830709,5
-0.04825329780578613,9.604966163635254,0.20339493453502652,0.6264569759368896,-0.15943582,0.54153204,5
-0.2452794760465622,9.605789184570312,0.0008389122085645795,0.5720438361167908,-0.30176744,0.52381694,5
-0.5803337693214417,9.551076889038086,-0.2870551347732544,0.5433352589607239,-0.24465153,0.4529566,5
-0.9078925848007202,9.669397354125977,-0.4343412220478058,0.5164681673049927,-0.100792766,0.3475823,5
-1.1143193244934082,9.987401008605957,-0.27562016248703003,0.4653547406196594,-0.12767084,0.21502456,5
-1.300804853439331,10.340940475463867,-0.14405624568462372,0.3954310417175293,-0.39645153,0.039095376,5
-1.365880846977234,10.694175720214844,-0.19283968210220334,0.31639209389686584,-0.226631,-0.1142318,5
-1.118428111076355,11.034578323364258,-0.3289128243923187,0.2423221468925476,0.16371189,-0.31184670000000003,5
-0.499551773071289,11.443984985351562,-0.3492366075515747,0.18698129057884216,0.33536503,-0.30604348,5
0.2176842838525772,12.135441780090332,-0.2512910068035126,0.10896151512861252,0.59712076,-0.43554693,5
0.6563740968704224,12.713687896728516,-0.175804004073143,-0.032052800059318536,1.031446,-0.66950834,5
0.7533413767814636,12.768074035644533,-0.049087177962064736,-0.2321915626525879,1.1878275,-0.8176431,5
0.5890757441520691,12.385496139526367,0.18083730340003967,-0.4618171453475952,0.7583892,-0.98837996,5
0.2868443429470062,12.01258945465088,0.6121954321861267,-0.6967083811759949,0.28924468,-1.2669345,5
-0.015244469977915287,11.950723648071287,1.0566636323928833,-0.9231430888175964,0.056505036,-1.6007724,5
-0.2875411808490753,12.12731647491455,1.1772240400314329,-1.1089892387390137,0.59773165,-1.7907515,5
-0.5656611919403076,12.361343383789062,0.8473896980285645,-1.2336331605911257,1.5824465,-1.5656476,5
-0.8750555515289307,12.3699951171875,0.4473651945590973,-1.2374598979949951,2.0137172,-1.6145169,5
-1.0174554586410522,12.096779823303224,0.3990325927734375,-1.1589735746383667,0.7593055000000001,-1.9410243000000005,5
-0.8332321643829346,11.64327621459961,0.5245023965835571,-1.0692024230957031,0.15760323,-1.9016235,5
-0.4982205033302307,11.0974702835083,0.744253396987915,-1.0585312843322754,-0.22876903,-1.8945986,5
-0.2401057481765747,10.606133460998537,1.0070110559463499,-1.0873540639877322,-0.71776664,-1.8154916,5
-0.2566657364368439,10.174832344055176,1.1578694581985474,-1.1275954246520996,-0.44409904,-1.9642372,5
-0.6515858173370361,9.820256233215332,1.1138249635696411,-1.1546584367752075,-0.3866777,-2.0744984,5
-1.13856840133667,9.452459335327148,1.0010260343551636,-1.1360644102096558,-0.63132924,-2.1487186,5
-1.5231786966323853,9.1430082321167,0.9237796068191528,-1.102855563163757,-1.054048,-2.024102,5
-1.7129206657409668,8.886361122131348,0.9784162044525146,-1.1030982732772827,-1.0955868,-1.9969184,5
-1.5775541067123413,8.60627269744873,1.195958971977234,-1.1323565244674685,-1.241889,-1.9226984,5
-1.3207788467407229,8.324603080749513,1.3362312316894531,-1.138167142868042,-1.5357152,-1.7852536,5
-1.160152792930603,8.061070442199707,1.3360588550567627,-1.1198772192001345,-1.5332718,-1.6392567999999998,5
-1.2566397190093994,7.866209983825684,1.28304922580719,-1.090921401977539,-1.3405437,-1.3967434,5
-1.5363543033599854,7.66969108581543,1.3368088006973269,-1.0289778709411619,-1.31672,-1.0509937,5
-1.837692618370056,7.257247447967528,1.614078164100647,-0.9083589911460876,-1.2205088,-0.68752885,5
-2.0786995887756348,6.709806442260742,1.9735517501831052,-0.7090636491775513,-0.79351395,-0.38515055,5
-2.256821393966675,6.183062553405763,2.2830591201782227,-0.4621318876743317,-0.33933565,-0.05131268,5
-2.356428623199463,5.747792720794678,2.46223521232605,-0.2031618654727936,0.074830994,0.3155119,5
-2.484912633895874,5.445681571960449,2.5270891189575195,0.06573329120874405,0.3943135,0.64812803,5
-2.777255058288574,5.309391975402832,2.5021588802337646,0.3131468892097473,0.88147855,0.98532563,5
-3.128331422805786,5.378106594085693,2.80622673034668,0.5145038366317749,1.142318,1.1032226,5
-3.5168168544769287,6.179970264434815,3.56267523765564,0.6092811822891235,1.1951579,1.219287,5
-4.2351603507995605,7.771126270294189,3.211281538009644,0.6955760717391968,1.0137309,1.0345002,5
-4.794369697570801,9.744466781616213,3.453807592391968,0.8743384480476379,-0.20066923,1.4333953,5
-4.864073753356934,10.97035026550293,3.4422273635864262,0.8524710536003113,-0.30451632,1.4187346,5
-4.4234275817871085,10.847683906555176,3.0055391788482666,0.877273678779602,0.016493361,1.4880677,5
-3.740801095962525,10.12435531616211,2.507070779800415,0.9787966012954712,0.441961,1.6334536,5
-2.9502658843994136,9.494001388549805,2.055532217025757,1.1259191036224363,0.6010914,1.9040669,5
-2.3282830715179443,9.531665802001953,1.605196475982666,1.2856985330581665,0.6569856,2.2721133,5
-1.9590520858764648,10.437443733215332,1.267958402633667,1.4186367988586426,0.6899723000000001,2.2763894,5
-1.8939526081085205,11.581843376159668,1.1345828771591189,1.4953584671020508,0.50793445,2.0494528,5
-2.0947105884551998,12.027762413024902,1.2914061546325684,1.4883779287338257,0.310625,1.6334536,5
-2.315247058868408,11.672452926635742,1.5820574760437012,1.375257134437561,-0.57848936,0.999681,5
-2.3343865871429443,10.986286163330078,1.6641371250152588,1.1899566650390625,-1.0671816,0.7125743,5
-2.07185697555542,10.20326042175293,1.294940948486328,1.021235108375549,-0.59650993,0.5534439,5
-1.5259114503860474,9.508233070373537,0.6921464800834656,0.9196678400039672,-0.27947086,0.3866777,5
-0.8675795793533325,9.100811004638672,0.15461547672748566,0.8744125962257385,-0.0842994,0.5363397,5
-0.3126778304576874,9.048418998718262,0.08826025575399399,0.9377878904342652,-1.1355985,1.0418307,5
-0.262423574924469,9.17581272125244,0.2410170286893845,0.9929372668266296,-0.5543602,1.0549643,5
-0.6041712760925293,9.160487174987793,0.23558737337589264,0.8972458243370056,-0.055588737,0.9440921999999998,5
-0.8594130277633667,9.005239486694336,0.1773022562265396,0.7866384983062744,-0.3032946,0.9062186,5
-0.9831143021583556,8.815550804138184,0.09411553293466568,0.7149024009704591,-0.3820962,0.68661255,5
-0.9531185030937196,8.762313842773438,-0.05308907479047775,0.6684929728507996,-0.19181168,0.47342056,5
-0.7949025630950928,8.883514404296875,-0.1897892504930496,0.6424815058708191,-0.03573562,0.355829,5
-0.6249876022338867,9.005939483642578,-0.2862081527709961,0.6379724740982056,-0.054061573,0.27214047,5
-0.4164762198925018,9.093338966369627,-0.30834323167800903,0.6664637327194214,-0.096516706,0.38148534,5
-0.1591597944498062,9.208478927612305,-0.13168050348758698,0.698014497756958,-0.3662137,0.63407815,5
0.014674323610961437,9.32102870941162,0.02519637905061245,0.6956692934036255,-0.4251622000000001,0.84635377,5
0.06320613622665405,9.342120170593262,-0.01219915971159935,0.6836436986923218,-0.32498032,0.86651236,5
0.007836021482944489,9.302451133728027,-0.2003310471773148,0.6849150061607361,-0.23090707,0.65301496,5
-0.27110645174980164,9.418888092041016,-0.32594478130340576,0.6443217992782593,0.03145956,0.4089743,5
-0.6206227540969849,9.59445095062256,-0.3485564589500427,0.5763171315193176,0.11911872,0.26450464,5
-0.9271550178527832,9.719675064086914,-0.39172104001045227,0.5273268222808838,0.30176744,0.22876903,5
-1.0051443576812744,9.846461296081543,-0.4757492542266846,0.5075922608375549,0.29718593,0.26725355,5
-0.7313609123229979,10.132806777954102,-0.4824564754962921,0.4983463287353516,-0.16554448,0.2489276,5
-0.4751700162887573,10.450631141662598,-0.4739868938922882,0.4465188086032867,-0.3885103,0.21105394,5
-0.34721919894218445,10.793234825134276,-0.5297062397003174,0.3662545084953308,-0.062002823,0.17898351,5
-0.3652920722961426,11.248245239257812,-0.6493739485740662,0.3070281445980072,-0.16126843,0.106595986,5
-0.4599108397960663,11.771142959594727,-0.8362081050872803,0.26716458797454834,-0.018936822,0.118202426,5
-0.4780364036560058,12.266599655151367,-0.9463160037994384,0.2241290658712387,0.48441613,0.07238753,5
-0.3550305068492889,12.714241981506348,-0.9157221913337708,0.14291752874851227,0.59681535,-0.16890424,5
-0.17256489396095276,12.861170768737793,-0.7551236748695374,-0.007575300987809896,0.23976462,-0.4868596,5
-0.18814735114574432,12.643037796020508,-0.4920285642147064,-0.21872226893901825,-0.28527406,-0.72387534,5
-0.3570714294910431,12.41473388671875,-0.20381174981594088,-0.4687226712703705,-0.21930063,-0.88208944,5
-0.6129351854324341,12.319137573242188,0.09937015920877457,-0.7444218993186951,0.05131268,-0.9944886,5
-0.9922825694084167,12.21168041229248,0.3100435137748718,-1.0336697101593018,0.35735616,-1.3249667,5
-1.5199987888336182,12.010462760925293,0.21504026651382446,-1.2720551490783691,0.33292156,-1.6740761999999998,5
-1.968225717544556,11.77965259552002,-0.17334195971488953,-1.369409203529358,0.04734206,-1.679574,5
-2.1388278007507324,11.486435890197756,-0.6669945120811462,-1.3492131233215332,-0.23548855,-1.851838,5
-2.0285165309906006,11.305213928222654,-1.0464779138565063,-1.225816249847412,-0.79717916,-1.9688187,5
-1.5415654182434082,11.334364891052244,-1.0841751098632812,-1.027369737625122,-1.3112222,-1.6187929,5
-0.7526540756225586,11.249695777893066,-0.7555652856826782,-0.8659589886665344,-2.7550023,-1.3860532,5
0.008359553292393684,10.819113731384276,-0.4436850845813751,-0.8060020208358765,-4.0555344,-1.366811,5
0.23376601934432986,10.303908348083496,-0.39048489928245533,-0.8610599040985107,-2.6499333,-1.2498302,5
-0.036280136555433266,9.830296516418457,-0.406333863735199,-1.0088639259338381,-0.1863139,-0.82802784,5
0.014931374229490757,9.285240173339844,-0.23072700202465055,-1.0544161796569824,-0.71837753,-0.3491095,5
0.32671475410461426,8.662134170532228,-0.25584307312965393,-1.0378046035766602,-1.3567317,-0.22479841,5
0.7066050171852112,8.063117980957031,-0.44073328375816345,-1.0100165605545044,-1.3093897,-0.27855456,5
0.9681267142295836,7.704546928405763,-0.5170447826385498,-0.9541608095169068,-1.2119566000000002,-0.3210097,5
1.0562510490417478,7.647579669952393,-0.4938121438026428,-0.8716866374015808,-0.9239337,-0.32925636,5
1.022941827774048,7.824067115783691,-0.35358747839927673,-0.7791526913642883,-0.87964594,-0.24404067,5
0.9444040656089784,7.988249778747559,-0.15453892946243286,-0.7031008005142212,-1.1181888999999998,-0.06597344599999999,5
0.8936030268669128,8.007319450378418,0.0529312826693058,-0.6342218518257141,-1.2721269,0.08155051,5
0.91428941488266,7.8862690925598145,0.2621715068817139,-0.5502713322639465,-1.3888022,0.24617869,5
0.9990280866622924,7.6964521408081055,0.38680726289749146,-0.4415506720542908,-1.1200215,0.43554693,5
1.101910948753357,7.504333019256593,0.4533729255199432,-0.29159530997276306,-0.5009095,0.6062838,5
1.2533655166625977,7.491809844970702,0.5455453991889954,-0.08186908811330795,0.32498032,0.9728029,5
1.3744469881057741,7.786702632904053,0.8337532877922058,0.17975948750972748,0.8237518,1.4694363,5
1.1257466077804563,8.319817543029785,1.4669234752655032,0.4130029082298279,0.6924158,1.3921618,5
0.06001027300953865,9.084521293640137,3.1429107189178467,0.4787154793739319,-0.38515055,0.7886270000000001,5
-1.7529003620147705,9.905940055847168,4.956540584564209,0.2734383046627045,-1.7308867,-1.2660183,5
-3.2742955684661865,10.383170127868652,5.1081271171569815,0.14465199410915375,-1.2907583,-1.8261817,5
-3.8531360626220703,10.5291166305542,3.870605945587158,0.232184037566185,0.39553526,-1.3881912,5
-3.8670363426208496,10.731056213378906,2.7354190349578857,0.3670234978199005,0.8546004999999999,-0.8151997,5
-3.2271082401275635,11.216087341308594,2.2237870693206787,0.44261527061462397,0.28283059999999993,-0.28771752,5
-1.8735471963882449,11.126522064208984,2.78962779045105,0.4371013939380646,-1.6966782,-0.8775079,5
-0.7590587139129639,10.364420890808104,3.5758519172668457,0.3646900951862335,-1.9541580000000005,-0.6264423000000001,5
-0.5009318590164185,9.514676094055176,3.829190015792847,0.3278743922710419,-0.71868294,0.1563815,5
-0.9337615370750428,9.11448860168457,3.615018606185913,0.21976356208324432,-0.8185594,1.0125091,5
-1.5499908924102783,9.161425590515137,3.035643577575684,4.2845866119023406e-05,-1.8570304,1.2654073,5
-1.9343854188919067,9.272269248962402,2.189005136489868,-0.09864778816699983,-3.0057623,1.0067059,5
-2.1189064979553223,9.02242660522461,1.2902519702911377,-0.054625358432531364,-3.1398473,0.45051312,5
-2.1204276084899902,8.800782203674316,0.5363674163818359,0.08408460766077043,-2.7391198,0.16676621,5
-1.9859626293182373,9.065216064453123,0.06494790315628053,0.3376557528972626,-1.9706513,0.355829,5
-1.7651448249816897,9.752694129943848,-0.12475929409265518,0.6159530878067017,-1.239751,0.35613444,5
-1.3904284238815308,10.09085178375244,0.009741161949932577,0.783214271068573,-1.135904,0.093462385,5
-0.8039815425872803,10.041029930114746,0.3643609881401062,0.8563661575317383,-1.6227635,0.44868052,5
-0.194226935505867,9.824478149414062,0.5501812100410461,0.8236408829689026,-1.7131716,0.5873469,5
0.1808101087808609,9.637642860412598,0.4168370068073273,0.7046627998352051,-1.3729197,0.5170974,5
0.3072556853294373,9.57217502593994,0.1336718648672104,0.5780904293060303,-1.237613,0.4279111,5
0.0182531513273716,9.660381317138672,-0.27927452325820923,0.5198685526847839,-1.3677273,0.40011674,5
-0.5157646536827087,9.78923225402832,-0.615515947341919,0.5631313323974609,-1.1090258,0.17256944,5
-1.0438202619552612,9.846108436584473,-0.6962379813194275,0.6183750629425049,-0.90316427,-0.14080444,5
-1.360867977142334,9.882381439208984,-0.4681805372238159,0.6516140103340149,-1.3741413,-0.42730024,5
-1.4178075790405271,9.987590789794922,-0.14937113225460052,0.6434584856033325,-2.1991148,-0.47525316,5
-1.337749719619751,10.08087158203125,0.00800132006406784,0.5782167911529541,-2.7809641,-0.44348818,5
-1.2592095136642456,10.073919296264648,-0.04321364313364029,0.4651729762554169,-3.015231,-0.46944994,5
-1.14795982837677,9.978132247924805,-0.338634192943573,0.3345794379711151,-2.6456573,-0.54519725,5
-0.928254008293152,9.872246742248537,-0.7252522706985474,0.2397395074367523,-2.2724187,-0.5384777,5
-0.6486396193504333,9.817625999450684,-0.968290150165558,0.170245423913002,-2.2290473,-0.48380527,5
-0.364551454782486,9.826169967651367,-1.0804467201232908,0.11790247261524199,-2.515543,-0.41263947,5
-0.045539338141679764,9.890877723693848,-1.1996517181396484,0.058141756802797324,-2.6193902,-0.25350907,5
0.33381494879722595,10.00689697265625,-1.353811740875244,-0.013522043824195862,-2.5369234,-0.17684549,5
0.7082838416099548,10.109479904174805,-1.531551957130432,-0.06219678372144699,-2.2843306,-0.39187005,5
1.0781185626983645,10.177433967590332,-1.6398508548736572,-0.07483691722154617,-2.0720549,-0.61208695,5
1.4552366733551023,10.266761779785156,-1.6562787294387815,-0.040940646082162864,-1.9254472,-0.70616025,5
1.8040716648101809,10.452744483947754,-1.5946139097213743,0.013199586421251295,-1.8683313,-0.33108896,5
1.8813462257385252,10.587963104248047,-1.4514707326889038,0.033299610018730164,-2.4110851,0.13041973,5
1.7086174488067627,10.544427871704102,-1.3034138679504397,0.04127955809235573,-3.215289,0.17134771,5
1.444480299949646,10.37303638458252,-1.2564842700958252,0.05002792552113533,-3.705203,0.21380283,5
1.1728394031524658,10.216336250305176,-1.4192593097686768,0.061171621084213264,-3.1554244,0.3145956,5
0.9025605916976928,10.132999420166016,-1.752976655960083,0.09351520240306854,-1.6847663,0.24984388,5
0.7491216659545898,9.94855785369873,-1.867479920387268,0.14207354187965393,-0.7886270000000001,-0.11209377,5
0.8404178619384766,9.78207778930664,-1.685575246810913,0.19213539361953733,-0.7779369,-0.27366763,5
1.119351148605347,9.7589111328125,-1.3133130073547363,0.22975268959999084,-1.056186,-0.1255328,5
1.2923728227615356,9.820369720458984,-0.9278717637062072,0.1881230473518372,-1.5183055,-0.005192355,5
1.1764883995056152,9.902252197265623,-0.7206482887268066,0.06548458337783812,-1.7962493000000002,-0.011911872,5
0.8973443508148193,10.039908409118652,-0.7309622764587402,-0.08012162148952484,-1.6649131999999998,-0.05955936,5
0.5729572772979736,10.214455604553224,-0.876082181930542,-0.181615486741066,-1.314582,-0.17012598,5
0.330376535654068,10.307204246520996,-1.081895112991333,-0.19780653715133667,-0.8353582,-0.35277468,5
0.2342572659254074,10.314532279968262,-1.243671417236328,-0.15827716886997226,-0.28313604,-0.3555236,5
0.22439639270305636,10.268779754638672,-1.2585737705230713,-0.10052811354398727,-0.027794369,-0.33475417,5
0.2441413700580597,10.195019721984863,-1.0697869062423706,-0.032601069658994675,-0.21044308,-0.37293324,5
0.2925024032592773,10.097579956054688,-0.5737819671630859,0.01152131147682667,-0.7470882,-0.41355577,5
0.40144702792167664,9.99473762512207,0.06913921982049942,-0.025497887283563614,-1.450805,-0.31887165,5
0.5253514051437378,9.90982437133789,0.4370368719100952,-0.14460380375385284,-1.6609426,-0.108123146,5
0.6001915335655212,9.853248596191406,0.4598369598388672,-0.27827271819114685,-1.5357152,0.006414085,5
0.5798128247261047,9.77379322052002,0.2775324285030365,-0.3762468099594116,-1.5522085,-0.034208454,5
0.5165959596633911,9.684693336486816,0.0778207778930664,-0.4284616708755493,-1.5280794,-0.027488936,5
0.4141782224178314,9.621305465698242,-0.09115608781576157,-0.4299516975879669,-1.3753631000000002,-0.112704635,5
0.27245816588401794,9.606427192687988,-0.16510812938213348,-0.3588355779647827,-1.2116512,-0.267559,5
0.19374512135982516,9.614835739135742,-0.03817108646035194,-0.2400582879781723,-1.1991285,-0.44226643,5
0.289018452167511,9.671241760253906,0.283587783575058,-0.17628328502178192,-1.001819,-0.3640757,5
0.4601036012172699,9.749593734741213,0.604968786239624,-0.22596782445907596,-0.65209866,-0.28221974,5
0.5914202332496643,9.836966514587402,0.8236815929412842,-0.32739195227622986,-0.7281514,-0.24098633,5
0.643241822719574,9.905287742614746,0.8821964263916016,-0.3946846127510071,-0.68844515,-0.204029,5
0.6045706868171692,9.966169357299805,0.8854923844337463,-0.418141096830368,-0.4728097,-0.12492194,5
0.4816425144672394,9.981986045837402,0.9282811284065248,-0.4249516725540161,-0.24678956,-0.12095132,1
0.28581827878952026,9.910058975219727,1.0049344301223757,-0.43929359316825867,-0.05222898,-0.15088372,1
0.08368558436632156,9.772068977355957,1.0636497735977173,-0.4544089138507843,0.09468412,-0.14294247,1
-0.09049338847398758,9.611187934875488,1.144749879837036,-0.4466708302497864,0.081855945,-0.112704635,1
-0.22156362235546112,9.4793062210083,1.2744942903518677,-0.42178043723106384,-0.08796459400000001,-0.07788532,1
-0.3033258020877838,9.428556442260742,1.432401180267334,-0.385705441236496,-0.3145956,-0.027183503,1
-0.3443496525287628,9.480515480041504,1.6076695919036863,-0.3454522788524628,-0.5174029,0.038179077,1
-0.38376641273498535,9.54449462890625,1.8042839765548704,-0.3090071082115173,-0.7883216,0.09132435,1
-0.43356791138648987,9.573531150817873,1.9487791061401367,-0.28225177526474,-0.8335256,0.15668693,1
-0.4688877463340759,9.57198429107666,2.028921842575073,-0.261607438325882,-0.7012733,0.19547687,1
-0.4851467311382294,9.566261291503906,2.078641176223755,-0.2372269034385681,-0.59864795,0.2049453,1
-0.4709591269493103,9.572916984558104,2.134859561920166,-0.21165384352207184,-0.48288897,0.18845193,1
-0.4340738356113434,9.550872802734377,2.2069859504699707,-0.18624280393123627,-0.4120286,0.14141529999999994,1
-0.4026989638805389,9.489758491516113,2.266855478286743,-0.16395847499370575,-0.38820487,0.10629055,1
-0.38097915053367615,9.386844635009766,2.2931804656982417,-0.13591089844703674,-0.28099802,0.055283304000000005,1
-0.3854901492595673,9.232294082641602,2.291003704071045,-0.09531669318675996,-0.2312125,0.017715093,1
-0.4081780910491944,9.079926490783693,2.2482786178588867,-0.046733330935239785,-0.19608775,-0.028099801,1
-0.440762996673584,8.977534294128418,2.1180553436279297,0.006919152569025755,-0.10323623,-0.106901415,1
-0.4887447953224182,8.916387557983398,1.946805715560913,0.08613499253988266,-0.2406809,-0.15118915,1
-0.5081228613853455,8.911300659179688,1.744839072227478,0.19097352027893064,-0.5739079,-0.20372356,1
-0.4351418614387512,8.979048728942871,1.49945068359375,0.3200269043445587,-0.5030475000000001,-0.20066923,1
-0.31369543075561523,9.185113906860352,1.3335508108139038,0.4867694675922394,-0.43554693,-0.06597344599999999,1
-0.2246483862400055,9.672868728637695,1.3476036787033079,0.7006595134735107,-0.24709499,0.089186326,1
-0.11238240450620653,10.43789768218994,1.832377552986145,0.889337956905365,-0.111177474,0.16065755,1
-0.010196678340435028,10.953561782836914,2.603431224822998,0.7995635271072388,-0.15454891,-0.022296581,1
0.0017849301220849156,10.845139503479004,2.5209314823150635,0.6244933605194092,-0.116980694,-0.049480084,1
0.05643885955214501,10.45105266571045,2.072028636932373,0.5075923204421997,-0.21624629,-0.07086037,1
