acc_x,acc_y,acc_z,gyro_x,gyro_y,gyro_z,label
0.0,0.0,0.0,0.0,-0.68325275,0.017715093,1
0.1040651723742485,0.27206429839134216,-0.05553214624524117,-0.0021498065907508135,-0.59131753,0.12522738,1
0.3393034636974335,0.9245848655700684,-0.1894290000200272,-0.01062065362930298,-0.61911196,0.14630222,1
0.64435875415802,1.833630919456482,-0.3770830631256104,-0.030907288193702694,-0.65668017,0.11148291,1
0.960031807422638,2.8592815399169917,-0.5902146697044373,-0.0640176460146904,-0.7067711,0.07788532,1
1.2438409328460691,3.887384176254273,-0.8054654598236084,-0.10732349753379823,-0.8145888000000001,0.061086524,1
1.4728029966354368,4.8450775146484375,-1.00772225856781,-0.1579049974679947,-0.86559606,0.059864793,1
1.6393414735794067,5.696637630462647,-1.1893928050994873,-0.2131044566631317,-0.9431759,0.08063421400000001,1
1.7451820373535156,6.432063102722168,-1.3481619358062744,-0.27425602078437805,-1.0827587,0.112399206,1
1.7967183589935305,7.056078433990479,-1.4847673177719116,-0.3371046483516693,-1.2147056,0.17043139999999998,1
1.827351689338684,7.575634002685548,-1.5987743139266968,-0.3964803516864777,-1.3139712,0.2125811,1
1.8975377082824707,7.9949092864990225,-1.6874381303787231,-0.4526398479938507,-1.3209959999999998,0.22266038,1
2.00215482711792,8.329980850219728,-1.754757523536682,-0.5045466423034668,-1.273654,0.19242255,1
2.1347241401672363,8.595697402954103,-1.8045259714126587,-0.5548394918441772,-1.2021828,0.16249016,1
2.2901923656463623,8.804768562316895,-1.839954853057861,-0.60654217004776,-1.1563678999999998,0.13133603,1
2.463021993637085,8.967987060546875,-1.863862156867981,-0.6587249040603638,-1.2186762,0.15424347,1
2.650319814682007,9.094077110290527,-1.8784098625183103,-0.7010951638221741,-1.3057245000000002,0.15363261,1
2.84912371635437,9.190228462219238,-1.8854222297668457,-0.7310664057731628,-1.3319917,0.15882497,1
3.057167053222656,9.262267112731934,-1.8863674402236936,-0.7493595480918884,-1.2275337,0.15760323,1
3.272611141204834,9.314905166625977,-1.882433652877808,-0.7595803737640381,-1.0036516,0.2098322,1
3.47498083114624,9.358443260192873,-1.8591530323028564,-0.7573796510696411,-0.74464476,0.2864958,1
3.6198410987854,9.410794258117676,-1.781964898109436,-0.7473574876785278,-0.5858198,0.3390302,1
3.7162325382232666,9.470952987670898,-1.6598082780838013,-0.7281484603881836,-0.569021,0.35430184,1
3.7736153602600098,9.53744125366211,-1.501329779624939,-0.7277553081512451,-0.6059783000000001,0.33994650000000004,1
3.799674272537232,9.608999252319336,-1.3137192726135254,-0.7489070296287537,-0.6282749,0.36560285,1
3.800565242767334,9.684633255004883,-1.1026973724365234,-0.782964825630188,-0.5390885999999999,0.40866885,1
3.781171560287476,9.76360034942627,-0.8726668953895569,-0.821828305721283,-0.37812558,0.4352415,5
3.745622158050537,9.845121383666992,-0.6277863383293152,-0.8498994708061218,-0.1872302,0.43096542,5
3.697019100189209,9.92876148223877,-0.37074846029281616,-0.864564061164856,-0.005192355,0.3933972,5
3.6379642486572266,10.01407241821289,-0.1040484458208084,-0.8881720304489136,0.07391469,0.40133846,5
3.5858559608459477,10.07968044281006,0.1618523895740509,-0.949884295463562,0.021991149,0.48563787,5
3.5720310211181636,10.08501434326172,0.4067009687423706,-1.050494909286499,0.122783914,0.5684100999999999,5
3.590489149093628,10.039775848388672,0.6340744495391846,-1.1406532526016235,0.35277468,0.63591075,5
3.6349976062774663,9.953714370727539,0.8475333452224731,-1.1976892948150637,0.46944994,0.77732605,5
3.7006316184997563,9.834528923034668,1.0500222444534302,-1.2410011291503906,0.5766568,0.8179486,5
3.782690525054932,9.689644813537598,1.243134617805481,-1.2795037031173706,0.7669413,0.86345804,5
3.8782479763031006,9.52361011505127,1.4290305376052856,-1.312864899635315,0.89919364,0.88147855,5
3.9845879077911377,9.34068489074707,1.6090675592422483,-1.3493292331695557,0.9804387,0.8258898000000001,5
4.099611282348634,9.144155502319336,1.7844210863113403,-1.3888541460037231,1.1096367,0.8167268,5
4.221494674682616,8.936891555786133,1.9558931589126587,-1.401400089263916,1.4382823,0.7440339,5
4.326586723327637,8.721214294433594,2.1294496059417725,-1.3865530490875244,1.681712,0.70188415,5
4.370041370391847,8.499761581420897,2.3155105113983154,-1.3591364622116089,1.7599026999999998,0.6056729000000001,5
4.362292289733887,8.273771286010742,2.511944532394409,-1.3320096731185913,1.7363845000000002,0.5027421,5
4.313265323638916,8.043968200683594,2.7168736457824707,-1.3085683584213257,1.7571539,0.42943826,5
4.231232166290283,7.8112735748291025,2.9284603595733643,-1.282475471496582,1.7171421999999998,0.34788775,5
4.1225314140319815,7.576082229614258,3.1455647945404053,-1.2440406084060671,1.5943583,0.344528,5
3.992548942565918,7.339042663574219,3.366948366165161,-1.1860934495925903,1.4300356,0.3903429,5
3.845556735992432,7.100614547729492,3.5916748046875,-1.118497014045715,1.3106114,0.3304781,5
3.6847567558288574,6.860908031463622,3.819245576858521,-1.037657618522644,1.1670581,0.3594942,5
3.5129897594451904,6.620316028594972,4.048963546752931,-0.9413037896156312,1.02717,0.3622431,5
3.3492159843444824,6.39130163192749,4.2749667167663565,-0.8362846970558167,0.8381071,0.34177909999999995,5
3.229894161224365,6.199961185455322,4.484586238861084,-0.7198649048805237,0.6618725000000001,0.3594942,5
3.147934436798096,6.040069580078125,4.680556774139403,-0.6020433902740479,0.50854534,0.37507126,5
3.0960347652435303,5.905417442321777,4.865659236907959,-0.4889015853404999,0.37293324,0.3115413,5
3.068284511566162,5.791038990020753,5.042036533355713,-0.3868580758571625,0.22174409,0.27672195,5
3.0599234104156494,5.692950248718263,5.211387634277344,-0.29705604910850525,0.17165314,0.31123585,5
3.067148447036743,5.607941150665283,5.375115871429443,-0.21381926536560056,0.16340645,0.26633725,5
3.0868604183197017,5.533453464508057,5.534263610839844,-0.1429983228445053,0.17287487,0.24953845,5
3.1166379451751713,5.467401504516602,5.689801216125487,-0.08205030858516693,0.16462818,0.19181168,5
3.1544806957244877,5.408134937286377,5.842398166656494,-0.028831282630562782,0.11942416,0.16737708,5
3.2021584510803223,5.3601179122924805,5.97785234451294,0.01945563592016697,0.1151481,0.18692477,5
3.2348356246948238,5.320728778839111,6.061788082122803,0.07139208167791368,0.106595986,0.21624629,5
3.2226603031158447,5.273237705230713,6.116971492767334,0.138714998960495,0.034208454,0.22937989,5
3.137438535690308,5.281091690063477,6.156439781188965,0.2105579376220703,0.009468411,0.19272798,5
3.0372388362884517,5.514232158660889,6.284151077270508,0.2350537776947021,0.029932396,0.16432275,5
3.034730195999145,6.055757999420166,6.524999141693115,0.18657422065734866,0.18234327,0.08246681,5
3.146888017654419,6.640049457550049,6.8459906578063965,0.08896627277135849,0.4636467000000001,0.034208454,5
3.2909107208251958,6.9056715965271,7.209453105926514,-0.030021632090210918,0.26053402,0.019242255,5
3.247921228408813,6.822810649871826,7.4219255447387695,-0.10675899684429167,0.044898596,-0.12675454,5
3.1505115032196045,6.823898792266847,7.502592086791992,-0.06487244367599487,0.16920967,-0.47983465,5
3.24280047416687,7.170064449310303,7.675427436828612,0.05932937189936637,-0.14294247,-0.49571714,5
3.373098611831665,7.6304450035095215,7.757168769836426,0.19908738136291504,-0.6795876000000001,-0.4089743,5
3.4337406158447266,8.075165748596191,7.704674243927003,0.396158903837204,-1.2492194,-0.42302418,5
3.383575916290283,8.43220329284668,7.448731899261475,0.5955451130867004,-1.6615535,-0.46914452,5
3.3281574249267583,8.65373706817627,6.945176601409912,0.7939609885215759,-1.8344283,-0.52656585,5
3.3550641536712646,8.756525039672853,6.279032707214356,0.9807836413383484,-1.8350391,-0.5867361,5
3.4182562828063965,8.771258354187013,5.553457260131836,1.1381232738494873,-1.7055358,-0.6010914,5
3.41143798828125,8.711040496826174,4.878815650939941,1.253146052360535,-1.5931365,-0.56505036,5
3.365147590637207,8.593052864074707,4.281510353088379,1.3343530893325806,-1.5738943,-0.52687126,5
3.3387055397033687,8.456527709960938,3.7345266342163086,1.384760856628418,-1.5570955,-0.57818395,5
3.330585479736328,8.371780395507812,3.268653392791748,1.4057893753051758,-1.5234979,-0.6600399,5
3.307616233825684,8.377058029174805,2.870997190475464,1.3998030424118042,-1.6236799,-0.61727935,5
3.236659526824951,8.434858322143555,2.513867139816284,1.388420820236206,-1.6511686999999995,-0.6035349,5
3.1158220767974854,8.525629043579103,2.1439986228942867,1.3616842031478882,-1.6780468000000002,-0.4831944,5
3.00715708732605,8.51854419708252,1.745847225189209,1.323743224143982,-1.707063,-0.40194935,5
2.9689922332763667,8.410700798034668,1.4265735149383545,1.2648943662643433,-1.7082846,-0.3585779000000001,5
2.998121738433838,8.275029182434082,1.124422311782837,1.1874762773513794,-1.6227635,-0.40194935,5
3.146517038345337,8.144661903381348,0.8575868606567383,1.1174654960632324,-1.4337007,-0.5375614000000001,5
3.3191161155700684,8.169784545898438,0.671149492263794,1.0623738765716553,-1.2571607,-0.40561453,5
3.4906799793243413,8.241647720336914,0.5047535896301271,1.0072795152664185,-1.0537425,-0.35827246,5
3.568758487701416,8.244192123413086,0.3518431782722473,0.9567312002182008,-0.960891,-0.31826079999999995,5
3.5229206085205083,8.144206047058105,0.25289902091026306,0.9075507521629332,-0.98471475,-0.29810223,5
3.438664436340332,8.026858329772951,0.17664270102977753,0.8650565147399902,-1.0543534,-0.3191771,5
3.3867375850677486,8.006252288818361,0.0484931617975235,0.8393388390541077,-1.0122037,-0.29443705,5
3.3920104503631587,8.09080982208252,-0.11650805175304413,0.8345008492469788,-0.69913524,-0.32162055,5
3.3498122692108154,8.210933685302733,-0.2594955265522003,0.8328007459640503,-0.32467487,-0.39278635,5
3.321235656738281,8.325544357299805,-0.321450412273407,0.8258323073387146,-0.24831672,-0.47403142,5
3.408355712890625,8.51346492767334,-0.2619019150733948,0.8022251129150391,-0.364992,-0.44868052,5
3.544534921646118,8.768725395202638,-0.1834358721971512,0.7592397332191467,-0.3203988,-0.3885103,5
3.661198854446411,9.040016174316406,-0.18262337148189545,0.6913319230079651,-0.21166481,-0.28191432,5
3.7391395568847656,9.262789726257324,-0.2683849632740021,0.6116468906402588,-0.0571159,-0.20066923,5
3.797294139862061,9.376285552978516,-0.371653288602829,0.5348508954048157,0.050701816,-0.17256944,5
3.8155055046081534,9.32176399230957,-0.4604155719280243,0.4694363474845886,0.073303826,-0.16157386,5
3.673720836639404,9.273058891296387,-0.6681766510009766,0.4196319580078125,0.05131268,-0.20066923,5
3.4273798465728764,9.316399574279783,-0.9867008924484252,0.3912352621555328,-0.016493361,-0.28283059999999993,5
3.2139742374420166,9.508918762207033,-1.3003945350646973,0.3876228630542755,-0.13988814,-0.26267207,5
3.094890117645264,9.813867568969727,-1.534993052482605,0.3845043778419495,-0.29077184,-0.20250183,5
3.0921335220336914,10.141780853271484,-1.7680360078811646,0.3665448725223541,-0.2929099,-0.21135938,5
3.2498016357421875,10.408944129943848,-2.0392236709594727,0.33237072825431824,-0.1872302,-0.25717425,5
3.5455942153930664,10.606233596801758,-2.2756903171539307,0.2890172004699707,0.10598512,-0.26236662,5
3.867606639862061,10.899923324584961,-2.4679090976715092,0.2599884271621704,0.5510005,-0.087659165,5
3.985668182373047,11.345703125,-2.6167235374450684,0.2310710996389389,0.82711154,0.27091873,5
3.697871208190918,11.842733383178713,-2.6435952186584477,0.16465967893600464,0.7339545999999999,0.42424592,5
3.2035508155822754,12.208358764648438,-2.58573055267334,0.0449913889169693,0.49357912,0.3998113,5
2.7086949348449707,12.325202941894533,-2.411929130554199,-0.1395970731973648,0.09773844,0.29260445,5
2.3499064445495605,12.234179496765135,-2.073541641235352,-0.3762306272983551,-0.41080686,0.23579398,5
2.1792459487915044,12.01915168762207,-1.6917725801467896,-0.6380985975265503,-0.6881397,0.29932398,5
2.201434850692749,11.82878589630127,-1.3174923658370972,-0.908508002758026,-0.6640105,0.4529566,5
2.357777833938598,11.736138343811035,-1.0711739063262942,-1.1615442037582395,-0.19425514,0.7171558000000001,5
2.686901092529297,11.649824142456055,-0.8563050031661987,-1.4100022315979004,0.4202753,1.0122037,5
3.2009403705596924,11.625372886657715,-0.5698255300521851,-1.6596642732620241,0.78954333,1.346347,5
3.6105008125305176,11.512907028198242,-0.3849771916866303,-1.850544095039368,0.7324274000000001,1.5146403,5
3.593186855316162,11.072092056274414,-0.3621233403682709,-1.9602857828140257,0.82741696,1.3958270000000002,5
3.2637710571289062,10.439933776855467,-0.4608745872974396,-2.0445027351379395,1.5470163,1.0607675,5
2.510964155197144,9.435623168945312,-1.1633522510528564,-2.094690322875977,2.3145685,0.7470882,5
2.3738584518432617,8.97279167175293,-1.1505212783813477,-2.0203478336334233,2.2162192000000003,0.8680395000000001,5
2.5436601638793945,8.794166564941406,-0.6650501489639282,-1.9805212020874023,1.7153096,1.1481212,5
2.7796177864074707,8.675014495849611,-0.06544911116361618,-1.9770643711090088,1.4895949,1.3170254,5
2.700021743774414,8.233926773071289,0.3496707081794739,-1.9785239696502688,1.6618589,1.0812315,5
2.477936029434204,7.643169403076173,0.6405633091926575,-1.9685277938842771,1.8075503,0.7910705,5
2.4640228748321533,7.321850776672362,0.9688317179679872,-1.9236083030700684,1.5943583,0.7965683000000001,5
2.4847898483276367,7.019505977630615,1.270100474357605,-1.868589997291565,1.6016886,0.71776664,5
2.411478042602539,6.66957426071167,1.567767858505249,-1.7579991817474363,1.3567317,0.6973026999999999,5
2.3239569664001465,6.348942756652832,1.9556188583374023,-1.6031225919723509,1.2144,0.52687126,5
2.287881135940552,6.047605991363525,2.391520738601685,-1.3912334442138672,1.0231993,0.46273044,5
2.274020910263061,5.641257286071777,2.8618352413177486,-1.1255905628204346,0.6957755,0.44501534,5
2.2199079990386963,5.124704837799072,3.3501081466674805,-0.8517757654190063,0.07574729,0.29504790000000003,5
2.104674816131592,4.66719913482666,3.8787691593170166,-0.6433932781219482,-0.43188173,0.13897185,5
2.0341169834136963,4.388163089752196,4.41575813293457,-0.4759257733821869,-0.7431175999999999,0.069027774,5
2.1582779884338383,4.3614416122436515,5.020779609680176,-0.3345029652118683,-0.6808093000000001,0.06414085,5
2.5354888439178467,4.5975117683410645,5.623943328857422,-0.2583489120006561,-0.46792278,0.007941248,5
2.8744988441467285,5.00626802444458,6.107980251312256,-0.2363966405391693,-0.21777347,-0.31123585,5
3.1468110084533687,5.642031192779541,6.125213146209718,-0.1274784952402115,-0.20647246,-0.58276546,5
3.654725790023804,6.500702381134032,6.041269779205322,0.18704794347286224,-0.79534656,-0.63591075,5
4.021108150482179,7.380526065826416,6.2926106452941895,0.4318326711654663,-0.8405505999999999,-0.65668017,5
4.185293674468993,8.16990852355957,6.468748569488525,0.6073502898216248,-1.0424415,-0.6765333,5
4.302036762237549,8.861308097839355,6.1667585372924805,0.7872554659843445,-1.070236,-0.66828656,5
4.2016873359680185,9.115334510803224,5.6935386657714835,0.9709143042564392,-1.1658363,-0.64873886,5
3.9457812309265137,8.965973854064941,5.200947284698486,1.1155768632888794,-1.2629639,-0.6969972,5
3.779273271560669,8.660497665405272,4.706395149230957,1.2079482078552246,-1.317331,-0.7452555999999999,5
3.8372588157653813,8.487583160400389,4.1620569229125985,1.2814798355102541,-1.1991285,-0.7800749,5
4.057241916656493,8.483793258666992,3.546451568603516,1.3517292737960815,-1.0005972,-0.78984874,5
4.275426387786865,8.613339424133299,2.9013776779174805,1.4212055206298828,-0.6282749,-0.7556403,5
4.4105377197265625,8.774072647094728,2.346011161804199,1.4866595268249512,-0.33567044,-0.7086037,5
4.3879032135009775,8.88403034210205,1.914096117019653,1.5414701700210571,-0.33475417,-0.7125743,5
4.1459317207336435,8.942852020263672,1.5890477895736694,1.585456132888794,-0.6169739000000001,-0.6786713000000001,5
3.742713451385498,8.938189506530762,1.295949101448059,1.6010749340057373,-0.8503244000000001,-0.5699373000000001,5
3.309051990509033,8.864245414733887,1.0033260583877563,1.584244966506958,-0.98929626,-0.627664,5
2.9386298656463623,8.837653160095215,0.7336442470550537,1.525187373161316,-1.0616838,-0.43249258,5
2.690659523010254,8.78346061706543,0.4685799777507782,1.4372791051864624,-0.97066486,-0.3555236,5
2.6076550483703613,8.684884071350098,0.17453569173812866,1.3565763235092163,-0.78954333,-0.33078352,5
2.627121686935425,8.501627922058105,-0.07084066420793532,1.282670497894287,-0.66645396,-0.35460728,5
2.682807922363281,8.263203620910645,-0.20946742594242096,1.2017635107040403,-0.6606508000000001,-0.3472769,5
2.689951181411743,8.043265342712402,-0.1909942626953125,1.1200437545776367,-0.8249735,-0.3717115,5
2.6774439811706543,7.982851028442383,-0.08341977000236511,1.045370101928711,-0.8176431,-0.3408628,5
2.6290457248687744,7.988677978515625,-0.09512592107057573,0.9709547162055968,-0.45845437,-0.31306845,5
2.5614488124847408,7.90542459487915,-0.29518744349479675,0.9298494458198548,-0.21838433,-0.33628133,5
2.633453607559204,7.800442695617676,-0.5328450798988342,0.92680025100708,-0.21044308,-0.31948254,5
2.82447361946106,7.777900218963622,-0.7310820817947388,0.9409810900688172,-0.08155051,-0.28985557,5
2.8803987503051762,7.957640647888184,-0.77799391746521,0.9322886466979979,0.049785517,-0.30024028,5
2.820350885391236,8.384780883789062,-0.6848594546318054,0.8778102993965149,-0.09285152,-0.34055737,5
2.7680160999298096,9.002820014953613,-0.6046931147575378,0.7815132141113281,-0.32406402,-0.3268129,5
2.7675890922546387,9.621988296508787,-0.6591616272926331,0.6567696332931519,-0.48899764,-0.33261612,5
2.8787105083465576,10.05943202972412,-0.8295676112174988,0.5292301774024963,-0.5525276,-0.3115413,5
3.094512224197388,10.369843482971193,-1.0356457233428955,0.42485859990119934,-0.40286562,-0.17348573,5
3.3602385520935063,10.69469928741455,-1.2820404767990112,0.3517695665359497,-0.2284636,-0.071776666,5
3.606481552124024,11.063668251037598,-1.5528517961502075,0.3040178120136261,-0.052839845,-0.05772676700000001,5
3.8148512840271,11.46164608001709,-1.756722927093506,0.2735292911529541,0.19517145,-0.03481932,5
3.954064130783081,11.88237762451172,-1.8674963712692259,0.23986059427261355,0.43890667,0.02107485,5
4.0015225410461435,12.255702018737793,-1.970056772232056,0.17772945761680606,0.64476824,0.15424347,5
3.840479850769043,12.485657691955565,-2.0468461513519287,0.06476171314716339,0.732122,0.3408628,5
3.3916032314300537,12.560495376586914,-2.0185823440551762,-0.10455261915922164,0.67164636,0.41905355,5
2.7682831287384038,12.46454620361328,-1.7493772506713867,-0.337302029132843,0.33658674,0.45265114,5
2.331210136413574,12.32823085784912,-1.3189878463745115,-0.6305268406867981,-0.16829337,0.57910025,5
2.132043600082397,12.21718692779541,-0.8561163544654846,-0.9251643419265748,-0.36865717,0.7696901999999999,5
2.1004362106323238,12.040508270263672,-0.5570681095123291,-1.2052762508392334,-0.0076358155,0.9972375,5
2.3250551223754883,11.771100044250488,-0.3136579096317291,-1.5041933059692385,0.24465153,1.2990049,5
2.815122127532959,11.637825965881348,-0.1369883418083191,-1.8065400123596191,0.38362336,1.7916678,5
3.2279722690582275,11.606014251708984,-0.23597341775894165,-2.0118880271911617,0.5644395000000001,2.0766363,5
3.265932559967041,11.385369300842285,-0.5440677404403687,-2.0736632347106934,1.2614367,1.8078557,5
2.9744153022766118,10.901363372802734,-0.8551604747772217,-2.0121898651123047,2.3921483,1.3994923,5
2.646587610244751,10.370888710021973,-0.8374218344688416,-1.9235632419586184,2.5357015,1.2434162,5
2.5464768409729004,9.938142776489258,-0.42668959498405457,-1.9268879890441892,2.2293527,1.2290609,5
2.633910179138184,9.49727725982666,0.12826859951019287,-2.0030832290649414,1.847562,1.2571607,5
2.730179071426392,8.919931411743164,0.5110260844230652,-2.0535459518432617,1.7889189,1.0916162,5
2.7192201614379883,8.278993606567383,0.7009875774383545,-2.05022406578064,1.8383989,1.0198395,5
2.5738086700439453,7.600009441375732,0.8512101769447327,-2.0164141654968257,1.9440787,0.7840455,5
2.431638479232788,7.040949821472168,1.0702394247055054,-1.9342694282531736,1.894904,0.70157874,5
2.2142434120178223,6.4800052642822275,1.4365618228912354,-1.8435865640640257,1.5952746000000002,0.48288897,5
2.067473888397217,5.974396228790282,1.818515062332153,-1.6158483028411863,1.3206906,0.22418754,5
1.9413366317749023,5.413952827453613,2.34403920173645,-1.3262102603912354,0.6420194,0.008552114,5
1.8093122243881223,4.8061957359313965,2.8921990394592285,-1.0119282007217407,0.055283304000000005,0.016798794,5
1.7712191343307495,4.3437604904174805,3.4985368251800537,-0.7300846576690674,-0.46028697,0.094989546,5
1.822339653968811,4.1470584869384775,4.2502169609069815,-0.5429282784461975,-0.8200866,0.11026118,5
1.6804858446121216,4.130464553833009,4.792304992675781,-0.4816446602344513,-0.54641896,-0.26022860000000003,5
1.3201079368591309,4.174180507659912,5.058817386627197,-0.3333219885826111,-0.42760566,-0.78038037,5
1.5384125709533691,4.792971134185791,5.345379829406738,-0.05922907218337059,-1.1914927,-0.8014551999999999,5
2.622544765472412,6.277824878692628,5.577179908752441,0.2617755830287933,-1.387275,-0.54458636,5
3.7153949737548833,8.171889305114746,5.7304630279541025,0.4300402700901032,-0.5983425,-0.44104472,5
4.201669692993163,9.344671249389648,5.653648376464844,0.5633958578109741,-0.45356745,-0.20311269,5
4.164429664611816,9.46728515625,5.545092105865479,0.7487735748291016,-0.7901541999999999,-0.33964106,5
3.860326766967773,8.856948852539062,5.273601531982422,0.9468204975128174,-1.2287555,-0.5164866,5
3.6611618995666495,8.389158248901367,4.898398399353027,1.1031599044799805,-1.3246613,-0.6750060999999999,5
3.7340941429138175,8.432554244995117,4.381258964538573,1.1881520748138428,-1.1606439,-0.6835581999999999,5
4.009100914001465,8.866209030151367,3.7095441818237305,1.245608925819397,-0.89949906,-0.53786683,5
4.298994064331056,9.144140243530273,3.0328366756439213,1.302829384803772,-0.6249151,-0.47342056,5
4.479803085327148,9.095590591430664,2.512290000915528,1.3460267782211304,-0.34330627,-0.5726861999999999,5
4.52591609954834,8.904815673828125,2.1453995704650883,1.383421540260315,-0.2510656,-0.7293731,5
4.457441806793213,8.811741828918457,1.8853954076766968,1.423390507698059,-0.4016439000000001,-0.7602218000000001,5
4.269115447998047,8.81276798248291,1.6609116792678833,1.4631162881851196,-0.6881397,-0.6704246,5
3.9120774269104,8.793336868286133,1.432563066482544,1.4754977226257324,-0.8011498,-0.5873469,5
3.467483758926392,8.741168022155763,1.2584103345870972,1.4446066617965698,-0.9370673,-0.57635134,5
3.0812108516693115,8.728377342224121,1.0711842775344849,1.38014817237854,-0.8970556000000001,-0.5864305999999999,5
2.8413116931915283,8.76024341583252,0.8052942156791687,1.3202307224273682,-0.79198676,-0.5354234,5
2.735084056854248,8.606854438781737,0.5062776207923889,1.2702491283416748,-0.6621779000000001,-0.5308419,5
2.636937141418457,8.348024368286133,0.2551213502883911,1.2127618789672852,-0.6224717,-0.59437186,5
2.5667104721069336,8.117669105529785,0.05249994620680809,1.159173607826233,-0.64873886,-0.67256266,5
2.51716423034668,7.964922428131103,-0.032141074538230896,1.115119695663452,-0.70341134,-0.6649268,5
2.517143964767456,7.91001558303833,-0.04936417192220688,1.0873177051544192,-0.6750060999999999,-0.5864305999999999,5
2.5931363105773926,7.920522689819336,-0.2079640030860901,1.0866361856460571,-0.19394971,-0.42943826,5
2.81191086769104,7.971710681915282,-0.37415945529937744,1.1140047311782837,0.050396383,-0.3023783,5
3.078458309173584,8.07358455657959,-0.4302261471748352,1.132563591003418,0.016493361,-0.22602014,5
3.2356090545654297,8.361212730407715,-0.4495950043201447,1.1150602102279663,0.106595986,-0.19914207,5
3.277613401412964,8.790101051330566,-0.4981679022312164,1.0486714839935305,0.0580322,-0.20372356,5
3.31192684173584,9.205389022827148,-0.5086386799812317,0.9194725155830384,-0.030848695,-0.18692477,5
3.30777359008789,9.531899452209473,-0.4472330212593079,0.7437841296195984,-0.16646078,-0.14385876,5
3.343713998794556,9.792680740356444,-0.4248589277267456,0.5586155652999878,-0.36468655,-0.043982297,5
3.409916877746582,10.042621612548828,-0.5552260875701904,0.3952626287937164,-0.5009095,0.061086524,5
3.448435068130493,10.33151626586914,-0.7963733673095703,0.282453715801239,-0.46975538,0.1282817,5
3.474030017852783,10.6394624710083,-1.0557260513305664,0.19672754406929016,-0.3903429,0.108123146,5
3.5498676300048833,11.03386116027832,-1.3079538345336914,0.1155778467655182,-0.2452624,0.09254608,5
3.5929436683654785,11.468827247619627,-1.4688096046447754,0.031139243394136432,-0.24801129,0.14721853,5
3.5533604621887207,11.862382888793945,-1.5656633377075195,-0.07178284972906113,-0.204029,0.25809056,5
3.4232771396636963,12.123476028442385,-1.6046929359436035,-0.2100094109773636,-0.0842994,0.41141775,5
3.1488702297210693,12.253362655639648,-1.5433447360992432,-0.3950746655464173,-0.06078109,0.52381694,5
2.7438645362854004,12.242712020874025,-1.3080543279647827,-0.6084988713264465,-0.25809056,0.62858033,5
2.3676624298095703,12.131003379821776,-0.880447506904602,-0.8671196699142456,-0.6899723000000001,0.76144356,5
2.1551828384399414,12.005704879760742,-0.3776257634162903,-1.146046757698059,-0.9859365,1.001819,5
2.1639776229858403,11.859992027282715,0.061463657766580575,-1.399984359741211,-0.71837753,1.3029754999999998,5
2.473696708679199,11.708711624145508,0.4791164100170136,-1.6747419834136963,-0.0125227375,1.5824465,5
3.104554414749145,11.717987060546875,0.7713074684143066,-1.936870574951172,0.23976462,1.998751,5
3.650446653366089,11.579151153564453,0.6183192729949951,-2.049233675003052,0.63163465,1.9990565,5
3.8325915336608887,11.091299057006836,0.08965802937746048,-1.998025059700012,1.78617,1.5922203,5
3.671722888946533,10.431150436401367,-0.3669160306453705,-1.817442536354065,2.8506026,1.3054191000000002,5
3.389811515808105,9.816722869873047,-0.3173971176147461,-1.642151951789856,2.883895,1.1490375,5
3.27304482460022,9.482110023498537,0.26471275091171265,-1.5932096242904663,2.4920247000000004,1.2366967,5
3.149982690811157,9.204209327697754,0.7808129191398621,-1.6532690525054932,2.4281893,1.2849549999999998,5
2.875696420669556,8.609893798828125,1.0647867918014526,-1.7023766040802002,2.0683897,0.9437868,5
2.691544532775879,7.9973506927490225,1.2910401821136477,-1.645001769065857,1.7806721999999997,0.9627236,5
2.545706272125244,7.409393310546875,1.3827848434448242,-1.5635886192321775,1.6982054,0.9306532,5
2.445884704589844,6.821998119354247,1.4554412364959717,-1.4719371795654297,1.8500054,0.75228053,5
2.3653018474578857,6.316987037658691,1.6058285236358645,-1.3594518899917605,1.7403551,0.5702427,5
2.254668712615967,5.956725120544434,1.89012610912323,-1.1976128816604614,1.3784174,0.39492437,5
2.1276426315307617,5.637266635894775,2.3507916927337646,-0.9782472252845764,0.9184359,0.29626966,5
2.091172456741333,5.181601047515869,2.9541509151458736,-0.7278057336807251,0.1853976,0.24220806,5
2.1100547313690186,4.702161312103272,3.5783710479736333,-0.4806707501411438,-0.39706242,0.17867808,5
2.151787281036377,4.441979885101318,4.19049072265625,-0.2683573663234711,-0.7806858,0.15393804,5
2.2284696102142334,4.434999465942383,4.7472572326660165,-0.1254776120185852,-0.7315111,-0.012217305,5
2.208653211593628,4.649462699890137,5.1292996406555185,-0.06729643046855928,-0.28099802,-0.40958515,5
2.173705816268921,5.22968053817749,5.485696315765381,-0.05891013890504838,0.13775012,-0.8045095,5
2.6691577434539795,6.431839466094972,5.59691858291626,0.09691570699214937,-0.93676186,-0.6951646,5
3.7280788421630864,7.817359924316406,5.7750749588012695,0.4000105857849121,-1.4526376,-0.2724459,5
4.343822956085205,8.697612762451174,5.7311649322509775,0.5583940148353577,-0.8179486,-0.4456262,5
4.515423774719238,8.920615196228027,5.425826072692871,0.7597105503082275,-0.7901541999999999,-0.50915617,5
4.546286582946777,8.969314575195312,5.015535354614258,0.9626427292823792,-0.82741696,-0.43188173,5
4.342097282409668,8.925752639770508,4.389639377593993,1.136595606803894,-0.7635816,-0.6395759,5
4.099278450012207,8.899194717407227,3.824873924255371,1.2588506937026978,-0.79473567,-0.7831292,5
3.871068000793457,8.892709732055664,3.291201114654541,1.3185093402862549,-0.90010995,-0.7049385,5
3.719314813613892,8.850809097290039,2.7798693180084233,1.3440593481063845,-0.9639453,-0.7189884,5
3.689364910125733,8.833251953125,2.370314359664917,1.3378517627716064,-0.9483683,-0.7791585999999999,5
3.7430713176727295,8.877838134765625,2.0295588970184326,1.327905297279358,-0.8790351000000001,-0.80909103,5
3.762821674346924,8.919150352478027,1.7154699563980105,1.3439738750457764,-0.86345804,-0.81061816,5
3.7015259265899663,8.885916709899902,1.4628305435180664,1.3710447549819946,-0.9755518,-0.72601336,5
3.5573351383209233,8.801355361938477,1.259831786155701,1.369678974151611,-1.1523973,-0.6310238,5
3.3757927417755127,8.66391658782959,1.0364003181457522,1.34074068069458,-1.1078042,-0.57543504,5
3.257272481918335,8.52045726776123,0.7923685312271118,1.289085865020752,-0.8408559999999999,-0.50243664,5
3.1635682582855225,8.386879920959473,0.5310686230659485,1.2371995449066162,-0.58032197,-0.44073927,5
3.0622334480285645,8.247770309448242,0.2310209721326828,1.202672243118286,-0.28283059999999993,-0.46609017,5
2.9728291034698486,8.130383491516112,-0.035564523190259933,1.1790754795074463,-0.13133603,-0.51343226,5
2.8699371814727783,8.095503807067871,-0.15860408544540405,1.1647014617919922,-0.16829337,-0.514654,5
2.743349552154541,8.124483108520508,-0.10546276718378067,1.139912724494934,-0.43066,-0.46395215,5
2.6932332515716557,8.11121940612793,0.027099717408418652,1.1020431518554688,-0.6270532,-0.35002577,5
2.7748849391937256,8.145854949951174,0.04462036862969399,1.0603135824203491,-0.473726,-0.31703907,5
2.9860565662384038,8.241218566894531,-0.10899774730205536,1.0267229080200195,-0.17012598,-0.24617869,5
3.168654203414917,8.407913208007812,-0.3551274538040161,1.0201365947723389,0.07849618,-0.2284636,5
3.177900552749634,8.657658576965332,-0.5957569479942322,1.0252610445022583,0.26328292,-0.28344148,5
3.0924561023712163,9.016134262084961,-0.674150288105011,0.9893238544464112,0.16279559,-0.3576616,5
3.1256141662597656,9.474851608276367,-0.5583726763725281,0.8896960616111755,-0.14019357,-0.21655174,5
3.2126033306121826,9.924270629882812,-0.4910864531993866,0.7274730801582336,-0.32314770000000004,-0.116980694,5
3.230973482131958,10.249625205993652,-0.6376482248306274,0.5523183941841125,-0.36254853,-0.11056661,5
3.2304253578186035,10.471301078796387,-0.8348456621170044,0.40589439868927,-0.3753767,-0.09743301,5
3.2485990524291988,10.665793418884276,-0.9762976169586182,0.3038407564163208,-0.4251622000000001,-0.07238753,5
3.3426296710968018,10.915983200073242,-1.0986496210098269,0.2146739959716797,-0.34880406,-0.090713486,5
3.564184665679932,11.223539352416992,-1.347238063812256,0.12017550319433212,-0.13011430000000002,-0.018936822,5
3.782175302505493,11.542712211608887,-1.6511684656143188,0.035591285675764084,0.12522738,0.09987647,5
3.841975688934326,11.855123519897461,-1.8552092313766482,-0.04124223440885544,0.2611449,0.24098633,5
3.556612491607666,12.128128051757812,-1.8372530937194824,-0.13403846323490146,0.2648101,0.32498032,5
3.106013774871826,12.22626495361328,-1.7176982164382937,-0.2665568292140961,0.25381452,0.4007276,5
2.6583471298217773,12.138591766357422,-1.480191946029663,-0.4611655175685882,0.16493362,0.49480084,5
2.2907183170318604,11.993532180786133,-1.1128687858581543,-0.6966052651405334,-0.17379116,0.61850107,5
2.051166534423828,11.8712797164917,-0.7037453055381775,-0.965312659740448,-0.5384777,0.75961095,5
1.9809658527374268,11.771052360534668,-0.3350067436695099,-1.2469288110733032,-0.5152648,1.0115929,5
2.0930836200714107,11.663726806640625,0.09215741604566574,-1.5467592477798462,-0.009468411,1.3289373,5
2.44498062133789,11.69416332244873,0.4905134737491608,-1.8593369722366333,0.20647246,1.6371188,5
2.804226875305176,11.626158714294435,0.568916916847229,-2.0728685855865483,0.17623462,1.8002199,5
2.9290180206298833,11.214317321777344,0.20112244784832,-2.108754396438598,0.7495316,1.5302174,5
2.8475592136383057,10.58508014678955,-0.3910094499588013,-1.966991662979126,1.8564194,1.2822062,5
2.694295883178711,9.959798812866213,-0.6563385725021362,-1.7610619068145752,2.466063,1.2217305,5
2.6622536182403564,9.506515502929688,-0.2744284570217133,-1.6582897901535034,2.3732114,1.349096,5
2.799828290939331,9.24644947052002,0.44565123319625854,-1.7090675830841064,2.1545217,1.3497068,5
2.792186737060547,8.862691879272461,0.9488246440887452,-1.8037384748458865,2.2149973,1.1074986,5
2.5711710453033447,8.341508865356445,1.0471302270889282,-1.8246619701385496,2.3796256,0.9837985,5
2.3750674724578857,7.812532901763916,1.2197157144546509,-1.8071072101593015,1.6603317,0.66737026,5
2.427525520324707,7.462985038757324,1.6372990608215332,-1.737864971160889,1.3747523,0.7254025,5
2.4456048011779785,7.141385078430176,1.9088551998138428,-1.6856257915496826,1.314582,0.66828656,5
2.363533496856689,6.700610637664795,2.1408166885375977,-1.593442678451538,1.3209959999999998,0.41416663,5
2.277187824249268,6.289112567901611,2.452556133270264,-1.4385464191436768,1.106277,0.20647246,5
2.1187570095062256,5.851000785827638,2.8217101097106934,-1.2471164464950562,0.9459248,0.122478485,5
2.005687952041626,5.38930082321167,3.2985153198242188,-1.0223937034606934,0.44135013,0.10873401,5
1.9987263679504397,4.950915336608887,3.804078578948975,-0.7925723195075989,-0.12614368,0.027183503,5
2.0394611358642583,4.664916515350342,4.309913158416748,-0.5823714733123779,-0.49877146,0.004276057,5
2.1235909461975098,4.577242374420166,4.841689109802246,-0.390383243560791,-0.763887,0.025350908,5
2.2811241149902344,4.60482931137085,5.315284729003906,-0.2260750383138657,-0.75808376,-0.049480084,5
2.487592458724976,4.6717610359191895,5.801951408386231,-0.1179867535829544,-0.47891834,-0.31490102,5
2.6177477836608887,4.778397083282472,6.217560768127441,-0.10166899114847183,-0.38606682,-0.677755,5
2.4612352848052983,4.9660301208496085,6.408478736877441,-0.04323732852935791,-0.115453534,-1.131017,5
2.858116626739502,6.1822571754455575,6.607897758483888,0.0960000529885292,-1.2547172,-0.6404922,5
4.11354923248291,8.216548919677733,6.659045696258545,0.276373952627182,-0.6575964,-0.21380283,5
4.442851066589356,9.13036060333252,6.3858184814453125,0.4589658677577973,-0.6591236,-0.34941490000000003,5
4.247197151184082,8.817459106445312,6.226161479949951,0.6694234013557434,-1.2275337,-0.4538729,5
3.93002724647522,8.226930618286133,5.854328155517577,0.8735488057136536,-1.3600914,-0.8362745,5
3.74618411064148,8.23597526550293,5.092939853668213,1.0559041500091553,-1.0757337,-0.98440933,5
3.8059587478637695,8.885504722595215,4.212328433990479,1.1869896650314329,-0.9285152,-0.6453791,5
3.8274407386779785,9.251524925231934,3.464691162109375,1.2878024578094482,-0.9007208,-0.4111123,5
3.74054217338562,9.149529457092283,2.9811623096466064,1.330449461936951,-0.97066486,-0.40775254,5
3.6517031192779537,8.817237854003906,2.685934543609619,1.3356633186340332,-1.14018,-0.6215554,5
3.660180807113648,8.587724685668945,2.3375139236450195,1.3581788539886477,-1.0170907,-0.7877107,5
3.7451899051666264,8.523458480834961,1.928169012069702,1.4024261236190796,-0.8533788,-0.70554936,5
3.7772858142852783,8.522905349731445,1.573336839675903,1.426721692085266,-0.8374963,-0.56138515,5
3.632858514785767,8.502158164978027,1.32059907913208,1.4023904800415041,-0.9279043,-0.46395215,5
3.3509857654571533,8.464286804199219,1.1473686695098877,1.3571807146072388,-1.0525209,-0.4202753,5
3.064706563949585,8.436958312988281,1.0084455013275146,1.309730052947998,-1.0525209,-0.40653083,5
2.860856771469116,8.364544868469237,0.8761481046676636,1.2624155282974243,-1.0308351999999998,-0.43157628,5
2.74927020072937,8.214892387390138,0.7372759580612183,1.2095987796783447,-0.9615019,-0.48747048,5
2.729970216751098,8.088061332702638,0.5270581245422363,1.1622333526611328,-0.7632760999999999,-0.52198434,5
2.8116321563720703,8.062342643737793,0.3205729722976685,1.1120572090148926,-0.4999932,-0.48380527,5
2.9300851821899414,8.156479835510254,0.1997904479503632,1.0651572942733765,-0.40286562,-0.4071417,5
2.9609031677246094,8.304045677185059,0.19515351951122284,1.0243041515350342,-0.35094208,-0.33536503,5
2.957857847213745,8.381221771240233,0.13698559999465942,0.9846624135971068,-0.22021692,-0.32314770000000004,5
3.05779242515564,8.456283569335938,0.02458005212247372,0.9521821737289428,-0.1572978,-0.23854288,5
3.19281005859375,8.568784713745117,-0.06319122761487961,0.9374548196792604,-0.11362094,-0.19730948,5
3.194810628890991,8.64646053314209,-0.12435934692621232,0.9261892437934875,0.06811147,-0.2489276,5
3.17516827583313,8.756909370422362,-0.1498621702194214,0.9057344794273376,0.049785517,-0.28985557,5
3.192123889923096,9.009034156799316,-0.13422811031341553,0.8717280030250549,0.014049901000000002,-0.23487769,5
3.150489330291748,9.408519744873047,-0.023029571399092674,0.7848852276802063,-0.096516706,-0.20708331,5
3.154066801071167,9.82120418548584,0.07566862553358078,0.6477214097976685,-0.34330627,-0.12522738,5
3.219366312026977,9.930668830871582,0.044302523136138916,0.4883932769298554,-0.31337386,-0.07941248,5
3.402656078338623,9.860835075378418,-0.16304290294647214,0.33799517154693604,-0.20525073,-0.028099801,5
3.612471103668213,9.837652206420898,-0.4181673526763916,0.22266747057437894,-0.1826487,0.042760565999999986,5
3.67110013961792,9.90844440460205,-0.6278148293495178,0.13894996047019958,-0.2434298,0.08674286,5
3.583958148956299,10.14751434326172,-0.8259235620498657,0.09686702489852904,-0.24862215,0.028099801,5
3.458016157150269,10.538976669311523,-1.054651975631714,0.08408784121274948,-0.23854288,-0.110872045,5
3.3991789817810063,10.97003173828125,-1.2969920635223389,0.0643085166811943,-0.121256754,-0.21991149,5
3.481841325759888,11.299997329711914,-1.503620982170105,0.02079667896032333,-0.08674286,-0.23457226,5
3.66535234451294,11.632221221923828,-1.6442129611968994,-0.030981220304965976,0.16676621,-0.096516706,5
3.569554090499878,12.02070426940918,-1.6126575469970703,-0.10769547522068024,0.3109304,0.13530666,5
3.153132915496826,12.301265716552734,-1.4403035640716553,-0.2465566843748093,0.22357668,0.39278635,5
2.6135053634643555,12.30042839050293,-1.2075022459030151,-0.457011491060257,0.08368854,0.5039638,5
2.159018278121948,12.13176155090332,-0.8256441950798035,-0.7111358046531677,-0.31612277,0.54702985,5
1.9809824228286743,11.945571899414062,-0.3694082200527191,-0.9794710278511048,-0.70829827,0.66645396,5
2.069853544235229,11.753819465637207,0.08385594189167023,-1.2408040761947632,-0.68752885,0.9300423,5
2.3840343952178955,11.59316349029541,0.5181494355201721,-1.554160714149475,-0.19914207,1.3023646999999998,5
2.9008231163024902,11.666861534118652,0.7837554812431335,-1.9014923572540283,0.10567969,1.6594155,5
3.3486008644104004,11.745079040527346,0.5750466585159302,-2.1162893772125244,0.6038403,1.8219056,5
3.4584169387817383,11.437284469604492,0.03135240450501442,-2.1163852214813232,1.3952162,1.5375478,5
3.3672089576721187,10.823372840881348,-0.4091681241989136,-1.9593148231506348,2.1413882,1.3231341,5
3.2845580577850337,10.185818672180176,-0.3962114751338959,-1.800392508506775,2.4217753,1.260215,5
3.279826402664185,9.697901725769043,0.1208019033074379,-1.7408210039138794,2.405282,1.2925909,5
3.209322452545166,9.321921348571776,0.6755968332290649,-1.7691088914871216,2.3930645,1.2843441999999998,5
3.0004355907440186,8.912086486816406,0.9802676439285278,-1.810707449913025,2.3054054,1.3292428,5
2.5882456302642822,8.317452430725098,1.2008347511291504,-1.815219044685364,3.4804046000000004,1.344209,5
2.424223661422729,7.847533702850343,1.5027416944503784,-1.806794285774231,1.8451185,1.0870347,5
2.384638547897339,7.4773850440979,1.723923921585083,-1.7559185028076172,1.9135354,1.0690142,5
2.450230360031128,7.09381628036499,1.930571675300598,-1.7252137660980225,1.7675385,0.90102625,5
2.44582200050354,6.724024295806885,2.149038314819336,-1.6485284566879272,1.5827519,0.7516696999999999,5
2.321247100830078,6.364842414855957,2.377276659011841,-1.5247802734375,1.5451837,0.5412266,5
2.0796632766723637,5.9168663024902335,2.6361157894134517,-1.3710479736328125,1.4792101,0.44929138,5
1.967612385749817,5.444580554962158,3.0553710460662837,-1.1664901971817017,0.8762861999999999,0.4801401,5
1.9417309761047363,5.003375053405762,3.489644289016724,-0.922507107257843,0.36193767,0.49877146,5
1.8963452577590945,4.655126571655273,3.9277226924896236,-0.6803991794586182,0.029626964,0.41996986,5
1.9052590131759644,4.339576721191406,4.491427421569824,-0.4413063228130341,-0.23640485,0.3359759,5
2.0709354877471924,4.080275535583496,5.088603496551514,-0.24374343454837802,-0.3323107,0.35918877,5
2.341965913772583,3.937328815460205,5.608182430267334,-0.10973027348518373,-0.33078352,0.3640757,5
2.6228864192962646,3.9701387882232666,6.062361240386963,-0.02701452374458313,-0.13011430000000002,0.25350907,5
2.7745211124420166,4.4399094581604,6.674560546875,-0.035466127097606666,0.5381723,-0.040317107000000005,5
2.940914869308472,5.660196304321289,7.239041328430176,-0.2003965526819229,0.6988298000000001,-0.24465153,5
3.668855428695679,6.903164863586426,7.2523765563964835,-0.1281781643629074,-0.08521569999999999,0.08032878,5
4.0574445724487305,7.261449337005615,7.463541030883789,0.16624638438224792,-0.20891592,-0.0027488936,5
3.8368036746978764,7.0858330726623535,7.7697200775146475,0.3315584659576416,-0.46914452,-0.52381694,5
3.6047759056091313,6.943941593170166,7.779109477996826,0.5092892646789551,-0.6768387,-0.6081163,5
3.5255627632141118,7.16887903213501,7.5381507873535165,0.6964080333709717,-0.90102625,-0.6646214,5
3.531597137451172,7.685138702392577,7.139881134033202,0.8701316714286804,-0.9819659,-0.70554936,5
3.5079245567321777,8.081888198852539,6.6140708923339835,1.03647780418396,-0.9764681,-0.6411031,5
3.497079610824585,8.179050445556639,6.058073043823242,1.190199375152588,-0.9795224,-0.59712076,5
3.4824256896972656,8.049078941345215,5.556848049163818,1.3104873895645142,-1.1328496,-0.5833763000000001,5
3.4232099056243896,7.82286787033081,5.075106143951416,1.3967822790145874,-1.2315043,-0.655153,5
3.3747038841247563,7.668315410614014,4.595420837402344,1.4608384370803833,-1.3478742,-0.5653558000000001,5
3.469133138656616,7.789742946624756,4.068325996398927,1.4962949752807615,-1.3994923,-0.5702427,5
3.6051235198974614,8.132678031921388,3.5313687324523926,1.5167827606201172,-1.3008375,-0.48747048,5
3.6551516056060787,8.479792594909668,3.0683622360229488,1.5379906892776491,-1.1633928999999998,-0.39278635,5
3.553183555603028,8.579440116882324,2.709114551544189,1.5701754093170166,-1.1236867,-0.32742378,5
3.3406455516815186,8.354578971862793,2.443969964981079,1.5884556770324707,-1.1563678999999998,-0.45204028,5
3.1110026836395264,8.03318977355957,2.1472620964050293,1.5698719024658203,-1.176221,-0.6462954000000001,5
2.9472060203552246,7.8905348777771,1.7895647287368774,1.5174217224121094,-1.0598511999999998,-0.73792523,5
2.853444099426269,7.957148551940918,1.4567453861236572,1.4458192586898804,-0.9147707,-0.6743952,5
2.8131916522979736,8.044833183288574,1.228358507156372,1.35934579372406,-0.8170323,-0.66737026,5
2.847345352172852,8.079108238220215,1.0900673866271973,1.2657477855682373,-0.7629706999999999,-0.6429357,5
2.982954502105713,8.093520164489746,0.8861797451972961,1.1828263998031616,-0.5946773,-0.49174652,5
3.1369788646698,8.105329513549805,0.53781658411026,1.129951238632202,-0.19425514,-0.30298916,5
3.261992216110229,8.116656303405763,0.12400675565004347,1.1145683526992798,0.204029,-0.20677789,5
3.3605873584747314,8.187806129455566,-0.11325724422931673,1.1207334995269775,0.34208453,-0.23701571,5
3.4161548614501958,8.31778621673584,-0.14841163158416748,1.1090657711029053,0.34880406,-0.3109304,5
3.3957319259643555,8.484822273254395,-0.10031063854694366,1.078856110572815,0.34513888,-0.28191432,5
3.319690704345703,8.619093894958496,-0.1020161509513855,1.046228289604187,0.34788775,-0.2302962,5
3.1983556747436523,8.683956146240233,-0.15514013171195984,1.0184397697448728,0.28985557,-0.20952678,5
3.02368426322937,8.689008712768555,-0.2970000505447388,1.0145143270492554,0.2846632,-0.28344148,5
2.8501973152160645,8.688961982727049,-0.4823326766490936,1.0272574424743652,0.28863382,-0.43493605,5
2.7988922595977783,8.862773895263672,-0.5741657018661499,1.0389187335968018,0.2003638,-0.40958515,5
2.835655689239502,9.130331993103027,-0.5448532104492188,1.013540506362915,0.07422013,-0.35735616,5
3.008595466613769,9.363850593566896,-0.4683165848255158,0.923900306224823,-0.010995574,-0.19181168,5
3.32465934753418,9.532230377197266,-0.4793346524238586,0.7947854995727539,0.05955936,-0.023823744,5
3.628371238708496,9.58566665649414,-0.6163970232009888,0.6537926197052002,0.27580565,0.07544186,5
3.7958714962005615,9.57219123840332,-0.7895968556404114,0.5301565527915955,0.4783075,0.12186762,5
3.7555205821990967,9.543803215026855,-0.9601540565490724,0.4174755215644837,0.6102544,0.14905111,5
3.5639455318450928,9.523581504821776,-1.1556315422058103,0.3165344595909119,0.7049385,0.17440203,1
3.3532428741455083,9.534025192260742,-1.3363583087921145,0.23266883194446564,0.6218608,0.20097467,1
3.2169017791748047,9.605840682983398,-1.4707275629043581,0.16256719827651978,0.5644395000000001,0.1966986,1
3.2293663024902344,9.802189826965332,-1.6023359298706057,0.1120261177420616,0.6188064999999999,0.15851954,1
3.2824149131774902,9.971030235290527,-1.7235149145126345,0.07046233862638474,0.8555168,0.12583824,1
3.2294237613677983,10.044578552246094,-1.7284142971038818,0.023849114775657654,0.9630291,0.21624629,1
3.043428897857666,10.037704467773438,-1.6427932977676392,-0.03222155198454857,1.0170907,0.2855795,1
2.798273086547852,9.927411079406738,-1.5283974409103394,-0.11218269169330597,1.0998629,0.27000242,1
2.6532211303710938,9.705683708190918,-1.4560043811798096,-0.22674226760864255,1.2544118,0.226631,1
2.6496684551239014,9.431548118591307,-1.3995851278305054,-0.3904247283935547,1.387275,0.16737708,1
2.6919057369232178,9.192682266235352,-1.301976442337036,-0.588593065738678,1.5103643,0.079107046,1
2.6902027130126958,9.100176811218262,-1.1571083068847656,-0.7956531643867493,1.5131133,0.062308256,1
2.636401891708374,9.164946556091307,-0.9610885381698608,-0.9874730706214904,1.4679091999999998,0.06750060599999999,1
2.559075117111206,9.386980056762695,-0.8100923895835876,-1.1434104442596436,1.434617,0.172264,1
2.567443609237671,9.72382354736328,-0.669322669506073,-1.2279807329177856,1.0894781,0.40653083,1
2.669191598892212,10.080062866210938,-0.5132486820220947,-1.2365278005599976,0.7449501999999999,0.61819565,1
2.8288278579711914,10.276357650756836,-0.4212727546691895,-1.1967350244522097,0.99021256,0.7125743,1
3.0685853958129883,10.262362480163574,-0.3244304060935974,-1.1213994026184082,1.2220358999999998,0.7644979000000001,1
3.3304228782653813,10.10138702392578,-0.17041005194187164,-1.00697124004364,1.3603969,0.8170323,1
3.542574644088745,9.85479736328125,-0.018805859610438347,-0.8467035889625549,1.563815,0.8564331000000001,1
3.628775358200073,9.525689125061037,0.04151646420359612,-0.6516531705856323,2.0189097,0.8350528,1
3.623157024383545,9.190227508544922,0.0486576221883297,-0.4303505122661591,2.453235,0.75441855,1
3.5702636241912837,8.890183448791504,0.08973830193281174,-0.2048148363828659,2.6462681,0.6450737,1
3.4803087711334233,8.657381057739258,0.1806090921163559,0.017389463260769844,2.7000244,0.5180137,1
3.3341758251190186,8.497876167297362,0.31544750928878784,0.2329243719577789,2.6893342,0.40683624,1
3.1066224575042725,8.436703681945799,0.4658356904983521,0.4302810430526733,2.6355782000000003,0.29840767,1
2.837883472442627,8.498096466064451,0.6508634686470032,0.6075069308280945,2.5207355,0.23243423,1
2.551086187362671,8.626516342163086,0.8391311168670654,0.7632128596305847,2.3606887000000003,0.19975294,1
2.3382279872894287,8.775754928588867,0.9617748260498048,0.8859486579895021,2.1429152,0.19975294,1
2.177409648895264,8.943561553955078,0.9854026436805724,0.9922808408737184,2.0931299,0.26206118,1
2.0235280990600586,9.141982078552246,0.986053466796875,1.0619614124298096,2.262034,0.14966199,1
1.8567490577697756,9.415586471557617,1.0376852750778198,1.0778331756591797,2.4327707000000003,-0.015271631,1
1.6151344776153564,9.74742603302002,1.1236470937728882,1.0377135276794434,2.1542163,-0.08277224,1
1.19453763961792,10.003605842590332,1.2881624698638916,0.9500566720962524,1.4682146,-0.20708331,1
0.6805738806724548,10.08145809173584,1.3634254932403564,0.8225736618041992,0.9954049,-0.47494772,1
0.2886388003826141,10.016592025756836,1.1738160848617554,0.7344961166381836,0.8387180000000001,-0.6417139000000001,1
0.107481449842453,9.87545394897461,0.8353487253189087,0.7413050532341003,0.56505036,-0.66950834,1
0.3469593524932861,9.83822250366211,0.4513080716133118,0.8456965088844299,0.4129449000000001,-0.50823987,1
1.0000931024551392,10.1453275680542,0.09893284738063812,1.018521428108215,0.45204028,-0.16401732,1
1.8504581451416016,10.52275848388672,-0.11550598591566084,1.1764570474624634,0.8045095,0.22082779,1
2.394599914550781,10.72244644165039,-0.10725180804729463,1.218240737915039,1.3982705,0.18600847,1
