acc_x,acc_y,acc_z,gyro_x,gyro_y,gyro_z,label
0.0,0.0,0.0,0.0,-0.03970624,-0.021991149,1
0.054357368499040604,-0.2792328000068665,-0.016240624710917473,-0.0013028130633756518,-0.044593163,-0.011301007,1
0.18488401174545288,-0.9447872638702391,-0.0564362108707428,-0.004371234681457281,-0.036957346,-0.018936822,1
0.3669709861278534,-1.8654239177703855,-0.11439917981624605,-0.009086146019399166,-0.030848695,-0.024129177,1
0.572719931602478,-2.895890474319458,-0.1822623461484909,-0.01488122809678316,-0.044593163,-0.014049901000000002,1
0.779316246509552,-3.919367551803589,-0.2531179189682007,-0.020574845373630524,-0.036651913,-0.010079277,1
0.9721416234970092,-4.862493515014648,-0.32217997312545776,-0.023811934515833855,-0.027488936,-0.007330383,1
1.1440027952194214,-5.6903624534606925,-0.3868052065372467,-0.02550195157527924,-0.013744468,-0.005192355,1
1.2928318977355957,-6.3943233489990225,-0.4458996951580048,-0.026488201692700386,-0.022907447,-0.0033597588,1
1.4180335998535156,-6.981158256530763,-0.498896837234497,-0.02627013623714447,-0.010690141499999998,-0.0021380284,1
1.5147229433059692,-7.466801166534424,-0.5437211990356445,-0.0262351892888546,-0.015577064,-0.005192355,1
1.5862330198287964,-7.866105079650879,-0.5812283158302307,-0.025627143681049347,-0.005497787,-0.00580322,1
1.6367533206939695,-8.193167686462402,-0.6126065850257874,-0.02499689906835556,0.004276057,-0.013439035,1
1.6702253818511963,-8.460585594177246,-0.6389018297195435,-0.02408353053033352,0.02565634,-0.017715093,1
1.689734697341919,-8.679313659667969,-0.6610512733459473,-0.02203595265746117,0.024129177,-0.03756821,1
1.6979597806930542,-8.858492851257324,-0.6798287630081177,-0.012360286898911001,0.030543262,-0.06597344599999999,1
1.6970100402832031,-9.005706787109375,-0.6958851218223572,-0.0036421965342015032,-0.007330383,-0.09437868,1
1.6887836456298828,-9.127080917358398,-0.7097303867340088,0.002996583469212055,-0.055283304000000005,-0.096516706,1
1.6746729612350464,-9.22764778137207,-0.7217973470687866,0.00929497927427292,-0.09712757,-0.098043874,1
1.655619978904724,-9.311327934265137,-0.7315340042114258,0.015490084886550903,-0.10323623,-0.092240654,1
1.6319983005523682,-9.380556106567383,-0.7349535226821899,0.019332285970449448,-0.12003502,-0.050396383,1
1.6045533418655396,-9.438057899475098,-0.7326209545135498,0.02066407166421413,-0.08368854,-0.035430185,1
1.57402765750885,-9.48613739013672,-0.7256608009338379,0.020119084045290947,-0.09254608,-0.022296581,1
1.5410538911819458,-9.526639938354492,-0.7149986624717712,0.020116904750466347,-0.09865474,-0.031154128,5
1.506065011024475,-9.561065673828123,-0.701333224773407,0.024733131751418117,-0.0693332,-0.035430185,5
1.4695143699645996,-9.590596199035645,-0.6852893829345703,0.034289907664060586,-0.07147124,-0.0061086523,5
1.4316741228103638,-9.616201400756836,-0.667313814163208,0.052227865904569626,-0.09560041,0.009773844,5
1.392767310142517,-9.63866138458252,-0.6477680206298828,0.07232357561588287,-0.074830994,0.033292156,5
1.3529930114746094,-9.65859603881836,-0.6269546151161194,0.09276944398880003,-0.07819075,0.047036625,5
1.3102883100509644,-9.673256874084473,-0.601773202419281,0.11445162445306778,-0.08093964,0.06536258,5
1.250680923461914,-9.669694900512695,-0.5565798878669739,0.13571786880493164,-0.12583824,0.08704830000000001,5
1.165297269821167,-9.66560173034668,-0.5035041570663452,0.1535375416278839,-0.21074851,0.12522738,5
1.0666797161102295,-9.661704063415527,-0.43440696597099293,0.16908219456672668,-0.29535335,0.18875736,5
0.9910801649093628,-9.6735200881958,-0.33572569489479065,0.19711072742938995,-0.33017266,0.258396,5
0.9059680700302124,-9.711771965026855,-0.203215092420578,0.2437455505132675,-0.3866777,0.31734450000000003,5
0.7679443955421448,-9.750324249267578,-0.09084992855787276,0.2924892902374268,-0.30818152,0.39584067,5
0.6492226719856262,-9.782395362854004,0.02947060950100422,0.3365686535835266,-0.33658674,0.51923543,5
0.5619896650314331,-9.774283409118652,0.1769978106021881,0.3853537738323212,-0.3155119,0.7031059000000001,5
0.5234442949295044,-9.793490409851074,0.31416088342666626,0.4483971893787384,-0.26145032,0.9419542,5
0.5159981250762941,-9.96424961090088,0.4661251604557037,0.5310762524604797,-0.10598512,1.2877040000000002,5
0.4591049253940582,-10.371525764465332,0.6242358088493347,0.6433197259902954,0.14844026,1.6899587,5
0.34890642762184143,-10.865692138671877,0.8473517298698425,0.8072997331619263,0.30879238,2.1432207,5
0.21880857646465304,-11.310835838317873,1.2643252611160278,0.9971538186073304,0.032375857,2.454762,5
0.0987781658768654,-11.582517623901367,1.6109517812728882,1.1557468175888062,-0.024129177,2.5463917,5
-0.05555437877774239,-11.633901596069336,1.7556822299957275,1.2959556579589844,-0.09315695,2.516154,5
-0.2772811949253082,-11.529026985168455,1.7837214469909668,1.364011526107788,0.0030543262,2.352442,5
-0.5019127130508423,-11.329794883728027,2.0301730632781982,1.37735116481781,-0.79320854,2.2727242000000003,5
-0.7494466304779053,-11.2386474609375,2.288635015487671,1.392217993736267,-1.0051788,2.186592,5
-1.0315989255905151,-11.236875534057617,2.409531116485596,1.408663272857666,-1.1270463,2.1090124,5
-1.2474832534790041,-11.13475513458252,2.555050134658813,1.422380447387695,-1.210735,2.042428,5
-1.422060251235962,-10.85068130493164,2.701087474822998,1.4285390377044678,-1.2443326,1.9620992,5
-1.6022617816925049,-10.32244110107422,2.824160099029541,1.4187206029891968,-1.3267993,1.9165897,5
-1.7667306661605835,-9.740416526794434,2.892607450485229,1.397981882095337,-1.294118,1.8020525,5
-1.906354308128357,-9.152567863464355,2.981013298034668,1.3723691701889038,-1.402852,1.7571539,5
-2.0400876998901367,-8.627964019775389,3.0954301357269287,1.3402055501937866,-1.4187346,1.6676620999999998,5
-2.191845178604126,-8.125186920166017,3.2218205928802486,1.3003968000411987,-1.4944818000000002,1.5192219,5
-2.327573299407959,-7.618162631988525,3.341587781906128,1.2432045936584473,-1.3582588,1.3402383,5
-2.4393978118896484,-7.122462749481201,3.4758763313293457,1.1660254001617432,-1.1481212,1.2052372,5
-2.5291335582733154,-6.662333488464356,3.652657270431519,1.0617469549179075,-1.1065824,1.067487,5
-2.6085622310638428,-6.2322731018066415,3.8266987800598153,0.9341410398483276,-1.0842858999999998,0.88239485,5
-2.7053582668304443,-5.872683048248291,4.022458076477052,0.7916974425315857,-0.8961393,0.66920286,5
-2.7945988178253174,-5.5755577087402335,4.2316412925720215,0.6356537342071533,-0.79137594,0.4822781,5
-2.746419906616211,-5.312233924865723,4.422264575958252,0.4758753180503845,-0.6087272,0.32314770000000004,5
-2.6035447120666504,-5.091314315795898,4.58805513381958,0.3160668909549713,-0.42943826,0.21899518,5
-2.5710997581481934,-4.9550395011901855,4.763245582580566,0.1730494499206543,-0.28191432,0.11789699,5
-2.659289836883545,-4.891505718231201,4.973620891571045,0.057802639901638024,-0.14508049,0.08124508,5
-2.756697177886963,-4.853813171386719,5.171468734741211,-0.043868634849786765,-0.15851954,0.016493361,5
-2.8915905952453613,-4.826675415039063,5.3570098876953125,-0.13079765439033508,-0.13927728,-0.009773844,5
-3.086460828781128,-4.8205742835998535,5.552891254425049,-0.21177014708518985,-0.19120082,-0.052839845,5
-3.301097869873047,-4.9102559089660645,5.793782234191895,-0.2884974181652069,-0.23365596,-0.046120327,5
-3.4795720577239986,-5.306634426116943,6.194348812103272,-0.33054855465888977,-0.50610185,0.025045475,5
-3.673385858535767,-6.0465288162231445,6.779187679290772,-0.3185945451259613,-0.7125743,0.22571471,5
-3.881505966186523,-6.378474235534668,7.187602519989014,-0.3054357171058655,-0.4129449000000001,-0.03726278,5
-4.1069655418396005,-6.250131130218506,7.375661849975586,-0.3570617735385895,-0.0061086523,-0.38728857,5
-4.318643093109132,-6.05658769607544,7.404758930206299,-0.4229711890220642,0.47433686,-0.8246681,5
-4.272475719451903,-6.056869029998778,7.460263729095459,-0.4775427579879761,0.82802784,-1.0659598,5
-3.84403657913208,-6.2835025787353525,7.34820556640625,-0.5463457703590393,1.0390818000000002,-1.3136656999999998,5
-3.1805999279022217,-6.689991474151611,7.164889812469482,-0.6636356711387634,1.2202033,-1.491733,5
-2.7227818965911865,-7.094792366027832,6.5678768157958975,-0.7592382431030273,2.2999077000000003,-1.568091,5
-2.56681227684021,-7.422624588012695,5.743366718292236,-0.8885526061058044,2.3802364,-1.6053538,5
-2.6112384796142583,-7.724807262420653,4.841545104980469,-1.0032205581665041,2.4205534,-1.4899003999999998,5
-2.620232343673706,-7.978288650512695,4.02832555770874,-1.1178551912307741,2.1267273,-1.2849549999999998,5
-2.6114656925201416,-8.22217845916748,3.3189988136291504,-1.2250044345855713,2.0292943,-1.1154399,5
-2.607107162475586,-8.500265121459961,2.79628849029541,-1.3009971380233765,1.8515326,-0.9981538,5
-2.601738691329956,-8.839617729187012,2.4600324630737305,-1.353460669517517,1.7235563000000005,-0.9789116,5
-2.5934958457946777,-9.219196319580078,2.309778451919556,-1.3858153820037842,1.3405437,-1.1511755,5
-2.604360342025757,-9.458028793334961,2.170356273651123,-1.4062443971633911,1.0635164,-1.2315043,5
-2.6864564418792725,-9.549857139587402,1.9476768970489504,-1.4251068830490112,0.79198676,-1.2873985,5
-2.796664237976074,-9.58465576171875,1.7702984809875488,-1.4171923398971558,0.33292156,-1.321607,5
-2.814089775085449,-9.622344970703123,1.6013503074645996,-1.3828641176223757,0.13713925,-1.4071281,5
-2.716956615447998,-9.60570240020752,1.4196395874023438,-1.3437082767486572,-0.3915646,-1.4184291,5
-2.6042072772979736,-9.511690139770508,1.2460947036743164,-1.2857913970947266,-0.9034697,-1.2617421,5
-2.349792003631592,-9.37978744506836,0.9864948987960817,-1.2047359943389893,-0.91507614,-1.1930199,5
-1.767289400100708,-9.182579040527344,0.6911529302597046,-1.1484360694885254,0.024129177,-0.95356065,5
-1.1813030242919922,-9.044071197509766,0.555986225605011,-1.1175129413604736,0.32711834,-0.86834496,5
-0.810623288154602,-8.97746467590332,0.4810507297515869,-1.0931354761123655,0.6346890000000001,-0.7067711,5
-0.7307225465774536,-8.984670639038086,0.4324258863925934,-1.0525708198547363,0.8005389,-0.6010914,5
-0.8455333709716797,-8.986361503601074,0.3556456863880157,-0.992179036140442,0.9254609,-0.46303585,5
-0.987837553024292,-8.956162452697754,0.27704620361328125,-0.9009619951248168,0.79076505,-0.40378192,5
-1.1438567638397217,-8.933293342590332,0.19414663314819336,-0.7847918272018433,0.49021935,-0.39767328,5
-1.3492088317871094,-8.999491691589355,0.05357719957828522,-0.6705651879310608,0.4615087000000001,-0.4089743,5
-1.548829436302185,-9.097713470458984,-0.1102488860487938,-0.5783136487007141,0.44898596,-0.41325033,5
-1.63153076171875,-9.170164108276367,-0.1747617870569229,-0.5321469306945801,0.28283059999999993,-0.44959682,5
-1.5370372533798218,-9.255976676940918,-0.11649683117866515,-0.5074754953384399,0.25717425,-0.46120325,5
-1.3520665168762207,-9.36179256439209,-0.028929021209478382,-0.4660243690013886,0.4007276,-0.45051312,5
-1.0984405279159546,-9.470868110656738,0.08501868695020676,-0.4198077023029328,0.47586402,-0.54336464,5
-0.8283829689025879,-9.57833194732666,0.17318220436573029,-0.3854271173477173,0.42424592,-0.77091193,5
-0.6005162000656128,-9.674131393432617,0.13612060248851776,-0.3723413944244385,0.5164866,-0.91965765,5
-0.3862009346485138,-9.882746696472168,-0.006360372994095087,-0.3766162395477295,0.5161811,-0.9682214,5
-0.12456471472978592,-10.335322380065918,-0.13019949197769165,-0.384051650762558,0.36865717,-0.9117164,5
0.17491216957569122,-11.020438194274902,-0.25772520899772644,-0.3827817440032959,0.3848451,-0.84207773,5
0.3496931791305542,-11.702178001403807,-0.4046746492385864,-0.36464047431945795,0.29962940000000005,-0.7846564,5
0.3544699847698212,-12.161481857299805,-0.4647616744041443,-0.3327085077762604,-0.13225232,-0.7703011,5
0.2996804714202881,-12.31039810180664,-0.423137366771698,-0.2730952799320221,-0.45998153,-0.56107974,5
0.35131871700286865,-12.212017059326172,-0.3658760190010071,-0.18810895085334775,-0.3820962,-0.18997909,5
0.5495064854621887,-11.929189682006836,-0.23767271637916565,-0.08329334855079651,-0.43585235,0.23762658,5
0.738417387008667,-11.616857528686525,-0.04528754949569702,0.08041900396347046,-0.23701571,0.64599,5
0.7847241163253784,-11.40712070465088,0.2329854965209961,0.32106420397758484,0.1881465,1.2247848999999995,5
0.6127586364746094,-11.404805183410645,0.4881559312343597,0.58240807056427,0.6743952,1.8832976000000003,5
0.3084775507450104,-11.584867477416992,0.6888706088066101,0.7707465291023254,0.8552113000000001,2.3441954,5
0.15581035614013672,-11.76467990875244,0.759708821773529,0.9125988483428956,1.003957,2.6077838,5
0.2809099853038788,-11.830039024353027,0.7679967880249023,1.0325007438659668,0.6817255999999999,2.5912905,5
0.5882527828216553,-11.787752151489258,0.6178706884384155,1.1118501424789429,0.17989981,2.4480424,5
0.8763445615768433,-11.70022201538086,0.3644081056118012,1.1736916303634644,0.5338961999999999,2.141999,5
0.9909963607788086,-11.398337364196776,0.3209775388240814,1.25153386592865,0.20005837,2.019215,5
0.8140885829925537,-10.956583023071287,0.4755344092845917,1.2771358489990234,0.010995574,2.1972822999999995,5
0.37931668758392334,-10.643194198608398,0.8260449767112732,1.243189811706543,-0.14263703,2.4996605,5
-0.052703801542520516,-10.500426292419434,1.3466143608093262,1.23460590839386,-1.1114693000000002,2.5411994,5
-0.4390186071395874,-10.354146003723145,1.4466708898544312,1.2727388143539429,-1.7620409,2.6114490000000004,5
-0.9040390849113464,-10.114788055419922,1.1369987726211548,1.3266953229904177,-1.7351627,2.526844,5
-1.268259882926941,-9.774834632873537,1.1477172374725342,1.383962631225586,-1.9315559,2.1905627,5
-1.3771153688430786,-9.275882720947266,1.3465440273284912,1.4154762029647827,-2.2629502,2.0378466,5
-1.3952821493148804,-8.626778602600098,1.4537918567657468,1.434720754623413,-2.207667,1.8435913,5
-1.4069098234176636,-7.9806227684021,1.5976258516311646,1.4329254627227783,-1.9950858,1.5393803999999998,5
-1.3288582563400269,-7.420077323913574,1.7317018508911133,1.4007247686386108,-1.7733418,1.1899655,5
-1.1887534856796265,-6.9304046630859375,1.7941720485687256,1.3313988447189329,-1.3805555,0.86437434,5
-1.0665950775146484,-6.456021785736084,1.9265570640563965,1.239459991455078,-0.88361657,0.61636305,5
-1.0388487577438354,-6.001662254333496,2.2023084163665767,1.1180520057678225,-0.43890667,0.40622538,5
-1.1941884756088257,-5.677199840545653,2.5309505462646484,0.954949915409088,-0.3857614,0.30879238,5
-1.4521523714065552,-5.4176764488220215,2.820898532867432,0.7791786789894104,-0.4886922,0.24465153,5
-1.7941585779190063,-5.205850124359131,3.121693849563598,0.6014279723167419,-0.47128254,0.14385876,5
-2.182212829589844,-4.992147922515869,3.467661142349243,0.4219396114349365,-0.27397305,0.064446285,5
-2.580484628677368,-4.766495704650879,3.882800579071045,0.2311127334833145,-0.15057829,-0.05009095,5
-2.8831117153167725,-4.579951286315918,4.28786563873291,0.02532718889415264,-0.14172074,-0.14996742,5
-3.069356679916382,-4.4601168632507315,4.553950309753418,-0.201804593205452,0.037873644,-0.29352075,5
-3.270474910736084,-4.4286274909973145,4.652661323547363,-0.4619319140911102,0.7180721,-0.6114761,5
-3.538323402404785,-4.475313186645508,4.464506149291992,-0.758418083190918,1.967597,-1.0244209999999998,5
-3.448044538497925,-4.925929546356201,4.450830936431885,-1.0004900693893433,1.7944167000000002,-1.3301591,5
-3.253011465072632,-6.352439403533936,4.894104480743408,-1.1302261352539062,1.1893546999999998,-1.3735305,5
-3.6991841793060303,-8.529520034790039,4.667634963989258,-1.3205795288085938,2.3417517999999995,-1.4758505,5
-4.1369171142578125,-10.273663520812988,4.453917980194092,-1.4759901762008667,1.4489723,-1.1004738,5
-4.1880059242248535,-10.944371223449707,4.117529392242432,-1.5054287910461426,0.93645644,-1.0311406,5
-3.7993667125701904,-10.667954444885254,3.6261594295501713,-1.4890500307083132,1.1102476,-1.2709051000000002,5
-3.1051888465881348,-9.918606758117676,3.188575267791748,-1.4820101261138916,1.2910636999999998,-1.6423112000000002,5
-2.4433462619781494,-9.308754920959473,2.7442805767059326,-1.4556323289871216,1.2568552,-1.6807956999999998,5
-1.9670881032943728,-9.358007431030273,2.2463011741638184,-1.393686294555664,1.2458596000000002,-1.4963144,5
-1.58881413936615,-10.03005313873291,1.8352720737457275,-1.3186303377151491,1.2513573999999998,-1.4278975,5
-1.3205156326293943,-10.672064781188963,1.4962713718414309,-1.259399175643921,1.4657712,-1.4196508,5
-1.1397802829742432,-10.764391899108887,1.1137501001358032,-1.2185585498809814,1.704314,-1.4474452,5
-1.0028579235076904,-10.38436508178711,0.7756916284561157,-1.1708955764770508,1.4376713,-1.3371841,5
-1.0087374448776243,-9.938740730285645,0.4580117762088776,-1.1098196506500244,1.1484267,-1.2223413,5
-1.1281979084014893,-9.621626853942873,0.16142021119594574,-1.0453457832336426,0.9639453,-1.2431108,5
-1.3054546117782593,-9.404362678527832,-0.05901638045907021,-0.9847980737686156,0.7620544,-1.2498302,5
-1.458762764930725,-9.227598190307617,-0.1711113303899765,-0.9382254481315612,0.605062,-1.2134838,5
-1.5775134563446045,-9.083290100097656,-0.20549513399600985,-0.894456684589386,0.38087448,-1.0345002,5
-1.6805263757705688,-8.97196102142334,-0.2283156812191009,-0.8402248024940491,0.21930063,-0.8582656999999999,5
-1.7112159729003906,-8.879545211791992,-0.31181785464286804,-0.7841110825538635,0.33108896,-0.6246096999999999,5
-1.6793086528778076,-8.819849967956543,-0.34326475858688354,-0.7386062741279602,0.33169982,-0.5366451,5
-1.6229746341705322,-8.826176643371582,-0.3280395269393921,-0.6826529502868652,0.32742378,-0.52839845,5
-1.5608067512512207,-8.890946388244629,-0.30005133152008057,-0.6254680156707764,0.29260445,-0.49388456,5
-1.4910874366760254,-9.001012802124023,-0.2842143774032593,-0.5636798739433289,0.26908615,-0.43463063,5
-1.4118237495422363,-9.105234146118164,-0.3029424846172333,-0.4806057214736938,0.16890424,-0.3145956,5
-1.3238085508346558,-9.217707633972168,-0.307884156703949,-0.40763244032859797,0.13103059,-0.19608775,5
-1.2124013900756836,-9.356207847595217,-0.30838489532470703,-0.3550380766391754,0.21227567,-0.22357668,5
-1.125912308692932,-9.42812728881836,-0.3805314302444458,-0.31243211030960083,0.23151793,-0.3210097,5
-1.0548641681671145,-9.405619621276855,-0.4891510009765625,-0.2857446074485779,0.09896017,-0.32711834,5
-1.0303140878677368,-9.417744636535645,-0.5927724242210388,-0.25147759914398193,0.0888809,-0.4098906,5
-0.9734512567520142,-9.49281120300293,-0.6394866108894348,-0.22469818592071533,0.07452556,-0.38973203,5
-0.872740626335144,-9.59169101715088,-0.5508812665939331,-0.208965077996254,0.07727446,-0.3848451,5
-0.727498471736908,-9.784144401550293,-0.4342025220394135,-0.2090808004140854,0.18051068,-0.39584067,5
-0.5457093715667725,-10.048487663269043,-0.4750176966190338,-0.2262185513973236,0.29229903,-0.34605515,5
-0.2912210822105408,-10.354100227355957,-0.6616701483726501,-0.24202778935432434,0.46181414,-0.16462818,5
-0.08713353425264359,-10.806897163391113,-0.7641203999519348,-0.23006780445575714,0.15607607,-0.051618114000000014,5
0.03853485360741615,-11.320337295532227,-0.6710262298583984,-0.18064014613628387,-0.19181168,0.0693332,5
0.02893023565411568,-11.70557975769043,-0.4989688396453858,-0.0726972445845604,-0.28344148,0.29993483,5
-0.10332745313644408,-11.90178680419922,-0.3124176561832428,0.07708179205656053,-0.17409660000000002,0.5195409000000001,5
-0.18262916803359985,-11.933080673217773,-0.04521351307630539,0.2596593499183655,-0.12217305,0.82650065,5
-0.20905090868473053,-11.917425155639648,0.2588261663913727,0.487828940153122,-0.20341812,1.1664472,5
-0.2922710180282593,-11.96126651763916,0.5258059501647949,0.7395952343940735,-0.31490102,1.3503176,5
-0.4720223546028137,-12.061620712280273,0.6234226822853088,0.9436838030815125,-0.038789943,1.4187346,5
-0.6585775017738342,-12.145737648010256,0.6189450025558472,1.0788183212280271,0.3930918,1.5396858,5
-0.7879561781883241,-12.094897270202635,0.6046636700630188,1.150352954864502,0.48899764,1.715615,5
-0.8993081450462341,-11.923257827758787,0.4763629734516144,1.1415610313415527,0.51159966,1.8729129,5
-0.9549294114112854,-11.706235885620115,0.29705798625946045,1.0807628631591797,-0.101098195,1.894904,5
-0.9925462603569032,-11.479402542114258,0.12068666517734528,1.0027948617935178,-1.1377366000000002,1.9743165,5
-1.1433955430984497,-11.229793548583984,-0.17072559893131256,0.8979521393775941,-1.2449434,2.1560488,5
-1.4567222595214844,-10.971397399902344,-0.3439011871814728,0.7932080626487732,-0.18142697,2.3674083,5
-1.642151951789856,-10.769736289978027,0.13496766984462738,0.7539942264556885,-1.2654073,2.1927009,5
-1.5698350667953491,-10.560545921325684,0.750230610370636,0.7786647081375122,-1.9651535,2.0158553,5
-1.4412591457366943,-10.241954803466797,0.9145349860191344,0.803767740726471,-1.9660698,1.9617938,5
-1.445701003074646,-9.782464981079102,0.7755319476127625,0.8483927845954895,-1.8738291,1.9544634,5
-1.4726940393447876,-9.309513092041016,0.8548189401626587,0.9462366700172424,-1.9251418,1.7876971999999998,5
-1.4286420345306396,-8.841536521911621,0.9687632918357848,1.03857421875,-1.9181169,1.6646078000000002,5
-1.4152264595031738,-8.376099586486816,1.0666041374206543,1.0997583866119385,-1.7406605,1.6505578999999997,5
-1.4865362644195557,-7.95290470123291,1.2476669549942017,1.1381524801254272,-1.5769486,1.5772540000000002,5
-1.5863204002380369,-7.616157054901122,1.4599217176437378,1.1516181230545044,-1.412015,1.3665055,5
-1.632886528968811,-7.35361909866333,1.611896276473999,1.1316499710083008,-1.2431108,1.1123856,5
-1.5914660692214966,-7.082183361053468,1.72340989112854,1.0932044982910156,-0.9257663,0.8390234000000001,5
-1.5504759550094604,-6.766664505004883,1.8950041532516482,1.0246421098709106,-0.56596667,0.63041294,5
-1.6506226062774658,-6.444804668426514,2.1227853298187256,0.913968861103058,-0.34880406,0.44837508,5
-1.9103226661682131,-6.1202125549316415,2.375305652618408,0.7797369956970215,-0.23304509,0.23823744,5
-2.1819939613342285,-5.738842010498048,2.66959547996521,0.6252078413963318,-0.3036,0.026572637000000003,5
-2.382086753845215,-5.330466270446777,2.9638822078704834,0.4564613997936249,-0.22510384,-0.15118915,5
-2.571136951446533,-4.960766315460205,3.2335429191589355,0.274921715259552,-0.12614368,-0.27702740000000003,5
-2.8909637928009038,-4.7246174812316895,3.5026583671569824,0.08584843575954437,0.009162978,-0.39400807,5
-3.3450319766998287,-4.653388977050781,3.7901246547698975,-0.11072862893342973,0.050701816,-0.56046885,5
-3.982961177825928,-4.722972393035889,3.89044976234436,-0.33205267786979675,0.6774496,-0.8350528,5
-4.537736415863037,-4.959803581237793,3.956301927566528,-0.5562283992767334,1.8099937,-1.1047498,5
-4.528353214263916,-5.730501651763916,4.400445938110352,-0.6715446710586548,1.4865406,-1.022283,5
-4.538910865783691,-7.0861573219299325,4.758744239807129,-0.8712736964225769,1.35551,-1.3435981,5
-5.035085201263428,-8.472324371337889,4.340169429779054,-1.1090245246887207,1.5381587,-1.1246029,5
-5.131296634674072,-9.47890567779541,4.007753372192384,-1.2463325262069702,0.42088616,-1.1224649,5
-4.572679996490479,-9.818056106567383,3.5326569080352783,-1.2957143783569336,0.7293731,-1.4034628999999998,5
-3.7343978881835938,-9.543354988098145,3.0048034191131587,-1.3611180782318115,1.070236,-1.498147,5
-3.071251392364502,-9.157125473022461,2.622112989425659,-1.3803108930587769,0.90408057,-1.3329079,5
-2.642934560775757,-9.073509216308594,2.366157054901123,-1.3455747365951538,0.9767735,-1.1472049,5
-2.3273816108703613,-9.346517562866213,2.1653087139129643,-1.2897764444351196,1.035722,-1.1548406999999998,5
-2.0414190292358403,-9.839648246765137,1.9085328578948972,-1.2490750551223757,1.1459832,-1.3756685,5
-1.8236415386199951,-10.180228233337402,1.59065842628479,-1.2163903713226318,1.1710287,-1.4440855,5
-1.7195280790328982,-10.11439609527588,1.2036473751068115,-1.170271396636963,1.1212431,-1.3790283,5
-1.6633684635162354,-9.913431167602539,0.8405534625053406,-1.1046737432479858,1.0815369,-1.2296717,5
-1.6560633182525637,-9.7625150680542,0.5501173138618469,-1.0615395307540894,0.79779,-1.1624765,5
-1.7252438068389893,-9.666695594787598,0.2944175899028778,-1.0286743640899658,0.55771995,-1.2003502,5
-1.7756075859069824,-9.505084037780762,0.09651193022727966,-0.9894267320632936,0.3912592,-1.2018774,5
-1.7578796148300169,-9.334310531616213,-0.01312334556132555,-0.9415773153305054,0.41538838,-1.1435398,5
-1.6736143827438354,-9.187267303466797,-0.0516195185482502,-0.9060617089271544,0.43218717,-1.0555751,5
-1.5401729345321655,-9.046589851379396,-0.0551142655313015,-0.864817202091217,0.28893927,-1.0198395,5
-1.4110857248306274,-8.882936477661133,-0.0979340523481369,-0.8145871162414551,0.41050145,-0.84329945,5
-1.3528096675872805,-8.791397094726562,-0.1251581609249115,-0.7675588726997375,0.40286562,-0.7263188,5
-1.3842060565948486,-8.800594329833984,-0.10764992982149124,-0.7009421586990356,0.37048978,-0.6246096999999999,5
-1.449663758277893,-8.848581314086914,-0.09565456211566924,-0.6142899990081787,0.38453966,-0.44348818,5
-1.5029062032699585,-8.900975227355957,-0.11473667621612547,-0.5297837853431702,0.41813725,-0.26053402,5
-1.5091906785964966,-8.961337089538574,-0.17778295278549194,-0.44410496950149536,0.27214047,-0.17715092,5
-1.4801020622253418,-9.007818222045898,-0.2799997329711914,-0.369291216135025,0.24312437,-0.12644911,5
-1.4401406049728394,-9.06024169921875,-0.3221278488636017,-0.3115831911563873,0.13255776,-0.10415252,5
-1.363642692565918,-9.179227828979492,-0.3671697676181793,-0.2692921459674835,0.08246681,-0.1133155,5
-1.1935693025588991,-9.331819534301758,-0.4052006304264069,-0.23433056473731995,0.1160644,-0.18600847,5
-0.9776288270950316,-9.44754695892334,-0.4182344675064087,-0.2047947347164154,0.13775012,-0.3145956,5
-0.7828500270843506,-9.486387252807617,-0.43004560470581055,-0.1775978058576584,0.11453723,-0.37873647,5
-0.5792597532272339,-9.52989673614502,-0.4537100195884705,-0.15197856724262238,0.10048734,-0.3707952000000001,5
-0.33994314074516296,-9.65987777709961,-0.5071572065353394,-0.1399858444929123,0.29168814,-0.40042216,5
-0.092436321079731,-9.819229125976562,-0.5580199956893921,-0.14115069806575775,0.4560109000000001,-0.5027421,5
0.14401355385780334,-10.061538696289062,-0.6007646322250366,-0.14769545197486875,0.5726861999999999,-0.58276546,5
0.3554317355155945,-10.468875885009766,-0.6237831711769104,-0.16224421560764313,0.6719518,-0.55680364,5
0.4620636403560638,-11.004932403564453,-0.6245865225791931,-0.16957567632198334,0.7147123000000001,-0.4718934,5
0.3260478079319,-11.464739799499512,-0.624290406703949,-0.15333378314971924,0.3820962,-0.40133846,5
-0.07120738923549652,-11.834390640258787,-0.6674826145172119,-0.09598686546087264,0.008552114,-0.34147367,5
-0.5268233418464661,-12.05991268157959,-0.6901886463165283,0.009950999170541763,-0.17073683,-0.116675265,5
-0.7118163704872131,-12.101178169250488,-0.514471173286438,0.1392064392566681,-0.25167647,0.20555615,5
-0.6125559210777283,-11.998477935791016,-0.2134145349264145,0.2898703515529633,-0.20463985,0.54000485,5
-0.4060977101325989,-11.781325340270994,0.10498516261577606,0.4889861643314362,0.04153884,0.8576548,5
-0.2459519356489181,-11.604133605957033,0.4230160713195801,0.721476674079895,0.269697,1.2605205,5
-0.21401719748973846,-11.608232498168945,0.6950701475143433,0.941650927066803,0.48808134,1.6737707999999998,5
-0.3006954491138458,-11.757753372192385,0.9218223690986632,1.105119705200195,0.6444628000000001,1.89918,5
-0.4027051031589508,-11.778440475463867,1.0919855833053589,1.2073431015014648,0.63041294,2.0772474,5
-0.4451960921287537,-11.648821830749512,1.0737373828887942,1.2261912822723389,0.46089783,2.1859813,5
-0.41873663663864136,-11.505273818969727,0.8941571712493896,1.1804264783859253,0.47647488,2.1019874,5
-0.3502553701400757,-11.302481651306152,0.7853201031684875,1.151105284690857,-0.05009095,1.9104811,5
-0.428857684135437,-10.953975677490234,0.7528221607208252,1.1385912895202637,-0.6792821,1.9920316,5
-0.7298623919487,-10.55882167816162,0.8301073908805847,1.1065354347229004,-0.8909469999999999,2.3316727000000004,5
-1.0821843147277832,-10.359197616577148,1.121678352355957,1.0609002113342283,-1.0852021,2.35794,5
-1.1955398321151731,-10.241983413696287,1.429598093032837,1.0388466119766235,-1.783421,2.154827,5
-1.1092290878295898,-9.982426643371582,1.4770903587341309,1.05392324924469,-1.7562376,2.150551,5
-1.0973048210144043,-9.619009971618652,1.4153252840042114,1.0869563817977903,-1.425454,2.1038198,5
-1.1100066900253296,-9.258357048034668,1.575380563735962,1.111686110496521,-1.8176296000000003,1.8148806,5
-1.1291319131851196,-8.832763671875,1.6093512773513794,1.1310367584228516,-1.9767599,1.7076738,5
-1.2635672092437744,-8.337334632873535,1.5853577852249146,1.1626622676849363,-1.815186,1.6417004000000002,5
-1.4608112573623655,-7.830386161804199,1.6830297708511353,1.185822606086731,-1.6487253000000002,1.4993688,5
-1.5184978246688845,-7.366173267364503,1.8439090251922607,1.1785306930541992,-1.5167783,1.2702943000000002,5
-1.4085651636123655,-6.956932067871094,1.9736512899398804,1.1424386501312256,-1.3161092,1.0238101000000002,5
-1.3386801481246948,-6.57668924331665,2.0917136669158936,1.083008050918579,-0.96486163,0.7455609999999999,5
-1.4084410667419434,-6.2317376136779785,2.272813081741333,0.9851182103157043,-0.8023715,0.48075095,5
-1.580465316772461,-5.885739803314209,2.5376577377319336,0.8575373888015747,-0.7107416999999999,0.21777347,5
-1.8599371910095213,-5.463775157928467,2.8514153957366943,0.6990494728088379,-0.51251596,0.06169739,5
-2.201707124710083,-4.974356651306152,3.151000499725342,0.5013130307197571,-0.03268129,-0.08643743400000001,5
-2.517719268798828,-4.510565280914307,3.432937860488892,0.2757057249546051,-0.027794369,-0.18906279,5
-2.873290538787842,-4.181775093078613,3.6617891788482666,0.029286032542586327,-0.083383106,-0.3408628,5
-3.3160290718078613,-4.0553555488586435,3.869372844696045,-0.2474410235881805,0.43035457,-0.5696318,5
-3.9002625942230233,-4.267584323883057,4.157426834106444,-0.4681949317455292,1.3271046999999998,-0.76144356,5
-4.069691181182861,-5.1577467918396,4.862357139587402,-0.5734478235244751,0.9660834,-0.8579602,5
-3.8461742401123047,-6.7710933685302725,5.376865863800049,-0.8278464674949646,1.1246029,-1.4141531,5
-3.966675758361816,-8.322437286376951,5.236625671386719,-1.0490723848342896,1.9437732,-1.0919216,5
-3.899910688400269,-9.045937538146973,4.8855857849121085,-1.221584677696228,0.95111716,-1.2122620000000002,5
-3.606086254119873,-9.024015426635742,4.192864894866943,-1.3199548721313477,1.1575897,-1.3582588,5
-3.0913381576538086,-8.790587425231934,3.730349063873291,-1.382602334022522,0.9492846,-1.5827519,5
-2.6453616619110107,-8.83094596862793,3.2111270427703857,-1.3948919773101809,1.1856893999999998,-1.6120734,5
-2.3271799087524414,-9.248483657836914,2.7544972896575928,-1.382390379905701,1.1835514,-1.5399913,5
-2.0378050804138184,-9.736639976501463,2.2433485984802246,-1.354623556137085,1.3891076,-1.4349225,5
-1.831410765647888,-10.00059413909912,1.7764978408813477,-1.3288370370864868,1.4404203000000002,-1.3701707,5
-1.7197097539901731,-10.02025032043457,1.4224450588226318,-1.3120578527450562,1.3078625,-1.366811,5
-1.7310678958892822,-9.907831192016602,1.1536892652511597,-1.2844617366790771,0.96974856,-1.3451253,5
-1.8229609727859497,-9.750174522399902,0.9056266546249391,-1.2295870780944824,0.9120218,-1.2815952,5
-1.8597383499145508,-9.59652328491211,0.6719873547554016,-1.1552777290344238,0.9560041,-1.2321151,5
-1.7979942560195925,-9.452250480651855,0.535965085029602,-1.0836987495422363,0.6747006999999999,-1.20371,5
-1.6976420879364014,-9.294639587402344,0.4271762669086456,-1.019728422164917,0.47311515,-1.210124,5
-1.609539031982422,-9.098949432373047,0.3249228298664093,-0.9715402126312256,0.36285394,-1.1664472,5
-1.5796637535095217,-8.911672592163086,0.24942979216575625,-0.9304210543632508,0.3830125,-1.0458013000000002,5
-1.6068397760391235,-8.749692916870117,0.1891818791627884,-0.8965463638305664,0.54000485,-0.8573494,5
-1.6385271549224854,-8.647695541381836,0.16343887150287628,-0.8577442765235901,0.31215215,-0.7162395,5
-1.6307431459426882,-8.618890762329103,0.18128523230552676,-0.8071094155311584,0.23365596,-0.6078109,5
-1.574505090713501,-8.686559677124022,0.2232501357793808,-0.7342487573623657,0.22052236,-0.49174652,5
-1.5109219551086426,-8.833039283752441,0.1882680505514145,-0.6508591771125793,0.35185838,-0.33658674,5
-1.408653736114502,-8.94486141204834,0.12937134504318235,-0.5671171545982361,0.43004912,-0.1908954,5
-1.2530336380004885,-9.029685974121094,0.08156167715787888,-0.4888077080249786,0.45540005,-0.11575896,5
-1.0868884325027466,-9.107447624206543,0.05210506170988083,-0.4257687926292419,0.48258355,-0.13775012,5
-0.9634904861450196,-9.230670928955078,-0.014534363523125647,-0.3700077831745148,0.59773165,-0.29657507,5
-0.8858330845832825,-9.344270706176758,-0.1072225272655487,-0.3245993256568909,0.41050145,-0.37415496,5
-0.7863969206809998,-9.456414222717283,-0.18629369139671328,-0.2995057702064514,0.21533,-0.37323865,5
-0.6502809524536133,-9.646429061889648,-0.1972636878490448,-0.27816614508628845,0.23640485,-0.39675698,5
-0.5238092541694641,-9.853215217590332,-0.14771996438503265,-0.2619386911392212,0.31795537,-0.55741453,5
-0.4305481016635895,-9.992451667785645,-0.16905838251113892,-0.2458250820636749,0.33750305,-0.6597345,5
-0.3003585040569305,-10.162007331848145,-0.2730603814125061,-0.2326379716396332,0.31612277,-0.64843345,5
-0.1229051724076271,-10.46767807006836,-0.336829274892807,-0.22302529215812686,0.38606682,-0.54428095,5
-0.06436806172132492,-10.900516510009766,-0.3082466125488281,-0.21698933839797974,0.269697,-0.39187005,5
-0.24977123737335205,-11.437864303588867,-0.30376124382019043,-0.188606396317482,-0.008246681,-0.36743546,5
-0.5475890040397644,-11.849522590637207,-0.38036268949508667,-0.11372310668230055,-0.20372356,-0.30634892,5
-0.7409050464630127,-12.029034614562988,-0.3924574255943297,-0.021299123764038086,-0.38515055,-0.09193522,5
-0.7121671438217163,-12.045138359069824,-0.2228294163942337,0.08333202451467514,-0.47891834,0.17104226,5
-0.5948138833045961,-11.954718589782715,0.05289972573518753,0.22996413707733154,-0.44226643,0.47952923,5
-0.5504816174507141,-11.787245750427244,0.35635077953338623,0.4423216581344605,-0.44929138,0.8567385000000001,5
-0.6648668050765991,-11.644070625305176,0.5734465718269348,0.6763122081756592,-0.4578435,1.2360858,5
-0.8522124290466309,-11.59705638885498,0.6566689610481262,0.850694477558136,-0.30451632,1.5192219,5
-0.943543553352356,-11.585186004638672,0.6359007954597473,0.9485679864883424,0.060170225999999986,1.8002199,5
-0.9023296236991882,-11.5133695602417,0.5409731864929199,0.9846820831298828,0.28160888,2.0900755,5
-0.7928062081336975,-11.40121841430664,0.3609625995159149,0.9466573596000672,0.43066,2.3909266,5
-0.6508496999740601,-11.35506820678711,0.16713476181030273,0.9093785881996156,0.29077184,2.34389,5
-0.5308231711387634,-11.313082695007324,0.10875700414180756,0.8936139345169067,-0.5558874,2.0888536,5
-0.5399984121322632,-11.088418960571287,0.07903538644313812,0.8575190901756287,-1.0479393,2.0024164,5
-0.7039774656295776,-10.765839576721193,0.07962408661842346,0.8096169233322144,-0.6398814,2.1365013,5
-0.8928002715110779,-10.509798049926758,0.37737131118774414,0.8063561320304871,-1.0577132,2.1798725,5
-0.9730322360992432,-10.28630256652832,0.8780423402786255,0.8755864500999451,-1.575116,2.1230621,5
-1.0126723051071167,-9.990362167358398,0.9923474192619324,0.9558535814285278,-1.8277088,2.1209242,5
-1.1232775449752808,-9.686670303344727,0.8728954195976257,1.0200073719024658,-1.5115861000000002,2.1361957,5
-1.217298984527588,-9.381473541259766,0.9732981324195862,1.1073722839355469,-1.5619823999999998,1.9956968,5
-1.240233302116394,-9.025431632995604,1.2237590551376345,1.1778535842895508,-1.9211712,1.8741345,5
-1.292027473449707,-8.609035491943361,1.3688549995422363,1.2235383987426758,-1.9456058,1.8377881,5
-1.4545193910598757,-8.180609703063965,1.4443997144699097,1.2480844259262085,-1.7739526999999995,1.6603317,5
-1.5913392305374146,-7.765237331390381,1.5268051624298096,1.2519367933273315,-1.3970488,1.3402383,5
-1.5813883543014526,-7.355210304260254,1.6913709640502932,1.2205663919448853,-1.2333368999999998,1.0274754,5
-1.5213229656219482,-6.938334465026856,1.861571669578552,1.1394190788269043,-0.91324353,0.784351,5
-1.562588810920715,-6.546931743621826,1.9896088838577268,1.0080847740173342,-0.4288274,0.5375614000000001,5
-1.8361681699752808,-6.153265953063965,2.112435817718506,0.8455580472946167,-0.31031954,0.28588495,5
-2.141396999359131,-5.7416157722473145,2.3175110816955566,0.6552650332450867,-0.4392121,0.07269296,5
-2.3110010623931885,-5.284168243408203,2.538888931274414,0.4092671275138855,-0.514654,-0.16432275,5
-2.391603946685791,-4.772987842559815,2.704916954040528,0.10140839219093324,-0.1554652,-0.58062744,5
-2.467952251434326,-4.359990119934082,2.94409728050232,-0.2433001846075058,0.7119634,-1.1548406999999998,5
-2.750554323196411,-4.321211814880371,3.6041774749755864,-0.5416103005409241,1.3927728,-1.271516,5
-3.2388765811920166,-5.25759744644165,4.30004358291626,-0.799430251121521,1.7293595000000002,-1.3029754999999998,5
-4.1416378021240225,-7.285534858703612,4.943342685699463,-1.082676649093628,1.3561208,-0.96944314,5
-5.570371627807617,-9.41977310180664,4.427677631378174,-1.1525346040725708,0.9392053,-0.6786713000000001,5
-5.425541877746582,-10.026700973510742,4.618837833404541,-1.255156397819519,-0.5742133,-1.112691,5
-4.587570190429688,-8.913039207458496,4.173886775970459,-1.3337846994400024,0.6963864000000001,-1.3683381,5
-3.871117115020752,-7.394608974456787,3.2171130180358887,-1.4471737146377563,0.8188649,-1.4285084,5
-2.958899736404419,-7.0603084564208975,2.569997549057007,-1.4730637073516846,0.9221011,-1.6282613,5
-2.2420330047607417,-7.873760223388673,1.9280569553375244,-1.4662986993789673,1.5845844999999998,-1.3817772,5
-1.8988338708877563,-8.985648155212402,1.4980592727661133,-1.4528729915618896,1.8643607,-1.2724323,5
-1.8691823482513428,-9.564516067504883,1.2680964469909668,-1.4488059282302856,1.5558738,-1.2421945,5
-1.941019415855408,-9.584749221801758,1.1210533380508425,-1.4170278310775757,1.1145236,-1.1979067,5
-1.939507842063904,-9.369534492492676,0.95257169008255,-1.3447585105895996,0.90102625,-1.1774428,5
-1.8204425573349,-9.186890602111816,0.705800473690033,-1.2539823055267334,0.8029824000000001,-1.1759156000000002,5
-1.6334134340286257,-9.126473426818848,0.3423150181770325,-1.1771019697189329,1.0002918,-1.1530081,5
-1.3731988668441772,-9.095903396606444,0.005625009071081878,-1.1169488430023191,1.3264938999999998,-1.144456,5
-1.162433624267578,-9.06081485748291,-0.21216070652008054,-1.0752394199371338,1.2983941,-1.1685852,5
-1.1258481740951538,-9.034342765808104,-0.3053966164588928,-1.0279171466827393,0.8579602,-1.1252137,5
-1.2715449333190918,-9.058358192443848,-0.4596959948539734,-0.9776534438133241,0.67103547,-1.0412198,5
-1.4649182558059692,-9.046916961669922,-0.5878618955612183,-0.8952196836471558,0.66950834,-0.85154617,5
-1.568809986114502,-9.018884658813477,-0.625596284866333,-0.8089941740036011,0.43951756,-0.7302894,5
-1.4897096157073977,-8.997846603393555,-0.6755431890487671,-0.7351186275482178,0.25870144,-0.6221663000000001,5
-1.3674918413162231,-9.08954906463623,-0.7389235496520996,-0.6667439937591553,0.5030475000000001,-0.49938235,5
-1.282931566238403,-9.214851379394533,-0.7149245738983154,-0.5918422937393188,0.52931476,-0.46883908,5
-1.278552770614624,-9.29327392578125,-0.7039559483528137,-0.517947256565094,0.4636467000000001,-0.44073927,5
-1.3085684776306152,-9.318696022033693,-0.7367615699768066,-0.4601403176784515,0.43066,-0.38087448,5
-1.3309433460235596,-9.291778564453123,-0.7563489079475403,-0.4158243238925934,0.2669481,-0.29168814,5
-1.3715875148773191,-9.276168823242188,-0.7516422271728516,-0.3757155239582062,0.11881329,-0.2678644,5
-1.3976651430130005,-9.292696952819824,-0.7574456334114075,-0.3358575999736786,0.06780604,-0.20463985,5
-1.3396828174591064,-9.306825637817383,-0.8127082586288452,-0.2996152341365814,0.11636983,-0.04642576,5
-1.173159956932068,-9.330827713012695,-0.8568943738937378,-0.25533583760261536,0.17806722,0.028710667,5
-0.9706845879554749,-9.39009952545166,-0.8287889361381531,-0.20016779005527496,0.22785273,-0.04153884,5
-0.8121997117996216,-9.448920249938963,-0.8404451608657837,-0.1403263360261917,0.3210097,-0.10781772,5
-0.6484265923500061,-9.517119407653807,-0.8996159434318542,-0.11458694934844972,0.21624629,-0.23335053,5
-0.4256849884986877,-9.690699577331543,-0.95089989900589,-0.11826904863119125,0.19303341,-0.35460728,5
-0.1768408566713333,-9.941625595092773,-0.9241664409637452,-0.13914382457733154,0.077579886,-0.4370741,5
0.05297090858221054,-10.309810638427734,-0.864167332649231,-0.1639930158853531,0.18387043,-0.473726,5
0.18012337386608124,-10.950638771057127,-0.8673028349876404,-0.17279210686683655,0.36896262,-0.4709771,5
0.06653518229722978,-11.5785493850708,-0.8974774479866028,-0.14137350022792816,0.20250183,-0.46853364,5
-0.19195771217346191,-11.942364692687988,-0.9740725755691528,-0.07477506250143051,-0.04428773,-0.43951756,5
-0.4289846420288086,-12.076906204223633,-1.0326296091079712,0.006704323925077915,-0.018936822,-0.2003638,5
-0.4135528802871704,-12.021547317504885,-0.8946807384490967,0.08182527869939804,0.06383542,0.26908615,5
-0.26790380477905273,-11.943588256835938,-0.5966984033584595,0.1850363165140152,0.14110987,0.7455609999999999,5
-0.17162150144577026,-11.859781265258787,-0.185140073299408,0.34445837140083313,0.04184427,1.2266175,5
-0.24192354083061215,-11.823099136352539,0.21353240311145785,0.551215410232544,-0.24251351,1.6239853000000002,5
-0.4062976837158203,-11.881590843200685,0.3804428577423096,0.7868568897247314,-0.033292156,1.9556851,5
-0.5632132291793823,-11.936558723449707,0.3219184577465057,1.0227043628692627,0.68233645,2.2119431,5
-0.6699105501174927,-11.906017303466795,0.2731746733188629,1.2125446796417236,0.93859446,2.4013114,5
-0.720737099647522,-11.847389221191404,0.20712707936763766,1.2751305103302002,0.82711154,2.5415049,5
-0.7321959733963013,-11.82122039794922,0.05272994562983513,1.2513102293014526,0.2678644,2.47095,5
-0.7194755077362059,-11.69545841217041,-0.04203633591532707,1.1951425075531006,-0.61941737,2.322204,5
-0.7561536431312561,-11.402297973632812,-0.058656759560108185,1.143645405769348,-1.1896601,2.2983804,5
-1.0031814575195312,-11.011295318603516,0.011742549017071724,1.1135364770889282,-1.2357804,2.504853,5
-1.353712558746338,-10.713881492614746,0.3662832677364349,1.1513253450393677,-1.6371188,2.5002716,5
-1.6148468255996704,-10.432622909545898,0.6743078231811523,1.1956261396408079,-1.9370537,2.4162774,5
-1.7729754447937012,-10.073307037353516,0.7007629871368408,1.2164252996444702,-1.9013181,2.38268,5
-1.9025603532791135,-9.676021575927734,0.7445769309997559,1.2750844955444336,-1.8548924,2.2000313,5
-1.9245225191116333,-9.25381851196289,0.8929843902587891,1.334971904754639,-2.0885482,2.006387,5
-1.9395895004272459,-8.782703399658201,1.0277862548828125,1.3701493740081787,-2.1719313,1.9165897,5
-2.0654861927032466,-8.305336952209473,1.19425630569458,1.3988876342773438,-2.1163425,1.7345519,5
-2.142721176147461,-7.778502941131593,1.388110637664795,1.4052155017852783,-1.9187278000000003,1.4123205,5
-2.1186478137969966,-7.2179203033447275,1.5194936990737915,1.3726527690887451,-1.4874569,1.1652255,5
-1.9992945194244385,-6.705240249633789,1.6335537433624268,1.3089547157287598,-1.0790935,0.9798279,5
-1.926934599876404,-6.247427940368652,1.8253512382507324,1.2171813249588013,-0.72784597,0.8686504,5
-2.0036168098449707,-5.876889705657959,2.1220355033874507,1.090794801712036,-0.63499445,0.763887,5
-2.2047255039215092,-5.593738555908203,2.430013418197632,0.9393012523651124,-0.48655418,0.627664,5
-2.433260917663574,-5.342616081237793,2.742374897003174,0.7718930244445801,-0.40561453,0.43188173,5
-2.636876106262207,-5.085993766784668,3.122429609298706,0.612659752368927,-0.34788775,0.31031954,5
-2.8736114501953125,-4.81239128112793,3.497887134552002,0.4672200679779053,-0.33414328,0.19792034,5
-3.1562516689300537,-4.506088733673097,3.857749938964844,0.3377676904201508,-0.43188173,0.047036625,5
-3.4730930328369136,-4.245987892150879,4.2251224517822275,0.22716549038887024,-0.44226643,0.007941248,5
-3.819611072540283,-4.05824613571167,4.569597244262695,0.1256234496831894,-0.52442783,0.0018325958,5
-4.1689743995666495,-3.94315767288208,4.838590621948242,0.011087183840572834,-0.35002577,-0.011301007,5
-4.3911118507385245,-3.901157379150391,5.062293529510498,-0.1266566514968872,-0.30451632,-0.047647487,5
-4.4849514961242685,-3.895268201828003,5.2115888595581055,-0.2786998748779297,-0.29504790000000003,-0.092240654,5
-4.494318008422852,-3.97333574295044,5.304865837097168,-0.4493949413299561,-0.1685988,-0.18112154,5
-4.65130090713501,-4.375328063964844,5.6114044189453125,-0.6092486977577211,0.13683382,-0.22021692,5
-5.2186808586120605,-5.831437587738037,6.511046886444093,-0.5648826956748962,-0.24617869,0.14782938,5
-5.8815956115722665,-7.310286045074463,7.175954341888428,-0.34313416481018066,-0.36713,0.1282817,5
-5.5356411933898935,-7.406674861907959,7.11216402053833,-0.27369862794876104,0.26053402,-0.62796944,5
-4.209983348846436,-6.537757396697997,7.1688618659973145,-0.29185211658477783,-0.10751228,-1.2388347,5
-3.665813207626343,-6.137925148010254,6.732302665710449,-0.43578866124153137,1.3023646999999998,-1.201572,5
-3.854981184005737,-6.670817852020264,6.2934393882751465,-0.5479452610015869,1.5522085,-1.1307116,5
-3.9716508388519287,-7.6094417572021475,6.137195587158202,-0.6522350311279297,0.89980453,-1.3158038,5
-3.9127891063690186,-8.292657852172853,5.91264533996582,-0.728469967842102,1.4926492,-1.4062119,5
-3.817841529846192,-8.418231964111326,5.329792022705078,-0.8627876043319702,1.7886133999999998,-1.3417655000000002,5
-3.789129495620728,-8.330613136291504,4.5664801597595215,-1.0314449071884155,1.6792686,-1.2767084,5
-3.638192892074585,-8.254158973693848,3.871912956237793,-1.1550236940383911,1.4850134,-1.239751,5
-3.351959228515625,-8.172586441040039,3.3143398761749268,-1.2396203279495241,1.534799,-1.1111639,5
-3.076554298400879,-8.143065452575684,2.8222641944885254,-1.3077192306518557,1.704925,-1.0369438,5
-2.8644652366638184,-8.258889198303223,2.3970410823822017,-1.36817729473114,1.8817704,-1.0033462,5
-2.7832319736480717,-8.49970531463623,2.079734563827514,-1.4198328256607056,1.8374827,-0.99082345,5
-3.000863075256348,-8.754212379455566,1.9309262037277224,-1.442604899406433,1.570229,-1.0112875,5
-3.288404703140259,-8.95036506652832,1.9162946939468384,-1.411985993385315,0.91904676,-1.0891727,5
-3.4252710342407227,-9.062332153320312,1.8473163843154907,-1.34260892868042,0.42913285,-1.2153164,5
-3.336708068847656,-9.072373390197754,1.6469255685806274,-1.2612383365631104,0.37507126,-1.2611313,5
-3.045013427734375,-8.964838027954102,1.4406031370162964,-1.1932448148727417,0.45112398,-1.2202033,5
-2.664133310317993,-8.805963516235352,1.2746665477752686,-1.1347121000289917,0.4175264,-1.1221595,5
-2.3427562713623047,-8.709424018859862,1.0669459104537964,-1.086803317070007,0.6035349,-1.0430524,5
-2.1146173477172847,-8.738388061523438,0.8804186582565308,-1.0415654182434082,0.68539083,-1.0537425,5
-1.944082736968994,-8.791778564453125,0.7324189543724059,-0.9809516072273254,0.64476824,-0.97585726,5
-1.8023043870925903,-8.8320951461792,0.5529001355171204,-0.9086876511573792,0.54825157,-0.89644474,5
-1.6530529260635376,-8.894973754882812,0.3089878559112549,-0.8398789763450623,0.46028697,-0.8136725,5
-1.5408087968826294,-8.976866722106934,0.0631142407655716,-0.7652353644371033,0.29352075,-0.7715228,5
-1.4833154678344729,-9.07489776611328,-0.17046143114566806,-0.6900019645690918,0.33078352,-0.70402217,1
-1.4570525884628296,-9.176158905029297,-0.3765914738178253,-0.6125409007072449,0.21288654,-0.6258314,1
-1.455390691757202,-9.252035140991213,-0.5665615200996399,-0.5506696701049805,0.29535335,-0.50701815,1
-1.4253888130187988,-9.295708656311037,-0.7063769698143005,-0.4984060525894165,0.24220806,-0.43768495,1
-1.355544924736023,-9.360929489135742,-0.777057945728302,-0.4640107452869415,0.22602014,-0.4352415,1
-1.2398563623428345,-9.414369583129883,-0.753463625907898,-0.4351701140403748,0.17104226,-0.44073927,1
-1.1095459461212158,-9.461885452270508,-0.729996919631958,-0.4022650122642517,0.30482176,-0.44135013,1
-1.0135090351104736,-9.46517276763916,-0.7269383668899536,-0.3604618906974793,0.3210097,-0.40042216,1
-0.9708560705184937,-9.443951606750488,-0.663993239402771,-0.33696043491363525,0.17806722,-0.32528573,1
-0.9061620831489564,-9.473721504211426,-0.5316352844238281,-0.33583760261535645,0.05100725,-0.3371976,1
-0.8231707811355591,-9.53935432434082,-0.42714276909828186,-0.3376230299472809,0.044593163,-0.37934732,1
-0.6938171982765198,-9.618200302124023,-0.5007044672966003,-0.3322941064834595,0.15057829,-0.3735441,1
-0.490203320980072,-9.70236110687256,-0.5880309343338013,-0.33483025431633,0.29535335,-0.3652974,1
-0.2317674309015274,-9.730839729309082,-0.6455144286155701,-0.3415168523788452,0.16096300000000002,-0.44165558,1
-0.014560330659151076,-9.691777229309082,-0.7594978809356691,-0.3407758176326752,0.06505715,-0.52381694,1
0.11233072727918623,-9.663089752197266,-0.9361077547073364,-0.3290046453475952,0.07696902,-0.5271766999999999,1
0.18120194971561432,-9.63398551940918,-1.122460126876831,-0.3079546093940735,-0.098043874,-0.4633413,1
0.27522197365760803,-9.55950927734375,-1.268402338027954,-0.2996825873851776,-0.102319926,-0.38973203,1
0.4048344492912293,-9.502281188964844,-1.3460395336151123,-0.29365751147270197,0.029626964,-0.33078352,1
0.5815337896347046,-9.464784622192383,-1.37402081489563,-0.2749053239822388,0.08643743400000001,-0.24037547,1
0.7984496951103209,-9.432626724243164,-1.3888450860977173,-0.23823878169059756,0.073303826,-0.19211712,1
1.010224223136902,-9.407482147216797,-1.4150347709655762,-0.20239369571208954,0.17867808,-0.13041973,1
1.2079956531524658,-9.385734558105467,-1.4510616064071655,-0.17597869038581848,0.28099802,-0.13500121,1
1.3358280658721924,-9.398369789123537,-1.522350192070007,-0.15084634721279144,0.35796702,-0.1328632,1
1.3821468353271484,-9.435239791870117,-1.6587845087051392,-0.1253838986158371,0.3662137,-0.124311075,1
