acc_x,acc_y,acc_z,gyro_x,gyro_y,gyro_z,label
0.0,0.0,0.0,0.0,-0.011911872,0.023823744,1
-0.07348085939884186,-0.2712715566158295,-0.04510483145713806,-0.0011947194579988716,-0.007330383,0.03145956,1
-0.2489139288663864,-0.917967677116394,-0.1531180739402771,-0.004557587672024964,0.01038471,0.031154128,1
-0.4920454323291778,-1.812705397605896,-0.3033309876918793,-0.010070027783513071,0.004886922,0.024740042,1
-0.7647660374641418,-2.814419269561768,-0.4724796712398529,-0.0159723311662674,0.00580322,0.025350908,1
-1.0363116264343262,-3.809612035751343,-0.6416538953781128,-0.0212169885635376,0.0009162979,0.030543262,1
-1.2872761487960815,-4.7269721031188965,-0.7988288998603821,-0.026224944740533832,-0.00580322,0.02565634,1
-1.509077072143555,-5.533008575439453,-0.9374905824661256,-0.0287593025714159,-0.00061086525,0.018325957,1
-1.7018238306045532,-6.220896720886231,-1.0537277460098269,-0.031174495816230774,0.01985312,0.02076942,1
-1.8668183088302608,-6.796436309814452,-1.1486104726791382,-0.034690752625465386,0.025350908,0.016493361,1
-2.0068392753601074,-7.271876335144043,-1.2246235609054563,-0.03722049295902252,0.022602014,0.016798794,1
-2.1253788471221924,-7.661561965942383,-1.284526824951172,-0.03996988758444786,0.005192355,0.021685716,1
-2.2258663177490234,-7.979489803314209,-1.330998420715332,-0.0410725362598896,-0.003970624,0.022907447,1
-2.3114278316497803,-8.238255500793457,-1.3664226531982422,-0.041869159787893295,0.010690141499999998,0.0290161,1
-2.3847670555114746,-8.44869327545166,-1.392842173576355,-0.04425553232431412,0.014049901000000002,0.02565634,1
-2.44817328453064,-8.619894981384277,-1.411957025527954,-0.04466510936617851,0.0125227375,0.016187929,1
-2.5035104751586914,-8.759350776672362,-1.425181865692139,-0.04417864605784416,0.004581489,0.013133603,1
-2.5523464679718018,-8.87319564819336,-1.4336502552032468,-0.0432133786380291,0.021380283,0.009468411,1
-2.5959362983703613,-8.96640682220459,-1.4382917881011963,-0.042624842375516885,0.0125227375,0.008552114,1
-2.6352968215942383,-9.043011665344238,-1.4398572444915771,-0.04215633124113083,0.006414085,0.010995574,1
-2.6712634563446045,-9.106263160705566,-1.4389452934265137,-0.040818851441144936,0.016493361,0.010995574,1
-2.704493522644043,-9.15877628326416,-1.436046123504639,-0.04165992885828018,-0.0033597588,0.008857545999999999,1
-2.735527992248535,-9.202661514282227,-1.4315476417541504,-0.04374877363443375,-0.0030543262,-0.008552114,1
-2.764800310134888,-9.239616394042967,-1.425763487815857,-0.0461445190012455,0.006414085,-0.024129177,1
-2.7926464080810547,-9.270997047424316,-1.4189513921737669,-0.047836218029260635,-0.0027488936,-0.021685716,1
-2.8193860054016118,-9.2979154586792,-1.411293864250183,-0.04464051127433777,-0.03604105,-0.062002823,1
-2.845158815383911,-9.321218490600586,-1.4029959440231323,-0.038170382380485535,-0.031154128,-0.07269296,1
-2.868276357650757,-9.339506149291992,-1.3934870958328247,-0.04382270574569702,0.034208454,-0.0888809,1
-2.8827950954437256,-9.346622467041016,-1.3807458877563477,-0.05867389589548111,0.058337633,-0.083383106,1
-2.8899025917053223,-9.344179153442383,-1.3651968240737915,-0.06520489603281021,-0.061391957,-0.081855945,1
-2.891118049621582,-9.334163665771484,-1.347463846206665,-0.04973430186510086,-0.2678644,-0.07299839999999999,1
-2.8875751495361333,-9.318022727966307,-1.327947020530701,-0.03361104056239128,-0.21502456,-0.077579886,1
-2.880190134048462,-9.296924591064453,-1.3069740533828735,-0.04868173971772194,0.052534413,-0.05467244,1
-2.869757652282715,-9.271913528442383,-1.284876585006714,-0.08362007886171341,0.21777347,-0.04520403,1
-2.856868028640747,-9.24374294281006,-1.2618651390075684,-0.1116037219762802,0.30726522,-0.053450707,1
-2.84199333190918,-9.213014602661133,-1.238106369972229,-0.14491377770900726,0.27000242,-0.06414085,1
-2.82551383972168,-9.180213928222656,-1.2137353420257568,-0.1866738498210907,0.076052725,-0.10293079,1
-2.802269458770752,-9.14967441558838,-1.201491117477417,-0.21731306612491608,-0.038789943,-0.11911872,1
-2.754748106002808,-9.134307861328123,-1.2421979904174805,-0.2240436375141144,0.13805555,-0.092240654,1
-2.6863369941711426,-9.132105827331543,-1.3286118507385254,-0.2301407903432846,0.32620203,-0.050396383,1
-2.6011133193969727,-9.14048957824707,-1.4517996311187744,-0.22970618307590485,0.2724459,-0.055283304000000005,5
-2.5023913383483887,-9.15737533569336,-1.6045135259628296,-0.2229006439447403,0.09162979,-0.08277224,5
-2.392539978027344,-9.181185722351074,-1.781455159187317,-0.218474805355072,-0.062002823,-0.101098195,5
-2.2742633819580083,-9.210387229919434,-1.9769432544708248,-0.20169442892074585,-0.10445796,-0.07941248,5
-2.1490211486816406,-9.243983268737793,-2.1876811981201167,-0.1783435195684433,0.0018325958,0.009162978,5
-2.017994165420532,-9.281174659729004,-2.4110047817230225,-0.15686215460300446,-0.010995574,0.08979719,5
-1.8826541900634768,-9.321142196655273,-2.643845319747925,-0.11653760820627213,-0.03268129,0.14569137,5
-1.742699384689331,-9.36269760131836,-2.867621660232544,-0.07551315426826477,0.023518313,0.09712757,5
-1.5961230993270874,-9.402689933776855,-3.019563913345337,-0.08257827907800674,-0.029321533,0.030543262,5
-1.443905234336853,-9.441219329833984,-3.108644723892212,-0.1197204664349556,-0.32345316,-0.02107485,5
-1.287135362625122,-9.478578567504883,-3.147211790084839,-0.11762212961912155,-0.6291912,-0.13103059,5
-1.1267313957214355,-9.514993667602539,-3.14522385597229,-0.09353964030742644,-1.2162327,-0.44318274,5
-0.9633612036705016,-9.550658226013184,-3.1106135845184326,-0.1322334110736847,-1.599856,-0.7131852,5
-0.7976216673851013,-9.585718154907227,-3.049811840057373,-0.2240585833787918,-1.817935,-0.7174611999999999,5
-0.6300144791603088,-9.620285987854004,-2.9680054187774663,-0.29389339685440063,-1.6065756000000002,-0.51068336,5
-0.4608685374259949,-9.654465675354004,-2.8692896366119385,-0.2922014594078064,-1.0228939,-0.29749137,5
-0.2905405759811401,-9.68832302093506,-2.757042646408081,-0.2876444756984711,-0.8927795000000001,-0.37140608,5
-0.13711686432361606,-9.727137565612793,-2.5911667346954346,-0.3135603070259094,-1.0259482,-0.5671884,5
-0.0919843465089798,-9.776759147644043,-2.2346649169921875,-0.3421432077884674,-1.3228287,-0.66859204,5
-0.19684644043445587,-9.812512397766113,-1.8644185066223145,-0.3344441950321197,-1.6557503,-0.63804877,5
-0.4273052215576172,-9.819535255432127,-1.717577576637268,-0.3267405033111572,-1.4437801,-0.45875978,5
-0.7168179750442505,-9.775995254516602,-1.7498090267181396,-0.3286733627319336,-1.0183123,-0.22785273,5
-0.929526686668396,-9.728559494018556,-1.7784477472305298,-0.3352899849414825,-1.0027353,-0.09437868,5
-1.0110039710998535,-9.967020034790039,-1.7602144479751587,-0.3232224583625793,-1.0338894,-0.11484267,5
-0.9622464776039124,-10.349430084228516,-1.6223607063293457,-0.2914494574069977,-1.0626001,-0.16371189,5
-0.7652865648269653,-10.5472412109375,-1.4921510219573977,-0.2681449055671692,-1.1490375,-0.1133155,5
-0.5968189239501953,-10.570530891418457,-1.5612207651138306,-0.2554416060447693,-0.8295549999999999,-0.096516706,5
-0.5558837652206421,-10.59439754486084,-1.5402276515960691,-0.24364227056503296,-0.49693888,-0.07391469,5
-0.6297942399978638,-10.65155792236328,-1.290900945663452,-0.23582783341407776,-0.3885103,-0.071776666,5
-0.6959353685379028,-10.759923934936523,-0.8980141878128052,-0.21798843145370486,-0.45875978,-0.19120082,5
-0.6407276391983032,-10.941669464111328,-0.4482374489307404,-0.1658412367105484,-0.52656585,-0.39553526,5
-0.4549163579940796,-11.26900577545166,-0.05260181799530983,-0.051550794392824166,-0.6407976,-0.82924956,5
-0.2301047146320343,-11.73870849609375,0.1246255412697792,0.14481155574321747,-0.8622363000000001,-1.3365731,5
-0.03624548763036728,-11.952884674072266,0.1075863316655159,0.4347790777683258,-1.1542298999999998,-1.4902058,5
0.1929746121168137,-12.03067398071289,0.1001242771744728,0.7867527008056641,-1.4022411,-1.5225816,5
0.4438762664794922,-12.231108665466307,0.0442751906812191,1.0783318281173706,-0.80573124,-1.5436565,5
0.746942400932312,-12.876860618591307,-0.2899765372276306,1.11863374710083,0.5662721,-2.2391264,5
1.313976168632507,-13.837797164916992,-0.04717208817601204,0.9815723299980164,-1.4269812,-3.1511483,5
1.372637152671814,-14.365781784057615,-0.26962387561798096,1.0367168188095093,1.3081678999999995,-2.0937407,5
0.8726497888565063,-14.519461631774902,-0.6949821710586548,1.241795301437378,3.2424726,-1.7195857,5
0.454539567232132,-14.379522323608398,-0.9319440722465516,1.5683168172836304,3.6151006,-1.022283,5
0.2291044294834137,-14.324222564697266,-0.5044655799865723,1.8434574604034424,2.7363708,-0.73945236,5
0.2928607761859894,-14.903610229492188,0.4469964504241944,2.0339279174804688,2.2379048,-0.6969972,5
0.3554602861404419,-15.123515129089355,1.0052191019058228,2.1159508228301998,1.9639318,-0.7501425,5
0.4024367332458496,-14.499857902526855,1.264666199684143,2.090676784515381,2.0561724,-0.5375614000000001,5
0.24052442610263824,-13.269302368164062,1.37550687789917,1.9922970533370967,1.7336355,-0.07819075,5
-0.2761192619800568,-11.61723518371582,1.2355529069900513,1.8262934684753416,1.6154331,0.1966986,5
-0.8701082468032837,-9.710931777954102,1.0153877735137942,1.5789939165115356,1.3765849,0.2012801,5
-1.4415216445922852,-7.578916549682617,0.9775656461715698,1.2453439235687256,0.42058071,0.05925392700000001,5
-1.9913560152053835,-5.407280445098877,0.9661994576454164,0.8092418909072876,-0.6227771,0.06841691,5
-2.441767930984497,-3.4382233619689937,0.8181413412094116,0.3178415894508362,-1.6432275,0.27702740000000003,5
-2.729218006134033,-1.7132059335708618,0.8118767142295837,-0.16155847907066345,-2.6768115000000003,0.5384777,5
-2.7999155521392822,-0.2417232990264893,0.8339180946350098,-0.6147937774658203,-3.644422,0.6942484,5
-2.642543077468872,0.7391658425331116,0.7135529518127441,-1.0187196731567385,-3.8362339,0.8753699,5
-2.1743874549865723,0.8371239304542542,0.7196847200393677,-1.1721434593200684,-3.7934732,0.8588764999999999,5
-1.787256956100464,0.5805608630180359,-0.1958993822336197,-1.299448847770691,-3.8551705,0.9263771,5
-2.17679762840271,-0.9991431236267091,-1.54076886177063,-1.3581883907318115,-1.4049901000000002,2.3952026,5
-1.4636092185974119,-4.173841953277588,-2.186618566513061,-1.4329283237457275,0.96974856,1.287093,5
1.1705901622772217,-6.15587329864502,-1.591464281082153,-1.2639052867889404,-2.9816332,0.30024028,5
1.8213392496109009,-6.711789608001709,-1.5056818723678589,-1.135881423950195,-0.59559363,1.3002267,5
1.208320140838623,-7.338178634643555,-1.890538573265076,-0.9577674269676208,1.3326025,1.8997909,5
0.5190911889076233,-8.456377983093263,-2.6490590572357178,-0.8459965586662292,2.0992384,2.0204368,5
0.13717980682849884,-9.652555465698242,-2.8268487453460693,-0.9550433158874512,1.1682798,1.561677,5
0.049748517572879784,-11.090270042419434,-1.649700164794922,-1.2819908857345579,-1.5219707,0.82436264,5
-0.05999884009361268,-12.544992446899414,-0.4728370606899262,-1.4384243488311768,-1.207986,0.47128254,5
-0.2001548558473587,-13.249709129333494,0.23479825258255005,-1.453315258026123,-0.5540548000000001,0.42546764,5
-0.16890008747577667,-13.174433708190918,0.9753343462944032,-1.284656047821045,-1.0345002,0.38087448,5
0.1440081149339676,-12.621123313903807,1.6093084812164309,-0.9334464073181152,-0.88147855,0.18509217,5
0.7454740405082703,-11.696581840515135,2.060671329498291,-0.4750853180885315,-0.84513205,-0.12064589,5
1.6256426572799685,-10.553698539733887,2.321732759475708,-0.01960008218884468,-0.8216136999999999,-0.5852089,5
2.7760560512542725,-9.54099178314209,2.33901596069336,0.3458000123500824,-1.0106765,-1.5909985,5
3.814411640167236,-9.15009593963623,2.065142869949341,0.6052791476249695,-1.3020593,-2.2293527,5
4.089705944061278,-9.356964111328123,1.4722291231155396,0.8651369214057922,-0.26572640000000003,-2.3469443,5
3.981401920318604,-10.395033836364746,0.6855252385139465,1.1499929428100586,2.987131,-2.4401011,5
3.024663209915161,-11.883915901184082,0.2528581917285919,1.4300744533538818,2.723848,-2.0051650000000003,5
1.1435344219207764,-12.900005340576172,-0.7124174237251282,1.6204532384872437,3.5106425000000003,-1.5271631,5
-0.4079901576042175,-13.650813102722168,-0.2849957048892975,1.7545665502548218,3.1563408,-1.7867808,5
-0.5025535821914673,-14.627639770507812,1.0233420133590698,2.008851289749145,2.4449883,-2.9639182,5
0.010651785880327223,-15.092415809631348,1.1229894161224363,2.1380040645599365,2.6716192000000003,-2.1578815,5
0.10626187175512314,-14.158756256103516,1.1272807121276855,2.2190115451812744,2.398257,-1.1499538,5
-0.24785013496875766,-12.553590774536133,1.2945786714553833,2.1304421424865723,2.201253,-0.62125,5
-0.7817261815071106,-10.618979454040527,1.379027009010315,1.8833345174789429,1.847562,-0.25320363,5
-1.23070228099823,-8.62155818939209,1.2674132585525513,1.5335849523544312,1.4547756,0.008857545999999999,5
-1.4786924123764038,-6.687864303588867,1.1591132879257202,1.0518025159835815,1.1612549,0.054367006,5
-1.7002158164978027,-4.761775493621826,1.2320191860198977,0.478253036737442,0.05222898,0.13836098,5
-1.9618806838989256,-2.855188608169556,1.3529011011123655,-0.12536980211734772,-1.6139059999999998,0.4196644000000001,5
-2.405996561050415,-1.0235315561294556,1.3646492958068848,-0.7272466421127319,-2.9684997,0.7797695,5
-2.834681272506714,0.14193467795848844,1.605507731437683,-1.1775397062301636,-3.3661730000000003,0.5036584,5
-3.026301145553589,0.3798106610774994,1.3120172023773191,-1.5039654970169067,-3.5674531000000003,0.73761976,5
-3.46671199798584,-1.128388285636902,0.8307194113731384,-1.7531356811523438,-4.2131376,1.0198395,5
-3.420257568359375,-4.075634002685547,-0.5549564361572266,-1.7925087213516235,-0.09560041,1.5891659,5
-1.6543443202972412,-6.866178035736084,-0.9412303566932678,-1.618762731552124,-0.6994406999999999,1.2113458,5
-0.2008114606142044,-8.119771003723145,-0.5681982636451721,-1.405650019645691,-2.198504,1.1606439,5
0.2657157182693481,-7.994311809539795,-0.7285955548286438,-1.3667795658111572,-0.67347896,1.6975945,5
0.18197448551654816,-7.919259548187256,-1.381001114845276,-1.3390244245529177,0.076052725,2.051591,5
-0.13746090233325958,-8.397420883178711,-2.1866822242736816,-1.2861220836639404,0.5858198,1.8784106,5
-0.2892915606498718,-9.313017845153807,-2.6898114681243896,-1.3165439367294312,0.74372846,1.5992452,5
-0.0823410227894783,-10.36935329437256,-2.648977756500244,-1.4556063413619995,0.44440445,0.9627236,5
0.33959779143333435,-11.068583488464355,-2.046470642089844,-1.5852094888687134,-0.7831292,0.29657507,5
0.31222909688949585,-10.988950729370117,-1.2327349185943604,-1.6426682472229004,-1.1792754,0.20799962,5
-0.5608612895011902,-10.07919979095459,-0.5352762937545776,-1.6330111026763916,-0.6056729000000001,0.9437868,5
-1.352790117263794,-9.481610298156738,0.04013721644878388,-1.5285818576812744,-0.9202685,1.2794572,5
-1.3683160543441772,-9.631392478942873,0.5567567944526672,-1.380590558052063,-1.6264287,0.98563105,5
-0.7550671696662903,-9.998123168945312,0.7880579233169556,-1.2451767921447754,-1.6786577,0.5821546,5
0.1950887888669968,-10.223825454711914,0.5598410964012146,-1.0626033544540403,-0.5653558000000001,0.22113322,5
1.0297534465789795,-10.689081192016602,0.3558118939399719,-0.8162349462509155,0.34941490000000003,-0.047647487,5
1.4918763637542725,-11.529244422912598,0.3938888311386109,-0.4935353398323059,0.5882632,-0.42180246,5
1.5042780637741089,-12.506086349487305,0.8237780332565308,-0.08720125257968903,0.6383542,-0.9804387,5
1.1011793613433838,-13.195404052734375,1.5585271120071411,0.3435189425945282,0.029321533,-1.4068227,5
0.5634376406669617,-13.737351417541506,2.1947546005249023,0.8462275862693787,-0.3109304,-1.7440202,5
0.13661044836044312,-14.374116897583008,2.292804718017578,1.3374385833740234,-0.26206118,-2.1285598,5
0.08498026430606842,-15.057101249694824,1.594347596168518,1.542628049850464,0.27366763,-2.5534167,5
0.18796373903751373,-15.159409523010256,0.2557000517845154,1.5756425857543943,0.6203337,-2.4483478,5
0.0195155031979084,-14.66225814819336,-1.6207021474838257,1.6542595624923706,3.662137,-1.7974709,5
-0.6058938503265381,-14.146162033081055,-2.1027388572692867,1.6913312673568726,2.688418,-1.7198911,5
-1.0047186613082886,-14.000986099243164,-1.2470028400421145,1.925473928451538,2.0546453,-1.7806721999999997,5
-1.1347763538360596,-13.901217460632324,-0.5575123429298401,2.1476221084594727,2.4605650000000003,-1.6862935,5
-1.252209186553955,-13.224937438964846,-0.6711407303810121,2.297786235809326,2.4920247000000004,-1.611768,5
-1.3356360197067259,-11.70960807800293,-1.0749753713607788,2.4408557415008545,3.0842586,-1.1759156000000002,5
-1.4483318328857422,-9.61947536468506,-1.1449118852615356,2.5326592922210693,2.9654453,-0.8210029000000001,5
-1.6147785186767578,-7.508450984954834,-0.8318019509315491,2.475644588470459,2.3634377,-0.3943135,5
-1.5222285985946655,-5.828525066375732,-0.4362528622150421,2.27030086517334,1.6169603,-0.172264,5
-1.2339746952056885,-4.767003059387207,-0.033276733011007316,1.8967576026916504,0.7987063,-0.38606682,5
-1.104167938232422,-3.756894588470459,0.4205402433872223,1.338666915893555,0.4908302,-0.49968776,5
-1.2873803377151491,-2.811424970626831,1.177972674369812,0.6417073607444763,-0.40011674,-0.34574974,5
-1.3857083320617676,-2.633941173553467,2.409316301345825,0.0721287801861763,-1.4214833999999998,-0.24404067,5
-1.2903050184249878,-3.1077980995178223,2.390056610107422,-0.4479363858699799,-1.6123788,-0.33964106,5
-1.6540018320083618,-4.521644592285156,2.0719573497772217,-1.0844345092773438,-2.273335,0.3472769,5
-1.8104631900787356,-6.931980609893799,2.0402481555938716,-1.2700209617614746,-1.5112807,0.7101309,5
-1.5611027479171753,-8.764768600463867,1.8504718542099,-1.4621803760528564,-1.3817772,0.6771441,5
-1.304449200630188,-9.37391757965088,1.6633762121200562,-1.6025512218475342,-1.4776831,1.0836749,5
-1.1816989183425903,-9.35934829711914,1.3932101726531982,-1.6969903707504272,-1.5125023000000002,1.3839152,5
-1.2348514795303345,-9.185357093811037,1.0467525720596311,-1.783131718635559,-1.8619173,1.4489723,5
-1.2286568880081177,-9.106243133544922,0.5451224446296692,-1.8628158569335935,-1.9294178,1.5619823999999998,5
-1.0884118080139158,-9.318568229675293,0.15585817396640778,-1.9078210592269895,-2.0091357,1.7211128,5
-0.7808104157447815,-9.801263809204102,-0.2309997230768204,-1.9672237634658811,-1.9773707,1.8460348,5
-0.3877647519111633,-10.489327430725098,-0.8123906850814819,-1.969997763633728,-1.5308284,1.8270979,5
0.12306975573301315,-11.151907920837402,-1.4258813858032229,-1.902036190032959,0.26939157,1.3478742,5
0.5741965770721436,-11.318894386291506,-1.4285613298416138,-1.830782771110535,0.183565,0.8567385000000001,5
0.5672929286956787,-10.95444107055664,-1.0496840476989746,-1.694638729095459,-0.7305948,0.54641896,5
0.12538929283618927,-10.424089431762695,-0.7575014233589172,-1.5321568250656128,-1.0225884,0.5757405,5
-0.35394203662872314,-9.903688430786133,-0.6712428331375122,-1.348851203918457,-0.46486846,0.77732605,5
-0.5170084238052368,-9.465323448181152,-0.5258234143257141,-1.205787181854248,-0.7021896,0.61666846,5
-0.4113817811012268,-9.240574836730957,-0.2428819537162781,-1.174997091293335,-1.1896601,0.5207626000000001,5
-0.2357577383518219,-9.217507362365724,-0.03152946755290032,-1.1656172275543213,-1.3607023,0.6035349,5
-0.032116536051034934,-9.455570220947266,-0.017976166680455208,-1.0930254459381104,-0.94959,0.5183192,5
0.2807293236255646,-9.83227825164795,0.014131621457636356,-0.962549328804016,-0.63499445,0.37843102,5
0.5870488882064819,-10.273601531982422,-0.007586670573800801,-0.7939285039901733,-0.13836098,0.21380283,5
0.7940954566001892,-10.896865844726562,-0.14735770225524902,-0.5888215899467468,0.34513888,-0.09590584,5
0.8425790667533875,-11.476327896118164,-0.18287992477416992,-0.3154954016208649,0.8008443000000001,-0.48838675,5
0.637247622013092,-12.147984504699707,0.033243104815483086,-0.018035376444458958,0.8756753,-0.8338310999999999,5
0.15879209339618686,-12.812609672546387,0.5289953351020813,0.2928512692451477,0.7312057,-1.135293,5
-0.4915352463722229,-13.395309448242188,1.2648615837097168,0.6387011408805847,0.07238753,-1.2574661,5
-0.8292352557182312,-13.981500625610352,1.769500732421875,1.099432110786438,-0.005497787,-1.4654657,5
-0.3780751824378967,-14.804594039916992,1.5990381240844729,1.435360312461853,-0.01985312,-3.3921347,5
0.3072845339775085,-15.045859336853027,0.7565200328826904,1.579853892326355,-0.9578367,-3.2146783,5
0.796830415725708,-14.7357816696167,-0.6975351572036743,1.6264232397079468,1.0574077,-2.3964243,5
0.5578854084014893,-14.049285888671875,-1.7640764713287354,1.6444433927536009,2.8777862,-1.4920383999999998,5
-0.4788228273391724,-13.41010284423828,-2.0924038887023926,1.7103906869888306,3.6884043,-1.4883732,5
-1.1916459798812866,-12.89995574951172,-1.262980580329895,1.9511138200759888,2.5818220000000003,-1.3826935,5
-1.5874124765396118,-12.405211448669435,-0.6498498916625977,2.2327501773834233,2.7574458,-1.3726143,5
-1.715912938117981,-11.548340797424315,-0.7311539649963379,2.4314780235290527,2.6364944,-1.2290609,5
-1.5943144559860232,-9.999929428100586,-0.6163851022720337,2.599031925201416,2.3127358,-0.79320854,5
-1.5587055683135986,-8.347673416137695,-0.3749741315841675,2.709562063217163,2.2049181,-0.30482176,5
-1.6967034339904783,-6.855405330657959,-0.09714191406965256,2.6786327362060547,1.6563611,-0.10903945,5
-1.75157368183136,-5.650925636291504,0.15791234374046326,2.506499528884888,1.1838568,-0.079107046,5
-1.6472420692443848,-4.8150553703308105,0.49391531944274897,2.1876170635223393,0.5439755000000001,-0.24587326,5
-1.4820916652679443,-4.251478195190431,0.8798598647117615,1.6853854656219482,0.35735616,-0.52442783,5
-1.3157883882522583,-3.662976980209351,1.381781816482544,1.0218988656997678,0.21563543,-0.74220127,5
-1.1776870489120483,-3.113706111907959,2.3086438179016118,0.2781883776187897,-1.1258247,-0.4016439000000001,5
-1.018840789794922,-3.463068723678589,4.023838996887207,-0.16980493068695068,-2.4263568,-0.092240654,5
-1.0534420013427734,-4.777528762817383,4.103224277496338,-0.6086753606796265,-2.159714,-0.053145275,5
-1.1699488162994385,-7.090852737426758,3.489823579788208,-1.167804718017578,-2.1255057,0.56169057,5
-1.0235358476638794,-9.146574020385742,2.9101133346557617,-1.3863425254821775,-1.4361442,0.7648033000000001,5
-1.0113515853881836,-9.884345054626463,2.627725839614868,-1.5398085117340088,-1.4367551,0.84665924,5
-1.1649757623672483,-9.601899147033693,2.429428577423096,-1.638114333152771,-1.6942346999999998,1.0928379,5
-1.3991767168045044,-9.04499053955078,2.158060073852539,-1.7404193878173828,-2.1988094,1.3066407,5
-1.6344450712203982,-8.693600654602049,1.6273523569107056,-1.880725383758545,-2.7165177000000003,1.4251486,5
-1.6599384546279907,-8.87817668914795,0.7369422912597656,-2.023351192474365,-2.5247061,1.5195273,5
-1.345240354537964,-9.363524436950684,-0.1215301975607872,-2.08862853050232,-1.8735237,1.6636915,5
-0.7107224464416504,-9.866634368896484,-0.6168410778045654,-2.0960988998413086,-1.6636915,1.4822645,5
-0.047663107514381416,-10.087620735168457,-0.7990140318870544,-2.083038330078125,-2.0583105,1.3084733,5
0.4751210510730744,-10.100366592407227,-1.0762887001037598,-2.0315985679626465,-1.5143349,1.0757337,5
0.9354891180992126,-10.024227142333984,-1.2188941240310671,-1.9390314817428589,-0.54275376,1.0299188,5
1.1571308374404907,-9.75314712524414,-1.111780881881714,-1.7552636861801147,-0.061391957,1.0797043,5
1.1352190971374512,-9.499798774719238,-0.890234112739563,-1.528914213180542,-0.29352075,1.0592403,5
1.132737398147583,-9.435708999633787,-0.7278593182563782,-1.347151517868042,-0.8961393,0.64812803,5
1.2318984270095823,-9.393940925598145,-0.620533287525177,-1.2284481525421145,-1.187522,0.39187005,5
1.1999928951263428,-9.238557815551758,-0.5848318934440613,-1.1407105922698977,-0.9569204,0.34177909999999995,5
1.0818909406661987,-9.094082832336426,-0.6133333444595337,-1.0791854858398438,-0.6753115,0.38056904,5
1.015008807182312,-9.289652824401855,-0.4953188300132752,-1.0342116355895996,-0.88117313,0.46211955,5
0.9855620861053468,-9.545870780944824,-0.4492844343185425,-0.9529863595962524,-1.0363328,0.44073927,5
0.8502996563911438,-9.86336898803711,-0.5874568223953247,-0.8282988667488098,-0.36560285,0.5546656,5
0.5825533866882324,-10.31738567352295,-0.7231777906417847,-0.6799659729003906,-0.036651913,0.52564955,5
0.2744007706642151,-10.990530967712402,-0.8761484026908875,-0.5356394648551941,0.33628133,0.38881573,5
0.07503712177276611,-11.842239379882812,-0.986516773700714,-0.3866414129734039,0.6597345,0.12736541,5
-0.15639758110046387,-12.656213760375975,-0.6660369038581848,-0.19232533872127533,0.4981606,-0.19394971,5
-0.4806501269340515,-13.284262657165527,-0.1731891632080078,0.008596215397119522,0.46639562,-0.48838675,5
-0.8797159194946289,-13.673776626586914,0.308906614780426,0.21271857619285586,0.47891834,-0.8179486,5
-1.0693291425704956,-13.8023099899292,0.8746716976165771,0.4917773604393005,-0.12858713,-1.0891727,5
-0.8884860277175903,-13.956254005432127,1.3033285140991209,0.8811492323875427,-0.88147855,-1.3570372,5
-0.3427233397960663,-14.220329284667967,0.9278041124343872,1.2909083366394043,0.05681047,-2.3835962000000004,5
0.6543756127357483,-14.546028137207033,0.11652088910341266,1.3732913732528689,-0.59742624,-3.1505375,5
1.435529351234436,-14.195952415466307,-0.6682546138763428,1.3613748550415041,0.77732605,-2.0983222,5
1.5040603876113892,-13.712550163269045,-1.2674877643585205,1.408639907836914,2.2128594,-1.5833627,5
0.4250105619430542,-13.171357154846193,-1.6168445348739624,1.553202509880066,3.0546317000000003,-1.4184291,5
-0.5753763318061829,-12.425908088684082,-1.5413070917129517,1.7315925359725952,3.9275582,-1.142318,5
-0.8735281825065613,-12.025503158569336,-0.7512048482894897,1.9984339475631716,2.0793853,-1.4941764,5
-0.8008829951286316,-11.735644340515135,-0.32954949140548706,2.272984743118286,2.281887,-1.4816537,5
-0.5951201319694519,-11.231268882751463,-0.1171475201845169,2.4325168132781982,2.1129830000000003,-1.4587462,5
-0.4842679798603058,-10.436741828918457,0.02379206381738186,2.548331022262573,2.3420575,-1.310306,5
-0.5242837071418762,-9.408817291259766,0.118731752038002,2.650853157043457,2.4636195,-1.1410962,5
-0.6821819543838501,-8.299537658691406,0.23921337723731995,2.6471271514892583,2.2632558,-0.9447031,5
-0.7510507106781006,-7.147629261016847,0.3566131293773651,2.569774627685547,1.9462167,-0.6921103,5
-0.6861945986747742,-6.150984764099121,0.5329636931419373,2.417710304260254,1.7046194,-0.61636305,5
-0.5753756165504456,-5.4146575927734375,0.8290700316429138,2.1869263648986816,1.4865406,-0.6640105,5
-0.5575860142707825,-4.902658939361572,1.2542201280593872,1.8672235012054443,1.1914927,-0.8194756999999999,5
-0.6193533539772034,-4.561758995056152,1.806383848190308,1.5058660507202148,0.8222246,-0.98349303,5
-0.7120146155357361,-4.466932773590088,2.371667623519897,1.144531011581421,0.42852196,-1.178359,5
-0.7918113470077515,-4.591381072998047,2.8214216232299805,0.805192768573761,0.46670106,-1.3048081,5
-0.6624681949615479,-4.658031463623047,3.225017070770264,0.4911893606185913,0.7684685,-1.2596041,5
-0.2498685568571091,-4.43317461013794,3.8913514614105225,0.1829807609319687,0.7281514,-0.9960158,5
0.2914337813854217,-4.2488722801208505,4.677637100219727,-0.11960739642381668,0.44318274,-0.77640975,5
0.9469337463378906,-4.358865737915038,5.419004440307617,-0.4164115488529205,0.06078109,-0.6951646,5
1.5801438093185425,-5.2849202156066895,6.4070496559143075,-0.6420558094978333,-0.29871312,-0.5879578000000001,5
1.7340561151504517,-6.7023234367370605,6.736623764038086,-0.7250334024429321,0.3622431,-0.204029,5
1.1266465187072754,-7.774139404296875,6.7956647872924805,-0.7241389155387878,0.31978795,0.16890424,5
0.5530123114585876,-8.318839073181152,6.840947151184082,-0.7870856523513794,0.40439278,0.419359,5
0.29648467898368835,-8.253273963928223,6.470407009124756,-0.9380349516868592,0.07452556,0.10934488,5
0.26126956939697266,-8.027488708496094,6.120893955230713,-1.152430772781372,-0.45051312,0.12492194,5
0.4071617424488068,-7.853837490081787,5.56957483291626,-1.3447576761245728,-0.52442783,0.14905111,5
0.4833278656005859,-7.717857837677003,4.996243953704834,-1.5162545442581177,-0.5537493,0.22204952,5
0.5218056440353394,-7.771383285522461,4.4165611267089835,-1.6567996740341189,-0.6722571999999999,0.3726278,5
0.4480329751968384,-8.042413711547853,3.8293802738189697,-1.7443532943725586,-0.46609017,0.6017023,5
0.43443417549133295,-8.477116584777832,3.263929843902588,-1.8056182861328125,-0.45112398,0.6627888000000001,5
0.478532999753952,-8.921611785888672,2.749936103820801,-1.828462600708008,-0.38423425,0.7147123000000001,5
0.5363067984580994,-9.192131996154783,2.325035572052002,-1.814830183982849,-0.31398472,0.88117313,5
0.59031742811203,-9.228177070617676,1.917529344558716,-1.7775324583053589,-0.1020145,1.1297953,5
0.664634108543396,-9.167555809020996,1.4861389398574831,-1.7068344354629517,0.102319926,1.3228287,5
0.7223673462867737,-9.121688842773438,1.04377543926239,-1.592970609664917,0.32528573,1.4309518,5
0.7365438342094421,-9.191205024719238,0.6527758240699768,-1.4608731269836426,0.52106804,1.4181237,5
0.7219637036323547,-9.33461093902588,0.34946882724761963,-1.347950458526611,0.6582073,1.325883,5
0.729084849357605,-9.4979829788208,0.09486757963895798,-1.2741236686706543,0.90224797,1.1572843000000002,5
0.7763050198554993,-9.600765228271484,-0.05905750393867493,-1.2286580801010132,0.94225967,0.9825767,5
0.8086917400360107,-9.627439498901367,-0.13848282396793365,-1.1891944408416748,0.9822713,0.75502944,5
0.8031559586524963,-9.618145942687988,-0.2372342497110367,-1.1374061107635498,1.1209377,0.53786683,5
0.7264566421508789,-9.582134246826172,-0.3410935997962952,-1.077174425125122,1.1905763,0.41691554,5
0.5448789000511169,-9.484365463256836,-0.4760007858276367,-1.0245441198349001,1.2944235,0.43188173,5
0.32096150517463684,-9.425272941589355,-0.5946366786956787,-0.9681727290153505,1.3344351,0.4999932,5
0.07268013060092926,-9.419261932373047,-0.7124952077865601,-0.9069278836250304,1.3649784,0.5158757,5
-0.16634123027324674,-9.412333488464355,-0.7150880694389343,-0.825713574886322,1.269378,0.4896085,5
-0.3481174409389496,-9.519102096557617,-0.6264530420303345,-0.7458332180976868,0.91324353,0.42302418,5
-0.4418048560619354,-9.680832862854004,-0.5287328362464905,-0.6760902404785156,0.6383542,0.3191771,5
-0.4622821509838104,-9.777294158935547,-0.5863520503044128,-0.6088315844535828,0.5271766999999999,0.17195857,5
-0.4488615393638611,-9.789152145385742,-0.7943143248558044,-0.5528367757797241,0.34147367,0.051618114000000014,5
-0.5121737122535706,-9.777005195617676,-1.1773850917816162,-0.5333850979804993,0.30848694,-0.0033597588,5
-0.7518483996391296,-9.740139961242676,-1.6620019674301147,-0.5251476764678955,0.39584067,-0.05375614,5
-1.1725919246673584,-9.512516975402832,-2.1211409568786617,-0.5280090570449829,0.795652,0.01740966,5
-1.7166182994842532,-9.183594703674316,-2.4182610511779785,-0.5542534589767456,0.91751957,0.2733622000000001,5
-2.296404361724853,-8.886143684387207,-2.621558427810669,-0.5850093960762024,1.1921035,0.5186246,5
-2.7585430145263667,-8.726688385009767,-2.6633846759796143,-0.584705650806427,1.2968669,0.5348125,5
-2.9744565486907963,-8.893157005310059,-2.425774335861206,-0.5399401783943176,0.83169305,0.2773328,5
-2.9957642555236816,-9.255338668823242,-1.8882936239242556,-0.4570386409759522,-0.048258353,0.034208454,5
-3.035455703735352,-9.65965747833252,-1.2705825567245483,-0.3536863327026367,-0.6731735,-0.029626964,5
-3.080259084701538,-9.852858543395996,-0.9887904524803162,-0.2451613843441009,-0.7849618,0.048563786,5
-3.020827531814575,-9.791691780090332,-1.184000849723816,-0.141813725233078,-0.6236934000000001,0.08368854,5
-2.8352768421173096,-9.651780128479004,-1.6057114601135254,-0.045742783695459366,-0.25442538,0.08124508,5
-2.577474355697632,-9.578471183776855,-1.9107105731964111,0.033877041190862656,0.07086037,0.016187929,5
-2.348841428756714,-9.581465721130373,-1.9045610427856443,0.10348162800073624,-0.54336464,-0.09712757,5
-2.1147851943969727,-9.609495162963867,-1.8556573390960691,0.19747622311115265,-1.1695015,-0.2706133,5
-2.030272483825684,-9.609344482421877,-2.0989325046539307,0.17369097471237185,1.2302825000000002,-0.23671028,5
-2.046405553817749,-9.463688850402832,-2.0103311538696294,0.11064238101243973,1.10139,-0.21838433,5
-2.095377206802368,-9.33659839630127,-1.6276109218597412,0.14069782197475433,0.42730024,-0.28283059999999993,5
-2.1421427726745605,-9.26988697052002,-1.3715661764144895,0.24882233142852786,0.17501289,-0.31215215,5
-2.054096221923828,-9.31696319580078,-1.3707034587860107,0.35707756876945496,0.33108896,-0.32620203,5
-1.8590329885482788,-9.378538131713867,-1.3311777114868164,0.4377677440643311,0.28680122,-0.39950588,5
-1.678214430809021,-9.473331451416016,-1.214232087135315,0.506514847278595,0.2125811,-0.46211955,5
-1.5664671659469604,-9.592137336730957,-1.0836360454559326,0.5755720138549805,0.24556783,-0.47708577,5
-1.4960980415344238,-9.748723983764648,-0.9948659539222716,0.6444510817527771,0.31795537,-0.48930305,5
-1.5081332921981812,-9.965880393981934,-0.9404526948928832,0.6900814175605774,0.40561453,-0.51251596,5
-1.5920847654342651,-10.109163284301758,-0.8708579540252686,0.6996870636940002,0.35216382,-0.54641896,5
-1.7198607921600342,-10.159842491149902,-0.7806568145751953,0.6979633569717407,0.3277292,-0.55863625,5
-1.828969955444336,-10.144902229309082,-0.6880092620849609,0.6883203387260437,0.39522982,-0.44898596,5
-1.8665186166763303,-10.041285514831543,-0.5929050445556641,0.6697949767112732,0.43463063,-0.29749137,5
-1.8369373083114624,-9.828935623168944,-0.4801568686962128,0.6360462307929993,0.45875978,-0.10170906,5
-1.7534149885177612,-9.564718246459961,-0.3794459700584412,0.5820931196212769,0.46028697,0.10354166,5
-1.6435019969940186,-9.294944763183594,-0.2752725183963776,0.510637640953064,0.4071417,0.22082779,5
-1.5786845684051514,-9.065610885620117,-0.2015906423330307,0.4334352016448975,0.41874814,0.30268374,5
-1.553721904754639,-8.861075401306152,-0.1870340704917908,0.3502067923545837,0.50976706,0.37659842,5
-1.5577924251556396,-8.657283782958983,-0.19859160482883453,0.2478741556406021,0.6310238,0.4801401,5
-1.6533058881759644,-8.613907814025879,-0.22947710752487185,0.11836870014667512,0.61453044,0.5561928,5
-1.8101130723953247,-8.672913551330566,-0.2780704200267792,-0.032876335084438324,0.6218608,0.72021013,5
-1.9880629777908323,-8.796822547912598,-0.3139429986476898,-0.20556147396564484,0.39003745,0.7788531999999999,5
-2.1670763492584233,-9.12327480316162,-0.24138158559799194,-0.34395626187324524,0.5500841999999999,0.8671232,5
-2.328702688217163,-9.639628410339355,0.08740504086017609,-0.4141545295715332,0.61911196,0.8863655,5
-2.333531141281128,-10.229270935058594,0.5654327273368835,-0.4050065577030182,0.35338554,0.8918633,5
-2.0878858566284184,-10.64163875579834,0.7537631392478943,-0.4309425055980681,0.3005457,0.72326446,5
-1.7290470600128174,-10.577560424804688,0.7200729250907898,-0.4877158105373383,-0.5393939999999999,0.38148534,5
-1.4861077070236206,-10.264293670654297,0.4242887198925018,-0.5573378801345825,-1.0415252000000002,-0.0125227375,5
-1.4975587129592896,-9.785633087158203,-0.11457985639572145,-0.6229719519615173,-0.35277468,-0.02321288,5
-1.8243215084075928,-9.236553192138672,-0.5971056222915649,-0.6596161723136902,0.68569624,0.32406402,5
-2.1154630184173584,-8.992883682250977,-0.5699566006660461,-0.6371207237243652,0.4428773,0.45540005,5
-2.172940492630005,-9.055657386779783,-0.29989105463027954,-0.598145067691803,-0.09896017,0.3100141,5
-2.1148364543914795,-9.197620391845703,-0.233347162604332,-0.5522080063819885,-0.2919936,0.1826487,5
-2.0273921489715576,-9.271337509155273,-0.4582919478416443,-0.4758358001708984,-0.21746802,0.08307768,5
-2.002394437789917,-9.38945770263672,-0.6693576574325562,-0.4027893841266632,-0.22296582,-0.040317107000000005,5
-2.060052394866944,-9.550421714782717,-0.7871055603027344,-0.3648810386657715,-0.3042109000000001,-0.12797627,5
-2.229128122329712,-9.575204849243164,-0.9250773787498474,-0.3476581871509552,-0.16035213,-0.1255328,5
-2.409825086593628,-9.506455421447754,-1.0214812755584717,-0.3314642310142517,0.032070424,-0.040927973,5
-2.459990262985229,-9.477721214294434,-0.9902918338775636,-0.2994643151760101,0.017715093,0.036957346,5
-2.4037227630615234,-9.499680519104004,-0.9360529780387878,-0.25510963797569275,-0.18142697,0.0021380284,1
-2.374587297439575,-9.526654243469238,-1.0162999629974363,-0.2288895845413208,-0.09682214,-0.013133603,1
-2.3903205394744877,-9.479209899902344,-1.1531808376312256,-0.21502816677093506,0.053145275,0.015577064,1
-2.416709899902344,-9.430755615234377,-1.2189987897872925,-0.1945728063583374,0.021380283,0.02687807,1
-2.408320665359497,-9.364459991455078,-1.249545693397522,-0.16891947388648987,-0.034208454,0.01038471,1
-2.404404163360596,-9.318065643310547,-1.2821578979492188,-0.15552863478660586,-0.086132,-0.022602014,1
-2.4339673519134517,-9.355525016784668,-1.3488385677337646,-0.1512741595506668,-0.09315695,-0.018020526,1
-2.487878799438477,-9.33523941040039,-1.417970895767212,-0.15799012780189514,-0.07941248,-0.03481932,1
-2.5302884578704834,-9.33004665374756,-1.491627812385559,-0.15650348365306854,-0.23335053,0.0036651916,1
-2.5360398292541504,-9.311306953430176,-1.585336685180664,-0.1408952623605728,-0.13652839,-0.00580322,1
-2.526585340499878,-9.274480819702148,-1.6429282426834106,-0.14636331796646118,-0.013744468,0.0018325958,1
-2.4903719425201416,-9.251038551330566,-1.6395593881607056,-0.14913563430309296,-0.07819075,0.0125227375,1
-2.453495502471924,-9.25826358795166,-1.6415706872940063,-0.1420246660709381,-0.13103059,0.005192355,1
-2.4160284996032715,-9.284266471862793,-1.6739237308502195,-0.1412973254919052,-0.076358154,0.0076358155,1
-2.3685376644134517,-9.267098426818848,-1.6964120864868164,-0.14887389540672302,-0.052534413,0.020463986,1
-2.334717035293579,-9.240195274353027,-1.7050710916519165,-0.15482646226882935,-0.04062254,0.010690141499999998,1
-2.3190743923187256,-9.21314525604248,-1.7066999673843384,-0.16774596273899078,0.06780604,0.00061086525,1
-2.308899402618408,-9.252034187316896,-1.658698558807373,-0.17349474132061005,0.06658431,0.02443461,1
-2.287492036819458,-9.350221633911133,-1.5578131675720217,-0.17415782809257507,-0.07574729,0.029626964,1
-2.282792568206787,-9.494421005249023,-1.4917975664138794,-0.17743396759033206,-0.19333886,-0.06597344599999999,1
-2.311148166656494,-9.60610294342041,-1.498351812362671,-0.1770121306180954,-0.14721853,-0.19272798,1
-2.389883518218994,-9.690912246704102,-1.5275176763534546,-0.16244925558567047,-0.183565,-0.26511553,1
-2.489359140396118,-9.697391510009766,-1.5612232685089111,-0.12952759861946106,-0.26816985,-0.28496864,1
-2.564382076263428,-9.579732894897461,-1.6384421586990356,-0.0962665230035782,-0.21471913,-0.20891592,1
-2.5553884506225586,-9.361356735229492,-1.7371448278427124,-0.07702895253896712,-0.21655174,-0.13683382,1
-2.5129783153533936,-9.142919540405273,-1.8338112831115725,-0.06559941917657852,-0.22602014,-0.032986723,1
-2.4594197273254395,-9.019457817077637,-1.9200294017791748,-0.059990212321281426,-0.0015271631,0.035430185,1
-2.4097580909729004,-8.9985990524292,-1.9317201375961304,-0.07226432859897614,0.07360926,0.064751714,1
-2.3547465801239014,-9.028687477111816,-1.9261382818222048,-0.09098337590694427,0.016493361,0.07941248,1
-2.288693904876709,-9.083685874938963,-1.9722508192062376,-0.1027487963438034,0.03145956,0.048563786,1
-2.248318672180176,-9.155531883239746,-2.0272035598754883,-0.11699385195970535,0.27550024,0.0290161,1
-2.217713594436645,-9.22847843170166,-2.021972894668579,-0.14297567307949066,0.42180246,0.04153884,1
-2.192710399627685,-9.311258316040039,-1.944082736968994,-0.15382714569568634,0.1994475,0.060170225999999986,1
-2.16827130317688,-9.390673637390137,-1.8519220352172847,-0.13656145334243774,-0.018020526,0.014660766,1
-2.1615867614746094,-9.430500030517578,-1.8214915990829468,-0.12041007727384567,0.004276057,-0.035430185,1
-2.1923904418945312,-9.419930458068848,-1.8446122407913208,-0.10341791063547134,0.0571159,-0.064446285,1
-2.2307283878326416,-9.376415252685547,-1.8608238697052,-0.08843708038330078,0.17287487,-0.028405234,1
-2.277875661849976,-9.321858406066896,-1.854505181312561,-0.07456258684396744,0.16096300000000002,0.016798794,1
-2.3094770908355717,-9.300277709960938,-1.833194375038147,-0.06007868424057961,0.014660766,0.03023783,1
-2.327972173690796,-9.316427230834961,-1.8147611618041992,-0.04408519715070725,-0.17898351,-0.017104227,1
-2.332588195800781,-9.339591979980467,-1.804179310798645,-0.040131449699401855,-0.24129178,-0.07147124,1
-2.3258068561553955,-9.342209815979004,-1.7983925342559814,-0.054626848548650735,-0.16401732,-0.08704830000000001,1
-2.305388927459717,-9.339914321899414,-1.7783386707305908,-0.07269822806119919,-0.06536258,-0.05955936,1
-2.24830174446106,-9.333244323730467,-1.766748547554016,-0.07547855377197266,-0.06383542,-0.0033597588,1
-2.1472735404968257,-9.345925331115724,-1.797980546951294,-0.061132684350013726,-0.05681047,0.0070249503,1
-2.056017637252808,-9.354392051696776,-1.8557417392730715,-0.05037688463926315,0.020463986,0.0076358155,1
-1.9972882270812988,-9.350899696350098,-1.890724301338196,-0.05102354660630226,0.15363261,0.036651913,1
-1.9540467262268064,-9.32623291015625,-1.9109822511672971,-0.05581756681203842,0.27977628,0.042760565999999986,1
-1.920576810836792,-9.276273727416992,-1.9242149591445925,-0.06967252492904663,0.4071417,0.04520403,1
-1.9160282611846924,-9.257463455200195,-1.9593573808670044,-0.07799714058637619,0.4474588,0.09193522,1
-1.9245160818099976,-9.273381233215332,-1.977386832237244,-0.07084713876247406,0.3042109000000001,0.103847094,1
-1.9449150562286377,-9.30029010772705,-1.976022243499756,-0.06291577219963074,0.1872302,0.08827003,1
-1.9980536699295044,-9.353696823120117,-1.989764928817749,-0.05323852598667145,0.20463985,0.061391957,1
-2.072461605072021,-9.427807807922363,-1.9993005990982056,-0.03558502718806267,0.21105394,0.029932396,1
-2.142274141311645,-9.46395206451416,-1.9890360832214355,-0.011128884740173815,0.19608775,-0.0027488936,1
-2.2008657455444336,-9.438375473022461,-1.956563115119934,0.009179746732115746,0.14905111,-0.01985312,1
-2.2489466667175293,-9.394034385681152,-1.9575095176696775,0.01237991452217102,0.083383106,-0.007330383,1
-2.2914655208587646,-9.34068775177002,-1.9782330989837649,0.014809669926762581,-0.0012217305,-0.007941248,1
-2.3111097812652592,-9.283729553222656,-1.9864765405654907,0.019458042457699776,-0.06872234,-0.00030543262000000003,1
-2.2885301113128658,-9.2343168258667,-1.9860163927078247,0.02006242424249649,-0.048563786,-0.004886922,1
-2.2532389163970947,-9.222784042358398,-1.996121525764465,0.008278094232082367,0.0033597588,0.0009162979,1
-2.230445384979248,-9.231488227844238,-2.0111868381500244,-0.004578361753374338,0.04428773,0.011911872,1
-2.202585935592652,-9.244730949401855,-2.0168809890747066,-0.009062044322490692,0.093767814,0.017715093,1
-2.1706554889678955,-9.26738739013672,-2.011660099029541,-0.01360819861292839,0.13744467,0.025045475,1
-2.1413204669952397,-9.285418510437012,-2.0016036033630367,-0.02201426960527897,0.1133155,0.03145956,1
-2.1127874851226807,-9.286293983459473,-1.9812655448913572,-0.03709729760885239,0.03268129,0.030543262,1
-2.102163791656494,-9.28331470489502,-1.961795449256897,-0.05489281564950943,-0.01740966,0.025045475,1
-2.132006883621216,-9.2803373336792,-1.9533727169036863,-0.059471208602190025,-0.02565634,0.021685716,1
-2.1421873569488525,-9.27348518371582,-1.9479820728302,-0.05156242474913597,0.14966199,0.052534413,1
-2.1008126735687256,-9.285008430480957,-1.9290544986724851,-0.04373757168650627,0.17684549,0.061391957,1
-2.0263147354125977,-9.29538345336914,-1.920752763748169,-0.03393126651644707,0.15210545,0.054061573,1
-1.9400798082351685,-9.30367946624756,-1.9483293294906616,-0.027327023446559903,0.17379116,0.0143553335,1
-1.871323823928833,-9.328282356262207,-1.9918364286422732,-0.026076089590787888,0.22021692,-0.0012217305,1
-1.8488709926605225,-9.352293014526367,-2.0105545520782466,-0.030525555834174163,0.21319197,-0.0125227375,1
-1.853782057762146,-9.363505363464355,-2.007796049118042,-0.032599061727523804,0.18020524,-0.026267206,1
-1.8806771039962769,-9.363152503967283,-1.9923001527786253,-0.037404153496026986,0.22143865,-0.039095376,1
-1.9240827560424805,-9.348872184753418,-1.994195342063904,-0.04626553505659104,0.25900686,-0.027488936,1
-1.980558156967163,-9.330554962158203,-2.0043327808380127,-0.05111018940806389,0.17531833,-0.0036651916,1
-2.041999101638794,-9.315258026123047,-2.040057420730591,-0.04461406171321869,0.09560041,0.004581489,1
-2.1033875942230225,-9.30054759979248,-2.098428249359131,-0.03701449930667877,0.06719518,0.0009162979,1
-2.1557822227478027,-9.276128768920898,-2.151198148727417,-0.04058508202433586,0.09437868,0.00061086525,1
-2.208710193634033,-9.240795135498047,-2.1741631031036377,-0.04773959517478943,0.064751714,0.0015271631,1
-2.2598156929016118,-9.192917823791504,-2.1783478260040283,-0.060579750686883926,0.061086524,0.023823744,1
-2.2914721965789795,-9.140814781188963,-2.17578649520874,-0.07103995978832245,0.021685716,0.06566802,1
-2.3177037239074707,-9.126163482666016,-2.150595426559448,-0.07167381793260574,-0.06261369,0.05467244,1
-2.3545591831207275,-9.132768630981444,-2.107006072998047,-0.07211998105049132,-0.103847094,0.03023783,1
-2.404880285263061,-9.189446449279783,-2.069160461425781,-0.07938745617866516,-0.08827003,0.028710667,1
-2.4333336353302,-9.308760643005373,-2.0418879985809326,-0.08443432301282883,0.032375857,0.05375614,1
-2.4123647212982178,-9.432268142700195,-2.0068631172180176,-0.07765982300043106,0.092240654,0.06597344599999999,1
-2.324575901031494,-9.500659942626953,-1.9808406829833984,-0.05659057945013046,0.029626964,0.06169739,1
-2.20247483253479,-9.47848129272461,-1.99233877658844,-0.035957925021648414,-0.05681047,0.030543262,1
-2.0869691371917725,-9.354596138000488,-2.0437977313995357,-0.023535922169685364,-0.08277224,0.023823744,1
-1.9942076206207275,-9.230931282043457,-2.0785462856292725,-0.021919360384345055,-0.05955936,0.029626964,1
-1.931334137916565,-9.196242332458496,-2.082913875579834,-0.0339357815682888,-0.005192355,0.039095376,1
-1.9060899019241333,-9.228095054626463,-2.056234359741211,-0.04542594403028488,-0.007330383,0.05955936,1
-1.9029268026351929,-9.292981147766113,-2.047067403793335,-0.05033650249242783,-0.0036651916,0.0711658,1
-1.907291412353516,-9.355855941772461,-2.0591726303100586,-0.05575458705425263,-0.0125227375,0.054061573,1
-1.920492887496948,-9.39523983001709,-2.0830678939819336,-0.06305339187383653,-0.01038471,0.032070424,1
-1.9529368877410889,-9.4039888381958,-2.085308313369751,-0.06880594044923782,-0.0290161,0.003970624,1
-2.002655029296875,-9.382684707641602,-2.0743284225463867,-0.07178232073783875,-0.070249505,-0.014660766,1
-2.0733931064605717,-9.36337947845459,-2.0479586124420166,-0.0721830204129219,-0.08460484,-0.019547688,1
-2.1487596035003658,-9.345962524414062,-2.0293757915496826,-0.07330547273159027,-0.11026118,-0.02443461,1
-2.1924712657928467,-9.309309005737305,-2.0276813507080083,-0.0706387534737587,-0.1600467,-0.027488936,1
-2.19845986366272,-9.26632308959961,-2.0488486289978027,-0.0651392862200737,-0.19425514,-0.031154128,1
-2.1902940273284908,-9.245162963867188,-2.0972254276275635,-0.06261146813631058,-0.18906279,-0.024129177,1
-2.1635274887084956,-9.233809471130373,-2.1624431610107417,-0.06304402649402617,-0.16462818,-0.0143553335,1
-2.1229467391967773,-9.23043441772461,-2.2249376773834233,-0.06658526510000229,-0.13011430000000002,0.0009162979,1
-2.086834669113159,-9.238849639892578,-2.270627498626709,-0.07305534929037094,-0.06811147,0.020463986,1
-2.050366163253784,-9.252728462219238,-2.2989521026611333,-0.07732623815536499,-0.010690141499999998,0.035430185,1
-2.0056755542755127,-9.264426231384276,-2.307987928390503,-0.07644468545913696,0.007941248,0.042455133,1
-1.9586273431777956,-9.291107177734377,-2.31355619430542,-0.07109850645065308,0.021380283,0.022907447,1
-1.9385504722595213,-9.305866241455078,-2.328732967376709,-0.06511241942644119,0.03390302,0.002443461,1
-1.947827100753784,-9.300705909729004,-2.33367133140564,-0.05841730535030365,0.03726278,0.00030543262000000003,1
-1.9826302528381348,-9.279562950134276,-2.326369285583496,-0.05270715057849884,0.03268129,0.022602014,1
-2.0326399803161617,-9.255349159240724,-2.3208770751953125,-0.05149134248495102,0.04886922,0.03359759,1
-2.0896565914154053,-9.24022388458252,-2.3078010082244877,-0.05192440375685692,0.076052725,0.039095376,1
-2.139019012451172,-9.226933479309082,-2.2776963710784908,-0.05366005003452301,0.084910266,0.04917465,1
-2.1792116165161133,-9.222759246826172,-2.250966310501098,-0.054161246865987785,0.07666359,0.055283304000000005,1
-2.201701641082764,-9.219122886657717,-2.2349555492401123,-0.05304525047540665,0.07238753,0.061086524,1
-2.2098844051361084,-9.21341609954834,-2.2203173637390137,-0.052639104425907135,0.04428773,0.046731193,1
-2.2153711318969727,-9.229859352111816,-2.205746650695801,-0.05125104263424874,0.01038471,0.03145956,1
-2.215825319290161,-9.2645902633667,-2.1864669322967534,-0.04782768338918686,-0.009162978,0.022296581,1
-2.2063686847686768,-9.287898063659668,-2.1879124641418457,-0.04465606063604355,-0.028099801,0.010690141499999998,1
-2.1950159072875977,-9.289843559265137,-2.201594352722168,-0.043133530765771866,-0.05009095,0.00061086525,1
-2.1904432773590092,-9.27263641357422,-2.212786912918091,-0.04080529883503914,-0.03145956,0.01038471,1
-2.2018282413482666,-9.255752563476562,-2.208337783813477,-0.04024171456694603,-0.024129177,0.013439035,1
-2.2154576778411865,-9.239157676696776,-2.2036540508270264,-0.03972404077649117,-0.020158553,0.02321288,1
-2.226825475692749,-9.229479789733887,-2.1993253231048584,-0.038478218019008636,-0.032986723,0.018020526,1
-2.236004590988159,-9.232311248779297,-2.2026586532592773,-0.03755700960755348,-0.031154128,0.03023783,1
-2.2296767234802246,-9.245031356811523,-2.2009243965148926,-0.03842909261584282,-0.012217305,0.02565634,1
-2.2152724266052246,-9.24624252319336,-2.197822093963623,-0.039706658571958535,-0.019547688,0.014660766,1
-2.208349227905273,-9.246493339538574,-2.197856903076172,-0.03967520594596863,-0.018325957,0.0076358155,1
-2.2097609043121342,-9.247486114501953,-2.194573163986206,-0.03937578573822975,-0.01282817,0.002443461,1
-2.210780620574951,-9.243917465209961,-2.201991081237793,-0.037174463272094734,-0.0125227375,0.008552114,1
-2.205340623855591,-9.246886253356934,-2.218538522720337,-0.03485221043229103,-0.032986723,0.008246681,1
