acc_x,acc_y,acc_z,gyro_x,gyro_y,gyro_z,label
0.0,0.0,0.0,0.0,0.03390302,0.036957346,1
-0.0981096178293228,0.26857906579971313,-0.05625651776790619,0.0004279268905520439,0.015271631,0.04062254,1
-0.33126190304756165,0.9088529348373412,-0.19124871492385864,0.0007701399736106397,0.02076942,0.04428773,1
-0.6536022424697876,1.794778823852539,-0.37986862659454346,-0.00029443588573485613,0.04550946,0.029932396,1
-1.0172903537750244,2.7869887351989746,-0.5948804616928101,-0.00430889381095767,0.043676864,0.03145956,1
-1.3820641040802002,3.7731740474700928,-0.8130368590354919,-0.009255073964595795,0.013439035,0.037873644,1
-1.7220757007598877,4.682705879211426,-1.019087553024292,-0.011317919939756392,-0.010995574,0.027488936,1
-2.024670362472534,5.481903076171875,-1.2053158283233645,-0.010217529721558094,-0.00061086525,0.040927973,1
-2.2862095832824707,6.162330627441406,-1.369155764579773,-0.007294971495866774,0.015882496,0.031154128,1
-2.5083670616149902,6.729827880859375,-1.5112420320510864,-0.006572846323251724,0.033292156,0.025961773,1
-2.6953160762786865,7.196821689605713,-1.6337518692016602,-0.00804075226187706,0.022907447,0.022296581,1
-2.8519103527069087,7.577763080596924,-1.7392183542251587,-0.01052639540284872,-0.010079277,0.04428773,1
-2.983081340789795,7.886731147766112,-1.8303824663162231,-0.016003012657165527,-0.009773844,0.051618114000000014,1
-3.099782705307007,8.142447471618652,-1.8985064029693604,-0.021056724712252617,0.046731193,0.062002823,1
-3.1977484226226807,8.380232810974121,-1.869184255599976,-0.0276976078748703,0.010995574,0.0571159,1
-3.21713924407959,8.579386711120605,-1.757845163345337,-0.046916190534830086,-0.07360926,0.09132435,1
-3.1932969093322754,8.772518157958983,-1.6726154088974,-0.08865295350551605,-0.098043874,0.12308934,1
-3.1497154235839844,8.968727111816406,-1.6707122325897217,-0.1402323842048645,-0.12736541,0.1518,1
-3.0919840335845947,9.170442581176758,-1.7137007713317869,-0.19782550632953644,-0.18570304,0.18234327,1
-3.060477495193481,9.34940242767334,-1.7216156721115112,-0.2532159984111786,-0.23273966,0.1994475,1
-3.0662055015563965,9.44314193725586,-1.591081619262695,-0.3050306439399719,-0.49357912,0.20280726,4
-3.121423721313477,9.414216995239258,-1.3635562658309937,-0.35421982407569885,-0.82863873,0.23335053,4
-3.2462821006774902,9.268949508666992,-1.1599798202514648,-0.3903750777244568,-1.0989466,0.25228736,4
-3.4247968196868896,9.094528198242188,-0.9664963483810424,-0.4226883053779602,-1.3264938999999998,0.21013765,4
-3.486358642578125,8.983650207519531,-0.553794264793396,-0.4871613085269928,-1.50731,0.1853976,4
-3.30519437789917,8.964543342590332,0.107747420668602,-0.6300711631774902,-1.5354098,0.28710666,4
-2.79996657371521,8.963521957397461,0.7473952174186707,-0.8930756449699402,-1.5283848,0.45204028,4
-2.1228992938995357,8.737052917480469,1.1512153148651123,-1.3242616653442385,-2.0302107,0.5852089,4
-1.6865354776382446,7.994993209838867,1.0812982320785522,-1.797106385231018,-2.8695395,0.41447207,4
-1.810279965400696,6.8302574157714835,0.06895584613084793,-2.1293632984161377,-0.700357,-0.03848451,4
-2.681747436523437,5.940357685089111,-1.2814481258392334,-2.2016172409057617,5.4812937,-0.44715336,4
-3.5097496509552,6.634829044342041,-0.2534019947052002,-1.9427411556243896,2.9929342,-1.0742066,4
-3.7030212879180913,8.622580528259277,1.0883042812347412,-1.4757294654846191,-1.1808025,0.029932396,4
-4.373961448669434,10.490591049194336,1.4814330339431765,-0.9268198013305664,-0.3368922,0.21533,4
-4.9526543617248535,11.444174766540527,0.987674593925476,-0.3626660108566284,-0.040927973,-0.29962940000000005,4
-5.347804546356201,12.299408912658693,0.2523525953292847,0.2855891287326813,0.70646566,-0.61636305,4
-5.366915702819824,13.38806438446045,0.10437463223934174,0.90134197473526,1.2357804,-0.5665775,4
-4.893103122711182,13.87692928314209,0.4563424289226532,1.1411676406860352,1.2519683,-0.30879238,4
-4.528393268585205,13.230734825134276,0.8988714814186096,0.9861551523208618,1.3045027,-0.045814894,4
-4.443411827087402,11.343392372131348,1.4690065383911133,0.8717755675315857,-0.8521569999999999,-0.68019843,4
-3.7986443042755127,9.129454612731934,1.4122239351272583,0.5497728586196899,-0.65209866,-0.40775254,4
-3.0114028453826904,7.571268558502197,1.3949952125549316,0.2969861924648285,-0.7272350999999999,-0.09682214,4
-2.0135247707366943,6.522789478302003,1.351825714111328,0.04539446160197258,-0.46853364,0.27366763,4
-0.8814393281936646,6.027217388153076,1.1937623023986816,-0.1738276481628418,-0.24404067,0.9114109,4
0.08685780316591263,5.647603511810303,0.9936665892601012,-0.2786790430545807,0.1572978,1.4086553,4
0.7625004649162292,5.06528902053833,0.5623049139976501,-0.2762833535671234,-0.002443461,1.5690073999999998,4
1.0163220167160034,4.240314483642578,-0.017674066126346588,-0.18560636043548584,0.29749137,1.3967434,4
0.6295188665390015,3.509985446929932,-0.3716305494308472,-0.12702907621860504,0.754724,0.80481493,4
0.11919330805540085,3.350757122039795,0.2734488844871521,-0.2596445679664612,-0.6844745,0.52198434,4
-0.8839045763015747,4.0677738189697275,1.1542861461639404,-0.7469317317008972,1.0965031,-0.6249151,4
-3.1348466873168945,5.860359191894531,1.268279790878296,-1.0974881649017334,3.6890152,-2.0402899,4
-5.910554885864258,8.179390907287598,1.491107940673828,-1.0827490091323853,-0.24129178,-0.5345071,4
-7.389302253723144,10.182487487792967,1.3747509717941284,-0.8952159881591797,-1.1517864,-0.84391034,4
-7.241682529449463,11.945600509643555,1.1300702095031738,-0.37942519783973694,-1.3603969,-0.36285394,4
-6.518152713775635,13.421076774597168,0.9803292155265808,0.13866713643074036,-0.44806966,0.09407325,4
-5.7143211364746085,14.584931373596193,0.762648344039917,0.5294424295425415,0.70157874,0.076052725,4
-5.209226131439209,15.041874885559082,0.3840682208538056,0.7688008546829224,2.3218987,-0.28863382,4
-4.8173112869262695,14.589903831481935,0.1098637729883194,0.7678961753845215,3.2818735,-0.22357668,4
-4.54726505279541,12.870840072631836,0.4904299080371857,0.715612530708313,2.1471913,-0.0061086523,4
-4.410445213317871,10.424997329711914,0.9782887697219848,0.7021507024765015,0.9294315,-0.41355577,4
-4.17552661895752,8.343960762023926,1.477517008781433,0.6804701089859009,0.8943066999999999,-0.4886922,4
-3.73447847366333,6.8002662658691415,2.1091873645782466,0.5557803511619568,-0.09590584,-0.5684100999999999,4
-3.1514987945556636,5.514571666717528,2.4746439456939697,0.2943476438522339,-1.0995574,-0.33414328,4
-2.5433349609375,4.568479061126709,2.229945659637451,0.09899454563856123,-0.35796702,0.10873401,4
-1.85166335105896,3.934993028640747,1.4645605087280271,0.06832802295684813,0.42180246,0.49205196,4
-1.2271658182144165,3.2540891170501713,0.5182510614395142,0.12045391649007794,0.8216136999999999,0.5510005,4
-0.8551575541496277,2.5935044288635254,-0.2807947397232056,0.17437079548835754,1.5262468,0.4642576,4
-0.6123783588409424,2.266115427017212,-0.1397843211889267,0.1600528061389923,1.0204504,0.26236662,4
-0.5572793483734131,2.261782646179199,0.5808889865875244,0.019046789035201076,0.00061086525,0.27702740000000003,4
-0.9262197613716124,2.4412381649017334,1.4281024932861328,-0.2209309041500092,-0.5873469,0.30268374,4
-1.88397479057312,3.036583423614502,2.887380838394165,-0.6401705145835876,-2.1927009,-0.1563815,4
-3.3377306461334233,4.294361591339111,3.9597692489624015,-1.3445535898208618,-2.4990497000000005,-0.6001751000000001,4
-5.597620010375977,6.458600044250487,3.4619956016540527,-1.6091060638427734,-0.43463063,-0.6554584,4
-7.194682598114014,8.817602157592773,3.689794778823853,-1.750145673751831,-1.6609426,-1.461495,4
-6.996078014373778,10.853636741638184,2.781613349914551,-1.9575289487838743,-2.7232373,-0.50854534,4
-6.148872375488281,12.17018222808838,1.3142114877700806,-1.6419556140899658,-0.6731735,-0.17012598,4
-5.897939205169678,13.233241081237793,0.1301521062850952,-1.1101959943771362,1.7348573,-0.56077427,4
-6.059084892272949,14.372380256652832,0.04449167475104332,-0.4365176558494568,1.9908098,-0.09010262,4
-6.0443644523620605,15.353477478027346,0.7779392600059509,0.12669847905635834,0.88270026,0.7476991,4
-5.993764400482178,15.792019844055176,1.2346528768539429,0.5877097845077515,0.8512407,0.7654141999999999,4
-5.832623481750487,15.037663459777832,1.2986042499542236,0.9930059313774108,1.1264355,0.7816021,4
-5.611297607421875,13.33398151397705,1.2189362049102783,1.2379168272018433,1.3509285,0.5305365,4
-5.3999857902526855,11.135394096374512,0.9752922058105468,1.275824785232544,1.1866057,0.009468411,4
-5.047312736511231,8.930098533630371,0.7112452983856201,1.1306647062301636,1.9358319,-0.47036624,4
-4.619049549102783,6.930439472198486,1.577491044998169,0.863027811050415,1.1927143,-0.8344419,4
-3.914394855499268,5.662204265594482,2.7704315185546875,0.6198368668556213,-1.9294178,-0.5815437,4
-2.9815976619720463,5.011862277984619,2.8391437530517583,0.41040423512458796,-1.890628,-0.0076358155,4
-2.251736640930176,4.553172588348389,2.1729271411895748,0.2332541793584824,-0.38362336,0.25870144,4
-1.8599797487258911,4.152610301971436,1.5627633333206177,0.15849554538726807,0.6243043,0.43860126,4
-1.5442219972610474,3.752632379531861,1.3859272003173828,0.1105491742491722,0.5861251999999999,0.52290064,4
-1.1685701608657837,3.296714305877685,1.3977588415145874,0.04052157327532768,-0.018325957,0.61758476,4
-0.7923142313957214,2.788944959640503,1.4429622888565063,-0.08847922086715697,-0.6603453,0.57451874,4
-0.5633355379104614,2.2893991470336914,1.4396892786026,-0.30309081077575684,-0.8020661,0.4361577999999999,4
-0.4986863732337952,2.1257181167602544,1.5638399124145508,-0.6176910996437073,-1.5335772,0.3359759,4
-0.8702608942985535,2.4703097343444824,1.6311507225036619,-0.908608078956604,-1.4135422,0.083383106,4
-2.0246920585632324,3.503065824508667,1.4038493633270264,-1.093140959739685,0.86651236,-0.11178834,4
-4.086610794067384,5.831966876983643,1.9255553483963013,-1.2373234033584597,0.094989546,-1.6792686,4
-4.700489044189453,8.41420841217041,2.243842124938965,-1.3090370893478394,-1.6563611,-0.48441613,4
-5.131577968597412,10.573396682739258,1.7439801692962646,-1.126715064048767,-0.9654725,0.7147123000000001,4
-6.1691575050354,12.330731391906738,1.3309191465377808,-0.52340167760849,-0.9642508,0.45173484,4
-7.06803560256958,13.67581844329834,0.962591826915741,0.14020012319087982,-0.34972036,-0.08796459400000001,4
-7.487959384918213,14.603280067443848,0.4975816905498505,0.6748042702674866,0.3707952000000001,-0.57604593,4
-6.968484878540039,15.178566932678224,-0.06000116094946861,1.0067394971847534,1.8188512,-0.33078352,4
-5.88363790512085,14.795759201049805,-0.18918447196483607,1.1583199501037598,2.6294694,-0.06872234,4
-4.920079231262207,13.386048316955565,0.4510321915149689,1.201249599456787,1.0534371,0.0033597588,4
-4.207888603210448,11.351485252380373,1.19652259349823,1.275629639625549,-0.2919936,-0.074830994,4
-3.626145601272583,9.4771728515625,1.853599190711975,1.28002667427063,-0.47250426,-0.2941316,4
-2.9289772510528564,8.008334159851074,2.2815933227539062,1.0883443355560305,-1.1349876,-0.47952923,4
-2.1195106506347656,6.6133575439453125,2.515547752380371,0.7230662107467651,-1.9859229,-0.23457226,4
-1.4908655881881714,5.557182312011719,2.444177389144897,0.3233033120632172,-0.74372846,0.12797627,4
-1.1465353965759275,4.817221164703369,2.2103400230407715,0.03372038155794144,0.6346890000000001,0.44623706,4
-0.8918095827102661,4.064257621765137,1.9777743816375728,-0.06576459854841232,0.3744604,0.7101309,4
-0.6141249537467957,3.405167579650879,1.392631769180298,-0.08482086658477782,0.045814894,0.9981538,4
-0.3000068664550781,2.816819190979004,0.6156615018844604,-0.13224683701992035,0.1432479,1.0277808000000002,4
-0.0655694231390953,2.340782880783081,0.18740180134773252,-0.2359402775764465,-0.30207285,0.68844515,4
-0.06562512367963791,2.0708494186401367,0.04755878448486328,-0.3800012767314911,-1.0690142,0.44929138,4
-0.2866167724132538,2.0116071701049805,-0.08385217189788817,-0.5740998387336731,-1.5442673,0.3744604,4
-0.9534065127372742,2.3919177055358887,-0.1996173858642578,-0.8721168041229248,-0.945314,-0.028710667,4
-2.7910802364349365,4.4088096618652335,1.0419524908065796,-1.211504578590393,4.727486,-0.4831944,4
-5.154000282287598,7.038360595703125,3.044123888015747,-1.4533097743988037,-1.924531,-1.2935071000000002,4
-5.256091594696045,9.408905982971193,3.2725939750671387,-1.3732352256774902,-0.042760565999999986,-0.1600467,4
-5.078909397125244,11.311323165893555,2.396439552307129,-1.1127771139144895,-0.16371189,-0.18845193,4
-5.448954582214356,12.896404266357422,2.2277655601501465,-0.39999276399612427,-0.86101454,-0.15790866,4
-6.0212059020996085,14.194829940795898,1.6201766729354858,0.27024370431900024,0.03604105,-0.16982053,4
-6.032458782196045,14.987090110778807,1.1953200101852417,0.7847264409065247,1.5971072,0.21960606,4
-5.288262844085693,14.643726348876953,1.3811676502227783,1.0660868883132937,1.9052887,0.13561209,4
-4.489891052246094,13.034945487976074,1.944986581802368,1.1379650831222534,1.2837333999999998,0.3454443,4
-4.0374131202697745,10.699875831604004,2.6114487648010254,1.1997284889221191,-0.6236934000000001,-0.1142318,4
-3.5934662818908687,8.719836235046388,2.842149257659912,1.0702354907989502,-0.6881397,-0.3222314000000001,4
-3.0579001903533936,7.075991630554199,2.902687788009644,0.8793156147003174,-0.8567385000000001,-0.38362336,4
-2.5215325355529785,5.473123073577881,3.0185272693634038,0.5928016304969788,-1.5329663999999998,-0.36102137,4
-1.8376686573028564,4.509617328643799,2.472182035446167,0.23285871744155884,-0.70341134,-0.28038713,4
-0.8391077518463135,4.185760974884033,1.313086986541748,0.0013134632026776671,0.36254853,0.29871312,4
-0.11209821701049803,3.7152936458587646,0.3747473955154419,-0.0679253488779068,0.89736104,0.6356053,4
-0.0516803003847599,3.065375566482544,-0.06300318241119385,-0.06478533893823624,1.2412782,0.66737026,4
-0.16656875610351562,2.654723882675171,-0.051076408475637436,-0.08444510400295258,1.1890492,0.42332962,4
-0.3094981014728546,2.635782241821289,0.2713623046875,-0.1620376706123352,0.7449501999999999,0.4297437,4
-0.4838378131389618,2.781574249267578,0.6655517220497131,-0.28467658162117004,0.021991149,0.59681535,4
-0.7096419334411621,2.918432235717773,1.307262659072876,-0.4697686731815338,-0.9025534,0.7339545999999999,4
-1.3314143419265747,3.1716716289520264,2.5904381275177,-0.9209988713264464,-2.2296581,0.37934732,4
-3.0385754108428955,3.8133563995361333,2.5227952003479004,-1.320319652557373,-0.6630941999999999,0.095294975,4
-4.736479759216309,5.39061164855957,2.8457181453704834,-1.3567352294921875,-0.15363261,-0.700357,4
-5.7796549797058105,7.72663688659668,3.597031593322754,-1.5923426151275637,-2.1233675,-0.8362745,4
-5.449544906616211,9.928871154785156,3.0784475803375244,-1.4883841276168823,-1.8939877,0.29718593,4
-5.061776161193848,11.74468231201172,2.251314878463745,-1.2165288925170898,-1.6853772,0.32986724,4
-5.497346878051758,13.194363594055176,1.4358768463134766,-0.6777963638305664,0.036651913,-0.34330627,4
-6.065890312194824,14.420872688293455,0.8215711116790771,-0.12422129511833192,1.1016954,-0.67164636,4
-5.7882184982299805,15.42424488067627,0.4524325132369995,0.3756897151470184,1.4963144,-0.24404067,4
-5.0566582679748535,16.007278442382812,0.34473833441734314,0.8583287000656128,1.9837849,0.33017266,4
-4.499439716339111,15.398416519165039,0.5042704939842224,1.2002270221710205,2.2192733,0.42088616,4
-4.317063808441162,13.652481079101562,0.8933780193328857,1.3598368167877195,1.8759671,0.069027774,4
-4.35738468170166,11.222652435302734,1.5224649906158447,1.3799543380737305,0.82558435,-0.5363397,4
-4.190725326538087,9.116103172302246,2.261620283126831,1.3319404125213623,-0.0033597588,-0.67103547,4
-3.6195340156555176,7.661714553833008,2.711627244949341,1.2076233625411987,-0.5149594,-0.870483,4
-2.7935402393341064,6.365208148956299,2.889822244644165,0.8980308771133423,-1.7052304,-0.8371908000000001,4
-2.04994797706604,5.276198863983153,2.8082387447357178,0.4226228594779968,-0.71929383,-0.46303585,4
-1.4727576971054075,4.730553150177002,2.482046604156494,-0.018413852900266647,0.7425067,-0.10415252,4
-0.9574300050735474,4.18184757232666,2.3636679649353027,-0.17606008052825928,-0.49357912,0.26022860000000003,4
-0.4133930206298828,3.5330817699432373,1.925545573234558,-0.1477988213300705,-0.99021256,0.5326744999999999,4
-0.1669992357492447,2.8947291374206543,0.8066974878311157,-0.1527542620897293,-0.52290064,0.7302894,4
-0.34156474471092224,2.3186321258544917,-0.21779148280620572,-0.14965206384658813,0.44501534,0.4908302,4
-0.4337035119533539,2.060039520263672,-0.4109061360359192,-0.17863799631595612,0.89766645,0.23640485,4
-0.41512879729270935,2.027109146118164,-0.07664764672517776,-0.2749936580657959,0.12705997,0.34788775,4
-0.5031539797782898,2.1728761196136475,0.4692136347293854,-0.4081634283065796,-0.61483586,0.38973203,4
-1.0908716917037964,2.9192240238189697,1.8206865787506104,-0.7155179381370544,-1.0705414,0.31337386,4
-2.8352622985839844,5.041228294372559,3.012460470199585,-1.316060185432434,3.2446108,-0.1255328,4
-4.498943328857422,7.6042237281799325,4.79672908782959,-1.506403565406799,-1.9391917,-1.102001,4
-5.071901321411133,9.848644256591797,4.5349693298339835,-1.7725379467010498,-1.4963144,-0.21197024,4
-5.4173545837402335,11.24406623840332,2.7494633197784424,-1.6527388095855713,-0.32834008,-0.23609942,4
-6.059601306915282,12.232603073120115,1.746371150016785,-1.1472378969192505,-0.12339478,-0.6762278,4
-6.582146644592285,13.45330810546875,1.7251492738723757,-0.3865222930908203,-1.0577132,-0.2669481,4
-6.57788610458374,14.595131874084473,1.7820669412612915,0.460724413394928,-1.4761559,0.20463985,4
-5.568285942077637,15.548491477966307,1.4920854568481443,1.1893117427825928,-0.09285152,0.52290064,4
-4.1640539169311515,16.03586196899414,1.1754755973815918,1.5681296586990356,2.2950208,0.86193085,4
-3.470834493637085,15.01600170135498,1.2690352201461792,1.6290795803070068,2.679255,0.49693888,4
-3.648496389389038,12.546907424926758,1.817617654800415,1.5181930065155032,1.6019941999999998,0.18387043,4
-4.063003063201903,9.882694244384766,2.7049560546875,1.3549054861068726,0.15882497,-0.4465425,4
-3.991389274597168,7.974515438079834,3.296786069869995,1.1835840940475464,-0.6169739000000001,-0.64751714,4
-3.489872932434082,6.454913139343263,3.529621124267578,0.9044336676597596,-1.6539177,-0.7357872,4
-2.841689348220825,5.254607677459717,3.12412691116333,0.4068571627140045,-1.4123205,-0.31978795,4
-2.1714317798614498,4.579185485839844,2.0893208980560303,0.04269963502883911,1.0283916,0.13744467,4
-1.4609296321868896,3.914578676223755,1.351851224899292,-0.04544984921813011,0.5540548000000001,0.50579643,4
-0.8111400604248047,3.124475479125977,0.589006245136261,-0.021504227072000504,-0.29657507,0.6123924,4
-0.4247491359710693,2.408717393875122,-0.4426141083240509,-0.006961870472878218,0.19333886,0.5626069,4
-0.3549224436283112,1.98765242099762,-1.0641179084777832,-0.03734102845191956,1.0622946000000002,0.42180246,4
-0.4859204590320587,1.9064199924468996,-0.9247869253158568,-0.1434118002653122,1.597718,0.41630468,4
-0.6825020909309387,1.930166482925415,-0.18116487562656405,-0.28372326493263245,0.57543504,0.27580565,4
-0.7409453988075256,1.7918428182601929,0.4781301617622376,-0.4395591616630554,-0.79443026,0.25076020000000004,4
-0.7876774072647095,1.5681425333023071,0.8900122642517091,-0.6258538365364075,-2.7119362,0.16676621,4
-1.8032258749008176,1.9799236059188845,1.2864547967910769,-0.8304321169853209,-0.39095375,0.2003638,4
-3.085411071777344,3.570178985595703,2.1349837779998784,-1.15052330493927,2.1270328,-1.1160508,4
-3.790587902069092,6.1781067848205575,4.154734134674071,-1.4103255271911619,-3.5534031,-0.04642576,4
-4.265507221221924,8.46932315826416,2.7625417709350586,-1.6015712022781372,-1.2547172,0.42149702,4
-4.9840521812438965,9.09640407562256,0.609075665473938,-1.674163579940796,0.91751957,-0.46853364,4
-6.191132068634032,10.275893211364746,-0.4526349902153015,-1.2322773933410645,1.7489072,-1.171945,4
-6.844928741455077,11.865777015686035,-0.668735682964325,-0.4711059927940369,1.312444,-0.39461896,4
-6.70165491104126,13.317093849182127,-0.2465797662734985,0.33830034732818604,0.84421575,0.6606508000000001,4
-5.669448852539063,14.526422500610352,0.36469918489456177,1.0304480791091921,1.3900238,1.604743,4
-4.509290218353272,15.140134811401367,1.053030252456665,1.5314851999282837,1.3454307,1.7712038,4
-4.261512279510498,14.062533378601074,1.6546909809112549,1.6758691072463991,1.6001616,1.0549643,4
-4.78388786315918,11.6764554977417,2.1120042800903316,1.5042356252670288,1.2095132,0.31215215,4
-5.521102428436278,9.116737365722656,3.0420382022857666,1.3176146745681765,-1.0622946000000002,-0.44715336,4
-5.675065040588379,7.156629085540772,3.759949207305908,1.0898194313049316,-1.702176,-0.8549059000000001,4
-4.819488525390625,5.545772075653076,3.192331552505493,0.582990288734436,-1.1905763,-0.5158757,4
-3.261847257614136,4.474964618682861,1.91542387008667,0.2274943590164185,0.051923547,0.13408493,4
-1.8696756362915041,3.4651000499725337,0.8417887091636658,0.189877450466156,-0.35216382,0.16310102,4
-0.965007483959198,2.587190866470337,-0.11158417910337448,0.2130255103111267,-0.906524,0.28191432,4
-0.6427000164985657,2.0327494144439697,-0.8277528882026672,0.1902970522642136,-0.6072,0.31673363,4
-0.7677607536315918,1.7850865125656128,-1.2412424087524414,0.16292892396450046,0.19486602,0.20219639,4
-1.152298092842102,1.7436227798461914,-1.2926101684570312,0.10378599911928177,1.4165965,-0.103847094,4
-1.451787352561951,1.7453455924987793,-0.8933008909225464,-0.045291859656572335,1.4627168,-0.22968534,4
-1.3844348192214966,1.7291191816329956,-0.08592218905687332,-0.20660163462162015,0.13927728,-0.23976462,4
-0.9774420261383056,1.8316991329193115,0.7225133776664734,-0.3415692746639252,-0.6783658,-0.033292156,4
-0.4830492734909058,1.9567891359329224,1.3017170429229736,-0.519508957862854,-0.31764993,0.17806722,4
-0.2588828802108765,2.5418434143066406,2.91739559173584,-0.9108449220657348,-0.0711658,0.1572978,4
-0.6658799648284912,4.589179515838623,4.3875465393066415,-1.6580383777618408,-1.7116444,0.34208453,4
-1.6382977962493896,7.180664539337157,3.5931620597839355,-1.6674467325210571,-1.0546589,0.88422745,4
-3.003572702407837,9.523844718933104,2.1213757991790767,-1.6872317790985107,-1.8985692,-0.1160644,4
-3.217326402664185,11.473000526428224,1.9066325426101685,-1.6550074815750122,-0.5983425,0.66737026,4
-3.4677324295043945,13.055304527282715,2.126929521560669,-1.3973634243011477,-1.5714508,0.26511553,4
-4.180778980255127,14.32085418701172,1.418994426727295,-0.9968043565750122,1.7760907,-0.7788531999999999,4
-4.568814277648926,15.307825088500975,1.078868746757507,-0.6097888946533203,1.568702,-1.0506883,4
-4.6639747619628915,16.069931030273438,1.0815469026565552,-0.07540480047464371,1.5745052,-0.35888332,4
-4.523591995239258,16.651369094848633,1.3599522113800049,0.5882505178451538,1.3799446000000002,-0.002443461,4
-4.195672035217285,17.080276489257812,1.8563934564590452,1.176264405250549,0.95172805,0.2284636,4
-3.9126355648040767,16.613019943237305,2.222517728805542,1.4090704917907717,1.5204436,0.20280726,4
-4.0843114852905265,14.79096221923828,2.4124794006347656,1.3589322566986084,1.4217888,-0.1020145,4
-4.571707248687744,12.022865295410154,2.9448764324188232,1.2108533382415771,-0.71837753,-0.5317582,4
-4.251865863800049,9.569530487060547,3.137218475341797,0.999817192554474,-1.63437,-0.8078693,4
-3.199957132339477,7.586751937866211,2.914093017578125,0.6577237844467163,-2.470339,-0.5360342,4
-2.05287504196167,6.059765338897705,2.17795991897583,0.2660179138183594,-1.0262536,0.08582657,4
-1.1159200668334959,5.125724792480469,1.3038122653961182,0.04047200083732605,1.6346754,0.094989546,4
-0.313469797372818,4.3484277725219735,0.742742121219635,-0.033690210431814194,1.829236,0.21319197,4
0.28637075424194336,3.563814878463745,0.2548676133155823,-0.01726421155035496,0.4352415,0.3735441,4
0.4934509992599487,2.9300265312194824,-0.2449503540992737,0.01739996299147606,-0.4370741,0.45448375,4
0.3420523703098297,2.515829801559448,-0.7348991632461548,0.07405346632003784,0.24220806,0.4801401,4
-0.010736728087067604,2.3754360675811768,-0.7516794204711914,0.059285320341587074,1.3029754999999998,0.5128214,4
-0.31423211097717285,2.3776721954345703,-0.2693472504615784,-0.0881483405828476,1.3662001,0.52534413,4
-0.5409654378890991,2.394881248474121,0.4221293032169342,-0.3061046600341797,0.7415904000000001,0.44593164,4
-0.5853807330131531,2.4563820362091064,1.5964256525039673,-0.6313591599464417,1.0589349,0.35827246,4
-1.0823299884796145,2.7990875244140625,3.919620275497437,-1.2703874111175537,-1.0250319,-0.7883216,4
-2.7942299842834477,4.34850549697876,4.8400044441223145,-1.5732876062393188,0.093462385,-0.3454443,4
-4.1834373474121085,6.796562194824219,5.352379322052002,-1.6469298601150513,-2.860682,-1.8176296000000003,4
-4.079938888549806,9.166430473327637,4.592136859893799,-1.7154065370559692,-1.7253889,0.44104472,4
-4.019968986511231,11.05982780456543,3.127822160720825,-1.4356325864791868,-1.4086553,0.5143485,4
-4.891444206237793,12.558615684509276,1.6368601322174072,-0.7962735891342163,-0.24587326,-0.3042109000000001,4
-5.332860469818115,13.904269218444824,0.9047639966011048,-0.029068769887089733,-0.08582657,-0.5506949999999999,4
-5.068024635314941,15.00682544708252,0.351169615983963,0.6182976961135864,0.59803706,-0.4633413,4
-4.521090030670166,15.864173889160154,-0.06517546623945236,1.1003103256225586,2.3231206,0.38087448,4
-4.246389865875243,15.7188138961792,0.14289668202400208,1.370567798614502,2.7403414,0.54153204,4
-4.538057327270508,14.196489334106445,0.9113317131996156,1.4628723859786987,1.7550159,0.2947425,4
-5.090478420257568,11.814692497253418,1.8515995740890503,1.4421030282974243,0.48502702,-0.30268374,4
-5.189306259155273,9.55904769897461,2.716073036193848,1.3531736135482788,-1.3002267,-0.795652,4
-4.541449546813965,7.8572163581848145,3.151464462280273,1.1022359132766724,-2.840218,-0.9621128,4
-3.575840711593628,6.442180633544923,3.0419812202453613,0.636524498462677,-2.9608638,-0.34116822,4
-2.7468066215515137,5.314448833465576,2.196444272994995,0.2215270847082138,0.051618114000000014,0.0012217305,4
-1.8653839826583865,4.452583312988281,1.4334744215011597,0.0477643683552742,1.1264355,0.07819075,4
-0.8402850031852722,3.6251802444458012,1.0768361091613772,-0.017130687832832336,-0.29229903,0.24037547,4
0.032335367053747184,2.900913715362549,0.4824525117874146,-0.0035436158068478107,-0.79626286,0.48747048,4
0.3210152089595795,2.431299924850464,-0.1997016668319702,0.04193878546357155,-0.40042216,0.35308012,4
0.1053272858262062,2.2325923442840576,-0.5471131801605225,0.10183227062225343,0.118507855,0.32375857,4
-0.19089682400226596,2.1742925643920903,-0.5643215179443359,0.1390409767627716,0.79259765,0.38515055,4
-0.3976121246814728,2.0739028453826904,-0.30677831172943115,0.0926070585846901,0.8524625,0.24831672,4
-0.4924734234809876,1.899464726448059,0.20223143696784973,-0.02990803867578506,0.18234327,0.21288654,4
-0.5563995242118835,1.6673545837402344,0.9980126023292542,-0.18647444248199466,-0.79901177,0.11636983,4
-0.9268641471862792,1.8510106801986692,2.45146107673645,-0.4654119908809662,0.258396,-0.058337633,4
-1.547047138214111,3.6980097293853764,4.659635543823242,-1.1506863832473757,-1.5867225,-0.12034045,4
-1.6017879247665403,6.375648498535156,4.6908955574035645,-1.3365541696548462,-2.812118,0.6713409,4
-1.97073495388031,8.850571632385254,4.412135124206543,-1.5748590230941772,1.0913107,0.21227567,4
-2.435671806335449,10.853597640991213,3.556159019470215,-1.5886193513870241,-1.2119566000000002,0.04428773,4
-4.090625762939453,12.481504440307615,2.222607135772705,-1.2604272365570068,-0.042760565999999986,-0.70188415,4
-5.677088737487793,13.84507656097412,1.0693349838256836,-0.8376187086105347,1.9413297,-1.3200798,4
-5.7201881408691415,14.96083164215088,0.8516820073127747,-0.2741663157939911,0.75502944,-0.40775254,4
-5.0101280212402335,15.830947875976562,0.9327879548072816,0.5010462999343872,0.8387180000000001,0.51159966,4
-4.242602825164795,16.41136360168457,1.2331395149230957,1.1226844787597656,1.149343,0.56413406,4
-3.814266204833984,15.951226234436035,1.4527379274368286,1.453493356704712,1.4902058,0.26847526,4
-3.9065554141998287,14.535719871520994,1.4223859310150146,1.527614951133728,1.5381587,-0.15393804,4
-4.20319128036499,12.370895385742188,1.7901901006698608,1.5468313694000244,0.9810496,-0.38698313,4
-3.965120553970337,10.218484878540039,2.762864589691162,1.4257317781448364,-1.3435981,-0.7357872,4
-3.277127981185913,8.374221801757812,3.0240278244018555,1.057291030883789,-3.2012393,-0.41722095,4
-2.6976561546325684,6.5677757263183585,2.464087963104248,0.5991690158843994,-1.4046847,-0.2302962,4
-2.268646001815796,5.109523296356201,1.7011163234710691,0.1183326244354248,1.8509218,-0.54092115,4
-1.4734632968902588,4.161545276641847,1.311968207359314,-0.15432660281658173,1.5225816,-0.3817908,4
-0.3549559712409973,3.6193885803222656,0.9311254024505616,-0.2301470786333084,0.12522738,0.22388211,4
0.5895520448684692,3.249027967453003,0.16042548418045044,-0.24155327677726746,0.21410827,0.7886270000000001,4
1.1369985342025757,2.8592841625213623,-0.7003287672996521,-0.1896303743124008,0.61208695,0.89552844,4
1.3367223739624023,2.5002052783966064,-1.1824140548706057,-0.09523577988147736,1.1441506,0.8564331000000001,4
1.136934518814087,2.313218116760254,-1.1365153789520264,-0.08947344124317169,1.4092661,1.0360274,4
0.5382548570632935,2.1449427604675293,-0.9104683399200441,-0.2120411992073059,1.2852604,0.8503244000000001,4
-0.22168490290641785,1.89291250705719,-0.4016823470592499,-0.3861672282218933,0.54611355,0.5506949999999999,4
-0.800633430480957,1.5506700277328491,0.4239591658115387,-0.5712971687316895,-0.12034045,0.42058071,4
-1.3452651500701904,1.0139486789703371,1.3313496112823486,-0.8449004888534546,0.06536258,-0.17379116,4
-2.392899990081787,1.1256253719329834,2.205434799194336,-1.170500636100769,-1.4223998,-0.71593404,4
-3.0058605670928955,2.703087329864502,2.6650266647338867,-1.324131965637207,-1.1765264,-0.54825157,4
-3.1863439083099365,5.330296039581299,3.831711530685425,-1.4278297424316406,-3.591277,-1.9190332,4
-2.4849348068237305,7.950977802276611,3.655601978302002,-1.4463744163513184,-0.5531385,-0.2773328,4
-2.082039594650269,10.183964729309082,3.25235652923584,-1.5614546537399292,-0.37782016,1.0549643,4
-3.1020312309265137,11.980606079101562,2.006399631500244,-1.200451135635376,0.82253003,0.44318274,4
-4.509260654449463,13.454421997070312,1.2482242584228516,-0.5474500060081482,1.2296717,-0.016493361,4
-5.396952152252197,14.64785385131836,1.1757676601409912,0.2509597241878509,-0.08552113,-0.08399397,4
-5.661787033081055,15.559605598449707,0.8870880603790283,0.9728962182998656,0.95142263,-0.22571471,4
-5.145186424255371,16.083030700683597,0.7066745162010193,1.3630636930465698,3.40985,0.14508049,4
-4.579529285430908,15.51409149169922,0.99190354347229,1.5457855463027954,3.0589077,0.21655174,4
-4.537831783294678,13.615376472473145,1.834306597709656,1.6147072315216064,0.25473082,0.14508049,4
-4.759234428405762,11.228402137756348,2.9795162677764893,1.523525953292847,-1.6624697,-0.60139686,4
-4.469226360321045,9.478931427001953,3.363154649734497,1.2463136911392212,-1.9617938,-0.6001751000000001,4
-3.760365009307861,7.596168041229247,3.0613131523132324,0.8605733513832092,-1.6026049999999998,-0.204029,4
-2.9599199295043945,5.87728214263916,2.053428173065185,0.5509596467018127,1.1780536,-0.17073683,4
-1.8063384294509888,5.033772945404053,1.3466099500656128,0.4377248585224152,0.17806722,0.464563,4
-0.8929022550582886,4.2467918395996085,0.9459577202796936,0.38617581129074097,-1.0177015,0.589485,4
-0.5777353644371033,3.429151058197021,0.2711821794509888,0.27866896986961365,-0.5491679,0.5335908,4
-0.7112945914268494,2.8574461936950684,-0.33992740511894226,0.13952548801898956,0.34238997,0.4615087000000001,4
-0.9630541801452636,2.5212533473968506,-0.6017448306083679,0.01670464500784874,1.3842206,0.27214047,4
-1.0988826751708984,2.282487392425537,-0.4313010573387146,-0.11877092719078065,1.2415836,0.17623462,4
-1.0786888599395752,2.006633043289185,-0.05725635588169097,-0.30369338393211365,0.46853364,0.20769419,4
-1.0691899061203003,1.5669503211975098,0.3615004420280457,-0.5062419176101685,-0.7199047,-0.009468411,4
-1.2029253244400024,1.000797986984253,0.5806593894958496,-0.643877387046814,-1.4963144,-0.3943135,4
-1.2952685356140137,0.3650206625461577,0.5761451125144958,-0.712468147277832,-1.294118,-0.7651087,4
-1.4567883014678955,-0.18154627084732056,0.9654347896575928,-0.983409345149994,1.1844677,-1.4837917,4
-2.649364948272705,0.7261532545089722,2.3605432510375977,-1.6972461938858032,3.2305608,-2.5265386000000003,4
-3.729743242263794,3.5239028930664062,3.899611234664917,-2.0732221603393555,-2.443461,-2.4107797000000004,4
-4.192040920257568,6.446109294891357,4.1738905906677255,-1.7891366481781006,-4.730846,1.3762794,4
-5.252387046813965,8.751618385314941,1.4555351734161377,-1.407302737236023,-0.57971114,1.0079277,4
-5.878936767578125,10.41415309906006,0.4507187008857727,-0.8396799564361572,-0.064446285,-0.08735373,4
-5.951693534851074,12.092114448547365,-0.07258129864931108,-0.14573948085308075,0.32284227,-0.19120082,4
-5.624320983886719,13.526873588562012,-0.8408558964729309,0.5679020285606384,1.1291844,-0.1826487,4
-4.71989107131958,14.694053649902346,-1.619689702987671,1.1752806901931765,3.6816847,0.70432764,4
-3.747570037841797,15.052250862121582,-1.0510971546173096,1.6654136180877686,4.274835,1.7745636000000002,4
-3.872004985809326,13.562662124633787,0.7005227208137512,1.8577663898468015,1.5671748,1.2889256000000002,4
-5.046730041503906,11.229586601257324,2.806025743484497,1.6364402770996094,-0.20952678,0.59528816,4
-6.2674665451049805,9.014460563659668,4.672708988189697,1.275470733642578,-4.5536949999999985,-0.54153204,4
-6.504493713378906,7.336972236633301,4.68667459487915,0.7792130708694458,-3.5479053999999994,-0.63132924,4
-5.503686904907227,6.108177661895753,2.860928773880005,0.19514700770378116,0.27885997,0.17684549,4
-3.2254424095153813,5.195088863372803,0.9010096192359924,0.035120788961648934,2.8725939,1.1884383,4
-0.7824978232383728,4.4100379943847665,0.2753957211971283,0.08909929543733598,-0.312763,1.5195273,4
0.4672633111476898,3.3314313888549805,-0.20090588927268985,0.16155490279197693,-1.5592335,1.0512991000000005,4
0.4791213870048523,2.310142993927002,-0.8886313438415527,0.2186206877231598,-0.8231409,0.752586,4
-0.12797245383262634,1.6668244600296018,-1.4109495878219604,0.23106107115745544,0.62888575,0.5864305999999999,4
-1.0317813158035278,1.3651655912399292,-1.499362587928772,0.13052067160606384,1.5577063999999998,-0.008246681,4
-1.958014726638794,1.2646273374557495,-1.1452463865280151,0.01275028381496668,1.028697,-0.2919936,4
-2.56778335571289,1.143237829208374,-0.43281912803649897,-0.05838385596871376,-0.21105394,-0.35460728,4
-2.5636487007141118,0.9706019759178162,0.3710807263851166,-0.1048479899764061,-1.5192219,-0.45631635,4
-1.949604034423828,0.9462233185768129,1.063985824584961,-0.20937412977218628,-2.0635028,-0.2761111,4
-1.506084680557251,1.2692524194717407,2.0027010440826416,-0.6410417556762695,0.9288206,-0.5946773,4
-1.1772851943969729,3.1185104846954346,3.498088121414185,-1.2630237340927124,-0.21197024,0.19822577,4
-0.27463823556900024,5.889619827270508,4.2457194328308105,-1.2030398845672607,-2.6994135,1.0592403,4
-0.4040212631225586,8.459870338439941,4.3372344970703125,-1.141024827957153,-1.6267341,0.06963864,4
-1.5182996988296509,10.5831937789917,3.3320040702819824,-1.338228702545166,-0.44073927,-0.05222898,4
-3.7104525566101074,11.642194747924805,1.99062180519104,-1.1808644533157349,0.376293,-1.6823229,4
-5.357949256896973,12.677617073059082,0.7856065034866333,-0.7722999453544617,0.7623598,-1.9559906,4
-5.307929992675781,13.888571739196776,-0.4119170904159546,-0.1083824262022972,-0.0036651916,-0.90469146,4
-3.288851499557495,14.973957061767578,-0.8282231688499451,0.7374023795127869,0.73945236,0.7797695,4
-1.7659101486206057,15.015817642211914,-0.19452373683452606,1.3188953399658203,1.7122552,0.9239337,4
-1.7257459163665771,13.682607650756836,0.19919408857822415,1.408867120742798,2.46759,-0.0033597588,4
-2.541689872741699,11.72675895690918,0.7585815191268921,1.3414456844329834,1.7993035,-0.04795292,4
-3.4534528255462646,9.55997085571289,2.0636920928955083,1.253758668899536,-1.3457361,-0.31856623,4
-3.919121503829956,7.608499050140381,3.14691162109375,0.9945963621139526,-2.5045476000000004,-1.2825116,4
-3.696885347366333,6.0380802154541025,3.164628028869629,0.3735388517379761,-1.8802432,-1.0629056,4
-2.938588857650757,4.908203125,2.3176555633544917,-0.13642677664756775,0.11453723,-0.5861251999999999,4
-1.8647607564926147,4.084863185882568,1.5665762424468994,-0.3020426332950592,1.3686435,-0.44226643,4
-0.647885262966156,3.417454719543457,1.2403613328933716,-0.296998530626297,0.36285394,0.099571034,4
0.39197298884391785,3.002923011779785,0.8510508537292479,-0.29187238216400146,-0.26083946,0.7846564,4
0.9782246351242064,2.737279176712036,0.12275643646717073,-0.2605279386043549,0.3820962,0.8729264000000001,4
1.2347012758255005,2.4471468925476074,-0.5385038852691649,-0.1812916100025177,1.0445796,0.6731735,4
1.1679304838180542,2.220311164855957,-0.8517626523971558,-0.16211138665676114,1.4361442,0.91721416,4
0.7827533483505249,2.00250506401062,-0.8071943521499634,-0.2411896139383316,1.2070698,0.83199847,4
0.31780144572258,1.775749683380127,-0.4935902953147888,-0.3473477065563202,0.39767328,0.5525276,4
-0.2252907752990723,1.5403953790664673,-0.0194771122187376,-0.4462752938270569,-0.13744467,0.28099802,4
-0.8895620107650757,1.4648925065994265,0.907779335975647,-0.6270061135292053,-0.30482176,0.04062254,4
-2.4737114906311035,2.2518625259399414,1.807726621627808,-1.0586168766021729,-0.35735616,-0.8549059000000001,4
-3.981523275375366,4.015105247497559,1.9213209152221682,-1.1831130981445312,-0.47128254,-1.105666,4
-4.51314115524292,6.41492223739624,4.016953468322754,-1.2633447647094729,-4.6111164,-0.9392053,4
-3.325602531433105,8.82888412475586,3.632185697555542,-1.1101078987121582,-1.7137824000000002,0.8222246,4
-3.1155006885528564,10.789868354797363,1.1780284643173218,-0.9982065558433532,1.3069462,0.014966198,4
-4.139262199401856,12.395482063293455,-0.16469807922840118,-0.6781163215637207,2.8582385,-1.0143417,4
-4.833158016204834,13.7703218460083,-0.6467223763465881,-0.2270932495594025,2.574186,-0.3222314000000001,4
-4.539178848266602,14.897679328918455,-1.0044548511505127,0.32502958178520197,1.8729129,0.9419542,4
-3.8093903064727774,15.500771522521973,-0.8893910050392151,0.9848528504371644,2.6902506,1.2174544,4
-3.5537383556365967,14.507304191589355,0.2147411555051804,1.4764578342437744,1.3762794,1.4132367,4
-4.300035476684569,12.208985328674315,1.7971678972244265,1.5982221364974976,-1.0360274,0.4633413,4
-5.126930236816406,10.061578750610352,3.113346815109253,1.409088373184204,-2.7464502,-0.52320606,4
-5.265894412994385,8.326174736022951,3.5379619598388667,1.1568843126296997,-2.7864618,-0.9083565999999998,4
-4.73392391204834,6.477013111114503,3.4180698394775386,0.7546024322509766,-2.9321532,-0.98624194,4
-3.812066555023194,4.763022422790527,2.7877461910247803,0.2591551244258881,-2.3005185,-0.75136423,4
-2.5930733680725098,3.8982558250427246,1.518174409866333,-0.08168491721153259,0.13683382,-0.59864795,4
-1.2078628540039062,3.4303367137908936,0.4204547703266144,-0.15771102905273438,0.84635377,0.09315695,4
-0.0036676977761089797,2.9229428768157963,-0.2545323967933655,-0.08525939285755157,0.42546764,0.6414085,4
0.6690148115158081,2.448002338409424,-0.6472812294960022,0.018077120184898376,0.37873647,0.63804877,4
0.9082062244415284,2.091104507446289,-0.8240839242935181,0.1161140576004982,0.55680364,0.39492437,4
0.7994568347930908,1.970654010772705,-0.8376600742340088,0.1559971570968628,0.9108001,0.65668017,4
0.455446183681488,2.028546094894409,-0.8919788002967834,0.11787399649620055,1.4269812,0.52626044,4
-0.011931081302464008,2.0336008071899414,-0.5623885989189148,-0.031826578080654144,1.0742066,0.23671028,4
-0.34490135312080383,2.096298217773437,-0.1448163241147995,-0.2464166283607483,1.110553,0.03176499,4
-0.6527462005615234,2.389123678207397,0.41450753808021545,-0.5797245502471924,1.8842138,-0.020463986,4
-1.3413442373275757,3.630052328109741,1.6710250377655032,-1.2481496334075928,-0.657291,-0.63041294,4
-3.397016763687134,5.899523735046388,1.9895824193954468,-1.4537063837051392,0.9746355,-0.004886922,4
-5.559558868408203,8.253235816955566,4.006028175354004,-1.5666375160217283,-2.7281241,-1.3115277,4
-5.469560623168945,10.389641761779783,4.2090492248535165,-1.211232304573059,-6.4919705,0.29626966,4
-3.6610286235809326,12.168130874633787,2.631031036376953,-0.7206451892852783,-1.1120802,0.28191432,4
-2.4227383136749268,13.612833023071287,1.2792285680770874,-0.13066540658473969,0.35094208,0.23060162,4
-2.3745665550231934,14.762495994567873,0.17657829821109772,0.42581379413604736,2.3512204,-0.5320636,4
-2.40506649017334,15.57697582244873,-0.4529516696929932,0.8267587423324585,3.6868773,0.04550946,4
-2.3774001598358154,15.942821502685547,-0.5700355768203735,1.1075466871261597,3.8429532,0.9275989,4
-2.7264132499694824,14.733996391296387,0.2355737090110779,1.3869097232818604,1.7550159,0.75319684,4
-3.7150425910949703,12.06939697265625,2.1354763507843018,1.627543568611145,-2.3835962000000004,-0.12950343,4
-4.140361785888672,9.958745002746582,2.948157548904419,1.4468331336975098,-3.1007519,-1.0137309,4
-4.0036444664001465,8.291826248168945,2.688680410385132,0.957274615764618,-3.2314773,-1.0341948,4
-3.4721448421478267,6.6794962882995605,1.854913830757141,0.3803547918796539,-2.4694228,-0.5198463,4
-2.6896448135375977,5.379377841949463,0.6589710712432861,-0.04253719002008438,0.42363504,-0.29565877,4
-1.615347385406494,4.325998306274413,-0.19882313907146454,-0.13533265888690948,0.9306532,-0.064751714,4
-0.4689209461212158,3.4741687774658203,-0.8140235543251038,-0.11152473837137222,1.1661416999999998,0.6038403,4
0.4627989530563354,2.9589056968688965,-1.2258732318878174,-0.06864945590496062,1.4251486,0.9257663,4
0.954153835773468,2.6761999130249023,-1.239514946937561,-0.006472873501479626,0.9492846,0.67103547,4
0.8942226767539978,2.5843369960784908,-1.0874961614608765,0.028842395171523094,0.657291,0.89827734,4
0.42928406596183777,2.5185546875,-0.9928202033042908,-0.0405362993478775,0.94042706,0.7150178,4
-0.13953927159309387,2.473327398300171,-0.7686781287193298,-0.251044362783432,1.2867876,0.39584067,4
-0.7015315890312195,2.51808500289917,-0.2996610999107361,-0.5428434014320374,1.9168952,0.16187929,4
-1.217273473739624,2.7505383491516118,0.8043686747550964,-0.974964678287506,2.68628,-0.1563815,4
-1.639131784439087,3.4515364170074463,3.048224687576294,-1.785511493682861,-2.6010642,-1.3316863,4
-2.44313383102417,5.197189807891847,3.007812976837158,-2.0772535800933842,-0.48838675,0.6310238,4
-4.24564266204834,7.623929977416992,2.9438130855560303,-1.9771072864532468,-0.37812558,-0.9108001,4
-3.257444143295288,9.91004467010498,1.53156578540802,-1.8104246854782104,-5.1117206,0.7770206000000001,4
-2.81115460395813,11.79145622253418,0.8849276900291443,-1.2949271202087402,-1.2840388,0.83108217,4
-3.3196010589599614,13.312131881713867,0.7711798548698425,-0.6575214862823486,-0.65301496,-0.33322698,4
-3.686789989471436,14.485325813293455,0.5634703040122986,0.008588332682847977,0.3359759,-0.8604037,4
-3.6341090202331534,15.18753719329834,0.7254137992858887,0.7645214796066284,0.7672467,-0.8729264000000001,4
-3.228945016860962,15.495216369628904,1.224644660949707,1.2413721084594729,3.1752775,0.39370266,4
-2.883058786392212,15.205770492553713,2.0341668128967285,1.4629337787628174,2.375655,0.52503866,4
-3.5395538806915283,13.388360977172852,2.81764817237854,1.5626901388168335,0.027488936,-0.42546764,4
-4.10723876953125,11.121381759643556,3.2902300357818604,1.5142270326614382,-1.3970488,-0.88178396,4
-3.9789650440216064,9.104390144348145,3.64736557006836,1.1422357559204102,-1.6398678,-1.3289373,4
-3.2212650775909424,7.472949504852295,3.571211099624634,0.4975842833518982,-1.9764545,-0.8078693,4
-2.0306026935577397,6.216676712036133,2.8485920429229736,-0.005668266210705042,-0.84788096,-0.18142697,4
-0.7754577398300171,5.0716938972473145,2.1019036769866943,-0.16465699672698975,-0.5919284,-0.14660765,4
0.2368311733007431,4.096938133239746,1.0593266487121582,-0.1715700477361679,-0.04184427,0.26572640000000003,4
0.8297543525695801,3.4134528636932373,-0.18017172813415527,-0.16702812910079956,1.496009,0.68539083,4
1.015424728393555,2.8833813667297363,-0.9612948894500732,-0.13782623410224915,1.784032,0.5671884,4
0.8319902420043945,2.604292869567871,-1.225095510482788,-0.08345799893140793,1.8093829,0.75136423,4
0.3069609999656677,2.4153072834014893,-1.1564615964889526,-0.12204694747924805,1.9788979,0.74128497,4
-0.32174789905548096,2.1559760570526123,-0.7499164342880249,-0.2845255434513092,1.7033978,0.32589662,4
-0.9256197214126588,1.9062116146087649,0.0953964814543724,-0.4664947092533112,0.39095375,0.17379116,4
-1.422191858291626,1.5560779571533203,0.9256983399391174,-0.6410179734230042,-0.7464773,-0.1863139,4
-1.6625454425811768,1.3517512083053589,1.4693607091903689,-0.9089828729629515,-1.7889189,-0.45234573,4
-2.081685781478882,1.946987628936768,1.5809170007705688,-1.2211774587631226,-1.0534371,-0.6579019,4
-2.417149066925049,3.637319803237915,1.1284006834030151,-1.3994154930114746,0.3463606,-0.16218472,4
-2.657142162322998,6.152251243591309,2.0730855464935303,-1.3694123029708862,-2.6923885,-0.3381139,4
-2.6279370784759517,8.633613586425781,2.591344118118286,-1.0812507867813108,-2.728735,1.1053606000000002,4
-2.625826835632324,10.754721641540527,1.889904499053955,-0.8347183465957642,-0.2855795,0.7079928000000001,4
-3.5297796726226807,12.478325843811035,1.0399954319000244,-0.4252910912036896,1.2119566000000002,-0.35827246,4
-4.524383068084717,13.851852416992188,0.6700965166091919,0.032056182622909546,0.9999864,-0.93645644,4
-4.804076671600342,14.866294860839846,0.7224711179733276,0.533887505531311,1.6759088,-0.50976706,4
-4.444822311401367,15.416542053222654,1.1524474620819092,1.0199464559555054,1.4636332,0.28252518,4
-3.9533090591430655,14.49606704711914,1.6313807964324951,1.4052854776382446,0.6236934000000001,0.18845193,4
-3.6754772663116455,12.355550765991213,1.946667194366455,1.6097122430801392,-0.38515055,-0.41080686,4
-3.043351411819458,10.40832805633545,2.2446541786193848,1.5739156007766724,-1.3002267,-0.62796944,4
-2.282074451446533,8.802497863769531,2.5559778213500977,1.1945960521697998,-1.681712,-0.5140431,4
-1.9278718233108518,7.136524677276611,2.7989847660064697,0.6205648183822632,-1.5711454,-0.15882497,4
-1.6756067276000977,5.847321033477782,2.4499106407165527,0.1868848204612732,0.05681047,0.24190263,4
-1.2132068872451782,4.786637783050537,1.93072521686554,0.03798170760273933,-0.15302174,0.30207285,4
-0.4936001896858215,3.916584014892578,1.1065305471420288,0.009317333810031414,-0.77366084,0.36896262,4
0.07897400110960008,3.3035781383514404,0.0320671908557415,-0.0073047662153840065,0.10048734,0.6817255999999999,4
0.408869594335556,2.855217456817627,-0.4450920820236206,0.014911380596458912,0.63499445,0.48197266,4
0.6191627979278564,2.6498234272003174,-0.40155765414237976,0.005548176355659962,1.3585643,0.49418998,4
0.6007308959960938,2.4491355419158936,-0.22667624056339264,-0.08415037393569946,1.738217,0.5018258,4
0.3549257218837738,2.119331359863281,0.175000861287117,-0.1817537099123001,1.1649200000000002,0.39278635,4
-0.02271772548556328,1.795809268951416,0.8221711516380309,-0.2800575792789459,-0.08032878,0.29077184,4
-0.4514141380786896,1.5139608383178709,1.5135942697525024,-0.41305840015411377,-0.63438356,0.2312125,4
-0.8931934237480164,1.2516398429870603,2.288630485534668,-0.6562157869338989,0.25534168,-0.22724187,4
-1.6258230209350586,1.4283530712127686,3.357473134994507,-1.0387341976165771,-1.144456,-0.4111123,4
-2.714313268661499,3.448765277862549,3.570675134658813,-1.0038118362426758,0.054061573,-1.0436633,4
-3.4425172805786133,6.220466613769531,5.234784126281738,-1.1272231340408323,-3.3744197,-0.7440339,4
-2.184021472930908,8.70740795135498,3.6631193161010738,-1.2176672220230105,-1.6169603,1.4089607,4
-3.031121015548706,10.277506828308104,0.9463006854057312,-0.974066436290741,0.364992,0.26053402,4
-4.447434902191162,11.635540962219238,-0.8662213683128357,-0.37545666098594666,2.2061398,-0.91354895,4
-4.626650333404541,13.068841934204102,-1.95240330696106,0.2921729981899261,1.6572775000000002,-0.61819565,4
-3.3031609058380127,14.250781059265135,-2.213765382766724,0.9554492831230164,2.5088236,0.61666846,4
-2.03588342666626,14.184385299682615,-1.2670818567276,1.6315011978149414,2.903137,1.4315627,4
-2.3962538242340092,12.477445602416992,0.1255662739276886,1.830422282218933,1.058324,0.8698720999999999,4
-3.6374101638793945,10.617594718933104,1.627689003944397,1.7168229818344116,-1.4666874,0.33017266,4
-4.83687686920166,8.89992904663086,2.8641481399536133,1.3633620738983154,-1.6948457,-0.7367035,4
-5.254118919372559,7.388043403625487,3.3681063652038574,0.6902894377708435,-1.2156218,-1.3637567,4
-4.596954822540283,6.173285961151122,3.247756242752075,0.02608528360724449,-0.79290307,-0.89919364,4
-3.1191563606262207,5.2313194274902335,2.742262363433838,-0.3175898492336273,-1.9233092,-0.35399640000000004,4
-1.40540874004364,4.2315592765808105,1.6337220668792725,-0.2916680574417114,-2.165212,-0.08643743400000001,4
0.06914887577295302,3.288818359375,0.15484976768493652,-0.2330908328294754,0.12950343,0.68600166,4
0.974778413772583,2.609400510787964,-0.6762362718582153,-0.21513116359710693,0.99173975,0.64568454,4
1.4256877899169922,2.3264634609222408,-0.8154962658882141,-0.18253697454929352,1.4743233,0.60903263,4
1.4059828519821167,2.2272067070007324,-0.7524246573448181,-0.21166837215423584,1.4352279,0.7458665,4
0.987259030342102,1.9829801321029663,-0.7226266264915466,-0.2847533226013184,0.86254174,0.47342056,4
0.3818698227405548,1.608403563499451,-0.6265520453453064,-0.3520748317241669,-0.01160644,0.08552113,4
-0.1586553156375885,1.2658010721206665,-0.4893842935562134,-0.4397603869438171,-0.30085114,-0.20861048,4
-0.5400547981262207,0.9506008625030518,-0.23054055869579315,-0.5770355463027954,-0.69974613,-0.32620203,4
-1.0355850458145142,1.049488186836243,0.7238078713417053,-0.9209768772125244,-0.3268129,-0.9789116,4
-2.1398110389709477,3.2070646286010738,1.7304104566574097,-1.2022638320922852,2.2675319,-0.55955255,4
-2.762228012084961,6.147188663482666,3.886428117752075,-1.1574958562850952,-5.955631,-0.5571090999999999,4
-2.644833564758301,8.693972587585451,3.129589557647705,-1.0551230907440186,-1.9422461,1.8124372,4
-3.0729703903198238,10.44558048248291,1.152273416519165,-0.866705596446991,-1.02717,0.4166101,4
-3.8947482109069824,11.959810256958008,-0.2114505171775818,-0.43904876708984375,1.4462235,-0.8026769,4
-4.374218463897705,13.380905151367188,-0.8426531553268433,0.06284429132938385,2.2061398,-0.68691796,4
-3.8405873775482178,14.574621200561525,-0.860981285572052,0.5952088236808777,2.2782218,0.059864793,4
-2.664804697036743,15.461978912353516,-0.4661327600479126,1.169570803642273,2.8548787,1.0235047,4
-2.1137435436248784,15.016119003295898,0.3379911780357361,1.571601390838623,2.5842655,0.8744536,4
-2.8356058597564697,12.96285629272461,1.4563264846801758,1.6275336742401123,0.43004912,0.2302962,4
-4.011526107788087,10.480457305908203,2.747475862503052,1.4693421125411987,-1.9312505,-0.52290064,4
-4.440134048461914,8.6634521484375,3.320001602172852,1.216074824333191,-2.1572707,-0.947452,4
-4.0294294357299805,7.12754487991333,3.195235252380371,0.6807317137718201,-1.8377881,-0.82802784,4
-3.1025807857513428,5.698170185089111,2.6845245361328125,0.07395834475755693,-1.0748174,-0.39645153,4
-1.9631340503692627,4.772790431976318,2.049194097518921,-0.31541451811790466,-0.1853976,-0.015577064,4
-0.9938484430313109,3.8036935329437256,1.1774307489395142,-0.3920683562755585,-0.41416663,0.1853976,4
-0.1949164718389511,2.901747703552246,0.1053820252418518,-0.3285091519355774,-0.5647449000000001,0.3032946,4
0.30978286266326904,2.265747547149658,-0.8359382152557373,-0.26277333498001104,-0.059864793,0.39767328,4
0.3890741169452667,1.8586541414260864,-1.292777419090271,-0.2078023701906204,0.4596761,0.22907446,4
0.2587244510650635,1.6453731060028076,-1.290003776550293,-0.19012442231178284,1.2959507,0.21655174,4
0.0377572663128376,1.5417555570602417,-1.079756498336792,-0.21081291139125824,1.3891076,0.21899518,4
-0.18811960518360135,1.4718278646469116,-0.7697992324829102,-0.23915936052799225,1.1203268999999998,0.21838433,4
-0.3397965133190155,1.4010497331619265,-0.21553243696689608,-0.3040377199649811,0.50915617,0.20219639,4
-0.3404858410358429,1.3496307134628296,0.7643132209777832,-0.4581178724765778,0.041233405,0.15027285,4
-0.6758524775505066,1.9441394805908203,2.2965996265411377,-0.9662399888038636,0.99387777,-0.80573124,4
-1.6051375865936282,4.2477169036865225,3.0402719974517822,-1.3220908641815186,0.23151793,0.07422013,4
-1.9350171089172363,6.799105167388916,3.58159613609314,-1.3512264490127563,-3.0549371,-0.68966687,4
-2.1117081642150883,9.234468460083008,3.7339258193969727,-1.4357959032058716,-1.0763446,0.56779927,4
-2.2616753578186035,11.160799980163574,2.6563072204589844,-1.272904872894287,-1.0864239,0.95905846,4
-3.089392900466919,12.649367332458494,1.2339638471603394,-0.7989519834518433,0.2669481,-0.20158553,4
-3.764453411102295,13.959698677062988,0.5201712846755981,-0.1915925294160843,0.80481493,-0.79198676,4
-3.678677082061768,15.045090675354006,0.3112560510635376,0.3529666066169739,0.8258898000000001,-0.464563,4
-2.735842227935791,15.926871299743652,0.2550550401210785,0.8993192315101624,2.5051584,0.6560693,4
-2.0633816719055176,16.01620864868164,0.8365052342414856,1.250536561012268,2.270586,0.8726209999999999,4
-2.247333526611328,14.627257347106935,1.4440566301345823,1.384343504905701,1.2675453,0.45112398,4
-3.059382200241089,12.387063980102539,2.1813831329345703,1.3957380056381226,-0.99173975,-0.20952678,4
-3.508020401000977,10.322171211242676,2.6617560386657715,1.2303842306137085,-1.5674802,-0.6765333,4
-3.21885347366333,8.641861915588379,2.6057288646698,0.89417964220047,-1.3713925,-0.7125743,4
-2.5476698875427246,6.912621021270753,2.461167335510254,0.4022430181503296,-0.89736104,-0.36835176,4
-1.683388352394104,5.5219011306762695,2.096860408782959,-0.01573728397488594,-0.30726522,-0.12797627,4
-0.8026220202445984,4.477159023284912,1.291698694229126,-0.12870396673679352,-0.97035944,0.23487769,4
-0.12292984127998352,3.497206211090088,0.07125574350357056,-0.11794493347406387,-0.7012733,0.29901853,4
0.21390098333358765,2.7332723140716557,-0.9901137351989746,-0.10102912783622743,0.05955936,0.49602258,4
0.11266287416219713,2.1948513984680176,-1.534939527511597,-0.1012861430644989,0.46883908,0.3943135,4
-0.18080872297286987,1.940511465072632,-1.6877175569534302,-0.09040583670139313,1.6710218,0.22907446,4
-0.4763999581336975,1.970831155776977,-1.3752814531326294,-0.10353511571884157,2.4248295,0.21135938,4
-0.6417323350906372,2.194640636444092,-0.4796788692474365,-0.230093851685524,1.9456058,0.29810223,4
-0.7306824326515198,2.4118826389312744,0.8474628329277039,-0.3709758818149567,-0.18387043,0.29626966,4
-0.9478275179862976,2.41741681098938,2.060415983200073,-0.5142430067062378,-1.1902708999999998,0.0711658,4
-1.1248571872711182,2.3712007999420166,3.567091464996338,-0.9358657002449036,-0.06719518,-0.43127087,4
-1.8162077665328982,2.9289977550506587,5.059666156768799,-1.642646074295044,-1.9321668,-0.57451874,4
-2.345312595367432,4.849088668823242,4.756858825683594,-1.5966845750808716,-1.219287,-0.3567453,4
-2.33674955368042,7.3235368728637695,4.770437717437744,-1.63568377494812,-3.1624494,-0.09132435,4
-0.9946553707122804,9.621668815612793,3.7145836353302,-1.447957992553711,-1.7522669999999998,1.6963727,4
-1.2731447219848633,11.432913780212402,2.5147550106048584,-1.0653581619262695,-0.60139686,0.49357912,4
-2.740965843200684,12.810948371887207,1.281082272529602,-0.4776282906532288,0.9239337,-0.81000733,4
-3.757617473602295,14.09377384185791,0.7612439393997192,0.11375652253627774,0.6933321,-1.1447614,4
-3.458992958068848,15.155447006225586,0.4058509171009064,0.7775030732154846,0.46028697,-0.7852673000000001,4
-2.323485851287842,15.898405075073242,0.3116329610347748,1.27824866771698,2.3139575,0.30543262,4
-1.840792417526245,15.368525505065918,0.7190602421760559,1.597052812576294,2.5033257,0.21105394,4
-2.1216781139373784,13.283001899719238,1.4123902320861816,1.7041583061218262,0.72509706,-0.52381694,4
-2.2790372371673584,10.987587928771973,2.1474926471710205,1.6319894790649414,-1.2910636999999998,-0.70096785,4
-1.9476269483566284,9.292010307312012,2.491628408432007,1.4051872491836548,-1.8897116000000005,-0.9053023,4
-1.6151059865951538,7.744320392608643,2.7073771953582764,0.9388060569763184,-1.6227635,-0.69974613,4
-1.539004683494568,6.315083026885986,2.8176307678222656,0.3485224545001984,0.58001655,-0.5934556,4
-1.245507836341858,5.355983257293701,2.851555347442627,-0.10821416974067688,0.80756384,-0.3023783,4
-0.6428448557853699,4.336653709411621,2.6786937713623047,-0.2261015474796295,-0.8374963,-0.017715093,4
0.1002715900540352,3.337507724761963,1.929304361343384,-0.14627893269062042,-1.6105462,0.35369098,4
0.5511891841888428,2.6587023735046387,0.5850793123245239,-0.08179974555969237,0.15943582,0.7141015000000001,4
0.630898654460907,2.221846580505371,-0.3465825021266937,-0.0966893658041954,1.2724323,0.34574974,4
0.6570977568626404,2.103473424911499,-0.6176044344902039,-0.15951526165008545,1.4089607,0.29077184,4
0.5269654989242554,2.1376044750213623,-0.5688305497169495,-0.2358839064836502,1.2507466,0.462425,4
0.23108726739883426,2.0198235511779785,-0.31100556254386896,-0.3428721129894257,0.7293731,0.35002577,4
-0.16541188955307007,1.7377641201019287,0.10332418978214264,-0.4503118991851807,-0.004581489,0.0571159,4
-0.5971908569335938,1.3769893646240234,0.5572157502174377,-0.5415459275245667,-0.54275376,-0.30909783,4
-1.1059435606002808,1.2269476652145386,1.1608271598815918,-0.7617980837821959,-0.6267477,-0.91629785,4
-2.2426321506500244,2.432356595993042,1.357646346092224,-1.393903732299805,1.7461584,-1.2034045,4
-3.4033799171447754,5.092924118041992,2.2116951942443848,-1.554802656173706,3.215289,-0.80970186,4
-3.470249891281128,7.757565975189209,3.8505239486694336,-1.410226345062256,-8.263174000000001,-0.7431175999999999,4
-3.2299633026123047,10.03083610534668,2.3520796298980717,-1.274567484855652,-0.49602258,1.4844025,4
-3.3933284282684326,11.89085292816162,1.5035274028778076,-0.9253668785095216,-0.4034765,0.9120218,4
-4.010543823242188,13.392730712890625,0.7452581524848938,-0.3269265592098236,0.3680463,0.40530908,4
-4.590019702911377,14.52578830718994,0.2572651207447052,0.3092026114463806,2.160325,-0.14874569,4
-4.610495567321777,15.236650466918945,0.680841863155365,0.8668084740638733,3.84784,0.0009162979,4
-4.179013729095459,15.607686042785645,1.8415664434432983,1.323001265525818,2.5008824,1.3683381,4
-3.841336488723755,15.05881404876709,3.199124813079834,1.6516388654708862,-0.015577064,1.1942415000000002,4
-4.418417453765869,12.806450843811035,3.922735929489136,1.7685452699661257,-1.4495832,0.27152961,4
-4.862924575805664,10.60309886932373,4.175442695617677,1.6411007642745972,-2.2925773,-0.3491095,4
-4.53971529006958,9.010249137878418,4.1169185638427725,1.2715803384780884,-2.393981,-0.62888575,4
-3.7639706134796143,7.521044254302978,4.027817726135254,0.5269392132759094,-2.4239132000000003,-0.13316862,4
-2.8028781414031982,6.288236618041992,3.2002887725830083,-0.020075909793376926,0.39492437,0.47555858,4
-1.7503519058227541,4.815186500549316,2.078315734863281,-0.1018805131316185,0.73426,0.5152648,4
-0.7813959121704102,3.4286205768585205,0.9346242547035216,-0.01797350309789181,0.37232238,0.31795537,4
0.1519220769405365,2.433557748794556,-0.05398458614945412,0.023469427600502968,0.04337143,0.32436943,4
0.604374885559082,1.8857438564300537,-0.7091164588928223,0.01841594837605953,-0.2733622000000001,0.23518312,4
0.548994243144989,1.653106451034546,-1.0498743057250977,0.060581952333450324,0.25350907,0.07299839999999999,4
0.2109314054250717,1.6387577056884766,-1.0133078098297121,0.08339249342679977,0.5919284,0.060170225999999986,4
-0.2213597148656845,1.7349926233291626,-0.6892885565757751,0.04503171890974045,0.7134906,0.14538592,4
-0.654248833656311,1.821522831916809,0.05562039464712143,-0.029260454699397087,0.046731193,0.14446963,4
-0.9958761930465698,1.760312557220459,1.1073156595230105,-0.139691561460495,-0.9728029,-0.14996742,4
-1.1602842807769775,1.5108612775802612,1.9591416120529173,-0.3763589859008789,-0.5363397,-0.5589417,4
-1.562230944633484,1.1665147542953491,2.9046435356140137,-0.8691383004188538,0.25473082,-1.5149458999999998,4
-2.4329850673675537,2.1643705368041988,3.5439357757568364,-1.421558141708374,2.1096232,-1.1487321,4
-2.696192502975464,4.822685241699219,4.607203006744385,-1.387058973312378,-4.7931542,-1.0228939,4
-1.1779152154922483,7.5195865631103525,4.939960479736328,-1.3189460039138794,-2.778826,2.484389,4
-1.0644087791442869,9.460230827331543,2.401705026626587,-1.1277345418930054,-1.7599026999999998,1.9162843,4
-3.416056871414185,10.882671356201172,0.7296943068504333,-0.6505430340766907,2.0460932,-0.27580565,4
-5.0491604804992685,12.394004821777346,-0.04796160012483597,-0.06632227450609207,1.0818423,-1.557401,4
-5.287133693695068,13.75265121459961,-1.3538663387298584,0.5097316503524779,1.4501941,-1.2779301,4
-4.242969036102295,14.878958702087402,-1.6593854427337646,1.0940690040588381,4.762,0.35735616,4
-3.249206066131592,15.31588363647461,0.8649464845657349,1.587288737297058,0.14508049,1.4291192,4
-3.4204275608062744,13.960554122924805,1.6971818208694458,1.7974278926849363,-0.8200866,1.0076222,4
-4.278480052947998,11.667428016662598,1.9422492980957031,1.819653868675232,-0.47861293,-0.01863139,4
-4.611337184906006,9.72982406616211,2.5727906227111816,1.4950712919235232,-1.2125676,-0.8228354999999999,4
-4.219430923461913,8.053504943847656,2.9018540382385254,0.8829815983772278,-0.4447099,-0.57726765,4
-3.037251710891724,6.345391273498535,2.5326411724090576,0.5151463150978088,0.7791585999999999,0.1386664,4
-1.0493842363357544,4.745261192321777,2.0530540943145748,0.4149420857429504,-1.3231341,0.18997909,4
0.5894022583961487,3.5340945720672607,1.0588353872299194,0.3494006395339966,-0.85154617,0.61117065,4
1.153603196144104,2.7066314220428467,0.15766273438930511,0.2454309165477753,0.07971791,0.47494772,4
1.0141546726226809,2.309886693954468,-0.40907177329063416,0.13840976357460022,0.84329945,0.29871312,4
0.5091195106506348,2.2211544513702397,-0.7942785024642944,0.044233907014131546,1.248914,0.38026363,4
-0.12016434967517853,2.031475305557251,-0.8775148391723633,-0.037520136684179306,1.4721853,0.26297748,4
-0.7197594642639159,1.6719963550567627,-0.4947298467159271,-0.11595102399587633,0.9837985,0.08979719,4
-0.9735235571861268,1.349772572517395,-0.05091511458158493,-0.21018613874912265,0.014966198,-0.18203785,4
-0.8260124921798706,1.2089872360229492,0.2648245990276337,-0.3428862690925598,-0.35918877,-0.21899518,4
-0.4844437539577484,1.1555298566818235,0.7371021509170532,-0.5294661521911621,-0.37812558,-0.25045475,4
-0.1033494919538498,1.1099369525909424,1.7798107862472534,-0.8224869966506958,-0.17531833,-0.31764993,4
-0.12825842201709747,1.3929554224014282,3.0574846267700195,-1.3115804195404053,0.18020524,-0.7742717,4
-0.38870540261268616,2.67363715171814,2.9024031162261963,-1.5520075559616089,0.6973026999999999,-0.31948254,4
-0.5661386251449585,5.014137268066406,3.51250433921814,-1.6906133890151978,-2.130698,-0.50762904,4
-1.319469332695007,7.630702495574951,5.095322608947754,-1.9422589540481567,-1.0296134,1.1294898000000002,4
-1.429298996925354,9.55640697479248,4.411529541015625,-2.0065720081329346,-2.331978,1.0699303999999998,4
-3.094773530960083,10.044949531555176,2.0116045475006104,-1.6330578327178955,1.0064004999999998,-0.75594574,4
-4.772941589355469,10.94876194000244,0.3856692016124725,-0.9119220972061156,1.8860464,-1.3665055,4
-4.79389238357544,12.449673652648926,-0.1754404455423355,0.02421258576214313,-0.40011674,-0.3998113,4
-3.0862958431243896,13.813302040100098,-0.2988944947719574,0.9154743552207948,1.5491543,0.40530908,4
-1.7520489692687988,14.770914077758787,0.4559702873229981,1.4974957704544067,2.1908681,1.0207558,4
-1.686046481132507,14.425432205200195,1.0683690309524536,1.7833969593048096,1.4236214,0.9578367,4
-2.903745412826538,12.657293319702148,1.353614091873169,1.8969910144805908,2.0076087,0.36010507,4
-4.323514938354491,10.530896186828613,2.2181429862976074,1.729429841041565,0.13347405,-0.46731192,4
-4.8638954162597665,8.647518157958983,3.239781856536865,1.347785711288452,-2.2553146,-1.2803736,4
-4.570269107818604,6.9557127952575675,3.434873104095459,0.7119827270507812,-1.7143933,-1.0290025,4
-3.701833248138428,5.517352104187012,2.7618229389190674,0.13357311487197876,0.5900958000000001,-0.68630713,4
-2.1544206142425537,4.619767189025879,2.0896131992340092,0.007829610258340836,-0.28496864,-0.23701571,4
-0.39891716837883,3.8395414352416988,1.6177457571029663,-0.002997711068019271,-1.8435913,-0.009468411,4
0.4922383427619934,3.1207675933837886,0.6311511993408203,-0.055292751640081406,0.29229903,0.17684549,4
0.391584038734436,2.5527825355529785,-0.1844685822725296,-0.06677170097827911,0.97066486,0.40103304,4
0.014303027652204037,2.1649198532104488,-0.6299657225608826,-0.11008509993553163,1.3454307,0.3631594,4
-0.42213210463523865,1.882124781608581,-0.7420274019241333,-0.20431622862815854,1.7287487,0.19486602,4
-0.7997097969055176,1.7419545650482178,-0.3400237560272217,-0.30871233344078064,1.1032226,0.2959642,4
-1.0922287702560425,1.5619075298309326,0.4536725878715515,-0.3683634698390961,-0.41783184,0.14385876,4
-1.164822340011597,1.37174654006958,0.999071717262268,-0.4597696959972382,-0.5873469,0.062308256,4
-1.1917859315872192,1.3537462949752808,1.7449132204055786,-0.7307602763175964,-0.14385876,-0.398895,4
-1.4715329408645632,2.2851128578186035,2.682616233825684,-1.1811153888702393,-0.96577793,-0.6200281999999999,4
-1.5492296218872068,4.6744041442871085,3.0136935710906982,-1.322749137878418,0.022602014,-0.06780604,4
-1.6604406833648682,7.341132640838622,4.489483833312988,-1.292862057685852,-3.2766812,-0.20250183,4
-1.14424467086792,9.665889739990234,3.9081604480743413,-1.3849704265594482,-0.6927211999999999,1.1426234,4
-2.351738691329956,11.245863914489746,2.278286457061768,-1.157788634300232,0.61544675,-0.37659842,4
-3.9439537525177,12.478655815124512,0.9719797372817992,-0.6421910524368286,1.7104226000000002,-1.2962561,4
-4.470566749572754,13.757884979248047,0.384240984916687,0.0860469862818718,0.38789943,-0.70432764,4
-3.6145813465118413,14.867591857910154,-0.29584237933158875,0.8559995293617249,1.5668694,0.6041456999999999,4
-1.9296172857284544,15.779438018798828,0.005416798405349255,1.60424542427063,2.7256808,1.5992452,4
-1.216038703918457,15.49472713470459,1.3252706527709959,1.8631107807159424,1.3680327,1.1749994,4
-2.663343906402588,13.223158836364744,2.8055529594421387,1.8865110874176023,-1.4633276000000002,0.6218608,4
-4.397071361541748,10.823067665100098,3.921250343322754,1.6571983098983765,-3.4257324,-0.7293731,4
-5.136770725250244,8.86872673034668,3.3450024127960205,0.9550909399986268,0.27397305,-1.6200146999999998,4
-4.05403470993042,7.151784420013428,2.247741222381592,0.26920378208160395,2.3225098,-0.4999932,4
-1.4637811183929443,5.653961658477782,2.0846600532531743,0.1146092563867569,-2.101682,0.22815818,4
0.9539783596992492,4.485986709594727,1.4903340339660645,0.10719960927963257,-2.4911084,0.78954333,4
1.9914642572402956,3.6463603973388667,0.3794392645359039,-0.011141420342028141,-0.14660765,0.83077675,4
1.9615191221237185,3.1641924381256104,-0.4659720361232758,-0.13251625001430511,1.6853772,0.47555858,4
1.255748629570007,2.973245859146118,-0.8404317498207092,-0.22128954529762268,1.5683966,0.89980453,4
0.3166233003139496,2.55582332611084,-1.0857750177383425,-0.3132282793521881,1.8936822,0.28283059999999993,4
-0.4631691873073578,1.98658287525177,-0.945832133293152,-0.4373719096183777,1.3051136,-0.050701816,4
-1.0406486988067627,1.426494002342224,-0.5682104229927063,-0.5494942665100098,0.40408736,-0.18997909,4
-1.4687707424163818,0.9892051219940186,-0.19228751957416532,-0.6744668483734131,-0.17928895,-0.34177909999999995,4
-1.6165940761566162,0.7158644199371338,0.06408721953630447,-0.8168569207191467,-0.50335294,-0.24587326,4
-1.4119170904159546,0.5483326315879822,0.2595636248588562,-0.9363365769386292,-0.71685034,-0.30665436,4
-0.9409528374671936,0.4884272515773773,0.5109269618988037,-1.0224326848983765,-0.398895,-0.408058,4
-0.9465811848640442,1.0365364551544192,1.621312975883484,-1.1766360998153689,-0.17195857,-1.1276573,4
-2.1257948875427246,3.5115392208099365,2.556682109832764,-1.6714341640472412,3.7684276,-1.4682146,4
-3.0859243869781494,6.374942302703857,4.545433521270752,-1.735706806182861,-5.3285775,-0.74464476,4
-2.7093796730041504,8.747196197509767,2.8258681297302246,-1.6667523384094238,-4.468785,2.0616703000000003,4
-3.4723436832427983,10.209671020507812,0.789513885974884,-1.1953203678131104,-1.1887437,1.0482447,4
-4.0764522552490225,11.76642608642578,-0.011320961639285088,-0.5244880318641663,0.9816604,-0.2574797,4
-4.247045040130615,13.224035263061525,-0.11058030277490616,0.1762339025735855,-0.08124508,-0.55955255,4
-4.120034694671632,14.449338912963867,-0.1510484367609024,0.8331952691078186,1.1643091,-0.41325033,4
-3.2921450138092037,15.446375846862793,0.2991081178188324,1.34552264213562,2.105958,0.55863625,4
-2.4643356800079346,15.511369705200195,1.1244370937347412,1.7128744125366209,1.5454891000000002,0.50701815,4
-2.206411838531494,14.163750648498535,1.5602905750274658,1.8730427026748655,1.2046263,0.10170906,4
-2.4213671684265137,12.14484405517578,2.0297131538391118,1.7939845323562622,-0.86345804,-0.24556783,4
-2.456642866134644,10.417439460754396,2.4680461883544917,1.5513049364089966,-1.7605137,-0.45448375,4
-2.35410475730896,8.596813201904299,2.7095818519592285,1.0575727224349976,-1.3833044,-0.5555819000000001,4
-2.0687603950500493,6.935805320739746,2.55625057220459,0.4487282633781433,0.058643065,-0.41325033,4
-1.3884440660476685,5.569080829620361,2.158754825592041,0.0381707176566124,0.8588764999999999,-0.090713486,4
-0.424150824546814,4.364036083221436,1.5088348388671875,-0.07001039385795592,-0.24770586,0.20311269,4
0.5114312171936035,3.3172154426574707,0.42438074946403503,-0.07193233072757721,-0.4636467000000001,0.59986967,4
0.9758484363555908,2.4809365272521973,-0.5573334693908691,-0.07172586768865585,0.14905111,0.56169057,4
0.988223671913147,1.94785737991333,-0.957187294960022,-0.08536294102668762,0.48747048,0.45540005,4
0.6681641936302185,1.671531319618225,-0.9891830086708068,-0.1136615350842476,0.58001655,0.48288897,4
0.1889737844467163,1.5918171405792236,-0.8175570368766785,-0.15098892152309418,0.6597345,0.31826079999999995,4
-0.2638907730579376,1.6236045360565186,-0.38973814249038696,-0.20633479952812195,0.55680364,0.25717425,4
-0.6939039826393127,1.6075582504272459,0.3017975986003876,-0.30801767110824585,0.013439035,0.04428773,4
-0.916918694972992,1.5600711107254028,0.9886457324028016,-0.5185209512710571,-0.45356745,-0.17134771,4
-1.0276319980621338,1.4571031332015991,1.4357343912124634,-0.8689731359481812,-0.28405234,-0.66981375,4
-1.228265643119812,1.947842121124268,1.791606068611145,-1.197635293006897,-0.21960606,-0.56596667,4
-0.9348203539848328,4.332038879394531,2.336832046508789,-1.5056434869766235,1.1624765,0.06872234,4
-0.5700778365135193,7.0609965324401855,3.86086630821228,-1.6068331003189087,-3.656334,0.43799037,4
-0.5144805312156677,9.44743824005127,4.0459632873535165,-1.5712761878967283,-0.77488256,1.2205088,4
-1.774935603141785,11.161437034606934,2.9932212829589844,-1.5554842948913574,-1.930945,0.5369505,4
-3.9428346157073975,12.342966079711914,2.2573184967041016,-1.1850600242614746,0.5665775,-1.2922854,4
-4.756994724273682,13.539006233215332,2.150357484817505,-0.5114020705223083,-1.3842206,-1.9391917,4
-3.5666418075561523,14.663399696350098,1.4631310701370241,0.2924390435218811,-1.9269744,-1.7171421999999998,4
-1.3025301694869995,15.608926773071287,0.176796093583107,0.9790844917297364,2.240043,0.03726278,4
0.7978700399398804,16.218084335327152,0.053229901939630515,1.481575608253479,2.3631322,0.80909103,4
1.4432874917984009,15.450016021728516,0.5104166865348816,1.7279534339904783,1.9300288,0.61575216,4
0.5681847929954529,13.60257625579834,0.8323411345481873,1.8149565458297732,1.1655309,0.5326744999999999,4
-1.0614416599273682,11.457775115966795,1.6211827993392944,1.7423501014709473,-1.044885,0.3210097,4
-2.4326322078704834,9.346309661865234,2.493915557861328,1.482386350631714,-1.5451837,-0.7339545999999999,4
-3.149824619293213,7.448668956756593,2.7067482471466064,0.8154764771461487,0.82802784,-0.93645644,4
-3.0230424404144287,5.954909324645996,2.473164319992065,0.2373744547367096,1.8994855,-0.70616025,4
-1.971957087516785,4.844034194946289,2.5260906219482417,0.04389663413167,-0.7455609999999999,-0.34819320000000004,4
-0.6577248573303223,3.88089919090271,2.41773009300232,-0.045712701976299286,-3.003319,-0.32742378,4
0.32872220873832697,3.2687058448791504,1.3299272060394287,-0.08372707664966582,-1.5900823,0.35002577,4
0.6219417452812195,2.743783712387085,0.07514502108097076,-0.1097187027335167,-0.049785517,0.4297437,4
0.4449768662452698,2.188250064849853,-0.931311011314392,-0.12767593562602994,0.8597928,0.13500121,4
0.09832128137350082,1.7451974153518677,-1.5078177452087402,-0.15285122394561768,1.6850718,-0.098043874,4
-0.2891576290130615,1.4265896081924438,-1.5143688917160034,-0.2142139971256256,1.8979583,-0.20922135,4
-0.6794426441192627,1.174102783203125,-1.0872409343719482,-0.3241991400718689,1.5958854,-0.29810223,4
-0.9682065844535828,1.039279580116272,-0.4084076285362244,-0.42343047261238104,0.64660084,-0.27397305,4
-1.0534948110580444,0.9574158787727356,0.3887194693088532,-0.5171742439270021,-0.92087936,-0.3549127,4
-0.9927671551704408,0.9317908883094788,0.7225691080093384,-0.5842018723487854,-2.0604484,-0.46211955,4
-0.8122622966766357,2.0476491451263428,0.8957653641700745,-0.7093445062637329,0.30176744,-0.29077184,4
-0.009125690907239914,4.614184379577637,2.485491991043091,-0.7333559989929199,-0.12522738,0.3549127,4
0.7828715443611145,7.320503711700439,3.847392320632935,-0.9707621335983276,-1.677436,2.6261096,4
-0.4140858948230744,8.561132431030272,1.2713216543197632,-1.1721348762512207,-0.03573562,1.2983941,4
-2.622886180877685,7.358284950256348,0.4075923264026642,-1.2341355085372925,4.7006083,-0.17837265,4
-4.73733377456665,7.55969762802124,0.6208949089050293,-0.7888075709342957,0.269697,-1.9013181,4
-5.351515293121338,9.324871063232422,-0.09197411686182022,-0.1048016995191574,1.1572843000000002,-1.1184943,4
-4.0293593406677255,11.181096076965332,-1.004929780960083,0.7779055833816528,2.6163359,0.9660834,4
-2.055439710617065,12.786928176879885,-0.3213663399219513,1.720836162567139,1.7602082,1.9407189,4
-1.119764804840088,13.83191204071045,1.7599886655807495,1.9520711898803709,0.31245756,1.7302758000000005,4
-1.922392964363098,13.364537239074707,2.77740478515625,2.015112400054932,-2.0693061000000004,1.5937473999999998,4
-3.8409442901611333,11.26052951812744,3.20752501487732,1.8422428369522093,-3.0604348,0.2782491,4
-5.592565059661865,8.747639656066895,2.78044056892395,1.3205956220626829,-0.12003502,-1.3063353000000002,4
-5.865993022918701,6.627255916595459,2.1352007389068604,0.5145862698554993,2.3851233,-1.4905111999999998,4
-3.815187931060791,5.309345245361328,1.9411317110061648,0.014785883948206903,0.28771752,-0.30757064,4
-0.5502609014511108,4.862687587738037,2.142254590988159,0.05755714327096939,-4.1233406000000015,0.7696901999999999,4
1.4185928106307983,4.167250633239746,0.9555807709693908,0.13446196913719174,-1.4672983,1.0662653,4
1.3934270143508911,3.1140365600585938,-0.6389654874801636,0.0007074657478369772,1.7058412,0.58062744,4
0.4674867689609528,2.3969414234161377,-1.644192457199097,-0.15578500926494598,1.7626517,0.52290064,4
-0.6191513538360596,1.8236131668090818,-2.036412715911865,-0.2468920648097992,1.8558086,0.49174652,4
-1.6223503351211548,1.4058730602264404,-1.6113262176513672,-0.3373991250991821,2.511267,0.11942416,4
-1.970678806304932,1.3145800828933716,-0.4172993004322052,-0.3555579781532288,-0.16615535,-0.08827003,4
-1.6843986511230469,1.3241424560546875,0.1764773279428482,-0.34353676438331604,-0.87872964,0.045814894,4
-1.4142262935638428,1.153714895248413,0.3885877132415772,-0.4928680956363678,-0.7199047,-0.22204952,4
-1.2245237827301023,0.9226699471473694,0.7653236389160156,-0.7166279554367065,-0.8582656999999999,-0.3472769,4
-1.0662684440612793,0.7130116820335388,1.4077783823013306,-0.9084515571594238,-0.9691377,-0.45173484,4
-1.093348264694214,0.6306817531585693,2.703477382659912,-1.2013101577758791,-0.23335053,-0.8735373,4
-1.6823168992996216,1.7157810926437378,4.0839247703552255,-1.698523759841919,-0.71685034,-0.5821546,4
-1.6602089405059814,4.360403537750243,4.771880626678467,-1.6145193576812744,-3.9993348,0.0021380284,4
-0.3508559465408325,7.127283573150635,5.235759735107422,-1.5857081413269043,-3.7888918,1.3185526,4
0.9875683784484864,9.333083152770996,2.2985706329345703,-1.440981149673462,-1.0772609,1.2815952,4
-0.4279159605503082,10.283564567565918,0.4447163641452789,-1.0414649248123171,1.6270396,-1.0714576,4
-1.9172781705856323,11.760815620422365,-0.6196846961975098,-0.4670507907867432,2.078469,-1.676825,4
-1.9868985414505005,13.221152305603027,-1.6265543699264526,0.14031536877155304,3.0604348,-0.7058548000000001,4
-1.5807315111160278,14.446707725524902,-1.6813647747039795,0.8014715313911438,4.099517,0.5354234,4
-1.6106446981430054,14.876335144042967,0.3587135970592499,1.4915066957473757,1.5650368,0.96944314,4
-2.3926925659179688,13.697796821594238,1.7367503643035889,1.6343733072280884,-0.84207773,0.28344148,4
-3.32609224319458,11.7870454788208,2.134185314178467,1.668073296546936,-1.1557571000000002,-0.5140431,4
-3.402296543121338,9.804543495178224,2.225069999694824,1.4003685712814329,0.09193522,-1.2311989,4
-2.593083143234253,7.927011013031006,2.4736135005950928,0.9280588626861572,-0.5699373000000001,-0.763887,4
-1.3639867305755615,6.213449954986572,2.862250328063965,0.5820046663284302,-1.5861117,-0.099571034,4
0.22722476720809934,5.243949890136719,2.54419493675232,0.456593930721283,-0.9914343,0.2125811,4
1.6940038204193115,4.576644420623778,1.336545467376709,0.4129962921142578,0.9682214,0.7974846,4
2.288611888885498,3.8406949043273926,0.14367888867855072,0.3303297758102417,2.1282544,0.7357872,4
2.1548385620117188,3.164758682250977,-0.6454218626022339,0.24289719760417935,2.767525,0.54428095,4
1.604833483695984,2.649714708328247,-0.941264510154724,0.13774588704109192,2.561358,0.65393126,4
0.7738493084907532,2.29056167602539,-0.7680108547210693,-0.025174560025334358,1.9480493000000003,0.60903263,4
-0.21175947785377505,2.015826463699341,-0.24788798391819,-0.1960526704788208,0.98563105,0.44226643,4
-1.196232557296753,1.765881896018982,0.5299474000930786,-0.2856603562831879,-0.86590147,0.15485434,4
-1.8776396512985232,1.5360764265060425,0.8065007328987122,-0.35540375113487244,-1.647809,-0.21685717,4
-1.9980876445770264,1.3296023607254028,0.5583547949790955,-0.4730424284934998,-1.3402383,-0.59131753,4
-1.5722649097442627,1.1204570531845093,0.3025519251823425,-0.6240626573562622,-0.7110472,-0.784351,4
-0.9351022839546204,1.241386651992798,0.3582930266857147,-0.8755698800086975,-0.35827246,-0.8775079,4
-0.5782902836799622,2.674842834472656,0.9499661922454834,-1.3015122413635254,0.38515055,-0.6441574000000001,4
-0.6859381794929504,5.3083600997924805,2.583052635192871,-1.5827080011367798,0.6814201999999999,-0.40042216,4
-0.5124120116233826,7.939181327819824,4.081258773803712,-1.7029941082000732,-4.1712932999999985,0.5699373000000001,4
-0.8889415860176086,10.1762056350708,3.20712947845459,-1.7079838514328003,-1.4547756,0.89827734,4
-1.9340415000915527,12.00622272491455,1.782010793685913,-1.3338351249694824,-0.6017023,-0.18020524,4
-2.7518811225891118,13.485937118530273,0.3950534164905548,-0.7318426370620728,1.0436633,-0.80848014,4
-2.860701322555542,14.668103218078613,-0.0812612846493721,-0.05711527913808824,0.75411314,-0.6096435,4
-2.408328056335449,15.604449272155762,0.22098591923713684,0.6431731581687927,3.6190712,0.78801614,4
-1.7290916442871094,16.146028518676758,1.3740168809890747,1.4252406358718872,2.5302038,1.7183639,4
-2.0902421474456787,15.149617195129395,2.7070813179016118,1.8164732456207275,-0.20769419,1.2959507,4
-3.406256675720215,13.073872566223145,3.5278780460357666,1.898154020309448,-1.2589933,0.32620203,4
-4.460271835327148,10.849552154541016,3.97599720954895,1.6805405616760254,-1.9147571,-0.7965683000000001,4
-4.538156032562256,8.854663848876953,3.6700944900512695,1.225200057029724,-0.72356987,-1.4563028,4
-3.691406726837158,7.0811638832092285,2.9177663326263428,0.5583927631378174,1.4822645,-0.8756753,4
-2.0653328895568848,5.835598945617676,2.505742073059082,0.09299317002296448,1.2620476,-0.029932396,4
-0.3085916340351105,4.831552982330322,2.4850258827209477,0.0031160786747932434,-1.5815301000000002,0.3408628,4
0.7398083209991455,3.628442287445069,1.710177302360535,0.01037153322249651,-2.925739,0.2864958,4
1.0422065258026123,2.5572943687438965,0.11960643529891968,0.055328380316495895,-0.6914994999999999,0.27397305,4
0.8342475295066833,1.8726143836975095,-1.3670870065689087,0.1378314644098282,1.475545,0.45631635,4
0.287667453289032,1.4297484159469604,-2.0881803035736084,0.1715202033519745,3.062573,0.23335053,4
-0.4119914472103119,1.2202550172805786,-1.926888465881348,0.13994181156158447,3.7247508,0.0070249503,4
-0.8631382584571838,1.322895050048828,-0.490330845117569,0.12053307890892027,0.66828656,-0.23732115,4
-0.7403647899627686,1.458616852760315,0.7102183699607849,0.14809206128120422,-1.400714,-0.22052236,4
-0.4682702422142029,1.5133161544799805,1.109229326248169,0.028897011652588844,-1.4837917,-0.21533,4
-0.2779708802700043,1.400990009307861,1.169668197631836,-0.24344202876091006,-1.1291844,-0.27488935,4
-0.3151756525039673,1.1964340209960938,1.2375574111938477,-0.615253746509552,-0.053450707,-0.60139686,4
-0.8646467924118042,1.95953905582428,1.80130136013031,-1.0824869871139526,1.8374827,-0.9746355,4
-1.2208596467971802,4.418244361877441,3.123995542526245,-1.467640042304993,2.918714,-0.18967366,4
-1.1228156089782717,7.12331485748291,5.191733360290527,-1.3868627548217771,-8.974833,0.16310102,4
-1.0209217071533203,9.49604320526123,3.918321371078491,-1.416900396347046,-0.7816021,1.7925841,4
-1.5309674739837646,11.281665802001953,2.1630349159240723,-1.1062335968017578,-2.5017986,0.7806858,4
-2.310597896575928,12.79301643371582,0.4369098544120789,-0.4754582941532135,1.9511036,-0.7867944,4
-2.4366719722747803,14.090676307678224,-0.4377157688140869,0.009658878669142723,1.858252,-0.72784597,4
-1.6358884572982788,15.154847145080565,-0.8851836323738098,0.583717405796051,2.610227,0.53969944,4
-0.7149906754493713,15.945067405700685,0.02472042851150036,1.3289055824279783,1.7916678,1.3096951,4
-0.5273643732070923,15.547103881835938,1.196743369102478,1.6029317378997805,0.9334021,0.75502944,4
-1.2756205797195437,13.866894721984865,1.3309831619262695,1.6491861343383791,0.26542094,0.14569137,4
-2.2399976253509517,11.576998710632324,1.7721818685531616,1.5076904296875,-1.6594155,-0.46792278,4
-2.8734633922576904,9.45150375366211,1.863539814949036,1.2249411344528198,-1.5601498,-0.9114109,4
-2.9436755180358887,7.494979381561278,1.6293270587921145,0.7518172264099121,-0.29443705,-1.1591167,4
-2.5463123321533203,6.010880470275879,1.428354024887085,0.16714626550674438,0.98654735,-1.0149527,4
-1.61874258518219,5.188112735748291,1.346537470817566,-0.2407815307378769,1.894904,-0.7302894,4
-0.5751147270202637,4.4887518882751465,1.5423442125320437,-0.3933736979961395,0.55955255,-0.28710666,4
0.300390899181366,3.4844772815704346,1.643167495727539,-0.4070415794849396,-1.9679024,-0.3827071,4
0.8943217992782593,2.5096898078918457,1.2028751373291016,-0.4142874777317047,-2.9654453,-0.20861048,4
1.0129666328430176,1.9882674217224119,0.3351871073246002,-0.4075580835342407,-2.1636846000000003,0.06291912,4
0.6719831824302673,1.775787353515625,-0.4737667441368103,-0.3913497626781464,-0.19181168,0.13041973,4
0.2528212070465088,1.603029727935791,-0.9107287526130676,-0.4187985360622406,1.2116512,0.016187929,4
-0.0043416544795036325,1.5466554164886477,-1.0018930435180664,-0.4498962163925171,1.7305813,0.018020526,4
-0.1179700419306755,1.5320268869400024,-0.8445780873298645,-0.4468028843402863,1.9724839,0.12950343,4
-0.06044000014662744,1.5055453777313232,-0.4095190763473511,-0.4565581381320954,1.6084082,0.3549127,4
0.14742209017276764,1.4771374464035034,0.306161493062973,-0.5644601583480835,0.8900306999999998,0.5390885999999999,4
0.28981178998947144,1.901052951812744,1.6690826416015625,-0.9114801287651062,0.39858958,0.6374379,4
-0.002321518724784255,3.869949340820313,2.9712522029876713,-1.2392957210540771,1.8038851,0.8576548,4
-0.21929463744163516,6.563701629638673,4.505571365356445,-1.2103806734085083,-5.4895406,0.6059783000000001,4
-0.9210808873176576,8.973793983459473,2.930739164352417,-1.41188383102417,0.45845437,0.64721173,4
-1.7799197435379028,10.504711151123047,1.331782579421997,-1.3496001958847046,-1.0757337,-0.022296581,4
-2.8060638904571533,12.034565925598145,0.31288111209869385,-0.8080781102180481,0.11636983,-1.6621643,4
-2.4654250144958496,13.44834041595459,-0.6698414087295532,-0.1734883189201355,0.48716503,-1.6444492,4
-1.0712447166442869,14.628902435302734,-1.2159203290939329,0.5331522226333618,1.7290541,-0.25411993,4
0.1596534699201584,15.572589874267578,-0.4534506499767304,1.2427096366882324,2.769663,0.9642508,4
0.35557258129119873,15.613548278808596,0.7445694208145142,1.633735418319702,1.5922203,1.0384709,4
-0.478782445192337,14.256322860717773,1.4711056947708132,1.8558911085128784,0.94134337,0.65118235,4
-1.7809768915176392,11.954933166503904,2.8884642124176025,1.8704572916030884,-2.9269607000000004,-0.16676621,4
-2.711787462234497,9.619207382202148,3.503880262374878,1.5270142555236816,-3.500258,-1.0167851,4
-3.0652785301208496,7.804953575134277,2.702197790145874,0.8802372813224792,-0.9618073,-0.90224797,4
-2.8730461597442627,6.1974077224731445,1.5721453428268433,0.2321988642215729,1.1414018,-0.54000485,4
-2.005712509155273,5.087522506713867,0.8695090413093567,-0.06783320754766464,1.0867293,-0.18234327,4
-0.5916705131530762,4.357376575469972,0.7439808249473572,-0.1385435312986374,-0.88514376,0.24617869,4
0.619787871837616,3.478001832962036,0.4678000807762146,-0.2000148445367813,-1.3567317,0.3491095,4
1.2052940130233765,2.560605049133301,-0.15528348088264465,-0.260502964258194,-0.6588182,0.33933565,4
1.126437425613403,1.951595902442932,-0.6384610533714294,-0.34148797392845154,0.27275133,0.40958515,4
0.621665894985199,1.7590056657791138,-0.9190211892127992,-0.3939793705940247,0.9935723,0.52473325,4
0.1574438512325287,1.6351159811019895,-0.9696033596992492,-0.3907402753829956,1.151481,0.38087448,4
-0.1875077933073044,1.4428234100341797,-0.7104445099830627,-0.380910724401474,0.9773844,0.4184427,4
-0.4226270914077759,1.191926121711731,-0.17839685082435608,-0.3752433955669403,0.2773328,0.35277468,4
-0.4935466647148132,0.9919137358665466,0.3040713667869568,-0.384556382894516,-0.2012801,0.22266038,4
-0.4392670094966888,0.8618415594100952,0.6607769727706909,-0.4536312520503998,-0.39645153,0.05375614,4
-0.36815789341926575,0.8489372730255127,1.1401139497756958,-0.6460642814636229,0.12034045,-0.21319197,4
-0.7202079892158508,1.6146399974822998,2.2265825271606445,-1.1161859035491943,-0.6087272,-0.7144069000000001,4
-1.377094864845276,4.086012840270996,2.83662223815918,-1.396036148071289,1.105666,-0.1563815,4
-1.6327881813049316,6.811261177062987,4.785611629486084,-1.5328408479690552,-5.41135,-0.015271631,4
-1.5753216743469238,9.237567901611328,3.4163146018981934,-1.6716264486312866,0.31764993,0.16584991,4
-2.1257586479187007,11.140802383422852,1.4790402650833132,-1.519339084625244,0.6017023,-0.9245446,4
-2.849128007888794,12.621637344360352,0.16447316110134125,-0.9408106803894044,0.7635816,-1.196685,4
-2.547485589981079,13.9540433883667,-0.6609818339347839,-0.07120674103498459,0.3472769,-0.44073927,4
-1.1128660440444946,15.046112060546875,-1.0353785753250122,0.9330269098281859,2.2440135,0.80939645,4
0.05783271417021753,15.74621868133545,0.6354656815528871,1.6279386281967163,2.3109033,1.5143349,4
-0.26040613651275635,15.006462097167967,1.6738901138305664,1.8968068361282349,0.84879726,1.1942415000000002,4
-1.6245332956314087,12.911436080932615,2.55435848236084,2.0612635612487797,-0.7535023000000001,0.5305365,4
-3.0671675205230717,10.53915023803711,3.4768621921539307,1.81153416633606,-2.737287,-0.5824600000000001,4
-4.065709114074707,8.486523628234862,3.6021740436553955,1.2007068395614624,-1.1475104,-1.4288138,4
-3.9740877151489262,6.859782695770264,2.911702871322632,0.4340129196643829,0.4700608,-0.98746365,4
-2.720694065093994,5.726776599884032,2.0820062160491943,-0.0047683040611445895,0.60139686,-0.20189096,4
-0.8688012361526489,4.820892810821533,1.6478989124298096,-0.0997363105416298,-0.68111473,0.035430185,4
0.591957151889801,3.7570922374725337,1.3503201007843018,-0.15224599838256836,-1.92392,0.18875736,4
1.3118735551834106,2.8323071002960205,0.5951825976371765,-0.18783153593540192,-0.88147855,0.3203988,4
1.3465733528137207,2.151395320892334,-0.4029686748981476,-0.19852076470851895,0.43799037,0.25778514,4
0.8307566046714783,1.7679281234741209,-1.0344679355621338,-0.19683316349983213,0.816116,0.21471913,4
0.2627568542957306,1.5562458038330078,-1.2015210390090942,-0.21479709446430206,0.6020076999999999,0.12003502,4
-0.1854690909385681,1.503502368927002,-1.1442795991897583,-0.24254611134529114,0.7703011,0.1872302,4
-0.6370152831077576,1.46003520488739,-0.6884300708770752,-0.2678222954273224,1.0467176,0.24740042,4
-0.9097218513488771,1.296398639678955,0.07408607006072998,-0.2855665981769562,0.17989981,0.0030543262,4
-0.7937412261962891,1.118628740310669,0.5176967978477478,-0.35884159803390503,-0.2406809,-0.14721853,4
-0.4093596041202545,0.935001254081726,0.6949828863143921,-0.5076872110366821,-0.25686884,-0.35308012,4
-0.2682554125785828,0.9631766676902772,1.4202492237091064,-0.8294129967689514,0.14630222,-1.0491611,4
-0.8194243907928467,2.4624953269958496,1.906833291053772,-1.3774404525756836,1.5735888,-0.8509353000000001,4
-1.9916225671768188,5.255189418792725,3.221576690673828,-1.2705986499786377,-3.6322047999999993,0.17837265,4
-2.1372027397155757,7.923737049102782,4.382811546325684,-1.4044439792633057,-5.2763486,1.4651603000000002,4
-2.252483367919922,9.761666297912598,1.9535759687423704,-1.2942571640014648,-1.8466456,-0.07819075,4
-3.322681665420532,10.835333824157717,0.14729267358779907,-0.8553566336631775,1.1921035,-1.8063285,4
-3.330307960510254,12.247126579284668,-0.6464836597442627,-0.12117066979408266,0.77824235,-1.153619,4
-1.883942723274231,13.609481811523438,-1.0840394496917725,0.7346624135971069,0.9502009,0.12095132,4
0.08663436770439148,14.750653266906738,-0.7172232270240784,1.5760483741760254,2.649628,1.5375478,4
1.033563494682312,15.100948333740234,0.6215353012084961,2.019775629043579,1.6798794,1.704925,4
0.008794143795967102,13.943045616149902,1.7539358139038086,2.1892576217651367,-1.2153164,1.1472049,4
-2.69212007522583,11.73335075378418,3.134407520294189,1.988278031349182,-2.9972103,-0.37934732,4
-4.5214505195617685,9.490809440612793,2.903545379638672,1.2818046808242798,0.43371433,-1.8735237,4
-4.238574504852295,7.522323131561278,1.8876032829284668,0.37970513105392456,1.6869043999999995,-1.5696182,4
-2.273699760437012,5.81888484954834,0.8707412481307983,-0.16839250922203064,0.25289822,-0.36163223,4
0.23939204216003415,4.35402774810791,0.3486976623535156,-0.27985021471977234,-1.9541580000000005,0.21380283,4
1.8154261112213133,3.3268415927886963,-0.2536011636257172,-0.3226948380470276,-1.8994855,0.8313876,4
2.267553806304932,2.684727430343628,-1.148594856262207,-0.3198431730270386,0.3585779000000001,0.65393126,4
1.9018810987472532,2.5083887577056885,-1.94268536567688,-0.26830393075942993,1.6957619,0.8335256,4
1.141979455947876,2.464176177978516,-2.240417957305908,-0.2512649595737457,1.6801848,0.6545420999999999,4
0.4687734842300415,2.368075132369995,-2.13587498664856,-0.2867022752761841,1.5662584,0.40103304,4
-0.04865298420190811,2.2034506797790527,-1.8400462865829468,-0.3253384530544281,1.6380351999999998,0.47403142,4
-0.4835450947284698,1.865694999694824,-1.279334306716919,-0.34638407826423645,0.9737192,0.40133846,4
-0.831498384475708,1.378093957901001,-0.5016084909439087,-0.3777389526367188,0.07941248,0.22327125,4
-0.9614083766937256,0.9572232961654664,0.3127531111240387,-0.4321668148040772,-0.7360926,0.16584991,4
-0.8611870408058167,0.691279411315918,1.0039654970169067,-0.5200291872024536,-0.6704246,0.15057829,4
-0.6460247635841371,0.6875327825546265,1.7502416372299194,-0.7581949234008789,0.35124752,-0.15760323,4
-0.7330199480056763,1.9657323360443115,3.207072496414185,-1.4797518253326416,0.6239988000000001,-0.5335908,4
-0.960280418395996,5.026931285858153,4.844589710235597,-1.610740065574646,-1.9095647,1.067487,4
-0.31114065647125244,7.644328594207764,4.164530754089356,-1.8396661281585691,-3.5756998,1.1151345,4
-0.921759307384491,8.974100112915039,1.4880791902542114,-1.6054433584213257,0.11911872,-0.2574797,4
-2.203303813934326,10.334918975830078,0.20198144018650052,-0.9918455481529236,1.9529362,-2.4920247000000004,4
-2.237830400466919,11.957246780395508,-0.3550070524215698,-0.09457215666770936,-0.75686204,-1.9275852,4
-1.1520925760269165,13.398313522338867,-1.6135278940200806,0.6796241402626038,1.6077974,0.691194,4
0.19621235132217407,14.525442123413086,-1.1476980447769165,1.6939656734466553,1.9749273,1.9449949,4
0.30351722240448,14.234492301940918,0.2829427123069763,2.253786325454712,1.981036,1.1294898000000002,4
-1.4001867771148682,12.814047813415527,2.017017126083374,2.27700138092041,-1.6093245,0.6560693,4
-4.113066673278809,11.125235557556152,3.6318788528442383,1.851909875869751,-0.8539896,-1.3261883999999995,4
-5.693265914916992,9.369757652282717,3.846735715866089,1.0426802635192869,0.754724,-2.3893993,4
-4.47318696975708,7.995099067687987,3.256359100341797,0.2707148194313049,0.47403142,-0.9975429,4
-1.3933098316192627,6.72425651550293,3.282655000686645,-0.10287365317344667,-2.6875017000000003,0.6982189999999999,4
1.439907431602478,5.103195667266847,3.2329726219177246,-0.2573656439781189,-3.6697729,0.29077184,4
2.6911683082580566,3.623685359954834,2.14935564994812,-0.3802810609340668,-1.9758437,0.33628133,4
2.634920597076416,2.5515336990356445,0.4407405257225037,-0.4535809755325317,0.7742717,0.20097467,4
1.7723582983016968,2.030113935470581,-0.8802240490913391,-0.49737548828125,1.9929478,0.004276057,4
0.5690385699272156,1.9982678890228271,-1.6482855081558228,-0.4579644501209259,1.7922786,0.57879484,4
-0.4402439892292023,1.866310238838196,-1.898363709449768,-0.3969618678092957,2.3808472000000003,0.59956425,4
-1.2226418256759644,1.6168808937072754,-1.6411280632019043,-0.42731934785842896,2.5864034,0.47800204,4
-1.6663573980331419,1.3045310974121094,-0.8390103578567505,-0.4210678339004517,0.64904433,0.15302174,4
-1.567908525466919,0.9973710775375366,-0.267446905374527,-0.33255723118782043,-0.5726861999999999,0.11026118,4
-1.105305552482605,0.6741940379142761,-0.1754881590604782,-0.3327914476394653,-0.8026769,0.076052725,4
-0.5837071537971497,0.3686785399913788,-0.07293671369552612,-0.4071183502674103,-0.9822713,0.023518313,4
-0.445267379283905,0.3364872336387634,0.17448626458644867,-0.4898077249526978,-0.29260445,-0.16218472,4
-0.7209815382957458,1.0028572082519531,0.6237600445747375,-0.7672665119171143,1.7773124,-0.5867361,4
-0.9837496876716614,2.3167881965637207,0.3669328987598419,-0.8408185243606567,1.5888605,-0.31795537,4
-1.3671802282333374,4.55698823928833,2.0525960922241206,-0.7805234789848328,-0.571159,-0.6007859999999999,4
-0.8613131046295166,7.22291374206543,1.7047427892684937,-1.0947210788726809,-1.3408492,1.2024882,4
-1.2599592208862305,9.110814094543457,-0.7320428490638733,-1.0432480573654177,0.07422013,0.1863139,4
-2.167643785476685,10.689223289489746,-2.251339197158813,-0.3983672559261322,1.4633276000000002,-0.95294976,4
-1.911604642868042,12.31006145477295,-2.9099597930908203,0.4049537777900696,2.5363126,-0.26878070000000004,4
-0.8730559349060059,13.699289321899414,-2.371119737625122,1.186750054359436,2.1542163,1.1826351000000002,4
0.08575233817100525,14.302327156066895,-0.09648361802101137,1.8314579725265503,0.37568212,1.7745636000000002,4
-1.0462712049484253,13.111111640930176,1.5256001949310305,1.93363893032074,-1.1572843000000002,1.0057896000000002,4
-3.449281454086304,11.081514358520508,2.80783486366272,1.7923301458358765,-1.5668694,-0.3830125,4
-5.221243858337402,9.148011207580566,3.6735036373138423,1.3264994621276855,-0.9950995,-1.7027868999999998,4
-5.344132900238037,7.552759647369385,3.7155256271362314,0.6090331077575684,-1.1426234,-1.7559321,4
-3.8737578392028813,6.189966678619385,3.056663990020752,-0.00947312265634537,-1.3176364,-0.74036866,4
-1.2887896299362185,5.172042369842528,2.1395974159240723,-0.3514057397842407,-0.9999864,-0.070249505,4
1.0674114227294922,4.2221593856811515,1.2712727785110474,-0.4324786067008972,-1.3365731,0.453262,4
2.2489659786224365,3.1634609699249268,0.37720987200737,-0.4080583453178406,-1.1994339,0.72204274,4
2.5097100734710693,2.2462329864501958,-0.9935886263847352,-0.31870731711387634,0.8127562,0.7067711,4
1.8951492309570312,1.9044164419174197,-2.195562601089477,-0.16434599459171295,2.5185974,0.37995818,4
1.0881712436676023,1.9024237394332888,-2.5179007053375244,-0.03792144730687141,2.9599476000000005,0.5308419,4
0.23935674130916595,1.945639371871948,-2.0848889350891118,-0.02032044716179371,2.2467623,0.91507614,4
-0.5147569179534912,1.93220853805542,-1.0205570459365845,-0.00034773224615491927,0.9828822,0.8035932,4
-1.1906763315200806,1.7688592672348022,0.09994158148765564,0.02315844222903252,-0.14355333,0.23732115,4
-1.615619659423828,1.5185488462448118,0.8028109669685364,-0.12978263199329376,-0.31398472,-0.19608775,4
-1.6683499813079834,1.2171173095703125,1.4012272357940674,-0.3904070854187012,-0.7104363,-0.46517387,4
-1.5634639263153076,1.2850117683410645,2.5231921672821045,-0.7910532951354979,0.21960606,-0.84940815,4
-1.5826493501663208,2.892136812210083,3.1838881969451904,-1.4385923147201538,1.2147056,-0.30604348,4
-1.1499900817871094,5.617257595062256,4.1407108306884775,-1.3011491298675537,-3.9742892,0.5021312,4
-0.2837542295455933,8.217521667480469,4.0201992988586435,-1.3803688287734983,-1.924531,0.4156938,4
0.2682112157344818,10.408952713012695,2.385136842727661,-1.3519095182418823,-1.026559,0.6047566,4
-0.8607263565063477,12.113123893737793,0.9954547882080078,-0.9575039744377136,0.6432411,-0.7293731,4
-2.0193305015563965,13.530303955078125,0.3571084439754486,-0.3853727877140045,0.33628133,-1.8161024,4
-1.943516969680786,14.70199966430664,-0.11997693032026292,0.268751859664917,0.3408628,-0.93615097,4
-0.6184980273246765,15.650904655456545,-0.6009571552276611,0.9587802886962892,2.214081,0.75594574,4
0.4234772026538849,15.842806816101074,0.36740684509277344,1.5284433364868164,1.239751,0.9550878,4
-0.1082424446940422,13.923367500305176,1.264928698539734,1.7266134023666382,-0.12675454,0.27550024,4
-0.9807934165000916,11.775575637817385,2.0110852718353267,1.7486164569854736,-2.10046,-0.084910266,4
-1.6270409822463991,9.80567741394043,2.438053607940674,1.5385724306106567,-2.430022,-0.5271766999999999,4
-2.045064210891724,7.950596809387207,2.428898334503174,1.0413925647735596,-1.312444,-1.0497719,4
-2.08207106590271,6.3640689849853525,2.056926012039185,0.3715356290340424,0.08735373,-0.9401216,4
-1.54659903049469,5.316554546356201,1.5329247713088991,-0.19098955392837524,1.5222762,-0.77579886,4
-0.5747074484825134,4.488436222076416,1.351604700088501,-0.3987548053264618,0.3472769,-0.19242255,4
0.6136140823364258,3.607657909393311,1.0402867794036863,-0.37989342212677,-1.5494597,0.45448375,4
1.377932071685791,2.7508294582366943,0.19644580781459808,-0.2782823443412781,-1.7886133999999998,0.929126,4
1.4603097438812256,2.0801382064819336,-0.8333024382591248,-0.1127401813864708,-0.3979787,0.7501425,4
1.218864679336548,1.8303067684173584,-1.3548282384872437,0.025312025099992752,1.5851953,0.7473936,4
0.7681125998497009,1.9323713779449463,-1.3562445640563965,-0.0032382910139858727,2.3952026,0.94806284,4
0.2987794876098633,2.0400516986846924,-0.8055031895637512,-0.08913596719503403,1.6667458,0.7147123000000001,4
-0.08202222734689713,1.9713499546051023,0.1414356529712677,-0.18872253596782684,0.25595254,0.41050145,4
-0.5165616273880005,1.7137125730514526,0.973795771598816,-0.3326585590839386,-0.68875057,0.08460484,4
-1.2234489917755127,1.7376611232757568,2.0499529838562007,-0.6319908499717712,-0.041233405,-0.54733527,4
-1.8527815341949463,3.4444966316223145,3.0753390789031982,-1.2968713045120241,1.3579534,-0.5308419,4
-1.260962963104248,6.1283040046691895,4.870678901672363,-1.3536558151245115,-1.1985176000000002,1.2834278,4
0.6315264105796814,8.64466381072998,3.769565105438232,-1.4320645332336426,-3.4901786,0.9773844,4
0.9075536131858826,10.648204803466797,1.951161742210388,-1.3677886724472046,-1.2351695,0.49418998,4
-0.7749929428100586,12.18472385406494,0.4947305917739868,-0.8948017358779907,0.25992316,-0.8170323,4
-1.92011559009552,13.573272705078125,-0.12835752964019775,-0.2370846122503281,0.11881329,-1.5274686000000002,4
-1.3864458799362185,14.73271942138672,-0.437675416469574,0.4466445446014404,-0.80756384,-1.4379768,4
0.4026163816452025,15.675597190856935,-0.8188197612762451,1.0191522836685178,1.488984,0.14782938,4
1.565766215324402,15.895545959472654,-0.02708186395466328,1.536969780921936,1.9541580000000005,0.70646566,4
1.242281198501587,14.54367733001709,1.0471642017364502,1.7218794822692869,0.106901415,0.039095376,4
0.1705845296382904,12.212347030639648,1.6766953468322754,1.7669019699096682,-1.7537941000000004,-0.41538838,4
-0.7584342956542969,9.947531700134276,1.6739624738693235,1.6185882091522217,-1.6911805,-0.48563787,4
-1.3816494941711426,8.115536689758299,1.6185194253921509,1.1242637634277344,-1.2030991000000002,-0.95722586,4
-1.6333322525024414,6.69220495223999,1.5690962076187134,0.3738902807235718,0.61391956,-0.86590147,4
-1.4111212491989136,5.604012966156006,1.450084924697876,-0.21551068127155304,1.1655309,-0.4098906,4
-0.6217250227928162,4.492899417877197,1.352288842201233,-0.3687480986118317,-1.2727377,0.12034045,4
0.25675663352012634,3.38087797164917,0.5675973296165466,-0.3001425862312317,-1.6917913,0.25045475,4
0.9346981644630432,2.7180094718933105,-0.6535154581069946,-0.21812379360198972,-0.23487769,0.6389651,4
1.178638219833374,2.425301074981689,-1.372261643409729,-0.21428163349628448,1.0091494,0.39858958,4
1.126534104347229,2.4361331462860107,-1.4543014764785769,-0.2656037509441376,1.8298469,0.3436117,4
0.8845905661582947,2.6215031147003174,-1.127002835273743,-0.3874136507511139,1.4199562,0.58459806,4
0.5233259201049805,2.705265760421753,-0.8575253486633301,-0.5622122287750244,1.065349,0.63316184,4
0.01711398921906948,2.5920000076293945,-0.5233399868011475,-0.7032971978187561,0.5494733,0.61758476,4
-0.6021914482116699,2.184166669845581,-0.0008604247705079615,-0.8012708425521851,0.02443461,0.32192600000000005,4
-1.1790180206298828,1.7477402687072754,0.8638966679573059,-0.9584732651710509,0.43371433,-0.2706133,4
-1.7616435289382937,2.1084704399108887,3.1457958221435547,-1.6424579620361328,1.3545936,-1.1908818,4
-2.591526508331299,4.363524913787842,4.9523234367370605,-1.9998714923858645,-0.42271876,-0.11209377,4
-2.574100971221924,7.0415358543396,5.575153827667236,-1.901283621788025,-5.4867916,-0.6969972,4
-0.8049052357673645,9.335912704467773,3.7137317657470703,-1.755190372467041,-2.680782,0.9984592,4
-1.3978265523910522,10.961305618286133,2.454751968383789,-1.2678736448287964,-0.6038403,0.10476339,4
-2.044565439224243,12.489092826843262,1.393362522125244,-0.5459475517272949,1.9758437,-1.428203,4
-1.790031909942627,13.836134910583494,0.6393961310386658,0.09636356681585312,1.244638,-1.2186762,4
-0.9115551114082336,14.947810173034668,0.008842648938298225,0.8419058918952942,1.7553213,-0.0030543262,4
0.1015028953552246,15.7739896774292,0.4973037242889404,1.448564529418945,2.4608707,1.2168436000000002,4
0.3351972699165344,15.57185173034668,1.6534575223922732,1.88040030002594,0.52381694,1.4153748,4
-0.4166239202022553,13.877878189086914,2.327418804168701,2.123757839202881,-0.37232238,0.86193085,4
-1.790663480758667,11.234554290771484,2.7781364917755127,2.163073778152466,-0.93645644,-0.22082779,4
-2.66584849357605,9.104816436767578,3.1719002723693848,1.7872148752212524,-1.6575828999999995,-1.1649200000000002,4
-2.9050214290618896,7.697278499603271,3.1270437240600586,1.1076823472976685,-0.5693264,-1.3066407,4
-2.6206483840942383,6.521924018859862,2.687618494033813,0.36038386821746826,2.162463,-0.7263188,4
-1.75207781791687,5.530099391937256,2.3911893367767334,-0.0203655268996954,1.1633928999999998,-0.14538592,4
-0.42615577578544617,4.52644157409668,2.21366548538208,-0.07583307474851607,-2.0659463,0.17134771,4
0.8201981186866759,3.423208475112915,1.297872543334961,-0.11830493807792665,-2.5094345,0.24740042,4
1.1270971298217771,2.607116222381592,-0.24058984220027926,-0.1272449940443039,-0.7180721,0.54702985,4
0.8395884037017822,2.157834768295288,-1.2824325561523438,-0.08988115191459656,1.0198395,0.2764165,4
0.3626146912574768,2.065878391265869,-1.6471961736679075,-0.06811965256929398,2.5433373,0.3304781,4
-0.14156794548034668,2.128581523895264,-1.4382531642913818,-0.17410127818584442,2.2864685,0.48930305,4
-0.5292333960533142,2.2012476921081543,-0.9860034584999084,-0.3467859625816345,2.2375994,0.5345071,4
-0.8166738748550415,2.1797080039978027,-0.027165064588189125,-0.4612935483455658,1.087951,0.59986967,4
-1.0397796630859375,1.8712486028671265,1.0378111600875854,-0.5170219540596008,-0.44623706,0.19303341,4
-1.2703958749771118,1.586601734161377,2.1750967502593994,-0.7045479416847229,0.84329945,-0.33444872,4
-2.164270162582397,2.526648998260498,4.335541725158691,-1.43266499042511,1.6646078000000002,-0.999681,4
-2.8028457164764404,5.1122775077819815,6.770354270935059,-1.8171541690826416,-2.2354615,-1.2425,4
-1.6007844209671018,7.756410598754883,5.998634338378906,-1.867292046546936,-2.3646593,0.34819320000000004,4
-0.16193291544914246,9.8015718460083,4.095031261444092,-1.7138493061065674,-1.8817704,0.76083267,4
-0.7260591983795166,10.779943466186523,2.806401491165161,-1.0991427898406982,-1.065349,-0.47158796,4
-1.8356634378433228,12.042518615722654,1.4088319540023804,-0.3179473280906677,1.0002918,-1.4239268,4
-2.004101276397705,13.399945259094238,0.4032289981842041,0.4228516817092896,0.20861048,-1.3518448,4
-0.9418895840644836,14.580219268798828,0.5757246613502502,1.0969010591506958,-0.23151793,0.35216382,4
0.2329390347003937,15.395089149475098,1.262022852897644,1.6394201517105105,0.19211712,1.2382239,4
0.3337036073207855,14.758877754211426,1.809307336807251,2.0026066303253174,0.54000485,1.0546589,4
-0.4688706696033478,12.598593711853027,2.00019645690918,2.0905001163482666,0.5012149,-0.02443461,4
-1.3209850788116455,10.326565742492676,2.2152061462402344,1.8294706344604488,0.2125811,-0.6478225999999999,4
-1.703704833984375,8.662653923034668,2.40336537361145,1.2887897491455078,-0.13622294,-1.1404854,4
-1.6714396476745603,7.344639301300049,2.334712028503418,0.6111739277839661,0.56138515,-0.6979135000000001,4
-1.2132959365844729,6.112717151641847,2.060087919235229,0.12044813483953475,0.5222898,-0.26145032,4
-0.4278962910175324,5.0207180976867685,1.835245132446289,-0.16113203763961792,-0.59223384,0.032070424,4
0.2354383021593094,3.9512593746185294,1.2885863780975342,-0.3224133253097534,-1.2333368999999998,0.204029,4
0.5294897556304932,3.028564929962158,0.25353947281837463,-0.3638069927692413,-0.80573124,0.4728097,4
0.4635172784328461,2.3811845779418945,-0.992158055305481,-0.3128017783164978,0.21166481,0.4569272,4
0.10566915571689606,1.9216734170913696,-1.9605106115341189,-0.2380207031965256,1.2880094,0.27091873,4
-0.17647695541381836,1.5733412504196167,-2.302532911300659,-0.2466161400079727,2.777299,0.16249016,4
-0.16203390061855316,1.4296326637268066,-1.7558412551879885,-0.35409918427467346,3.7476583,0.13072516,4
-0.013875451870262623,1.5129302740097046,-0.2585333287715912,-0.4967852532863617,0.6704246,0.42730024,4
-0.20162703096866608,1.571393966674805,1.1384230852127075,-0.5871371030807495,-0.8005389,0.3894266,4
-0.7108590006828308,1.6078441143035889,2.3032376766204834,-0.6945536732673645,-0.35399640000000004,0.29535335,4
-1.4583336114883425,1.626014232635498,3.6309332847595215,-0.9574582576751708,1.9886718,-0.30115658,4
-2.5393877029418945,2.181366205215454,5.414492130279541,-1.6003270149230957,0.98532563,-1.4911219999999998,4
-2.0532999038696294,4.4272732734680185,7.219874858856201,-1.780945062637329,-5.7204475,-0.8762861999999999,4
-1.132530689239502,7.092942237854004,5.648394584655763,-1.6784862279891968,-2.4425447,1.6187929,4
-0.9865133166313172,8.456880569458008,2.9539825916290283,-1.5531421899795532,0.56046885,0.786489,4
-2.4262704849243164,8.692952156066895,1.7796319723129272,-1.175739288330078,-0.21899518,-1.0332786,4
-3.857703447341919,10.011157989501953,0.5451036691665649,-0.513738214969635,1.5088371,-2.5925121,4
-3.64711594581604,11.676349639892578,0.17891909182071686,0.1491168737411499,0.3222314000000001,-0.9691377,4
-1.9244290590286253,13.17131805419922,0.7156763076782227,0.8826258182525635,-0.91874135,1.0910053,4
-0.3945540189743042,14.356809616088867,0.7277309894561768,1.6051862239837646,0.27183503,1.4016303,4
0.4108343124389648,14.462053298950195,0.7846127152442932,2.0742695331573486,2.0824397,1.0491611,4
0.09872567653656006,13.039774894714355,1.501928210258484,2.189145803451538,0.7257079000000001,0.86926126,4
-1.328094244003296,10.94509506225586,2.502664566040039,1.9388170242309568,-0.42638394,-0.23396139,4
-2.517935037612915,9.145804405212402,2.9602980613708496,1.2760688066482544,-0.070554934,-1.8029687,4
-2.343398332595825,7.709892272949219,2.728607177734375,0.5112714767456055,-0.0842994,-1.5537357,4
-1.1784504652023315,6.266055583953857,2.4010040760040283,0.005625689867883921,-2.0109684,-0.8127562,4
0.3215584754943848,4.904784679412842,1.765350103378296,-0.17990855872631073,-2.6780334,-0.15485434,4
1.4303264617919922,3.766042232513428,0.4775557518005371,-0.24231046438217166,-1.3677273,0.37232238,4
1.6808334589004517,2.922579050064087,-0.8182443976402283,-0.20253877341747284,-0.30298916,0.48349985,4
1.2634336948394775,2.3519093990325928,-1.8627848625183103,-0.08734510093927382,0.8393288000000001,0.2406809,4
0.4193423092365265,2.3414807319641118,-2.193481683731079,0.042520690709352486,2.0103576000000003,0.87689704,4
-0.4180343747138977,2.308762788772583,-1.902005314826965,-0.045736998319625854,3.0488284,0.8249735,4
-0.8526435494422913,2.1411383152008057,-0.7750087976455688,-0.2407277077436447,1.321607,0.069027774,4
-0.92295104265213,2.0683395862579346,0.5372022390365601,-0.38449591398239136,-1.7589865000000002,-0.14080444,4
-1.0114984512329102,2.103134155273437,1.1976253986358645,-0.5160533785820007,-1.8628336,-0.005192355,4
-1.152409315109253,1.8853615522384644,1.8006049394607544,-0.7085191607475281,-0.05131268,-0.24404067,4
-1.3253892660140991,1.5154383182525637,3.61935043334961,-1.1599905490875244,1.5494597,-1.289842,4
-0.7196894288063049,2.5875990390777592,5.056464672088623,-1.4526779651641846,-1.3817772,-0.2284636,4
0.7824902534484863,5.069807052612305,5.7684993743896475,-1.2664368152618408,-2.8188376,0.2593123,4
1.7062519788742063,7.701404571533202,4.845344066619873,-1.3136485815048218,0.4382958,0.7678576,4
0.675753116607666,9.888578414916992,3.9379651546478267,-1.3893930912017822,-1.9065105,1.5473217,4
-1.84732186794281,10.970852851867676,2.6407294273376465,-0.8996769189834595,-0.9309586,0.10751228,4
-3.822499036788941,11.921069145202635,1.3812748193740845,-0.1369371861219406,-0.3115413,-1.8191566000000003,4
-3.7102551460266113,13.216983795166016,-0.3944168984889984,0.6198026537895203,0.17715092,-2.2589796000000004,4
-1.8250502347946167,14.41146755218506,-1.6328297853469849,1.2565454244613647,2.6600127,-0.5647449000000001,4
0.3607724010944367,15.324732780456545,-0.3773436844348908,1.9223926067352293,0.77671516,1.1887437,4
1.0719259977340698,14.989988327026367,0.8443871736526489,2.1822061538696294,-0.37293324,1.4080443,4
-0.31023043394088745,13.339242935180664,0.7716759443283081,2.0953989028930664,0.12156218,0.87964594,4
-2.5977983474731445,10.838210105895996,1.2172889709472656,1.6484893560409546,2.6190848,-0.35705075,4
-3.68731141090393,8.064470291137695,2.365196943283081,0.8474915623664856,2.1890357000000003,-1.6175711000000002,4
-3.0002872943878174,5.88599967956543,3.915812969207764,0.31715258955955505,-3.8679988,-1.7712038,4
-1.27167809009552,4.486463069915772,3.397049903869629,0.06638634949922563,-6.308711,-0.75869465,4
0.2665177881717682,3.69223427772522,0.8921563029289246,0.10060450434684752,-1.7632625,0.74464476,4
0.8312991261482239,3.254924058914185,-1.3101283311843872,0.16166000068187714,2.2809708,0.6411031,4
0.8707619905471802,2.932898759841919,-2.2979810237884517,0.11755109578371048,4.2647557,0.35124752,4
0.7857025265693665,2.7713098526000977,-2.1660847663879395,0.048310767859220505,4.6126432,0.5390885999999999,4
0.5502378940582275,2.777996778488159,-1.171473264694214,-0.09834370762109756,2.0680842,1.0412198,4
0.14618690311908722,2.4315364360809326,-0.14114442467689514,-0.2060888707637787,-0.093767814,0.45723262,4
-0.4967805743217468,1.8524645566940308,0.6664275527000427,-0.31603190302848816,-0.96791595,0.101098195,4
-1.219823956489563,1.3911324739456177,1.2920264005661009,-0.4613091945648194,-1.1502593,-0.16187929,4
-1.7472552061080933,1.0684618949890137,1.8915274143218996,-0.6204404234886169,-1.2840388,-0.50671273,4
-1.714542031288147,0.7811604738235474,2.4113762378692627,-0.8174745440483093,-1.1392636,-0.7440339,4
-1.458850383758545,0.948149561882019,3.4045817852020264,-1.1461145877838137,-0.36987892,-0.9108001,4
-1.09539794921875,2.5606791973114014,4.137990951538087,-1.5460907220840454,-0.6224717,-0.3857614,4
-0.6258755922317505,5.302910804748535,5.826039791107178,-1.6228463649749756,-2.422997,0.16554448,4
0.2059840112924576,7.878665447235107,5.230654239654541,-1.9247348308563232,-1.1826351000000002,1.4828753,4
-0.2364601790904999,9.044472694396973,2.0921919345855717,-1.8799948692321775,0.50762904,1.0345002,4
-2.286431312561035,9.202274322509766,0.6543015837669373,-1.281496524810791,0.310625,-1.1337659,4
-3.6749167442321777,10.534059524536133,-0.4872536063194275,-0.3847399055957794,1.1676688999999998,-1.3439035,4
-3.3165483474731445,12.122320175170898,-1.4074354171752932,0.4159520268440247,2.0363193,-0.28191432,4
-1.6252093315124512,13.532965660095215,-1.210087776184082,1.1785398721694946,2.083356,1.0421360999999998,4
-0.4688630998134613,14.274565696716307,0.06261036545038222,1.7040807008743286,1.5167783,1.2660183,4
-1.0267276763916016,13.018505096435547,0.79996258020401,1.9859538078308103,1.2324207,0.35033122,4
-2.3364858627319336,10.60519313812256,1.7239513397216797,2.0072622299194336,0.023518313,-0.28496864,4
-2.868422508239746,8.496896743774414,2.6065094470977783,1.822972536087036,-1.8368717,-0.6948592,4
-2.97310733795166,6.851719379425049,2.9511737823486333,1.3977811336517334,-2.8258626,-1.0680978,4
-2.945363044738769,5.525391578674316,2.756624698638916,0.7323607206344604,-1.4553864,-1.1264355,4
-2.428741931915283,4.773096084594727,2.0928966999053955,0.06874958425760269,2.2088888,-1.1102476,4
-1.3164438009262085,4.2685580253601065,1.8661584854125977,-0.28744298219680786,1.6872098000000002,-0.5143485,4
0.006906822323799132,3.6087934970855713,1.93110466003418,-0.3901519179344177,-1.5213598999999998,-0.069027774,4
1.1390343904495241,2.833250999450684,1.3544583320617676,-0.3823103606700897,-2.1560488,0.48441613,4
1.560067057609558,2.2203893661499023,0.15187935531139374,-0.3422290682792664,-0.6395759,0.7675522,4
1.4144521951675415,1.8515270948410036,-0.7739613056182861,-0.2409640997648239,1.5137241,0.54367006,4
1.2083278894424438,1.771754026412964,-1.0535290241241455,-0.19504660367965695,2.6184738,0.6301074999999999,4
0.9682121276855468,2.016873598098755,-0.8244801759719849,-0.27310460805892944,2.339003,0.9486737,4
0.5368926525115967,2.153451442718506,-0.22249525785446167,-0.4022170901298523,1.1087204,0.96974856,4
-0.22980985045433044,1.818509101867676,0.4906302392482758,-0.5030125379562378,-0.5665775,0.55680364,4
-1.5311790704727173,1.1404650211334229,1.351320743560791,-0.6796086430549622,0.36254853,-0.5366451,4
-3.9650936126708975,1.6632906198501587,2.4847636222839355,-1.2738591432571411,2.2586741000000004,-1.6001616,4
-5.178137302398682,4.230778217315674,4.121273994445802,-1.4597890377044678,1.0558805,-1.7974709,4
-2.933617353439331,7.004439830780028,4.307107925415038,-1.3868646621704102,-9.8108015,-0.20433442,4
-0.6705317497253418,9.36135959625244,2.1464900970458984,-1.422039031982422,-0.74006325,1.8808541,4
-1.1750940084457395,10.66792106628418,1.1159813404083252,-1.0024702548980713,-1.3869696000000002,0.6010914,4
-2.6425044536590576,11.808571815490724,-0.07037108391523361,-0.1665343940258026,0.09896017,-0.5128214,4
-3.4565458297729488,13.142921447753904,-1.065520405769348,0.6163720488548279,1.1322386999999998,-1.353372,4
-2.62237548828125,14.354262351989744,-1.8361245393753047,1.1162724494934082,4.169461,-0.49174652,4
-1.0144026279449463,15.2977294921875,-0.041022177785635,1.7239384651184082,0.8695666999999999,1.2281445,4
-0.5494347214698792,14.661205291748047,1.7784409523010254,2.0291788578033447,-0.8738427,0.69058317,4
-1.3463997840881348,12.549809455871582,2.2834432125091557,2.0787506103515625,-1.4746287,0.04153884,4
-2.2545554637908936,10.484115600585938,2.229004144668579,1.8741668462753296,-1.5867225,-0.6973026999999999,4
-2.4976792335510254,9.01598072052002,2.167569875717163,1.4277923107147217,-1.5442673,-1.1294898000000002,4
-2.1733078956604004,7.5145440101623535,2.126508474349976,0.6438854336738586,0.09621128,-0.82741696,4
-1.4106687307357788,6.124552249908447,2.0651776790618896,-0.07477699965238571,1.0897835,-0.20769419,4
-0.3501729965209961,4.8024635314941415,1.94021475315094,-0.3346412777900696,-0.7012733,0.17806722,4
0.6075553297996521,3.6154708862304688,1.13227117061615,-0.3145750463008881,-1.6178766000000002,0.26053402,4
1.3102083206176758,2.720497131347656,-0.2717803716659546,-0.3115940988063812,-0.30604348,0.58062744,4
1.4756745100021362,2.123138666152954,-1.135722517967224,-0.3495640754699707,0.1908954,0.32925636,4
1.2633354663848877,1.8774048089981081,-1.4109115600585938,-0.3684296905994415,0.63041294,0.08216137400000001,4
0.8459593653678894,1.9905564785003664,-1.4131726026535034,-0.3362191319465637,1.0476339,0.20769419,4
0.3875734210014343,2.239398717880249,-1.2932217121124268,-0.3088441789150238,1.368949,0.35216382,4
-0.02482797019183636,2.294209241867065,-0.9300236701965332,-0.3492505848407745,1.430341,0.34391713,4
-0.4359780550003052,2.0988085269927983,-0.20335891842842105,-0.5204828381538391,0.68752885,0.20005837,4
-0.8560816645622253,1.667664885520935,0.7289929986000061,-0.7900592088699341,0.31520647,-0.16035213,4
-1.4699630737304688,1.195764660835266,2.1496076583862305,-1.1902270317077637,0.76083267,-1.0922271,4
-2.64534854888916,2.20279312133789,3.3838939666748047,-1.5317527055740356,0.14874569,-0.5910121,4
-3.441866159439087,4.887174606323242,4.259888172149658,-1.4632891416549685,-4.692056,-2.5372288,4
-1.482420802116394,7.6645073890686035,2.778362274169922,-1.5187226533889768,0.04917465,0.42424592,4
-1.1738852262496948,9.928545951843262,1.668872594833374,-1.2704211473464966,-1.9269744,0.51251596,4
-2.266352653503418,11.799386024475098,-0.05992972850799561,-0.6221970915794373,0.32192600000000005,0.021380283,4
-2.8602423667907715,13.317808151245115,-1.3362188339233398,0.17171673476696014,0.86254174,-0.19150625,4
