acc_x,acc_y,acc_z,gyro_x,gyro_y,gyro_z,label
0.0,0.0,0.0,0.0,-0.054061573,0.014049901000000002,1
-0.031324367970228195,0.2726587653160095,0.08900082856416702,0.00029058178188279266,-0.06719518,0.003970624,1
-0.10504227876663208,0.9231141805648804,0.30099380016326904,0.0003094954008702189,-0.06352998,0.0033597588,1
-0.2055211216211319,1.823769450187683,0.5940130949020386,-0.0003767449816223234,-0.06963864,0.0143553335,1
-0.3160910308361053,2.8330166339874268,0.9217050075531006,-0.001982523128390312,-0.07086037,0.014049901000000002,1
-0.423724502325058,3.8367416858673096,1.24684739112854,-0.003714188234880567,-0.06994407,0.015882496,1
-0.5205176472663879,4.763111591339111,1.5461058616638184,-0.004143019672483207,-0.07849618,0.0076358155,1
-0.6029489636421204,5.57780647277832,1.8084142208099363,-0.003080628113821149,-0.064751714,0.01282817,1
-0.6703881621360779,6.272159099578857,2.0310621261596684,-0.0013574439799413085,-0.054061573,0.016187929,1
-0.7238819003105164,6.852007865905763,2.2160773277282715,0.000810589233879,-0.050396383,0.012217305,1
-0.7656853199005127,7.329566955566406,2.3688836097717285,0.0033015452791005373,-0.055283304000000005,0.016798794,1
-0.7996912598609924,7.714604377746582,2.5026171207427983,0.0061902543529868135,-0.051618114000000014,0.01740966,1
-0.8204072713851929,8.034709930419924,2.612346887588501,0.0076597644947469234,-0.064446285,0.016187929,1
-0.8352054953575134,8.289169311523438,2.704235553741455,0.008391612209379673,-0.054061573,0.02321288,1
-0.8485926389694214,8.49297046661377,2.8067657947540283,0.010201413184404371,-0.03390302,0.027183503,1
-0.8612306714057922,8.658933639526367,2.8587415218353267,0.011741893365979195,-0.031154128,0.024740042,1
-0.8898200988769531,8.791302680969237,2.923958778381348,0.012346149422228336,-0.05222898,0.02443461,1
-0.915741503238678,8.88801097869873,2.9962658882141118,0.00996778067201376,-0.048258353,0.007330383,1
-0.9258423447608948,8.960671424865723,3.0168745517730717,0.006923315115272999,-0.04734206,0.016798794,1
-0.9217641949653624,9.02454662322998,3.0330772399902344,0.008421247825026512,-0.04153884,0.01160644,1
-0.911301851272583,9.076783180236816,3.0565378665924072,0.01070911344140768,-0.031154128,0.0015271631,1
-0.9015877246856691,9.124151229858398,3.0991177558898926,0.014060858637094498,-0.025961773,-0.005192355,1
-0.8857994079589844,9.170985221862793,3.1583037376403813,0.017824184149503708,-0.027183503,-0.022602014,1
-0.8634311556816101,9.209415435791016,3.2163491249084477,0.018632642924785614,-0.009468411,-0.023518313,1
-0.8328838944435121,9.245288848876953,3.282500028610229,0.01272151805460453,-0.009468411,-0.027488936,1
-0.7967661619186401,9.289310455322266,3.36749005317688,-0.0036787297576665883,-0.007941248,-0.025045475,1
-0.7631847262382507,9.344656944274902,3.4565255641937256,-0.031206266954541206,-0.030543262,-0.03726278,1
-0.7914706468582153,9.393193244934082,3.4922752380371094,-0.06546932458877562,0.05131268,-0.10995574,1
-0.8809349536895752,9.35450553894043,3.471195697784424,-0.09519969671964644,0.16371189,-0.1695151,1
-0.973335862159729,9.239949226379396,3.421930313110352,-0.11249624192714693,0.21868975,-0.21288654,1
-1.033040165901184,9.16783332824707,3.4070534706115723,-0.1116664856672287,0.23793201,-0.258396,1
-1.0219277143478394,9.119282722473145,3.449181318283081,-0.09062446653842926,0.14660765,-0.25503623,1
-0.9772509336471558,9.060070991516113,3.5290420055389404,-0.0663122832775116,0.056199603,-0.21410827,1
-0.9791820049285888,9.021038055419922,3.572396993637085,-0.05171453952789306,0.0018325958,-0.20005837,1
-1.0645301342010498,9.022730827331543,3.59449315071106,-0.03974104300141335,-0.021685716,-0.183565,1
-1.1722512245178225,9.037569999694824,3.6342928409576416,-0.029705980792641636,0.022907447,-0.23396139,1
-1.2177902460098269,9.057644844055176,3.726974487304688,-0.03017982468008995,0.027183503,-0.22724187,1
-1.1930335760116575,9.04715061187744,3.8142528533935542,-0.040488362312316895,0.00061086525,-0.16798794,1
-1.1741135120391846,9.016317367553713,3.8592376708984375,-0.060375835746526725,0.03359759,-0.11453723,1
-1.1997765302658079,8.98624324798584,3.8923819065094,-0.08677516877651215,0.015882496,-0.06169739,1
-1.2426849603652954,8.975333213806152,3.92031478881836,-0.10825170576572417,0.04917465,-0.09621128,1
-1.2826093435287476,8.959651947021484,3.970118522644043,-0.12390399724245073,0.003970624,-0.12217305,1
-1.326727032661438,8.949101448059082,4.050751686096191,-0.13141791522502902,0.06841691,-0.124311075,1
-1.368565320968628,8.942306518554688,4.168558120727538,-0.14238576591014862,0.07788532,-0.08521569999999999,1
-1.3842357397079468,8.908707618713379,4.285850524902344,-0.16384312510490415,-0.040927973,-0.032986723,1
-1.3882733583450315,8.86312198638916,4.375848293304443,-0.18171921372413635,-0.13988814,-0.007330383,3
-1.4225598573684692,8.833251953125,4.435517311096191,-0.20151838660240173,-0.06505715,-0.002443461,3
-1.4597294330596924,8.826388359069824,4.52061128616333,-0.222150593996048,-0.0076358155,-0.02321288,3
-1.5346890687942505,8.810839653015137,4.580525875091553,-0.2397710680961609,0.061391957,-0.06169739,3
-1.621863842010498,8.743800163269043,4.646894454956055,-0.2532176077365875,0.10170906,-0.06414085,3
-1.6700683832168581,8.634589195251465,4.739205360412598,-0.26429960131645197,0.093767814,-0.0143553335,3
-1.698897123336792,8.48206615447998,4.831631660461426,-0.28168633580207825,0.11026118,0.029321533,3
-1.7420914173126218,8.325101852416992,4.883956432342528,-0.3051632940769196,0.12736541,0.03145956,3
-1.7607375383377075,8.15590763092041,4.959789276123047,-0.3383280336856842,0.118507855,0.046120327,3
-1.7408704757690432,7.957027912139893,5.053489685058594,-0.3738957643508911,0.124005646,0.06169739,3
-1.7561794519424438,7.750250816345215,5.110333442687988,-0.4028502702713013,0.23793201,0.019242255,3
-1.7982397079467771,7.5256004333496085,5.164572238922119,-0.42358726263046265,0.23976462,-0.0033597588,3
-1.8398816585540767,7.2448463439941415,5.220184326171875,-0.425865650177002,0.17592919,-0.02565634,3
-1.9294732809066768,6.936048030853272,5.297393321990967,-0.3967811465263367,0.07849618,-0.0580322,3
-2.0925617218017583,6.6230812072753915,5.440084457397461,-0.3369893729686737,0.073303826,-0.08246681,3
-2.227484226226806,6.340675354003906,5.674562454223633,-0.26810264587402344,0.010995574,-0.077579886,3
-2.189615488052368,6.107431411743164,5.954831123352051,-0.20640882849693296,-0.07299839999999999,0.03359759,3
-2.037442922592163,5.894381523132324,6.16417407989502,-0.12549293041229248,-0.21044308,0.011911872,3
-1.9097719192504885,5.6164631843566895,6.339824199676514,-0.0051378593780100346,-0.17684549,0.042760565999999986,3
-1.9092669486999512,5.312368869781494,6.471656322479247,0.119299478828907,0.36254853,-0.07422013,3
-1.8526118993759155,5.602137088775635,6.652754306793213,0.15721029043197632,1.5650368,-0.2284636,3
-1.3774882555007937,6.866456508636475,6.811255931854247,0.07156684249639511,1.7531831999999998,0.1518,3
-0.5424044728279114,7.6323909759521475,6.415815353393555,0.18253524601459506,1.462106,0.46211955,3
0.10121050477027893,7.529576778411865,5.5080437660217285,0.35244497656822205,2.4755313,0.7284568,3
0.4892235696315765,7.084776878356934,4.483045101165772,0.4971539676189423,3.3447926,0.8332202,3
0.5689815282821655,6.969494342803955,3.449852705001831,0.6436818838119507,3.9522982,0.9993755,3
0.394447386264801,7.866200447082519,2.7355782985687256,0.8662940859794617,3.9767327,1.5445728,3
-0.11493853479623795,9.468493461608887,2.4173178672790527,1.0972921848297121,3.0066787999999995,1.8142698,3
-0.9868339300155641,10.714086532592773,2.1569898128509517,1.2365778684616089,1.858863,1.4495832,3
-1.651053786277771,11.129557609558104,1.799482345581055,1.345440149307251,1.557401,1.6206254999999998,3
-2.085622310638428,11.2036714553833,1.5631494522094729,1.452338457107544,1.3078625,2.1539109,3
-2.4782788753509517,11.447847366333008,1.468291997909546,1.5223511457443235,1.1948525,2.7488935000000003,3
-2.718189239501953,11.995959281921387,1.3124524354934692,1.618811845779419,0.9605856,3.0815098,3
-2.9419021606445312,12.743818283081055,1.2815618515014648,1.806565523147583,-0.09682214,2.3503041,3
-3.3696208000183105,13.46133804321289,1.2996755838394165,2.098642110824585,-0.49021935,1.5323554,3
-3.642594575881958,13.936680793762207,1.4543488025665283,2.4064781665802,0.30726522,1.0409144,3
-3.4514675140380864,14.099512100219727,2.0107259750366206,2.582597255706787,0.12064589,0.8179486,3
-2.878180742263794,13.937845230102539,2.761804819107056,2.55220627784729,-0.20861048,0.57910025,3
-2.0353965759277344,13.442054748535154,3.122594356536865,2.2917160987854004,1.171945,0.52656585,3
-1.5063695907592771,12.258559226989744,3.2589144706726074,1.9434981346130369,1.2290609,0.8542950999999999,3
-1.7291591167449951,10.552785873413086,3.33543062210083,1.6160058975219729,0.013439035,0.7180721,3
-2.5026848316192627,8.587893486022951,3.135402202606201,1.2900609970092771,-0.112704635,0.062308256,3
-3.3470439910888667,6.7117958068847665,2.6005971431732178,0.8990508913993835,0.21838433,-0.70463306,3
-3.550574779510498,5.552340507507324,2.0982062816619877,0.4810165166854858,0.28191432,-0.93492925,3
-2.885862112045288,5.143854141235352,1.8905020952224727,0.04663494229316712,-0.26542094,-0.59742624,3
-2.1009457111358643,5.752979755401611,2.11348557472229,-0.4501385986804962,-1.0952813999999995,-0.6768387,3
-1.61941397190094,7.45849609375,1.871502995491028,-1.0820008516311646,-0.9425651,-0.7831292,3
-1.106010675430298,9.095244407653807,1.1139472723007202,-1.5849807262420654,-0.45081854,-0.75686204,3
-0.2421486973762512,10.76217555999756,0.24875330924987796,-1.9976731538772583,1.2070698,-0.7086037,3
0.5391572117805481,12.34774398803711,0.10571187734603882,-2.4593989849090576,1.8252654,-0.7284568,3
1.4182555675506592,13.737434387207033,0.27625492215156555,-2.9062130451202397,2.0622811000000003,-1.0821478,3
2.0025663375854488,14.656011581420898,0.6711829900741577,-3.09235954284668,1.568702,-0.9401216,3
1.46632981300354,14.60978889465332,1.1405211687088013,-3.0484621524810787,0.06261369,-1.8399261,3
0.20645014941692352,14.255159378051758,2.088242769241333,-2.7736287117004395,-1.2443326,-1.969735,3
-0.9766043424606324,14.011877059936525,2.9757254123687744,-2.5975415706634517,-1.9178114,-1.9318613,3
-1.87276554107666,13.402830123901367,3.2539479732513428,-2.410349607467652,-2.728735,-1.2773192,3
-1.987150311470032,12.009377479553224,2.573351621627808,-2.159850835800171,-2.856406,-0.79229224,3
-1.3962419033050537,9.893143653869627,1.6023694276809692,-1.7767200469970703,-3.1535919,-0.08521569999999999,3
-0.6001552939414978,7.243722915649414,0.4954409897327423,-1.3359687328338623,-2.9657507,0.19242255,3
0.13595479726791382,4.847878456115723,-0.455297589302063,-0.7904180884361267,-2.026851,0.72082096,3
0.7963852286338806,2.5765321254730225,-1.238610029220581,-0.20673468708992004,-0.19303341,1.1010846,3
1.297900915145874,0.757493793964386,-1.820651054382324,0.3704425692558289,1.4049901000000002,1.3451253,3
1.5512633323669434,-0.4941071569919586,-2.1263539791107178,0.8794880509376526,2.4040601,1.2788464,3
1.5155677795410156,-1.0296683311462402,-1.9569289684295652,1.279341459274292,2.7782152,1.0677924,3
1.5138953924179075,-0.8978589177131653,-0.964122474193573,1.4312582015991209,2.5760188,0.83260936,3
0.6816946268081665,1.2185825109481812,1.6623381376266482,0.6904408931732178,-0.8918633,-1.217149,3
-0.6265719532966614,4.326500415802002,2.668828010559082,-0.005826632026582956,0.36865717,-2.6352727,3
-0.7303066253662109,7.1828250885009775,0.7351666092872621,-0.03394938260316849,0.8863655,-1.4123205,3
0.9154013395309448,9.587724685668944,-1.4955319166183472,0.0063489917665719995,1.568091,-0.12186762,3
2.9745867252349854,11.201844215393066,-2.372117280960083,0.4469083547592163,0.5204572000000001,3.0888400000000003,3
1.7018976211547852,11.031854629516602,-0.3214477598667145,0.765351414680481,-1.235475,0.6789767,3
0.3116488754749298,11.553257942199707,0.6978883147239685,0.45772969722747797,-2.3994787,1.7226400000000002,3
-0.6647894382476807,11.689614295959473,0.1100561022758484,0.2611750364303589,-1.6129897,1.8298469,3
-0.9572657942771912,11.3584566116333,-1.8144962787628172,1.0167938470840454,1.7357736,0.22540927,3
0.4197584092617035,12.388378143310547,-1.8201030492782595,2.2567038536071777,-0.8848383,1.0891727,3
0.5761438012123108,13.669797897338867,0.3147820234298706,2.8855199813842773,1.5992452,1.4978416,3
-0.8308771848678589,14.63033390045166,2.787710666656494,2.7261669635772705,-0.23854288,1.2030991000000002,3
-1.828123927116394,14.340556144714355,3.839077234268189,2.411712408065796,-1.4367551,0.9306532,3
-1.4472907781600952,12.655797958374025,3.028916597366333,2.07075834274292,-0.12889257,0.7644979000000001,3
-0.8262889385223389,10.879569053649902,2.591543912887573,1.7261804342269895,0.79076505,1.1047498,3
-0.8474792242050171,9.35028076171875,2.9557366371154785,1.453209400177002,-0.90316427,0.9969321,3
-1.694637894630432,7.9787092208862305,3.2197036743164062,1.1090946197509766,-0.111177474,0.36987892,3
-2.6905202865600586,6.435050964355469,3.1021027565002437,0.5618108510971069,0.070249505,-0.3735441,3
-3.090510845184326,5.169763088226318,2.754344701766968,0.05339615792036057,-1.2968669,-0.6982189999999999,3
-2.853315114974976,4.634474277496338,2.4110724925994877,-0.2904772460460663,-1.7745636000000002,-0.571159,3
-2.3805255889892583,4.608007907867432,2.1184568405151367,-0.7075366377830505,-0.9477574,-0.23060162,3
-2.0015997886657715,5.524613857269287,2.4377028942108154,-1.3215579986572266,-0.14935656,-0.61636305,3
-2.1503982543945312,7.56693696975708,2.712733268737793,-1.9139457941055296,-2.496301,-0.8958339,3
-1.6135406494140625,9.767874717712402,0.4414815604686737,-2.417018413543701,1.5344934,-1.9578232,3
-0.016757691279053688,11.482928276062012,-0.8340232968330383,-2.7435672283172607,1.174083,-2.4181101000000003,3
2.1223034858703613,12.950023651123047,-0.4515641331672669,-2.9778220653533936,-0.011911872,-2.0039434,3
2.929297685623169,14.217711448669435,0.11277222633361815,-3.1409342288970947,1.4752395,-1.5100589,3
1.81853985786438,15.105511665344238,0.8153268098831177,-3.109930515289306,2.058616,-2.5601363,3
-0.32740601897239685,15.639321327209473,1.6008239984512331,-2.788214445114136,-0.31764993,-3.6994,3
-1.9683793783187864,16.046924591064453,2.4094057083129883,-2.196949005126953,-1.9834795,-2.1493294,3
-2.1204121112823486,15.175393104553224,2.8246674537658687,-1.7463456392288208,-3.241251,-0.8509353000000001,3
-1.1741689443588257,12.422953605651855,1.9780869483947756,-1.272138237953186,-4.6569314,-0.14477506,3
-0.2279262840747833,9.21231174468994,0.7802487015724182,-0.8596034646034241,-3.3457088,0.13805555,3
0.6809163689613342,6.066093444824219,-0.3515135645866394,-0.4249992370605469,-1.2092078000000002,0.54336464,3
1.492317795753479,3.3041803836822514,-1.2695852518081665,0.11038574576377867,1.2486086,0.78984874,3
1.9903048276901243,1.6083606481552124,-1.6040318012237549,0.6652490496635437,3.0042353,0.8072583999999999,3
2.1565933227539062,1.0076088905334473,-1.1747249364852903,1.079686403274536,3.0589077,0.2171626,3
2.140945672988892,1.0353796482086182,-0.10774308443069458,1.1651383638381958,2.4077253,0.018936822,3
1.5064657926559448,1.8429429531097408,1.0672764778137207,0.7862790822982788,1.6865988999999997,-1.2623531,3
0.6080749034881592,2.872093915939331,0.931460976600647,0.4221862256526947,1.9416351000000005,-1.4914275,3
0.3307530581951141,4.151188373565674,1.017014741897583,0.4748065173625946,-2.59465,-0.8350528,3
-0.3142086565494537,6.3006043434143075,0.5115175247192383,1.0092649459838867,0.5149594,1.4456125,3
-0.3550422787666321,6.929043769836426,1.5196695327758791,0.5646615624427795,-0.45448375,0.34697145,3
0.13425566256046295,6.035229206085205,1.6596291065216064,0.3522196710109711,0.06505715,0.8210029000000001,3
0.7337458729743958,5.21971607208252,0.901844561100006,0.7837648391723633,1.2754866000000002,2.4339926,3
1.400853991508484,6.222899436950684,0.09291187673807144,0.9585375785827636,-0.46853364,3.7748418,3
0.7256366610527039,8.269198417663574,-1.3220854997634888,1.4035946130752563,-5.626069,3.184746,3
-1.078624963760376,10.138314247131348,-2.8424053192138667,2.388367891311645,-0.37140608,0.06505715,3
-2.697819232940674,11.872139930725098,-1.5124216079711914,3.0892696380615234,0.4166101,-1.0387764000000002,3
-2.349430561065674,13.072543144226074,1.0008801221847534,2.936844825744629,-3.7302487,0.45356745,3
-0.450507402420044,13.073360443115234,1.1725995540618896,2.606907367706299,0.16157386,1.357648,3
0.9208430647850036,12.003849983215332,0.957211136817932,2.1714437007904053,0.6249151,1.5775595,3
0.8838632106781006,10.44601345062256,1.4336037635803225,1.7435790300369265,-0.8029824000000001,1.3197743999999998,3
0.009697478264570236,9.09384059906006,1.722184419631958,1.4549014568328855,-1.1212431,0.72601336,3
-1.3515714406967163,7.899291515350343,1.6657812595367432,1.138896346092224,0.22235495,-0.0125227375,3
-2.5164470672607417,6.3186564445495605,1.805755972862244,0.7829846143722534,0.16279559,-1.1957687,3
-2.497516393661499,5.037025451660156,2.1211531162261963,0.42530885338783264,-0.5128214,-0.9673051,3
-1.7471692562103271,4.378296375274658,2.3717739582061768,0.005135443527251482,-1.1038336000000002,-0.74097955,3
-1.2126398086547852,4.464878559112549,2.285196542739868,-0.4692634642124176,-1.459968,-0.5503895999999999,3
-1.176843523979187,5.660613536834718,2.588488817214966,-1.0855240821838381,-0.94989544,-0.5131268,3
-1.8138173818588257,7.885518550872803,2.0482778549194336,-1.6654242277145386,-1.9449949,-0.9437868,3
-1.3445061445236206,10.09399700164795,-0.4926838278770447,-2.0791332721710205,3.2882876000000003,-2.0604484,3
1.046676516532898,11.931225776672365,-0.9917624592781068,-2.452061653137207,2.0912971,-2.6309967,3
3.625711679458618,13.422052383422852,-0.5143303871154785,-2.80745005607605,0.6951646,-1.6148223,3
4.362474918365479,14.489405632019045,-0.2804567217826843,-3.020427227020264,2.2779164,-0.95814216,3
2.74088191986084,15.04660415649414,-0.08064322173595427,-2.9313750267028813,2.151162,-1.9712621,3
-0.475600391626358,15.278855323791506,1.2639342546463013,-2.5490663051605225,-1.5497651,-2.6642888,3
-1.8456605672836304,14.844191551208494,2.1331923007965092,-2.1744441986083984,-1.5891659,-1.171945,3
-1.6794958114624023,13.058173179626465,2.45261025428772,-1.6696946620941162,-5.3722544,-0.19303341,3
-0.9178792238235474,10.341957092285156,1.4320425987243652,-1.1429812908172607,-5.515197,0.2959642,3
0.003023647470399737,7.1064820289611825,-0.0947040319442749,-0.6798981428146362,-2.0922134,0.5888741,3
0.9348986148834229,3.652214527130127,-1.4853495359420776,-0.08404675871133804,1.3857478,0.75228053,3
1.5017802715301514,1.312149167060852,-2.1736257076263428,0.568069338798523,3.7803395,0.96669424,3
1.6483010053634644,0.4367617964744568,-2.043751716613769,1.1017141342163086,4.845994,0.8500190000000001,3
1.5369082689285278,0.4549440145492554,-0.6954941153526306,1.2780452966690063,2.5283713,0.0018325958,3
1.3091778755187988,1.8159852027893064,1.6911941766738892,0.7356730699539185,0.42149702,-0.8185594,3
0.9917196035385132,3.951991081237793,2.9219226837158203,-0.11802484840154648,1.7256943,-1.5210545,3
1.215833067893982,6.315410614013673,2.336564540863037,-0.2370847761631012,-0.6462954000000001,-0.5375614000000001,3
0.4872279763221741,8.440230369567871,0.480928361415863,0.08613181114196777,0.31184670000000003,0.3436117,3
0.4393953084945679,8.052047729492188,0.06351569294929504,-0.25990405678749084,0.84574294,0.35827246,3
0.9532244205474854,5.999192714691162,-0.3546207547187805,-0.2745396494865417,1.7330247,1.625207,3
1.055450439453125,5.61777400970459,-1.244456171989441,0.32886219024658203,1.9055941000000003,3.9742892,3
0.543630063533783,7.3399696350097665,-1.6247986555099487,0.8531345129013062,-1.3564261999999998,4.79743,3
-0.8556315302848816,9.42454719543457,-2.0747029781341557,1.4239094257354736,-4.076609,2.0457878000000003,3
-2.2106754779815674,11.040202140808104,-2.3973445892333984,2.3352670669555664,0.02076942,0.09896017,3
-2.819874763488769,12.606651306152346,-0.21954384446144104,2.84271502494812,0.42088616,-0.65270954,3
-1.9868042469024656,13.794047355651855,1.6699997186660769,2.8696596622467037,-1.1841623,0.5882632,3
-0.22583550214767456,13.837200164794922,2.250194787979126,2.6723504066467285,-0.8396343000000001,1.4217888,3
0.913526713848114,12.843700408935547,2.0565111637115483,2.2495653629302983,0.97097033,1.5066991000000003,3
0.8492362499237059,11.338457107543945,2.4180738925933842,1.816449284553528,-0.2959642,1.314582,3
-0.11869945377111435,9.810672760009766,2.5190439224243164,1.4050329923629759,-0.9837985,0.98563105,3
-1.7919087409973145,8.262529373168945,1.970303058624268,1.0160039663314822,0.398895,-0.01740966,3
-3.198188304901123,6.486135959625244,1.825156807899475,0.6731356382369995,0.5888741,-1.1160508,3
-2.9460952281951904,5.167726993560791,2.346182346343994,0.2702321708202362,-0.6582073,-0.8848383,3
-2.291954755783081,4.512650012969972,2.534019947052002,-0.19309282302856445,-1.6282613,-0.68661255,3
-1.8598545789718628,4.65872859954834,2.422250509262085,-0.7299858927726746,-1.9468275,-0.7263188,3
-2.097816705703736,6.336778163909912,2.636540174484253,-1.4189225435256958,-0.7623598,-0.9407325,3
-2.517794370651245,8.602856636047362,2.1137495040893555,-1.933278203010559,-0.9828822,-1.6850718,3
-0.7737070918083191,10.584487915039062,-0.10574563592672348,-2.260014772415161,3.8701367,-1.6297885,3
1.8563132286071775,12.121052742004395,-0.2233499884605408,-2.5561680793762207,1.6801848,-2.3582454,3
3.8335361480712886,13.514945030212402,0.4526029527187347,-2.9044785499572754,0.52412236,-1.2428053999999995,3
3.768661975860596,14.58170223236084,0.7164828181266785,-3.0942187309265137,2.1230621,-0.6731735,3
1.4601279497146606,14.708065032958984,0.812179684638977,-2.9593844413757324,1.649947,-2.47095,3
-1.1313142776489258,14.386026382446287,1.3242671489715576,-2.4928133487701416,-0.44623706,-1.8933768,3
-1.962369561195373,13.649824142456055,1.924720764160156,-2.000742197036743,-0.9786061,-0.82833326,3
-1.4460041522979736,11.953583717346193,2.050945520401001,-1.4961485862731934,-4.1065416,0.14691310000000002,3
-0.4425493478775024,9.378634452819824,1.3315396308898926,-1.0455573797225952,-4.5998154000000016,0.5299255999999999,3
0.4894185960292816,6.277284622192383,0.09219112992286682,-0.6041925549507141,-2.5344799,0.8436049000000001,3
1.2552659511566162,3.3012418746948238,-1.094315767288208,-0.0027592426631599665,0.6246096999999999,0.9120218,3
1.7002136707305908,0.9522395133972168,-1.9206843376159668,0.6508129239082336,3.2241468,1.0216721,3
1.7147055864334106,-0.06044578179717064,-1.9837315082550049,1.219865322113037,4.707022,1.0088439,3
1.2183746099472046,0.3644655048847199,-0.10140769928693773,1.4433989524841309,3.1597004,0.23518312,3
0.34833550453186035,2.209688663482666,2.0965821743011475,0.8210293650627136,1.1786644,-1.7531831999999998,3
0.04076267033815384,4.20166540145874,1.9446625709533687,0.21573971211910248,2.3811526,-2.118786,3
0.808125913143158,6.0541510581970215,2.2279222011566158,0.24947506189346316,-3.042109,0.4896085,3
0.3070564866065979,8.307623863220215,0.6402729749679565,0.6736436486244202,-0.07422013,1.4908166,3
0.004117969889193772,7.2144737243652335,0.7867220640182495,0.324679434299469,0.64996064,-0.32803464,3
0.16764381527900696,5.458659648895264,0.30534034967422485,0.1981882005929947,3.5472944,1.2183707,3
0.4104806780815125,5.072035312652588,-0.5105656981468201,0.586908221244812,0.8268061,3.4831536,3
0.7017340064048767,6.5553388595581055,-0.7735074162483215,0.7916418313980103,-3.1841352,3.7791178,3
-0.5058472752571106,8.737470626831055,-2.427849769592285,1.330592393875122,-4.5729370000000005,2.0751092,3
-1.9267843961715696,10.56287956237793,-3.2583768367767334,2.391603708267212,-0.5149594,0.09162979,3
-3.042356014251709,12.238790512084961,-1.3089243173599243,2.9717650413513184,-0.5109888,-0.97127575,3
-1.7381535768508911,13.307280540466307,0.5719212293624878,2.756357431411743,-2.1242838,0.45112398,3
0.1368490904569626,12.998093605041506,0.7054861187934875,2.380434989929199,0.11728613,1.9792033,3
0.9563421010971068,11.6676664352417,0.8889945149421692,1.946196675300598,-0.39706242,1.8799378,3
0.6923518180847168,10.206221580505373,1.1116093397140503,1.577347993850708,-1.6081028,1.073901,3
-0.32586869597435,8.86373519897461,1.0375543832778928,1.326724410057068,-0.41233405,0.41447207,3
-1.6210856437683103,7.380236148834228,1.33548903465271,1.0056955814361572,0.38240165,-0.5021312,3
-2.2788519859313965,5.7902159690856925,1.9000662565231323,0.5796398520469666,-0.11209377,-1.2293663,3
-2.149553775787353,4.591566562652588,2.0347552299499507,0.1540645956993103,-0.91415983,-1.1914927,3
-1.6760115623474119,4.185628414154054,1.9136223793029783,-0.22260695695877075,-1.564426,-1.1133018999999995,3
-1.33555006980896,4.525078773498535,1.7883089780807495,-0.7422786355018616,-0.8695666999999999,-1.0742066,3
-1.6245474815368652,6.275191783905028,2.56412935256958,-1.457917094230652,-1.0140363,-1.3249667,3
-1.7958799600601196,8.574675559997559,1.898454427719116,-1.8985908031463623,-1.0888673,-1.6465873,3
-0.4224461615085602,10.546757698059082,-0.08856937289237976,-2.210759162902832,3.0072896,-1.2822062,3
1.7316274642944336,11.84458065032959,-0.2935723066329956,-2.6227080821990967,2.17804,-2.3298400000000004,3
3.677880764007568,13.18412971496582,0.2152431756258011,-3.0570375919342037,1.7146988,-1.2049317,3
3.6479222774505615,14.340585708618164,0.6488192677497864,-3.1763334274291988,2.2855522999999995,-0.7703011,3
1.5007268190383911,14.62773323059082,0.9431321024894714,-3.009834289550781,1.8032742,-2.275473,3
-1.4873991012573242,14.691455841064453,1.7512879371643066,-2.629168510437012,-0.70341134,-1.2253957,3
-2.30722975730896,13.760665893554688,2.4129791259765625,-2.2099072933197017,-1.2944235,-0.41325033,3
-1.903503179550171,11.871271133422852,2.5177016258239746,-1.6460123062133791,-4.2943826,0.17195857,3
-1.1037445068359375,9.161009788513184,1.697267770767212,-1.1097588539123535,-3.9773436,0.6600399,3
-0.26552847027778625,5.909899711608888,0.38094115257263184,-0.6316765546798706,-1.5925257,0.8518515999999999,3
0.3944530785083771,2.983467102050781,-0.8258655667304993,-0.06327435374259949,1.5671748,0.6209445,3
0.7340404987335205,1.2343418598175049,-1.5459083318710327,0.5638124346733093,3.6792414,0.7666359,3
0.8353505134582521,0.4836101233959198,-1.5530328750610352,1.0496035814285278,4.0894375,0.5934556,3
0.653791069984436,0.5909466743469238,-0.3833045661449432,1.1097543239593506,2.2342396,-0.2519819,3
0.31362515687942505,2.0954105854034424,1.8716336488723757,0.6001829504966736,1.5635096000000002,-1.5995506000000002,3
0.3171172142028809,4.836667537689209,2.8854894638061523,-0.029332777485251427,-0.9221011,-2.1612412999999995,3
0.11636702716350555,7.13210391998291,2.015308618545532,-0.13695672154426575,-0.41172317,-0.43890667,3
0.4792686700820923,6.781849384307861,0.779923141002655,-0.6240416765213013,1.2547172,1.1746938,3
0.8475771546363831,4.725995063781738,-0.6585060954093933,-0.17688998579978946,2.284636,3.258966,3
0.7627400159835815,4.053677558898927,-1.348383903503418,0.6522223949432373,1.5650368,4.924185,3
0.5080988407135011,6.0247650146484375,-1.575269103050232,1.026236057281494,-2.2186625,4.607146,3
-0.8432007431983948,8.312409400939941,-2.13665771484375,1.5101799964904783,-4.195728,1.6502525,3
-2.499964714050293,9.829619407653807,-2.0132877826690674,2.388378858566284,0.7351763000000001,-0.02565634,3
-3.82537579536438,11.261885643005373,0.09790346771478653,2.806324005126953,-0.593761,-0.30726522,3
-2.99848747253418,12.329378128051758,1.6363033056259155,2.8865177631378174,-1.8829921000000005,0.5876524000000001,3
-0.9783704280853271,12.300301551818848,1.7271745204925537,2.750487327575684,0.08063421400000001,1.4272866000000002,3
0.2458587884902954,11.356237411499025,1.92192542552948,2.3636281490325928,0.7538077,1.7922786,3
0.5540606379508972,10.058029174804688,2.3774607181549072,1.970850110054016,-0.5045747,1.7214183,3
-0.06014199927449225,8.71858024597168,2.364492416381836,1.5789686441421509,-0.7663304,1.1594223,3
-1.3673789501190186,7.411793708801269,2.00992751121521,1.1889363527297974,0.35155296,0.20738874,3
-2.741032838821411,6.098280906677246,1.9891015291213991,0.8089397549629211,0.87964594,-1.0644327,3
-3.211374998092652,4.884985446929932,2.419363260269165,0.4027047753334045,-0.5180137,-1.1499538,3
-2.8619754314422607,4.126288414001465,2.5218169689178467,-0.05182325094938278,-1.6505578999999997,-0.9462303,3
-2.587224006652832,4.089921951293944,2.2892653942108154,-0.5874986052513123,-2.2427917,-0.8503244000000001,3
-3.159262418746948,5.959056854248048,2.525699615478516,-1.3676496744155884,0.75533485,-1.707063,3
-3.51299786567688,8.373334884643555,1.4972301721572876,-1.8625755310058596,-1.5265521999999998,-2.6114490000000004,3
-1.6520781517028809,10.397945404052734,-0.4255468845367432,-2.0684161186218257,2.549446,-1.7510452,3
0.8631007075309753,11.899165153503418,-0.23594094812870026,-2.3579084873199463,1.0030408000000002,-2.3154848,3
3.131842613220215,13.312555313110352,0.2837693989276886,-2.8586232662200928,1.5537357,-1.6960673,3
3.817596435546875,14.437076568603516,0.6612638235092163,-3.0920331478118896,2.3243423,-0.3885103,3
2.077022790908813,14.412219047546387,0.7812913656234741,-2.967519998550415,1.8768835,-1.8026633,3
-0.6698842644691467,13.971540451049805,1.790224552154541,-2.541325569152832,-0.7974846,-2.1948388,3
-2.239998817443848,13.486169815063475,2.579556465148926,-2.077404022216797,-2.200642,-1.0699303999999998,3
-2.1925802230834956,12.133304595947266,2.39819860458374,-1.5827988386154177,-4.189008,-0.06688975,3
-0.9990456104278564,9.528149604797363,1.2763279676437378,-1.1055010557174685,-3.7455204,0.5681046999999999,3
0.25370413064956665,6.503143310546875,0.05220852419734001,-0.5740759372711182,-1.0708468,0.79473567,3
1.1623740196228027,3.607395648956299,-1.0486356019973757,0.0665806233882904,1.8796324,0.90377516,3
1.4931457042694092,1.6772402524948118,-1.6199202537536619,0.6673565506935121,3.6713002,1.0726794,3
1.3246997594833374,0.9342953562736512,-1.3379086256027222,1.0673987865447998,3.5918877,1.0577132,3
1.0592277050018308,1.0597466230392456,-0.14534077048301694,1.1051563024520874,1.6887369,0.44135013,3
0.5417584180831909,2.1438207626342773,1.3096442222595217,0.6015852689743042,1.3283265,-1.2095132,3
0.7395492792129517,3.8261868953704834,2.1232755184173584,0.023444371297955516,1.3335188999999998,-1.505172,3
1.5632460117340088,6.1473751068115225,2.293165683746338,-0.012883995659649372,-2.7079656,0.71929383,3
0.8961254358291626,6.7344398498535165,1.54255211353302,-0.012184501625597477,-0.0070249503,0.98929626,3
0.5349177122116089,4.680785655975342,0.6134356260299683,-0.34550270438194275,2.415972,0.2733622000000001,3
0.3084558546543121,3.1256632804870605,-1.1241421699523926,-0.07373714447021484,4.5967607,2.450486,3
-0.3858654797077179,4.218169212341309,-1.469342827796936,0.6701092720031738,-0.59406644,4.5362854000000015,3
-1.3817214965820312,6.698357105255128,-1.3808884620666504,1.0241501331329346,-4.117537,2.5589144,3
-2.3498809337615967,8.820382118225098,-1.8653528690338133,1.5396090745925903,-4.8334712999999985,1.3274102,3
-2.827362537384033,10.543242454528807,-1.9335089921951292,2.321197748184204,-0.18020524,0.22357668,3
-2.949587106704712,12.239596366882324,0.2822140455245972,2.7803423404693604,-0.56016344,-0.25228736,3
-2.0317368507385254,13.398033142089846,2.2032639980316158,2.7408833503723145,-1.813659,0.86742866,3
-0.5609606504440308,13.428906440734865,2.7681751251220703,2.4293653964996342,0.0033597588,1.7522669999999998,3
0.2582020461559296,12.151222229003904,2.7346582412719727,2.0259981155395512,0.35155296,1.7052304,3
0.2618374824523926,10.497637748718262,2.779272556304932,1.6639552116394043,-1.2415836,1.5149458999999998,3
-0.5283219814300537,9.007837295532227,2.450427293777466,1.300197958946228,-0.91354895,0.893085,3
-1.7097527980804443,7.5087971687316895,2.133084535598755,0.9582458734512328,0.6096435,-0.34147367,3
-2.355083465576172,5.9990997314453125,2.388392210006714,0.5488757491111755,0.45356745,-1.028697,3
-2.2712953090667725,4.805582046508789,2.5579187870025635,0.08566358685493469,-0.81581056,-0.8753699,3
-1.8135480880737305,4.177638530731201,2.3463976383209233,-0.3168489634990692,-1.5299120000000002,-0.7315111,3
-1.3755059242248535,4.268820285797118,1.9752683639526367,-0.7882671952247621,-0.66737026,-0.64599,3
-1.6828566789627075,6.1369709968566895,2.811484813690185,-1.5055650472640991,0.10873401,-1.4669929,3
-2.3561911582946777,8.442795753479004,1.9774693250656128,-1.9262481927871704,-1.2803736,-1.9135354,3
-1.2662229537963867,10.292341232299805,0.039640236645936966,-2.2312896251678467,2.5302038,-1.6966782,3
0.9669960141181946,11.644388198852539,-0.01692088693380356,-2.5864250659942627,2.0237966,-2.5998425,3
3.3107826709747314,13.026902198791506,0.2915450930595398,-3.055997610092163,2.3845124,-1.174083,3
3.3532190322875977,14.112942695617676,0.6182527542114258,-3.0666799545288086,3.0170634,-0.57971114,3
1.319483995437622,14.12103271484375,1.2584298849105835,-2.823780298233032,1.8164078,-1.6581936999999998,3
-1.9096161127090452,13.66045379638672,2.395024538040161,-2.380242347717285,-0.6252206,-2.2327125,3
-3.596209049224853,13.339767456054688,3.2102179527282715,-1.854533314704895,-2.3301454,-0.94134337,3
-3.3454282283782963,11.821080207824707,2.8348677158355717,-1.3347920179367063,-4.546365,-0.0290161,3
-2.1416573524475098,9.093428611755373,1.5219544172286987,-0.9013972878456116,-4.2965207,0.7797695,3
-0.9783306121826172,6.027566909790039,0.14230817556381226,-0.4370895922183991,-1.8206838,0.9053023,3
0.0968395322561264,3.0940513610839844,-1.0962435007095337,0.1392422616481781,1.8710803,1.0671816,3
0.8215860724449158,1.0109552145004272,-1.8846296072006223,0.7448709011077881,4.057367,1.0806206,3
1.032018542289734,0.33214303851127625,-1.5621322393417358,1.196853518486023,3.3936620000000004,0.8750645,3
0.8289427161216736,0.7875385284423828,0.3301078677177429,1.1794666051864624,0.4016439000000001,-0.0421497,3
0.15076890587806702,2.390505790710449,1.88557243347168,0.5216953754425049,0.90102625,-1.9559906,3
-0.05324772372841835,4.0124592781066895,1.6274383068084717,-0.027672290802001957,1.9364429,-1.96271,3
0.7988125085830688,5.969630241394043,1.9481445550918581,-0.002168364124372601,-2.440712,0.9114109,3
0.2297545373439789,7.478861331939697,1.437624216079712,0.2611314952373505,0.2134974,0.40530908,3
0.14487944543361664,6.492065906524657,1.426282286643982,-0.00028770670178346336,1.8041905,0.44440445,3
0.24776360392570496,5.25454044342041,0.6464254260063171,0.19877386093139648,3.9162571,2.463314,3
0.13910382986068726,6.084628105163574,-0.06118113175034522,0.7275694608688354,0.070554934,4.39151,3
-0.5481256246566772,8.233199119567871,-0.6547058820724487,0.912741243839264,-4.2568145,3.449556,3
-1.6813961267471311,9.984244346618652,-1.902335524559021,1.5295490026474,-4.17954,1.3090841999999998,3
-2.485776424407959,11.148433685302734,-2.298609495162964,2.427279233932495,0.5018258,-0.10323623,3
-2.7093992233276367,12.549318313598633,0.23757347464561465,2.831892490386963,0.2779437,-0.60994893,3
-1.7239236831665041,13.684078216552734,2.4439022541046143,2.77620792388916,-2.0625865,1.0274754,3
-0.32219406962394714,13.392717361450195,2.7005457878112797,2.474010944366455,0.72265357,1.8918496,3
0.09591380506753923,12.107972145080565,2.685549020767212,2.007365226745605,0.07849618,1.6438384,3
-0.4641135931015015,10.59428882598877,2.5778636932373047,1.5862525701522827,-1.0167851,1.1029171999999998,3
-1.4341124296188354,9.109695434570312,2.2026638984680176,1.2654427289962769,-0.29657507,0.41233405,3
-2.352212190628052,7.594951152801514,2.1125001907348637,0.9247963428497314,0.32803464,-0.55741453,3
-2.588503360748291,6.1127376556396475,2.334972620010376,0.5137607455253601,0.13164146,-1.0968086,3
-2.308842658996582,4.84284782409668,2.3265655040740967,0.08070534467697144,-0.7107416999999999,-0.9773844,3
-1.9697006940841677,4.2718048095703125,1.9826641082763672,-0.31906405091285706,-1.7876971999999998,-1.02717,3
-2.099140882492065,4.868750095367432,1.8451368808746336,-0.8843126893043518,-0.9822713,-1.0247264,3
-2.94926381111145,6.868067741394043,1.863465428352356,-1.5319757461547852,-1.3118331,-2.7543914000000003,3
-2.264853477478028,9.195575714111328,0.4903813004493714,-1.7579180002212524,1.8774943,-1.9523253,3
-0.16933128237724304,11.077601432800293,0.18921145796775815,-1.9796642065048216,0.69058317,-1.2867876,3
1.7280374765396118,12.623149871826172,0.3877663016319275,-2.4593303203582764,1.7592918999999998,-2.7149906,3
3.2350194454193115,13.91294002532959,0.4729165434837341,-2.916078329086304,2.9819386000000003,-1.5100589,3
2.660828828811645,14.280306816101074,0.6161942481994629,-2.9885845184326167,2.6502388,-0.9416488000000002,3
0.06127723678946495,13.447961807250975,0.6148771643638611,-2.7537219524383545,1.7803668,-2.6358836,3
-2.461661100387573,13.127509117126465,1.5208266973495483,-2.204907894134521,-2.0195205,-1.6875153000000005,3
-3.2828757762908936,12.86473560333252,2.0951523780822754,-1.7880812883377075,-3.0369165,-0.6591236,3
-2.5505049228668213,11.107508659362793,1.4934698343276978,-1.3983408212661743,-3.9309177,0.03023783,3
-1.1843224763870241,8.452088356018066,0.4223411083221436,-1.0034388303756714,-3.0384438,0.4801401,3
0.0588744580745697,5.440766334533691,-0.7454743385314941,-0.5048022866249084,-0.3866777,0.68539083,3
1.1340997219085691,2.612060785293579,-1.82103168964386,0.14977501332759854,2.3445008,1.142318,3
1.935758352279663,0.6754894256591797,-2.382899761199951,0.776605486869812,3.6181548,1.6197093,3
2.1699075698852544,-0.04900296777486801,-1.8405238389968872,1.1601277589797974,2.8118126,1.2721269,3
1.9074736833572388,0.2709822654724121,-0.14180591702461245,1.1168521642684937,0.27397305,0.5842925999999999,3
1.0957930088043213,1.6474210023880005,1.7638033628463743,0.530580997467041,1.1972959,-1.2495248,3
0.3513697683811188,4.0405240058898935,3.0274658203125,-0.029403451830148693,0.50610185,-1.9758437,3
-0.4563348889350891,6.248001575469972,2.1480252742767334,0.2467725723981857,-0.17134771,-0.19456059,3
-0.2692817151546478,5.751199245452881,1.4051401615142822,0.044949229806661606,0.12186762,-0.8005389,3
1.262316107749939,3.7785165309906006,0.7166889309883118,-0.08599231392145157,2.7076602000000003,0.8008443000000001,3
1.9188371896743772,3.2264387607574463,-0.496476024389267,0.24883000552654266,2.6719246,3.1196887,3
1.7252762317657468,5.054720878601074,-0.9435907006263732,0.8833062648773193,-0.75900006,4.7687197,3
0.7973117232322693,7.401772499084473,-1.3223787546157837,0.9935619235038756,-3.1337388,3.7632353,3
-0.6904845833778381,9.220504760742188,-2.1974043846130367,1.411710500717163,-2.9556715,1.3848315,3
-1.8706301450729368,10.724963188171387,-1.8749138116836548,2.135199785232544,0.84574294,-0.21074851,3
-2.300402879714966,12.141409873962402,0.4972165822982788,2.4614527225494385,-0.19303341,-0.5946773,3
-1.358309626579285,13.152215003967285,2.34405779838562,2.366230726242065,-0.6976081000000001,0.8613200000000001,3
-0.07921630144119263,12.688675880432127,2.565434217453003,2.078185558319092,0.7870999,1.6490307,3
0.36658841371536255,11.62229824066162,2.712505340576172,1.7491474151611328,-0.28099802,1.6010778,3
-0.12670277059078214,10.408185958862305,2.694087266921997,1.4667149782180786,-0.9450085,1.3368785,3
-1.3192546367645264,9.01991367340088,2.473414897918701,1.2048187255859375,0.17256944,0.7486154,3
-2.493452787399292,7.5074782371521,2.2537543773651123,0.8674857020378113,0.81336707,-0.42913285,3
-2.84946346282959,5.904070854187013,2.284827709197998,0.5304222106933594,0.28527406,-0.9257663,3
-2.6160342693328857,4.5983991622924805,2.368901014328003,0.17160150408744812,-0.6291912,-0.8854492,3
-2.169537305831909,3.9884610176086426,2.3210182189941406,-0.2004240304231644,-1.2400563999999998,-0.8200866,3
-1.8142893314361568,4.0010900497436515,2.041921377182007,-0.6300076246261597,-0.768163,-0.59131753,3
-2.061187982559204,5.259636878967285,2.389971971511841,-1.2958897352218628,0.9859365,-1.462106,3
-3.2502660751342773,7.498948097229004,2.791830062866211,-1.7485469579696655,-2.212554,-2.5017986,3
-2.8499679565429688,9.647224426269533,0.9034977555274964,-1.995606780052185,2.6532931,-1.459357,3
-0.7448501586914062,11.152538299560547,0.8010079860687256,-2.2070753574371342,0.73914695,-2.1053472,3
1.341695785522461,12.610366821289062,0.896851122379303,-2.734710454940796,1.9819523,-1.9000963,3
2.08224892616272,13.818281173706055,1.0495884418487549,-2.908867835998535,2.9272664,-0.47769663,3
1.2177971601486206,14.145853042602539,1.4323453903198242,-2.74208664894104,2.6758952000000003,-0.8338310999999999,3
-1.4173321723937988,13.825894355773926,2.2511460781097408,-2.3045437335968018,1.2861768,-2.378404,3
-3.578770399093628,14.00645637512207,3.473773956298828,-1.7422809600830078,-1.7641789,-1.2999213,3
-3.895890712738037,13.461546897888185,3.58463454246521,-1.2932227849960327,-3.163671,-0.44409904,3
-2.71301794052124,11.76943588256836,2.6948399543762207,-0.956407368183136,-3.6978729,0.30879238,3
-1.1017495393753052,9.038167953491213,1.5148985385894775,-0.6133512258529663,-2.2336287,0.8136725,3
0.144142284989357,5.89399528503418,0.29478320479393005,-0.17975890636444092,0.058643065,1.3515393999999998,3
0.9282952547073364,3.406444549560547,-0.7647704482078552,0.3291670083999634,2.240043,1.8038851,3
1.2205994129180908,1.9829745292663572,-1.2380279302597046,0.8093863129615784,3.4654386,1.8866574,3
1.0455752611160278,1.5176295042037964,-0.7668570876121521,1.1048288345336914,2.1340578,1.2538009,3
0.5727404356002808,1.788748264312744,0.5578466653823853,0.9482092261314392,0.6637050999999999,0.05375614,3
-0.4177490174770355,2.8056316375732417,1.5639617443084717,0.3498806953430176,2.7159069,-2.1493294,3
-0.4863152801990509,4.410362243652344,2.4262702465057373,-0.05485793203115463,0.16187929,-1.3038919,3
-0.5735500454902649,6.7807865142822275,2.0030972957611084,0.1173596978187561,-1.1771374,0.04337143,3
-0.6021464467048645,7.22990608215332,1.5608364343643188,-0.17660531401634216,-0.23579398,0.41691554,3
0.010299834422767162,5.20546293258667,0.3142663836479187,-0.3502654433250427,3.086702,1.4514158,3
0.13847310841083527,4.275689125061035,-0.6222077012062073,0.2501460909843445,1.6930131000000002,4.710993,3
-0.8407783508300781,5.934016227722168,-0.6768012642860413,0.8037748336791992,-3.1856623,3.8270707,3
-2.5722908973693848,8.028682708740233,-1.2323602437973022,1.1699540615081787,-4.4388523,1.174083,3
-3.7027182579040527,8.759373664855957,-1.652718186378479,1.8003745079040527,-2.3967297000000003,0.09682214,3
-3.5032317638397217,9.617213249206543,-0.9566454887390136,2.278696060180664,0.7110472,-0.35094208,3
-2.305107831954956,11.13934326171875,0.457599937915802,2.5212476253509517,-0.24648413,0.32711834,3
-0.5902870297431946,12.49439525604248,1.5544922351837158,2.473651170730591,-1.0995574,1.6438384,3
0.3657960593700409,12.527928352355955,2.03068208694458,2.1547927856445312,-0.27947086,1.7153096,3
0.07201126217842102,11.3096342086792,2.380126476287842,1.7496460676193235,-0.16371189,1.2305881,3
-0.6873050928115845,9.835651397705078,2.2738206386566158,1.3408528566360474,-0.74281216,0.95203346,3
-1.6284830570220947,8.128401756286621,1.8551374673843384,0.9857956767082214,-0.31337386,0.31337386,3
-2.3245272636413574,6.534359455108643,1.852429747581482,0.6992197036743164,0.23884831,-0.4092797,3
-2.322798728942871,5.335171699523926,2.0992074012756348,0.3436550796031952,0.30970868,-0.66798115,3
-1.9494011402130127,4.460500717163086,2.226034879684448,-0.05587583407759666,-0.35033122,-0.72204274,3
-1.671333909034729,4.0872225761413565,1.9946577548980715,-0.4491174221038817,-1.7812830000000002,-0.81489426,3
-1.900145530700684,4.6817145347595215,1.8089057207107544,-0.9792723059654236,-1.022283,-1.4010195,3
-2.9234509468078613,6.877297878265381,1.7576024532318115,-1.4391424655914309,-1.9984456,-2.8790078,3
-2.5525927543640137,9.116467475891113,-0.04347443580627442,-1.7594711780548096,2.4492643,-2.6288586,3
-0.3751477599143982,10.8280668258667,-0.2812897264957428,-1.9633095264434812,0.8918633,-1.9660698,3
1.7906860113143919,12.287034034729006,0.16705189645290375,-2.353250026702881,2.2052236,-2.1994202,3
3.2495119571685787,13.650686264038086,0.5051559209823608,-2.6577823162078857,2.68628,-0.5027421,3
2.454531192779541,14.136086463928224,0.5966539978981018,-2.664640188217163,2.6013696,-1.0149527,3
-0.4002869129180908,13.447548866271973,0.9103764891624452,-2.425848484039306,0.6206391,-1.8704693,3
-2.7058310508728027,13.51958179473877,1.8374981880187988,-2.051358938217163,-1.840537,-0.9505063,3
-3.5926475524902344,12.98857593536377,2.13904333114624,-1.626548171043396,-2.9608638,-0.014660766,3
-2.8416082859039307,10.828598022460938,1.543153166770935,-1.262347936630249,-3.6447275,0.50885075,3
-1.510069727897644,7.838640689849853,0.5615569949150085,-0.8385738730430603,-2.2953262000000003,0.82802784,3
-0.3897761404514313,4.9401512145996085,-0.5629551410675049,-0.2964637279510498,-0.15851954,0.9932669,3
0.4589259326457977,2.596973419189453,-1.5265719890594482,0.3215315639972687,2.0888536,1.0793989,3
0.8518358469009399,1.1290452480316162,-1.841718077659607,0.8458055853843689,3.2534683,1.2089024,3
0.6052005290985107,0.951119065284729,-0.8706051707267761,1.0755025148391724,2.1273382,0.7086037,3
-0.16808252036571505,1.654319167137146,0.7954944968223572,0.7754411101341248,0.5983425,-0.9984592,3
-1.33396315574646,3.0675809383392334,1.5898524522781372,0.28265470266342163,2.096184,-2.5558603,3
-1.1430892944335938,4.492178916931152,1.9090983867645264,0.08176784217357635,0.21991149,-1.5790867,3
-0.3692587912082672,6.646946907043457,1.6316574811935425,0.24328146874904635,-2.0222695,1.5213598999999998,3
-0.3067102432250977,6.8802547454833975,1.3182827234268188,0.050750549882650375,-1.0989466,0.17043139999999998,3
0.27417200803756714,5.258400917053223,0.18611152470111847,-0.3347447514533997,2.2944098,0.5546656,3
0.7401718497276306,4.005300045013429,-1.227749586105347,0.03129740059375763,3.425427,2.7278187000000003,3
0.508003830909729,5.3924827575683585,-1.4595378637313845,0.6365353465080261,-1.3460416000000002,4.906164,3
-0.95302015542984,7.68468713760376,-1.6162117719650269,1.1087735891342163,-4.4638977,2.4791965,3
-2.7315332889556885,9.20279312133789,-1.8870118856430051,1.8899776935577397,-2.1496348,0.57818395,3
-3.3802449703216557,9.99791145324707,-1.0663031339645386,2.4275989532470703,0.46670106,-0.08216137400000001,3
-3.1070785522460938,11.108667373657227,0.16120563447475433,2.6133272647857666,-0.17745635,0.14813483,3
-1.6973229646682741,12.336254119873047,1.1154199838638306,2.6948778629302983,-1.6261233,1.2156218,3
-0.1890653669834137,12.639975547790527,1.5797444581985474,2.5048184394836426,-0.17409660000000002,1.9416351000000005,3
0.0277030561119318,11.5693941116333,2.2548985481262207,2.1262917518615723,-0.08521569999999999,1.3683381,3
-0.3976196050643921,10.328588485717773,2.465531587600708,1.6844099760055542,-0.8167268,1.0161743,3
-1.4118800163269043,8.922149658203125,2.1425762176513667,1.2812762260437012,-0.35246924,0.18570304,3
-2.375063180923462,7.2309250831604,2.209306001663208,0.9127036929130554,0.20463985,-0.8026769,3
-2.691980600357056,5.807481288909912,2.617163896560669,0.485806941986084,-0.3436117,-1.2754866000000002,3
-2.4717905521392822,4.694827079772949,2.741283655166626,-0.002935470547527075,-0.97249746,-1.2718215,3
-2.030758142471313,4.113199234008788,2.4909920692443848,-0.4119915068149567,-1.5015068,-1.1856893999999998,3
-1.7656456232070925,4.6142578125,2.39035964012146,-0.9269527196884156,-0.26328292,-1.0864239,3
-2.1455974578857417,6.3022422790527335,2.641975879669189,-1.5247635841369631,-1.2522738000000002,-1.5952746000000002,3
-2.5064663887023926,8.632143020629883,1.5955733060836792,-1.9448630809783936,2.0231857,-2.1169536,3
-0.7492486238479614,10.389775276184082,0.3302772045135498,-2.1884534358978267,2.4226916000000003,-2.1019874,3
1.5853886604309082,11.79914093017578,0.4411472380161285,-2.5163378715515137,2.0344868000000003,-2.3787093,3
3.5102815628051762,13.204949378967285,0.8539618253707886,-2.8364412784576416,2.3457224,-0.5674938,3
3.278630018234253,14.089157104492188,0.9969489574432372,-2.9334077835083012,3.242778,0.027794369,3
0.14351816475391388,13.45753574371338,1.3040738105773926,-2.708564043045044,1.6655241000000005,-1.8353447,3
-2.783233880996704,13.287254333496096,2.2075345516204834,-2.207866907119751,-0.64751714,-1.4877623,3
-3.8819580078125,12.856308937072756,2.859244108200073,-1.7932192087173462,-2.3683245,-0.535118,3
-2.881395101547241,11.08401107788086,2.1460869312286377,-1.3984501361846924,-4.799874,0.17684549,3
-1.4013007879257202,8.139385223388674,0.7868537306785583,-0.9917185306549072,-3.476434,0.86834496,3
-0.2185433804988861,5.071591377258301,-0.6146413683891296,-0.4908915162086487,0.06841691,1.2663236999999998,3
0.6390423774719238,2.425670623779297,-1.8278946876525881,0.1562747210264206,3.0656273,1.278541,3
1.082056999206543,0.8711053133010864,-2.301217555999756,0.8183407783508301,4.3737949999999985,1.2586879,3
1.0547292232513428,0.6277055144309998,-1.3306095600128174,1.2383291721343994,3.3417382000000004,0.7012733,3
0.7418867945671082,1.069106936454773,0.6760349273681641,1.0499405860900881,0.88514376,-0.6261369000000001,3
-0.2497347593307495,2.438173770904541,1.9075126647949217,0.4383901059627533,2.1917843999999995,-2.4141395,3
-0.6081374883651733,4.138042449951172,1.9595757722854612,0.08907370269298552,-0.24678956,-1.1120802,3
-1.1563270092010498,6.729419231414795,0.670472264289856,0.3729743957519531,-1.6966782,1.2479976000000002,3
-1.2997015714645386,7.161376953125,0.5214959979057312,0.2781437933444977,-0.15943582,-0.019547688,3
-0.4845013618469238,5.383971691131592,-0.10142741352319716,-0.06960232555866241,2.977968,0.9007208,3
-0.09697578847408296,4.256347179412842,-0.9774560928344728,0.30478814244270325,2.463925,3.7357464,3
-0.5241561532020569,5.7732582092285165,-0.8909561634063721,0.7738273143768309,-1.6707164,4.4779477,3
-1.8924881219863887,8.065247535705566,-1.1497964859008791,1.0719980001449585,-4.3603562999999985,2.452013,3
-3.27693772315979,9.342967987060547,-2.006629943847656,1.689181566238403,-2.4303274,0.5510005,3
-3.8283631801605225,10.339311599731444,-1.9931819438934328,2.3822381496429443,0.5158757,-0.11636983,3
-3.69910740852356,11.654657363891602,-0.21807341277599332,2.6924502849578857,-1.2452488000000002,-0.0571159,3
-2.014314889907837,12.971665382385256,1.4322552680969238,2.636831998825073,-0.49846604,1.1954633,3
-0.3414251208305359,12.927529335021973,2.0270092487335205,2.297724723815918,0.44837508,1.9807305,3
-0.21554355323314667,11.676066398620605,2.5180494785308842,1.8715875148773196,-0.6649268,1.7592918999999998,3
-1.2036865949630735,10.145567893981934,2.284566164016724,1.4533809423446655,-0.54733527,1.0308351999999998,3
-2.4905931949615483,8.458213806152344,1.9387297630310056,1.080112099647522,0.3390302,-0.04550946,3
-3.1833264827728267,6.6559205055236825,2.1763288974761963,0.6972340941429138,0.08246681,-1.0626001,3
-3.143047332763672,5.205506801605225,2.408467531204224,0.2712041437625885,-0.4633413,-1.2443326,3
-2.68593978881836,4.254100799560547,2.2482309341430664,-0.1418786197900772,-1.0390818000000002,-1.2223413,3
-2.0608205795288086,3.890137434005737,1.9508578777313232,-0.5027253627777101,-1.1319333,-1.0290025,3
-1.707641839981079,4.6295166015625,1.9372895956039429,-1.0455145835876465,-0.24495697,-0.7984009,3
-2.078824758529663,6.683868408203125,2.8702971935272217,-1.6702075004577637,-1.0769554,-1.8732183,3
-1.567872405052185,9.01608943939209,1.150740385055542,-1.9923444986343384,2.0476203,-2.1041253,3
0.08512765914201736,10.922486305236816,0.4295072555541992,-2.2860536575317383,2.1285598,-1.8790215,3
1.9799329042434688,12.545920372009276,0.4728821516036987,-2.758544683456421,2.233018,-2.3671029,3
3.2577087879180913,13.901278495788574,0.4916000366210938,-3.046616792678833,3.0750957000000003,-0.5002986,3
2.427449941635132,14.675443649291992,0.8377113938331604,-2.927851676940918,2.2339342,-0.6053675000000001,3
-0.2756685018539429,14.101396560668945,1.666198492050171,-2.662989616394043,0.6197228,-1.5305228000000002,3
-3.184799194335937,13.509605407714846,2.6961050033569336,-2.2050931453704834,-1.5815301000000002,-1.2296717,3
-4.549926280975342,12.83706283569336,3.415782928466797,-1.7697594165802002,-3.303254,-0.40286562,3
-3.9578590393066406,10.987868309020996,2.783015727996826,-1.3538124561309814,-4.6599855,0.35796702,3
-2.61806058883667,8.375514984130861,1.622464656829834,-0.9220762848854064,-3.719864,0.8210029000000001,3
-1.2488720417022705,5.442722797393799,0.267303079366684,-0.4308345019817352,-0.90377516,0.9611965,3
-0.09006412327289581,2.9077091217041016,-0.9267141819000244,0.1306370049715042,1.9853121,1.0439687,3
0.6209058165550232,1.1620545387268066,-1.694788098335266,0.6649172902107239,3.7497964,1.14018,3
0.7586524486541748,0.4660174250602722,-1.7117879390716553,1.0825632810592651,4.142583,1.0064004999999998,3
0.4707047641277313,0.7255125045776367,-0.6782304048538208,1.1582355499267578,1.8478674,-0.032070424,3
-0.19745685160160065,2.0988631248474117,1.0449082851409912,0.7131709456443787,0.75869465,-1.5903877,3
-0.3420952260494232,3.942773818969727,1.8375014066696167,0.17730869352817535,1.4446963,-1.3338243,3
0.2422248274087906,6.609698295593263,1.3131110668182373,0.18751399219036105,-1.2947289,1.2122620000000002,3
-0.4276963174343109,7.8189377784729,0.4408057034015656,0.2474686801433563,-0.3622431,0.44532076,3
-0.37021565437316895,6.3709659576416025,-0.2642444372177124,-0.10121652483940123,1.7528778000000005,0.4437936,3
-0.04664744809269905,4.89603853225708,-1.6019985675811768,0.102160282433033,3.9150352,2.8475482000000003,3
-0.2729494273662567,5.739884853363037,-2.1420352458953857,0.7390968799591064,-0.5308419,4.9425106,3
-1.6885193586349487,8.08682918548584,-1.883431315422058,1.1099865436553955,-4.2284093,2.5696046000000003,3
-3.1203899383544917,9.335840225219727,-2.0821776390075684,1.7397707700729368,-3.2519412,0.6249151,3
-3.6659634113311768,10.01137638092041,-2.189884185791016,2.411665439605713,0.6337727,0.35002577,3
-3.294897556304932,11.445155143737793,-0.6613055467605591,2.7774853706359863,0.35460728,-0.04428773,3
-1.9170370101928709,12.754530906677244,0.9687442779541016,2.817943334579468,-1.7522669999999998,1.063211,3
-0.34920331835746765,12.89452838897705,1.3658632040023804,2.514287233352661,0.68569624,1.9541580000000005,3
0.1080259159207344,11.915184020996096,1.847856402397156,2.04861068725586,0.09437868,1.6328428,3
-0.39822086691856384,10.513421058654783,2.225102186203003,1.5986480712890625,-0.6609562,1.3283265,3
-1.537070393562317,9.091070175170898,1.9893838167190552,1.1657092571258545,-0.15851954,0.462425,3
-2.8547971248626713,7.285261631011963,1.929691791534424,0.7831673622131348,0.44104472,-0.7641924,3
-3.5359866619110107,5.526786804199219,2.246968984603882,0.3894737660884857,-0.25167647,-1.3344351,3
-3.1935727596282963,4.383096218109132,2.232987642288208,-0.06339359283447266,-1.205848,-1.1563678999999998,3
-2.6080806255340576,3.94269585609436,1.9540727138519287,-0.4639759957790375,-2.0109684,-1.040609,3
-2.566274404525757,4.837759971618652,2.1000959873199463,-1.0027977228164673,-1.0848966999999998,-0.8081746999999999,3
-3.6373779773712163,7.189197540283202,2.6515371799468994,-1.6651638746261597,-2.6670377,-1.9843957,3
-3.4583840370178223,9.44576358795166,0.7149786949157715,-2.1200342178344727,3.080288,-1.9285016,3
-1.395004391670227,11.03435230255127,-0.02761952951550484,-2.3418993949890137,2.0916026000000003,-2.375655,3
0.8547793626785278,12.516986846923828,0.39746910333633423,-2.738196611404419,1.5949692,-2.7568347,3
2.30851149559021,13.844637870788574,1.071935772895813,-3.0933640003204346,1.9737056,-1.0305296,3
1.1979782581329346,14.204063415527346,1.506909966468811,-3.1575300693511963,1.7968601000000002,-1.2516629,3
-1.7780003547668457,13.368041038513185,1.6867551803588867,-2.8107171058654785,0.31245756,-2.5964828,3
-3.880260944366455,12.988930702209473,2.45845365524292,-2.1656057834625244,-1.4957036,-1.119716,3
-4.6127471923828125,12.23627758026123,2.8731584548950195,-1.639954924583435,-2.7977629,-0.08979719,3
-3.4483351707458496,10.195398330688477,2.0578689575195312,-1.2216123342514038,-3.602883,0.47342056,3
-1.8967032432556152,7.464352130889893,0.8876110911369324,-0.8361237645149231,-2.8209758,0.77182823,3
-0.4839614629745483,4.461150169372559,-0.7263875603675842,-0.3381544053554535,0.38331795,0.9279043,3
0.7432510256767273,2.1363575458526607,-1.9917820692062376,0.2681095004081726,2.8481593,1.3090841999999998,3
1.5272196531295776,0.7635470032691956,-2.53897762298584,0.77434903383255,4.007581,1.5668694,3
1.7027045488357544,0.18368226289749146,-2.145768404006958,1.107845902442932,3.275154,0.6230826,3
1.3607338666915894,0.8793465495109558,-0.13232731819152832,1.0706522464752195,0.13103059,-0.08093964,3
0.3522577583789825,2.795837163925171,1.3784538507461548,0.4479585886001587,2.4382687,-2.1355848,3
0.3302159309387207,5.330942630767822,1.960082054138184,0.13171181082725525,1.0626001,-0.3555236,3
-0.5681713223457336,7.596323490142822,1.429552674293518,0.373008668422699,-0.26083946,0.97097033,3
-1.0521160364150999,7.434496879577638,1.2610886096954346,0.06649184226989746,-0.32192600000000005,0.11148291,3
-0.5001214146614075,5.444660186767578,0.6378960013389587,-0.2426310330629349,2.5833492,0.9483683,3
-0.10643106698989868,4.020339012145996,-0.7613809704780579,0.22820357978343964,2.339614,4.065308,3
-0.4629297256469727,5.225160121917725,-1.1271374225616455,0.7747514843940735,-1.2892311,4.4935246,3
-2.1952364444732666,7.689349174499513,-1.638297438621521,1.245376706123352,-5.06224,2.5360072,3
-3.866690397262573,9.315518379211426,-2.1694190502166752,2.0778653621673584,-1.022283,0.7489208,3
-4.9545745849609375,10.679718017578123,-0.9425392746925354,2.684154272079468,0.39584067,-0.50610185,3
-4.24946928024292,12.165731430053713,1.1027995347976685,2.7190873622894287,-1.6206254999999998,0.16065755,3
-2.2733371257781982,12.986660957336426,1.7349311113357544,2.559485912322998,-1.5583171999999998,1.3203851999999998,3
-0.7825261950492859,12.49689483642578,1.7955546379089355,2.20656681060791,0.105068825,1.8759671,3
-0.5283790230751038,11.0061674118042,2.1795396804809566,1.7683221101760864,-1.2027937,1.4196508,3
-1.3074328899383545,9.257211685180664,2.3126084804534908,1.3287897109985352,-1.2409728,0.6844745,3
-2.5098285675048833,7.5249571800231925,2.1046061515808105,0.8831105828285217,0.19272798,-0.4266894,3
-3.18229603767395,5.833369731903076,2.1615953445434566,0.4410621523857117,0.16371189,-1.1523973,3
-2.9157583713531494,4.711121082305908,2.361818790435791,0.023135755211114883,-1.0097603000000002,-1.0616838,3
-2.250018358230591,4.274846076965332,2.357180118560791,-0.36967793107032776,-1.8564194,-1.056186,3
-1.8745089769363403,4.872658729553223,2.22657322883606,-0.8877635002136229,-2.436436,-0.84788096,3
-2.601931571960449,6.908191204071045,2.6662843227386475,-1.6460412740707395,-1.4471397,-1.4993688,3
-2.809272289276123,9.176935195922852,0.9426256418228148,-2.0875482559204097,1.2760975,-2.845105,3
-0.6846871376037598,10.979166984558104,-0.5079144835472107,-2.370873212814331,2.248595,-1.8817704,3
1.5393450260162354,12.33933162689209,0.1921291947364807,-2.799234390258789,1.0995574,-2.2339342,3
2.916433095932007,13.664543151855467,0.6813116073608398,-3.266139030456543,2.2553146,-0.74220127,3
1.678261160850525,14.485676765441895,1.1726369857788086,-3.320328712463379,2.2333232999999995,-1.4785993,3
-1.4700770378112793,14.343753814697266,1.9091981649398804,-3.1033759117126465,0.35063666,-2.9608638,3
-3.3905258178710938,14.0,2.5210039615631104,-2.582331657409668,-1.0574077,-1.4969252,3
-3.572179317474365,12.66311740875244,2.53220796585083,-1.8970060348510744,-3.5989125,-0.30604348,3
-2.639664649963379,10.471465110778807,1.7278234958648682,-1.2174566984176636,-4.053396,0.38453966,3
-1.285302758216858,7.680375099182129,0.5608699917793274,-0.6656901836395264,-1.9816469,0.8915578000000002,3
0.05659942701458931,4.722580909729004,-0.5765634179115295,-0.0987115129828453,0.47678033,1.0708468,3
1.2452782392501829,2.3775384426116943,-1.5356504917144775,0.5252997279167175,2.747061,1.3964379999999998,3
1.9133418798446653,1.1306159496307373,-2.18318510055542,1.0613703727722168,4.4751987,1.8466456,3
1.8490236997604368,0.5354648828506471,-1.929571390151977,1.3701845407485962,3.2128458,0.9401216,3
1.211458444595337,0.7833545207977295,-0.3730635941028595,1.2658525705337524,-0.74464476,0.15332718,3
-0.27611973881721497,2.5438027381896973,1.6977452039718628,0.4820199310779572,0.58001655,-1.8154916,3
-1.415306806564331,4.378661155700684,1.7254319190979004,-0.06259100139141083,3.3796120000000003,-2.0497584,3
-0.6347774863243103,6.498204708099365,1.9977604150772093,0.19998081028461456,0.5149594,2.4569001,3
-0.6759765148162842,7.580334186553955,1.7618536949157717,0.3638247549533844,-0.07819075,0.99112886,3
-0.17423804104328156,6.162105083465576,1.466866374015808,-0.15314635634422302,-0.022296581,0.14874569,3
0.4635604619979858,4.609723567962647,-0.05716952309012412,-0.3054308295249939,2.5891523,1.9214766,3
0.671309769153595,5.117306709289551,-1.5067445039749146,0.34567612409591675,1.0516045,4.9834385,3
-0.5283166766166687,7.239930152893066,-1.9834355115890503,1.0438411235809326,-4.0118575,3.7815614,3
-2.9827466011047363,9.17605972290039,-2.5576508045196533,1.940791606903076,-2.4150558,0.7816021,3
-4.178905963897705,10.485560417175293,-1.8753814697265625,2.732649326324463,1.3246613,-0.09162979,3
-3.9712610244750977,11.923120498657227,0.461885154247284,2.8401594161987305,-0.15577064,0.30879238,3
-2.2901604175567627,12.91003131866455,1.5185222625732422,2.687819242477417,-1.8048013,1.4043792,3
-0.9265640377998352,12.629570960998535,1.310503602027893,2.374762773513794,0.8530733,1.534188,3
-0.4569642245769501,11.317206382751465,1.7667092084884644,1.9759612083435056,0.07299839999999999,1.2217305,3
-0.7476061582565308,9.821327209472656,2.316105604171753,1.5250568389892578,-0.43768495,0.7134906,3
-2.1145153045654297,8.413364410400389,2.20732045173645,1.0787888765335083,0.4474588,-0.11362094,3
-3.4477527141571045,6.875930309295653,2.2635486125946045,0.6537327766418457,0.40683624,-1.2873985,3
-3.826552629470825,5.368175983428955,2.4944987297058105,0.24141965806484225,-0.8313876,-1.3921618,3
-3.21457314491272,4.304821968078613,2.4513893127441406,-0.18024899065494535,-1.7275269,-1.0210613000000002,3
-2.544147729873657,4.014983177185059,2.257486581802368,-0.5623720288276672,-2.2085834,-0.9077458,3
-2.4173688888549805,4.647239208221436,2.143054723739624,-1.0669447183609009,-2.2632558,-0.5852089,3
-3.106620073318481,6.4537315368652335,2.4828474521636963,-1.6976974010467532,-0.77121735,-2.259896,3
-3.8699741363525386,8.695948600769043,1.170389175415039,-2.1000204086303706,1.6756034,-2.1163425,3
-2.744546890258789,10.745555877685547,-0.2757830619812012,-2.403524875640869,1.4718798,-1.5968018,3
-0.8365081548690796,12.459110260009766,-0.15859045088291168,-2.7838616371154785,2.5986207,-3.1047225,3
0.7664220333099365,13.8374662399292,0.6435181498527527,-3.0454766750335693,2.339003,-1.8710803,3
0.5275259017944336,14.3773832321167,1.0550416707992554,-2.9987542629241943,2.6847527,-0.58551437,3
-1.9587047100067136,13.548751831054688,1.2049249410629272,-2.7017641067504883,0.94225967,-2.1368067,3
-4.158048152923584,12.953237533569336,2.058369874954224,-2.1813123226165767,-0.84574294,-1.2391402,3
-4.358883857727052,11.917245864868164,2.526203393936157,-1.7467632293701172,-3.573867,-0.30573806,3
-3.472527980804444,10.010398864746094,1.5613256692886353,-1.3030229806900024,-4.9745812,0.22204952,3
-2.036247968673706,6.818742752075195,-0.06329908967018127,-0.8414144515991211,-3.244,0.5345071,3
-0.4653941988945007,3.5426011085510254,-1.6952804327011108,-0.21790744364261627,0.5488624,0.79168135,3
0.904585599899292,1.0807026624679563,-2.5467088222503658,0.4453437030315399,2.734233,1.0256428,3
1.7730286121368408,-0.15623755753040314,-2.550968647003174,0.9220507740974426,3.309057,1.2596041,3
2.075630187988281,-0.4133212566375733,-1.896209716796875,1.2184759378433228,2.8264735,0.4202753,3
1.915575385093689,0.2545005977153778,-0.5140490531921387,1.223605394363403,1.1288790000000002,-0.42943826,3
1.1786830425262451,1.8888665437698364,0.8396105766296387,0.8017409443855286,1.2040153999999998,-1.349096,3
0.7157654166221619,3.585288047790528,1.3487809896469116,0.3693581521511078,0.7846564,-0.47403142,3
1.4463438987731934,5.999068737030028,2.0007669925689697,0.4215113520622253,-1.7971655,2.7052166,3
0.6459987163543701,7.594906330108643,0.920456886291504,0.6329115629196167,0.782213,1.5861117,3
-0.3912897408008576,6.143543243408202,0.7561579942703247,0.4399595260620117,2.9055805,-0.23579398,3
-0.8255060911178589,6.058452606201173,0.4935989081859589,0.4006469249725342,2.4712553,2.3863451,3
-1.3391108512878418,7.054110050201416,0.025678901001811028,0.628334105014801,-1.2638801000000002,3.3173037000000005,3
-2.2325310707092285,8.475763320922853,-0.6284770369529724,0.99506276845932,-3.7085629,2.0583105,3
-3.0828211307525635,10.1658935546875,-2.2718498706817627,1.7929726839065552,-2.5842655,0.8173377,3
-3.1623244285583496,11.696300506591795,-1.9238009452819824,2.7460711002349854,1.4804319,0.48472157,3
-3.2561590671539307,13.143147468566895,0.8914167284965515,3.0394222736358643,-0.77304995,0.04337143,3
-1.8120930194854736,13.869063377380373,2.267735719680786,2.7482435703277592,-0.5012149,1.5796975,3
-0.2357887774705887,13.083087921142578,2.0845811367034908,2.312752485275269,0.6588182,2.5167649,3
-0.10490267723798752,11.530750274658205,2.2696566581726074,1.8272137641906736,-0.50640726,2.1658227,3
-1.1770193576812744,10.10153102874756,2.0753524303436284,1.4148604869842532,-0.398895,1.1368201999999998,3
-2.72327184677124,8.612859725952147,1.8418450355529783,1.0250844955444336,0.9984592,-0.04153884,3
-3.6033539772033687,6.87067985534668,2.2839155197143555,0.6200588941574097,0.28283059999999993,-0.9896017,3
-3.498534679412842,5.377345085144043,2.2976698875427246,0.21383970975875852,-0.31245756,-1.3008375,3
-2.814907550811768,4.453970909118652,2.0692579746246342,-0.1484259068965912,-1.0057896000000002,-1.1246029,3
-2.014046192169189,4.459046363830566,1.9702119827270508,-0.485724925994873,-1.3994923,-0.6218608,3
-1.863827109336853,5.636471271514893,2.4782209396362305,-1.0788527727127075,-2.1994202,-0.2565634,3
-2.6932613849639893,7.756826877593994,2.8151867389678955,-1.6434791088104248,-2.0971005000000003,-1.4135422,3
-2.8379855155944824,9.91100788116455,0.5631425380706787,-2.0593733787536617,4.126089,-1.74738,3
-1.4861829280853271,11.62428092956543,0.34894534945487976,-2.355060815811157,0.70554936,-2.615725,3
0.3638855218887329,13.109589576721193,0.7458238005638123,-2.878398895263672,1.2055426,-2.6493225,3
1.9144182205200195,14.352651596069336,0.5547571778297424,-3.2159900665283203,3.4910947999999995,-0.6102544,3
1.6850379705429075,14.768624305725098,0.8086628913879395,-3.170654296875,2.1673498,-0.20311269,3
-1.0025280714035034,13.820713996887207,1.6874343156814575,-2.8943195343017583,0.54367006,-2.5995371,3
-3.2947487831115723,13.326200485229492,2.341550588607788,-2.393946886062622,-2.5934284,-2.0748038,3
-3.615010261535645,12.118741035461426,1.8722211122512815,-1.8471390008926392,-4.251622,-0.64873886,3
-2.599374532699585,9.876787185668944,0.7929121255874634,-1.277110934257507,-4.5683555999999985,0.04062254,3
-1.1307913064956665,6.934741020202638,-0.520319402217865,-0.7399969100952148,-2.6114490000000004,0.6264423000000001,3
0.2859891355037689,3.97756552696228,-1.7422040700912476,-0.16873122751712802,0.68203104,0.87995136,3
1.2789520025253296,1.7107185125350952,-2.47207260131836,0.4679134488105774,3.1471777000000003,1.1172725,3
1.8349144458770752,0.51301109790802,-2.6173415184021,0.9882323145866394,4.4110580000000015,1.3649784,3
1.9272117614746092,0.16056154668331146,-1.9988335371017456,1.2421025037765503,2.8893926,0.4709771,3
1.4113370180130005,1.0596411228179932,0.09733423590660097,0.9904398918151855,-0.029626964,-0.2959642,3
0.4448835253715515,2.5683321952819824,1.7833645343780518,0.3298431634902954,0.93034774,-1.7672331,3
0.4293869435787201,4.213900089263916,1.9089522361755369,-0.1961575746536255,-0.35033122,-1.0290025,3
0.22600536048412326,6.6178364753723145,0.7292314171791077,0.10811761766672134,-0.7199047,2.0289888,3
-0.9917725920677184,8.069575309753418,0.8015730977058411,0.07330889254808426,0.63346726,0.73792523,3
-0.9107638597488404,6.670643329620361,0.987257182598114,-0.2092936486005783,2.329229,1.0332786,3
-0.8583216071128845,6.057555198669434,-0.058625299483537674,-0.04576775431632996,1.7657060000000002,3.0848694,3
-1.4833807945251465,7.285585880279541,-1.2166476249694824,0.4946393072605133,-1.1145236,2.9565878,3
-2.8508985042572017,9.193499565124512,-2.107482671737671,1.2010198831558228,-4.405255,1.6878206999999998,3
-3.758718013763428,10.36332893371582,-3.008056640625,2.1823968887329097,-2.1474967,0.56382865,3
-3.713664770126343,11.630376815795898,-1.9804987907409668,2.950087547302246,1.6016886,-0.29749137,3
-2.9410958290100098,12.98646068572998,0.890887975692749,2.981205701828003,-1.5308284,0.8597928,3
-1.5845187902450562,12.976365089416506,1.7725847959518433,2.63217568397522,-0.6988298000000001,1.8872682,3
-0.6928985118865967,11.595795631408693,1.4132875204086304,2.194345712661743,0.7495316,1.8432859,3
-0.401677280664444,10.165655136108398,1.7091000080108645,1.8438049554824831,-0.22266038,1.6145169,3
-0.9148809909820556,9.06303596496582,1.966830372810364,1.5335456132888794,-0.6426301999999999,1.0613784,3
-2.1886649131774902,7.9229793548583975,1.8570308685302732,1.1483782529830933,0.59803706,0.16340645,3
-3.303413391113281,6.348965644836426,2.073668956756592,0.7786573767662048,0.15882497,-0.93187493,3
-3.2676258087158203,4.8871421813964835,2.3946001529693604,0.3641403317451477,-0.66523224,-0.9923506,3
-2.749657154083252,3.968821048736572,2.418811082839966,-0.09535005688667296,-1.6481144,-0.9101892,3
-2.4665915966033936,3.761488437652588,2.2137763500213623,-0.5232717990875244,-2.7204883,-0.72021013,3
-2.73117470741272,4.484038829803467,1.8567527532577517,-1.1452150344848633,-0.39522982,-0.7461719,3
-4.391363620758057,6.6409664154052725,2.0222771167755127,-1.7217065095901491,-1.9165897,-2.783102,3
-4.455950736999512,9.029851913452148,-0.1315607726573944,-2.147357702255249,3.4645221,-2.7870727000000004,3
-2.415299654006958,11.04818344116211,-0.636432409286499,-2.332420825958252,0.7788531999999999,-2.8777862,3
0.387029230594635,12.708630561828613,-0.09814541041851044,-2.7261972427368164,0.77182823,-3.271489,3
1.8460127115249636,13.955169677734375,0.13266228139400482,-3.0410356521606445,2.6728408,-0.34880406,3
0.7777571678161621,13.898069381713867,0.3100408315658569,-2.963996410369873,1.9517145,-0.43463063,3
-2.2834510803222656,13.119450569152832,1.3787962198257446,-2.475739002227783,-0.2669481,-2.7440066,3
-3.910212755203247,12.912291526794435,2.274250030517578,-1.9519354104995728,-2.5051584,-1.6035212,3
-3.1221692562103267,11.56796646118164,1.5041736364364624,-1.4053006172180176,-5.1947980000000005,-0.46211955,3
-1.6614775657653809,9.329826354980467,0.13480877876281738,-1.000585913658142,-4.8117857000000015,0.47342056,3
-0.11078179627656937,5.94853401184082,-1.3062156438827517,-0.5438828468322754,-1.6939293000000002,1.03786,3
1.2465606927871704,2.8031253814697266,-2.4243898391723637,0.08934188634157181,1.9300288,1.4089607,3
2.2432174682617188,0.6928969621658325,-2.82116174697876,0.7339131832122803,3.6920695,1.7547104,3
2.7149009704589844,-0.16955989599227905,-2.518918037414551,1.1732383966445925,3.9519928,1.5824465,3
2.5876142978668213,-0.2119770050048828,-1.1950521469116209,1.2627146244049072,1.0082331,0.31520647,3
1.541016936302185,1.3642441034317017,0.9298436045646667,0.6322036981582642,0.623388,-1.3805555,3
0.2978768348693848,3.997336864471436,1.9864823818206787,-0.0631050169467926,2.3487768,-3.0473013,3
-1.5966756343841553,6.8095641136169425,0.5796691179275513,0.16360168159008026,-0.08552113,-0.63194007,3
-2.1412796974182133,7.611342906951903,0.6338063478469849,-0.017762735486030582,-0.8344419,-0.8350528,3
-0.7503529191017151,5.786271095275879,0.1919124573469162,-0.34917837381362915,2.3924537,0.7715228,3
0.6685914993286133,4.181364059448241,-0.8550729751586914,-0.05920422077178955,2.158187,4.3075160000000015,3
0.9757999777793884,4.696847915649414,-1.600588321685791,0.5611922740936279,-1.3185526,5.754656,3
-0.6329740881919861,7.16408634185791,-1.9631813764572144,0.99587082862854,-6.5231247,3.1899383,3
-2.867727041244507,9.036147117614746,-3.160555124282837,1.8291032314300537,-0.44990227,0.61300325,3
-4.268904685974121,10.071202278137207,-1.7847466468811035,2.6083753108978267,1.25319,-1.0567969,3
-4.067251205444337,11.355704307556152,0.8149963021278381,2.8028028011322017,-0.8081746999999999,-0.39461896,3
-2.243922472000122,12.450871467590332,1.8110508918762207,2.7106187343597408,-1.5222762,0.9642508,3
-0.527195930480957,12.350218772888185,1.7367404699325562,2.36967134475708,0.6404922,1.7318029,3
0.22026944160461426,11.2102689743042,1.8878962993621824,1.983104586601257,-0.4016439000000001,1.8231273,3
-0.2743275165557861,9.806977272033693,1.9590805768966677,1.5958166122436523,-1.3637567,1.6264287,3
-1.5549304485321045,8.429986953735353,1.6712318658828735,1.2345393896102903,0.31215215,0.63071835,3
-2.751982450485229,6.912522315979004,1.7834868431091309,0.8783814311027527,1.1765264,-0.66981375,3
-3.2235875129699707,5.442259311676025,2.3038747310638428,0.503677248954773,-0.10842858,-0.97585726,3
-3.0745110511779785,4.141820430755615,2.502126693725586,0.08417348563671112,-1.3591752,-0.84329945,3
-2.6913912296295166,3.3952386379241943,2.1869673728942867,-0.2539477050304413,-1.9028453,-0.7626653,3
-2.228413820266724,3.2993440628051762,1.918830394744873,-0.6118464469909668,-1.273654,-0.47433686,3
-2.38553524017334,4.728578090667725,2.7194607257843018,-1.2256470918655396,-1.5137241,-0.61911196,3
-3.61703896522522,7.07579517364502,2.637322187423706,-1.7647716999053955,-1.6716328,-2.2379048,3
-4.082137584686278,9.378302574157717,0.2888965904712677,-2.1597137451171875,3.6813793,-2.7467556,3
-1.88077175617218,11.341486930847168,0.30343249440193176,-2.382770776748657,-0.32070425,-3.3148602999999994,3
0.9712400436401368,12.94921588897705,0.7118737697601318,-2.8082563877105717,1.5329663999999998,-1.8402315,3
2.0771229267120357,14.137022018432615,0.8105196356773376,-2.9197933673858643,2.5662448,0.06352998,3
1.0381419658660889,14.002815246582033,0.9454153776168824,-2.736872911453247,2.096184,-0.16249016,3
-1.8837600946426392,12.776055335998535,1.6335395574569702,-2.1998062133789062,1.0940597,-2.8124237,3
-4.0435876846313485,12.543411254882812,3.1102390289306636,-1.7252132892608645,-1.6588044999999998,-1.103528,3
-3.80431079864502,11.381696701049805,2.9077348709106445,-1.2275140285491943,-5.7375517,-0.14874569,3
-2.1610949039459233,8.708400726318361,1.0404866933822632,-0.8314802050590515,-5.1563134,0.5751295999999999,3
-0.5114665627479553,5.418506145477295,-0.7894621491432191,-0.3590661287307739,-1.3900238,1.0974194,3
0.9158278107643129,2.589630603790283,-2.1865606307983403,0.24430228769779205,2.6141977,1.4990633,3
1.870930552482605,0.6381430625915527,-2.7538836002349854,0.7830973267555237,4.16549,1.5549575,3
2.217274904251098,-0.2346154898405075,-2.571134328842163,1.148167371749878,4.2036690000000005,0.895223,3
2.0323128700256348,0.16766437888145447,-0.6124656796455383,1.248415470123291,1.1951579,-0.12736541,3
1.0733965635299685,2.2467803955078125,1.6669334173202517,0.616463840007782,0.12675454,-1.3952162,3
-0.1661498248577118,4.347733974456787,1.777043700218201,-0.050847869366407394,2.8582385,-1.779756,3
-0.7723875045776367,6.036571025848389,1.2285702228546145,-0.14682933688163755,-0.5849035,0.99112886,3
-1.459911584854126,7.601167678833008,0.08180436491966248,0.3600643277168274,-0.9779953,0.6835581999999999,3
-1.5305037498474119,6.442412376403809,0.1895340234041214,0.34706807136535645,1.1658363,-0.59956425,3
-1.1836099624633791,5.2263503074646,0.2298832535743713,0.1820784956216812,3.3402112,0.2510656,3
-1.0619422197341921,6.58203649520874,-0.10180682688951492,0.3748166263103485,0.62125,4.2449026,3
-2.0672202110290527,8.633666038513184,-0.7300822138786316,0.7525588870048523,-3.068376,2.8499918,3
-3.571169376373291,10.444499969482422,-1.8173874616622925,1.4203659296035769,-4.5469756,0.9300423,3
-3.938178062438965,11.699694633483887,-3.038957118988037,2.302016019821167,-0.44409904,-0.31826079999999995,3
-3.750690460205078,13.05956745147705,-1.7691669464111328,2.9028899669647217,1.4978416,-0.6444628000000001,3
-2.944090843200684,14.130008697509766,1.0117119550704956,2.6574718952178955,-1.3881912,0.68508536,3
-1.3548436164855957,13.762853622436525,1.6518678665161133,2.164841890335083,0.27855456,1.7785342,3
-0.06478836387395859,12.06134796142578,1.089175581932068,1.706296682357788,0.15057829,2.055867,3
-0.04908958822488785,10.344700813293457,0.8103577494621277,1.3292955160140991,-1.3234396000000002,1.6734653999999998,3
-1.2277358770370483,8.973149299621582,0.7048698663711548,1.1153955459594729,-0.21563543,1.0201449,3
-2.7591445446014404,7.5077619552612305,1.1987967491149902,0.8917574882507324,1.3246613,-0.46120325,3
-3.534245252609253,5.845599174499513,2.0038189888000493,0.4305497109889984,-0.036957346,-1.1319333,3
-3.0101506710052486,4.609568595886231,1.973876714706421,-0.05443887785077095,-1.131017,-0.8918633,3
-2.213442802429199,4.0047054290771475,1.6531305313110352,-0.3757648766040802,-1.6444492,-0.7648033000000001,3
-1.805353164672852,4.302076816558838,1.443690061569214,-0.7434481978416443,-1.9343048,-0.30573806,3
-2.228374481201172,5.952417850494385,2.0471670627593994,-1.3353372812271118,0.073303826,-1.2788464,3
-3.421358823776245,8.258598327636719,1.3384346961975098,-1.7580984830856323,0.33994650000000004,-2.6450465,3
-2.909539699554444,10.324166297912598,-0.40195754170417786,-2.1471166610717773,2.504853,-2.2883012000000003,3
-1.0233477354049685,11.901118278503418,-0.42389917373657227,-2.4549245834350586,1.8942931,-3.5482108999999995,3
0.9748830795288086,13.336071968078613,-0.014062208123505116,-2.859727144241333,2.7269025,-1.720502,3
1.4093283414840698,14.37545394897461,0.4374852180480957,-2.9059817790985107,2.0094411,0.3036,3
-0.4556344151496887,13.935575485229492,0.8570534586906433,-2.627061128616333,1.0079277,-1.4156802,3
-3.3284282684326167,13.505725860595705,2.1535091400146484,-2.1897268295288086,-0.5726861999999999,-1.74738,3
-4.77767276763916,12.998851776123047,2.9479389190673833,-1.6568585634231567,-2.378404,-0.8717046999999999,3
-4.3156652450561515,11.350020408630373,2.556208848953247,-1.1229153871536257,-4.368297599999999,-0.032986723,3
-2.7531907558441158,8.883445739746094,1.2979122400283811,-0.7056863307952881,-3.440393,0.65179324,3
-1.1345572471618652,6.111943244934082,0.10940401256084442,-0.2528107464313507,-1.3041973,1.1108584,3
0.36329832673072815,3.6071283817291264,-0.968397855758667,0.28227293491363525,0.9737192,1.4807373,3
1.4814550876617432,2.0067460536956787,-1.6146587133407593,0.7547673583030701,2.6340508,1.8182404,3
1.870872974395752,1.3616976737976074,-1.685284972190857,1.0657925605773926,2.8334985,1.5293012,3
1.6944997310638428,1.2788164615631104,-1.0986125469207764,1.2156784534454346,1.0173961,0.16310102,3
1.270030498504639,1.634308695793152,0.36106812953948975,0.9616755843162536,-0.36041048,-0.7021896,3
0.7691256403923035,2.805873155593872,1.3498519659042358,0.3539446294307709,1.887879,-1.6746869999999998,3
1.1577386856079102,4.896538257598877,1.8746429681777956,0.0906735584139824,0.7892378999999999,-0.7724390999999999,3
0.3471634089946747,7.409377098083496,0.5727500319480896,0.3029491603374481,0.8530733,1.0403035,3
-0.7267385125160217,8.183058738708496,0.08796989917755127,0.13268998265266418,2.368019,0.8145888000000001,3
-1.4186116456985474,6.565098762512207,-0.03880491852760315,-0.07301151007413864,3.2708778,1.0629056,3
-1.7259399890899658,5.967379570007324,-0.5753878355026245,0.03228641673922539,0.84696466,2.792265,3
-1.9345694780349727,6.849658012390138,-1.295506238937378,0.5660444498062134,-1.8057177,2.443461,3
-2.72795033454895,8.703445434570312,-1.996580481529236,1.1495120525360107,-4.198477,1.8286251,3
-3.3970723152160645,10.435481071472168,-3.3261234760284424,1.990760445594788,0.20525073,0.33383787,3
-3.645050048828125,11.98691177368164,-2.8366603851318364,2.755171775817871,0.8680395000000001,-0.084910266,3
-3.2691516876220703,13.24367618560791,-0.11132149398326874,2.763551950454712,-1.5726726,0.36102137,3
-1.6323133707046509,13.302885055541992,0.4194028377532959,2.3652472496032715,0.26878070000000004,1.5577063999999998,3
-0.3237549066543579,12.274930000305176,0.2579229474067688,1.9165369272232056,0.6792821,2.2910502,3
-0.3661960959434509,10.7234468460083,0.6046589016914368,1.5280805826187134,-1.1429288,1.9566014,3
-1.269437551498413,9.258578300476074,0.6962369680404663,1.2855510711669922,-0.70921457,1.2403619,3
-2.947405815124512,7.502915382385254,0.8641839027404785,1.0146276950836182,0.8918633,-0.12492194,3
-4.03425931930542,5.6892356872558585,1.4433523416519165,0.6401209235191345,0.21777347,-1.3017538999999998,3
-3.906461954116821,4.212504863739014,1.8569279909133911,0.21350443363189694,-1.0955868,-1.1673635,3
-3.125859260559082,3.4519293308258057,1.752879023551941,-0.15087325870990753,-1.8402315,-0.96974856,3
-2.646111011505127,3.4877655506134038,1.4974570274353027,-0.5739226937294006,-2.8576276000000003,-0.61300325,3
-3.62986421585083,5.53718376159668,2.0342648029327397,-1.1894726753234863,-0.89949906,-1.2986995,3
-4.402913570404053,8.031068801879883,0.40666037797927856,-1.6273849010467532,0.7620544,-2.6132815,3
-2.834641695022583,10.05090045928955,-1.1933138370513916,-1.981711745262146,2.656042,-2.329229,3
-0.3308165967464447,11.678156852722168,-0.7036688327789307,-2.276467800140381,0.35369098,-2.9290988,3
1.9546047449111936,13.161057472229006,-0.314306914806366,-2.6711745262146,1.8729129,-1.0564915,3
2.5256590843200684,14.053617477416992,0.3204548954963684,-2.905959129333496,2.3060162,0.31795537,3
0.23084673285484314,13.333908081054688,0.7442156672477722,-2.8637268543243413,1.7397442,-0.05772676700000001,3
-2.8673460483551025,12.568510055541992,1.5275686979293823,-2.46421480178833,0.20799962,-1.4431691,3
-4.595428943634033,12.375839233398438,2.1609337329864498,-1.9198129177093504,-1.9126191000000003,-0.92087936,3
-4.55026912689209,11.363232612609865,1.9213827848434448,-1.4473005533218384,-3.1926873,-0.17379116,3
-2.996598482131958,8.980257987976074,0.9741647839546204,-1.1035654544830322,-3.4892623,0.52595496,3
-1.3551918268203735,6.023613929748535,-0.21827995777130127,-0.6702114939689636,-1.6991217,1.0839803,3
-0.01853680051863193,3.2886409759521484,-1.4655627012252808,-0.0673852190375328,1.2498302,1.3329079,3
0.845289409160614,1.3211920261383057,-2.1297540664672847,0.5167449116706848,3.3701437000000007,1.3408492,3
1.0483671426773071,0.4846782386302948,-1.876116156578064,0.9552090167999268,3.7253616,1.0690142,3
0.7415859699249268,0.534989058971405,-0.04373758286237717,1.0319077968597412,0.8378017,-0.09010262,3
-0.4203859269618988,1.9569364786148071,1.7241463661193848,0.4358693957328797,1.1924089,-2.5445592,3
-1.277642846107483,3.817133665084839,1.9136592149734497,0.009680140763521194,1.704925,-2.509129,3
-1.2945770025253296,6.162870407104492,2.040224313735962,0.11045382171869278,-1.6612481,1.3796391,3
-2.1975336074829097,7.684121608734131,1.1744590997695925,0.3059520721435547,-1.5048665,-0.2302962,3
-1.6123769283294678,6.768113613128662,1.078265905380249,0.08637615293264389,0.88086766,-0.031154128,3
-0.7835520505905151,5.407262802124023,0.4043495059013367,0.02311084233224392,3.0723467,2.2941043,3
-0.422198623418808,5.8342061042785645,-0.41337984800338745,0.30097299814224243,-0.23701571,4.361883,3
-1.1029500961303709,7.850375175476074,-1.3788355588912964,0.7314836382865906,-3.5613443999999994,2.627637,3
-2.5495545864105225,9.492265701293944,-2.4150927066802983,1.55007004737854,-3.1722233,1.3524556,3
-3.2981281280517583,10.696187019348145,-2.4052956104278564,2.4957525730133057,0.7128797,0.35124752,3
-3.852185964584351,12.024107933044435,-0.5093976259231567,2.9696617126464844,0.39492437,-0.45142943,3
-2.9772448539733887,13.02632999420166,1.4141148328781128,2.8237087726593018,-1.6291776000000002,0.4700608,3
-1.1641514301300049,12.87824535369873,1.5587421655654907,2.47395133972168,0.4538729,1.8759671,3
0.032155904918909066,11.627652168273926,1.5262370109558103,2.087023973464966,0.07666359,2.2198844,3
-0.21062016487121585,10.08928108215332,1.6773626804351809,1.6531828641891482,-1.3206906,1.7479908,3
-1.2883541584014893,8.766521453857424,1.4408520460128784,1.2852662801742554,-0.42180246,0.8567385000000001,3
-2.5199790000915527,7.3822689056396475,1.4317504167556765,0.956366002559662,1.1023063999999998,-0.34513888,3
-3.180914878845215,5.8721113204956055,1.9613580703735352,0.5408733487129211,0.27366763,-1.0189233,3
-3.037900686264038,4.525453567504883,2.2133629322052,0.09256661683321,-0.50976706,-0.9056077,3
-2.4332349300384517,3.6903667449951167,1.9968279600143437,-0.2272767424583435,-1.2754866000000002,-0.6924158,3
-2.3043601512908936,4.20119047164917,2.0014588832855225,-0.6103190183639526,-2.0665572,-0.41813725,3
-3.05602502822876,6.070864677429199,2.607139110565185,-1.1994973421096802,-0.52503866,-1.2070698,3
-4.0312838554382315,8.364136695861816,1.3929518461227417,-1.5942562818527222,1.3863586,-2.9422324,3
-3.0329415798187256,10.431809425354004,-0.30135902762413025,-1.9521738290786743,1.1976013,-1.7983873,3
-0.9185746312141418,11.972599029541016,0.1065206527709961,-2.33735466003418,0.40561453,-2.9465084,3
0.9317198991775512,13.378785133361815,0.1387242078781128,-2.771840333938598,3.0243938,-1.3759739,3
1.2771388292312622,14.44357967376709,0.380035400390625,-2.915372371673584,2.2583687,0.16401732,3
-0.4274964034557343,14.067608833312988,0.8811481595039368,-2.832542181015014,0.6218608,-0.8222246,3
-3.173602104187012,13.26893711090088,1.8471771478652956,-2.4494194984436035,0.5494733,-2.3790147,3
-4.2396936416625985,13.01749324798584,2.6878817081451416,-1.949532151222229,-2.2602015,-1.3109168,3
-3.475766658782959,11.748618125915527,2.1535351276397705,-1.4329005479812622,-5.0729303,-0.2773328,3
-1.9888155460357664,9.410392761230467,0.7934103608131409,-1.0035642385482788,-4.0252967,0.5332854,3
-0.5380514264106749,6.447254657745361,-0.5770131349563599,-0.5051292777061462,-1.3487904,1.001819,3
0.6504344344139099,3.602660655975342,-1.7498427629470823,0.08555805683135986,2.047315,1.1252137,3
1.4489010572433472,1.545196533203125,-2.352644681930542,0.6578918695449829,3.907094,1.2449434,3
1.6594957113265991,0.6616623401641846,-1.8620920181274412,1.0534545183181765,3.907094,1.0152581,3
1.472280740737915,0.601362407207489,-0.24307836592197415,1.0621379613876345,0.8127562,-0.1600467,3
0.8526334166526794,1.4801793098449707,1.376076340675354,0.5485392212867737,0.7333437,-1.412015,3
0.7487549781799316,3.071763753890991,2.5228888988494877,-0.0019849883392453194,1.1169671,-1.6652186999999998,3
0.758949875831604,5.594213008880615,1.9775817394256592,0.16158631443977356,-0.8194756999999999,0.5925393,3
-0.5582953691482544,6.182321548461914,1.5848121643066406,0.10799533873796464,-0.5910121,0.54092115,3
-0.9474844932556152,4.799788951873778,0.9427060484886168,-0.15756793320178986,3.3008103,1.1505647,3
-1.1692354679107666,4.288212299346924,-0.21854709088802335,-0.0328596867620945,3.0527990000000003,2.9926288,3
-1.417937159538269,5.517496109008789,-1.1435729265213013,0.4389128088951111,-1.3093897,3.649003500000001,3
-2.33337664604187,7.791054725646973,-1.9232816696166992,1.0518808364868164,-4.6734247,2.2153027,3
-3.289229393005371,9.477608680725098,-2.859569311141968,1.925265312194824,-2.4691174,0.6401868000000001,3
-3.422798156738281,10.646380424499512,-2.259974479675293,2.7714972496032715,1.9495764,0.17623462,3
-2.950679063796997,12.210325241088867,0.5932566523551941,2.922940492630005,-0.23487769,0.36713,3
-1.5117905139923096,12.833782196044922,1.5641204118728638,2.6575791835784908,-0.65301496,1.4672983,3
-0.3528710603713989,12.068589210510256,1.6441277265548706,2.305915355682373,0.38881573,2.1768184,3
-0.28037339448928833,10.697178840637207,2.049044370651245,1.8578593730926516,0.03481932,1.7611245,3
-1.0726933479309082,9.49350643157959,2.1273565292358403,1.40626060962677,-0.68416905,1.1383473999999998,3
-2.4062156677246094,8.160173416137695,1.8557822704315183,1.0251367092132568,0.27488935,0.28069258,3
-3.507174015045166,6.4422054290771475,1.9653062820434568,0.6989762187004089,0.49968776,-0.8362745,3
-3.8262212276458736,4.757861614227295,2.3267195224761963,0.30838730931282043,-0.52381694,-1.2647965,3
-3.421452522277832,3.4901840686798096,2.2593817710876465,-0.08684848994016647,-1.457219,-1.0946705,3
-3.1122329235076904,3.4568212032318115,1.9821784496307373,-0.4403362572193146,-3.3515122,-0.83199847,3
-3.8643305301666264,5.332803249359131,2.296832323074341,-1.004287600517273,-1.1817188,-1.1695015,3
-4.877412796020508,7.761199951171875,1.2949410676956177,-1.4175719022750854,-0.9957104,-3.1007519,3
-3.6122345924377437,9.942365646362305,-0.958157241344452,-1.7813910245895386,2.4584272,-2.5127943,3
-0.9304444193840028,11.713397026062012,-0.872841477394104,-2.0495591163635254,0.1001819,-2.7931814,3
1.3954569101333618,13.21520709991455,-0.4155916571617127,-2.564916610717773,2.2605069,-1.4865406,3
2.211008310317993,14.41197109222412,-0.3270100057125092,-2.951435804367065,3.6545014,0.038789943,3
0.7564464807510376,14.285407066345215,-0.40321800112724304,-3.027998208999634,2.6038132000000003,-0.23182335,3
-2.314821481704712,12.717360496520994,0.467228502035141,-2.6806087493896484,0.5821546,-1.8023579,3
-4.3383564949035645,12.322542190551758,1.5107018947601318,-2.204461097717285,-1.5299120000000002,-1.5635096000000002,3
-4.40822696685791,11.93996810913086,1.305456519126892,-1.6851047277450562,-3.1450398,-0.7519751,3
-3.194350481033325,10.518166542053224,0.5663267374038696,-1.3534021377563477,-4.382347,0.38881573,3
-1.5912103652954102,7.777893543243407,-0.6029161214828491,-0.9409064650535583,-2.2174408,0.999681,3
-0.18403565883636475,4.642791748046875,-1.9441126585006716,-0.3356468081474304,0.7095199999999999,1.2348641000000002,3
0.8972076177597046,2.272519111633301,-2.627645254135132,0.2784377634525299,2.4572055,1.3069462,3
1.5649149417877195,0.9602540731430054,-2.5236530303955083,0.7300699949264526,2.92299,1.3545936,3
1.4644498825073242,0.996402144432068,-0.8638687133789062,0.9249317646026612,1.1863003,0.5665775,3
0.6216242909431458,1.9786717891693115,0.9643197059631348,0.5320412516593933,1.3939945,-1.0137309,3
-0.11697357892990112,3.447576999664306,2.19750714302063,-0.07543178647756578,2.0726657,-2.3160956,3
-0.15416279435157776,5.847933769226074,2.9240975379943848,0.053529512137174606,-2.644741,0.66798115,3
-1.2534364461898804,7.316017150878906,1.51877760887146,0.17344525456428528,0.24251351,-0.35185838,3
-1.2942458391189575,6.465803623199463,0.9032816290855408,-0.0904214158654213,1.0283916,-0.087659165,3
-0.9270420670509338,5.079836845397949,-0.0886305645108223,-0.03557240590453148,3.6230419,2.0622811000000003,3
-0.9500365257263184,5.2688307762146,-0.6984714269638062,0.4422089159488678,-0.3830125,4.34203,3
-1.5648177862167358,7.145309448242188,-1.2450648546218872,0.8987170457839966,-3.0527990000000003,2.701857,3
-2.592846632003784,9.061002731323242,-2.0622515678405757,1.6279226541519165,-3.4626896,0.9468411,3
-2.6909868717193604,10.162698745727539,-2.332066297531128,2.440127372741699,0.09285152,0.548557,3
-2.7339401245117188,11.324258804321287,-0.52761310338974,3.0029175281524663,0.8542950999999999,-0.06811147,3
-2.1391491889953613,12.590594291687012,1.7363886833190918,2.8748807907104488,-1.0580186000000005,0.9798279,3
-0.7184633612632751,12.988255500793455,2.367645502090454,2.546609878540039,0.57940567,2.0971005000000003,3
0.10136596858501434,11.868247032165527,2.4445912837982178,2.1361861228942867,0.2275473,2.1566598,3
-0.4273990392684937,10.330288887023926,2.5127992630004883,1.657748460769653,-1.0372492,1.6517797,3
-1.8693323135375977,8.879921913146973,2.0710256099700928,1.2656755447387695,-0.024740042,0.68600166,3
-3.264358758926392,7.335838794708253,1.9252430200576784,0.9160176515579224,0.7174611999999999,-0.74036866,3
-3.7186260223388667,5.708909034729004,2.3345909118652344,0.4914076626300812,-0.37140608,-1.2867876,3
-3.237799882888794,4.50311803817749,2.3243167400360107,0.028979735448956486,-1.0708468,-1.1242975,3
-2.5728585720062256,4.002825736999512,2.0232653617858887,-0.3133762776851654,-1.6902641,-0.89888823,3
-2.52354097366333,4.9447975158691415,2.1249983310699463,-0.7728387117385864,-2.2742512,-0.4175264,3
-3.629060506820679,7.188129425048827,2.269574880599976,-1.3642630577087402,-1.29198,-1.7504343999999998,3
-3.8160440921783447,9.449481964111328,-0.11599136888980865,-1.8035138845443728,3.3102787000000005,-2.6569583,3
-1.974078059196472,11.04323959350586,-0.6306725144386292,-2.050992727279663,0.5540548000000001,-2.4110851,3
0.11479519307613373,12.4617338180542,0.16685369610786438,-2.481673240661621,0.8313876,-2.6975808,3
1.927539825439453,13.78807258605957,0.16730651259422302,-2.8711843490600586,3.7476583,-0.8561276,3
1.9434767961502075,14.500200271606445,0.2456945478916168,-2.962165355682373,2.3692408,0.17165314,3
-0.9050431847572328,12.8610200881958,0.7460578083992004,-2.709644556045532,0.93828905,-1.5497651,3
-3.5927083492279053,12.09932804107666,1.9786413908004759,-2.244800567626953,-0.13072516,-1.6099354,3
-4.4409146308898935,11.665939331054688,2.404405117034912,-1.6568094491958618,-2.5616634,-0.7415904000000001,3
-3.665369987487793,10.322967529296877,1.8133349418640137,-1.1476469039916992,-4.821254,0.055283304000000005,3
-2.1003966331481934,7.656296730041504,0.4353551268577576,-0.7333931922912598,-3.2333097,0.86529064,3
-0.561207115650177,4.619714736938477,-0.9365720748901368,-0.21841976046562195,-0.2284636,1.2886202,3
0.7402445077896118,2.145527601242065,-1.848916292190552,0.3679794669151306,2.1065688,1.5671748,3
1.545964598655701,0.5941410064697266,-2.1617686748504643,0.8442157506942749,3.2782083,1.7214183,3
1.6649518013000488,0.09381283819675446,-1.6587771177291868,1.1517376899719238,2.2901337,1.1395692,3
1.3064032793045044,0.6041706800460815,0.5680681467056274,0.9850435256958008,-1.2947289,-0.070554934,3
0.32674774527549744,2.1551527976989746,2.50337290763855,0.038777444511651986,1.8182404,-2.5696046000000003,3
0.014542331919074059,4.253072261810304,3.52585768699646,-0.3656784296035767,-0.004886922,-2.2061398,3
-0.963577389717102,6.781353950500487,2.1627306938171387,0.1081925854086876,0.67164636,0.4288274,3
-1.510867476463318,6.415506839752197,1.610435128211975,-0.16015298664569855,-1.5054774,-0.4083634,3
-0.8203816413879395,4.46235990524292,0.5381988883018494,-0.4701989591121674,1.8277088,0.14263703,3
-0.2893775403499603,2.664813756942749,-0.8233726620674133,-0.18689417839050293,2.336865,2.2776110000000003,3
-0.4250178337097168,3.2485318183898926,-1.6297008991241455,0.5555742979049683,0.23823744,4.7207665,3
-1.8951122760772705,5.863077640533447,-1.8754663467407229,1.1250371932983398,-5.455026599999999,2.7348437000000003,3
-3.5811426639556885,8.083413124084473,-2.5356638431549072,1.985284924507141,-2.356718,0.12980886,3
-3.3258211612701416,9.50220775604248,-1.372920036315918,2.768317699432373,1.4785993,-0.19303341,3
-2.5807089805603027,11.080154418945312,0.8612453937530518,2.931185483932495,0.055283304000000005,0.4633413,3
-1.4206944704055786,12.11007308959961,2.0122058391571045,2.742970466613769,-0.5720753000000001,1.2748758,3
-0.0314248688519001,11.744571685791016,2.00010347366333,2.3957960605621342,0.5671884,1.9874501,3
0.454336017370224,10.512703895568848,2.0757112503051762,1.9860550165176392,-0.5534439,1.863139,3
-0.22659781575202945,9.250981330871582,1.9545434713363647,1.5614131689071655,-0.8399397,1.3732251,3
-1.5055685043334959,8.024391174316406,1.8209364414215088,1.1748149394989014,0.8356636999999999,0.44043383,3
-2.6270012855529785,6.707343578338622,2.1723849773406982,0.7532329559326172,1.1502593,-0.6872234,3
-3.152857780456543,5.354045867919922,2.584469079971313,0.2775843143463135,-0.12705997,-1.2162327,3
-2.8998310565948486,4.219815254211427,2.353092193603516,-0.1662316620349884,-0.9379836,-0.96791595,3
-2.453794240951538,3.845678567886353,1.9866567850112915,-0.4713443219661713,-2.0274618,-0.70096785,3
-2.7157444953918457,5.018772602081299,2.3353745937347408,-0.9478428363800048,-2.1917843999999995,-0.31978795,3
-4.0107269287109375,7.2119808197021475,2.4767017364501958,-1.4862487316131592,-2.1288655,-2.1584923,3
-4.234844207763672,9.376310348510742,0.821773111820221,-1.9597413539886477,3.8426478,-2.713158,3
-1.9543603658676147,11.008607864379883,1.0932472944259644,-2.139113187789917,0.49327368,-3.1731396000000003,3
0.34332308173179626,12.538970947265625,1.6934880018234253,-2.58465838432312,1.2403619,-2.3735168,3
1.5447092056274414,13.783015251159668,1.50433611869812,-2.8782336711883545,3.1884112,0.03481932,3
0.1187744215130806,13.365891456604006,1.4341338872909546,-2.89540696144104,2.3133466,0.08827003,3
-2.81570053100586,11.753374099731445,1.821505069732666,-2.5560858249664307,0.6450737,-2.0842721,3
-4.799382209777832,11.523473739624025,2.7490558624267583,-2.0641093254089355,-0.7443393,-1.3051136,3
-4.21863317489624,10.730539321899414,2.3767940998077397,-1.4663357734680176,-4.4348817,-0.5225952,3
-2.7242743968963623,8.798816680908203,1.0355230569839478,-1.0587286949157717,-5.1935763,0.35216382,3
-1.1854236125946045,5.930690288543701,-0.5213761329650879,-0.6220673322677612,-2.4394903,1.028697,3
0.22164079546928409,3.07346248626709,-1.8321875333786009,-0.011830255389213562,1.0729848,1.2977833,3
1.390769600868225,0.9165258407592772,-2.537093162536621,0.5684493780136108,3.0091221000000004,1.3964379999999998,3
1.817166090011597,0.09817584604024887,-2.375195980072021,0.9721636176109314,3.474296,1.2388347,3
1.5551767349243164,0.1922825574874878,-0.8545765280723572,1.1614580154418943,1.3839152,0.15577064,3
0.7953562736511229,1.4995908737182615,1.6624650955200195,0.7162284255027771,-0.3036,-1.1636983,3
-0.4082164764404297,3.4080166816711426,2.4300994873046875,-0.025205273181200027,3.6031888,-3.0237830000000003,3
-0.549204409122467,5.484385013580322,3.0932228565216064,-0.0413299985229969,-1.5393803999999998,0.29168814,3
-1.7207854986190796,7.502900123596191,1.6333696842193604,0.28540077805519104,-0.79443026,0.051618114000000014,3
-2.1224501132965092,6.907301425933838,1.0188480615615845,0.025653934106230736,-0.67073005,-0.70432764,3
-1.2844215631484983,5.314728736877441,0.3751852214336395,-0.15143030881881714,3.4330628,0.700357,3
-0.6014394164085388,5.05112361907959,-0.4590694308280945,0.1566474437713623,1.6777414000000002,4.087605,3
-0.7209172248840332,6.75169038772583,-1.0682142972946167,0.6716369390487671,-3.2217033,3.9718459,3
-2.089609146118164,8.974166870117188,-1.7389883995056152,1.293519139289856,-4.2763620000000016,1.570229,3
-3.0305333137512207,10.443408966064453,-2.7849230766296387,2.1171410083770748,0.049480084,0.010079277,3
-3.25021767616272,11.60255527496338,-2.0994501113891597,2.7884092330932617,1.6960673,-0.13041973,3
-3.169889211654663,12.730402946472168,0.4137448370456696,2.790367126464844,-0.86834496,0.48258355,3
-2.021454095840454,12.77687168121338,1.40635085105896,2.4529948234558105,-0.38606682,1.389413,3
-0.7814292311668396,11.741626739501953,1.3026272058486938,2.0663807392120357,0.7632760999999999,1.8903224,3
-0.3077748417854309,10.31427001953125,1.5034394264221191,1.664881467819214,-0.93676186,1.6609426,3
-0.8440902233123779,8.983007431030273,1.322972297668457,1.3103102445602417,-0.7672467,0.9611965,3
-1.9795247316360476,7.605103015899657,1.2795370817184448,1.058961033821106,1.0122037,-0.2660318,3
-2.5463898181915283,6.246908187866211,1.8500062227249143,0.6759058833122253,0.6239988000000001,-0.9932669,3
-2.4361815452575684,5.01748514175415,2.2021560668945312,0.17794953286647794,-0.17837265,-0.8854492,3
-1.939756274223328,4.312248706817627,1.9126981496810915,-0.2121407240629196,-1.0726794,-0.6365215999999999,3
-1.4907567501068115,4.184629440307616,1.50000262260437,-0.5356311202049255,-0.47616947,-0.49877146,3
-1.706002116203308,5.112497806549072,2.182087182998657,-1.110432267189026,-0.9960158,-0.70341134,3
-3.088276624679565,7.279484272003174,2.044763326644897,-1.6579889059066772,0.5723807,-2.6984973,3
-2.5997133255004883,9.551192283630373,1.335949182510376,-2.0264689922332764,2.1560488,-2.5170703,3
-1.1294260025024414,11.477543830871582,1.5499724149703982,-2.370638847351074,0.30634892,-3.1282408,3
0.5709735155105591,13.05495834350586,1.293449640274048,-2.8448028564453125,2.0995438,-2.6917777000000003,3
1.2217592000961304,14.25299835205078,1.0206046104431152,-2.9988725185394287,2.840218,0.0067195175,3
-0.17075319588184354,14.128045082092285,1.1603009700775146,-2.812278509140014,1.6475036,-0.37782016,3
-3.302058696746826,12.75922679901123,2.215041399002075,-2.4225270748138428,-0.42546764,-2.3823745,3
-5.1793646812438965,12.64988899230957,3.277069568634033,-1.8380420207977293,-0.37568212,-1.4672983,3
-4.936783313751222,11.940351486206055,3.241366147994995,-1.1330100297927856,-5.174945,-0.8173377,3
-3.588441610336304,10.320009231567383,1.8488217592239382,-0.6898875236511229,-5.227174,0.33536503,3
-1.716329574584961,7.61504602432251,0.3255290687084198,-0.29410824179649353,-2.4581218,1.0277808000000002,3
0.2789359986782074,4.354355335235597,-0.9714530706405641,0.20055623352527616,0.43890667,1.3521502,3
1.8686742782592771,1.864870309829712,-1.798057198524475,0.7380193471908569,2.9400945,1.7553213,3
2.529071569442749,0.6105624437332153,-1.949453830718994,1.1327991485595703,3.6990945,1.672549,3
2.3150975704193115,0.2361227869987488,-1.3763949871063232,1.3356072902679443,1.675298,0.50335294,3
1.723215937614441,1.0210375785827637,1.040073037147522,0.9562206268310548,-2.9743028,-0.4538729,3
0.3856441676616669,3.1162416934967037,2.7827911376953125,-0.07740806043148041,1.4532484,-2.438574,3
-0.8010748624801636,5.412703037261963,2.4095933437347408,-0.3622448444366455,2.6945267000000004,-1.994475,3
-2.2233166694641118,7.917453289031982,1.1951552629470823,0.08271314203739166,-0.31795537,0.58184916,3
-2.4329216480255127,8.226545333862305,0.9163904786109924,-0.07778546959161757,-1.6215417,-0.68233645,3
-1.1805715560913086,6.309053421020508,0.49004250764846796,-0.2991999685764313,2.1035144,0.18051068,3
-0.1280147284269333,4.436647415161133,0.05399464815855026,-0.17199969291687012,0.86162543,2.5879307000000003,3
0.2598712146282196,4.510144233703613,-0.8571428060531616,0.3164418339729309,0.85154617,5.2042665,3
-0.765863299369812,6.575676441192628,-1.5813108682632446,0.8340625762939453,-4.025601999999999,2.925739,3
-2.3875575065612797,8.538482666015625,-2.5895931720733643,1.6678212881088257,-0.9960158,0.3830125,3
-2.8641133308410645,9.833672523498537,-2.045504093170166,2.4735264778137207,2.2391264,0.102319926,3
-3.395637989044189,11.143695831298828,0.475788801908493,2.78464412689209,-0.3866777,0.0143553335,3
-3.088148593902588,11.986908912658693,2.230771541595459,2.655440092086792,-1.8127426,1.1203268999999998,3
-1.7593375444412231,11.229570388793944,1.85735297203064,2.3868608474731445,0.74097955,1.6759088,3
-0.9356456995010376,9.999574661254883,1.7421880960464478,2.045163631439209,0.19914207,1.9556851,3
-1.0942072868347168,8.726420402526855,1.8540076017379759,1.6487667560577393,-1.4355333,1.6224581,3
-2.104620695114136,7.35864782333374,1.5332391262054443,1.350964069366455,-0.7318166,0.58062744,3
-3.27599573135376,5.949016571044923,1.3905680179595947,1.115237593650818,1.028697,-0.84971356,3
-3.787241220474243,4.669620990753174,1.962490916252136,0.7241116762161255,0.06719518,-1.4318681,3
-3.0327136516571045,3.951534986495972,2.22876238822937,0.2180722802877426,-0.7641924,-1.2501358,3
-2.0738210678100586,3.826138019561768,2.109100103378296,-0.19772522151470184,-1.0360274,-0.91446525,3
-1.7882003784179688,4.699339389801025,2.2136712074279785,-0.6488010287284851,-2.4966063,-0.4456262,3
-2.6340131759643555,6.8016014099121085,2.751046657562256,-1.252286076545715,-1.6914859,-0.8772025,3
-4.1591711044311515,9.064519882202148,1.4911179542541504,-1.8202006816864011,1.505172,-2.641992,3
-3.5484883785247803,10.871665954589844,-0.4405860900878906,-2.163979768753052,2.2091942,-2.5696046000000003,3
-1.7131588459014893,12.28124713897705,0.10937764495611192,-2.5256097316741943,1.0833695,-3.1224377,3
0.13863776624202728,13.645895957946776,0.38765424489974976,-2.948248863220215,3.1987958,-0.8295549999999999,3
-0.031570781022310264,14.251741409301758,0.6604000329971313,-3.0448222160339355,2.1988094,0.3903429,3
-2.43454647064209,13.333035469055176,0.8899058699607849,-2.809429168701172,0.58276546,-1.4899003999999998,3
-4.578929424285889,12.53541374206543,1.9013508558273315,-2.3042888641357417,-0.17195857,-1.5906931,3
-4.7124223709106445,11.51250457763672,2.438085556030273,-1.7068619728088381,-2.1025982000000005,-0.8454375,3
-3.6082842350006095,9.749356269836426,1.7081419229507446,-1.1255245208740234,-4.902499,-0.17256944,3
-2.0236475467681885,6.994606018066406,0.27042686939239496,-0.6509871482849121,-3.3750305,0.5503895999999999,3
-0.4079116582870483,4.044197082519531,-1.0929875373840332,-0.10809283703565598,-0.03726278,1.0372492,3
1.0455253124237058,1.752074956893921,-2.0352063179016118,0.4385815560817719,2.6844473,1.5778649,3
2.0440244674682617,0.3766887187957764,-2.4643633365631104,0.8345855474472046,3.7216966,1.7376062,3
2.326968193054199,-0.09978798031806946,-2.3144102096557617,1.0942161083221436,3.2586606,1.0332786,3
1.860167384147644,0.4223712980747223,-0.3809780776500702,1.177565097808838,-0.26175576,-0.16371189,3
0.7567396759986877,2.30851149559021,1.731697916984558,0.5490427613258362,0.17837265,-1.5311338,3
-0.12077713757753372,4.151042938232422,2.2956297397613525,-0.1324927806854248,2.536618,-2.137723,3
-0.5859765410423279,6.434140682220459,2.3964829444885254,-0.02416118234395981,-1.3277156,1.389413,3
-1.8988505601882932,7.4562721252441415,1.3459415435791016,0.11871220171451567,-1.486846,-0.9080511999999998,3
-1.9336928129196167,6.161026477813722,0.4139900207519531,-0.15474115312099454,1.2852604,-1.072374,3
-1.0417701005935671,4.647231101989746,-0.6219548583030701,0.00529188709333539,4.4214425,1.6988163,3
-0.7031394243240356,5.976426124572754,-0.9785184860229492,0.6209934949874878,1.7421877,4.774523,3
-1.5766808986663818,8.253657341003418,-0.9742900729179382,0.8768000602722168,-4.013079,3.2452216,3
-2.9056313037872314,10.083858489990234,-1.793726682662964,1.469757318496704,-3.277292,1.2797627,3
-3.7108881473541264,11.26972484588623,-2.3061304092407227,2.204437017440796,1.8704693,0.59742624,3
-4.702526569366455,12.175763130187988,-0.5037158727645874,2.5975182056427,1.0638218000000002,-0.21838433,3
-4.500364780426025,12.907381057739258,1.723772048950195,2.5163369178771973,-1.0027353,0.37598756,3
-2.899592638015747,12.709291458129885,2.292531490325928,2.270665407180786,0.1554652,1.3613132,3
-1.4534837007522583,11.629732131958008,2.231399774551392,1.936048150062561,0.53023106,1.8500054,3
-0.9558344483375548,10.273625373840332,2.215158700942993,1.5735968351364136,-0.7122689,1.5891659,3
-1.6510920524597168,8.850823402404785,2.016529321670532,1.2726402282714844,-0.8961393,0.94225967,3
-2.825380563735962,7.273159503936768,1.8504242897033687,1.0646290779113772,0.6762278,-0.21777347,3
-3.392091989517212,5.7704267501831055,2.20801854133606,0.7820857763290405,0.50488013,-1.0589349,3
-2.94874119758606,4.606856822967528,2.604296922683716,0.34226131439208984,-0.7556403,-0.9407325,3
-2.0054287910461426,3.950543403625488,2.569543838500977,-0.06100845709443092,-1.0900891,-0.64812803,3
-1.5205339193344116,4.372542858123778,2.4994027614593506,-0.4752822816371918,-2.6844473,-0.15668693,3
-2.2534496784210205,6.398273944854736,2.700677394866944,-1.1066278219223022,-0.21380283,-0.5714644,3
-4.000744342803955,8.72663402557373,1.4442405700683594,-1.5753849744796753,-0.79504114,-2.2592852000000003,3
-3.641175985336304,10.33767795562744,-0.5785540342330933,-2.0308353900909424,3.7607918,-2.3930645,3
-1.466710329055786,11.721208572387695,-0.26134148240089417,-2.2957193851470947,1.3035865,-3.4257324,3
0.77349853515625,13.175705909729006,-0.0486043319106102,-2.7763490676879883,2.8212812,-0.96761054,3
1.1945089101791382,14.158716201782227,0.2065968811511993,-2.9908969402313232,2.9281826,0.7281514,3
-0.68308025598526,13.655756950378418,0.6686429381370544,-2.8805370330810547,0.63163465,-0.16279559,3
-3.5843126773834233,12.824758529663086,1.5929088592529297,-2.432290315628052,0.6068946,-1.7989981,3
-4.6488380432128915,12.392332077026367,2.258723735809326,-1.9546769857406616,-0.88514376,-1.2232577,3
-3.820989847183228,11.256997108459473,1.9808487892150881,-1.401429533958435,-4.3246207000000005,-0.41050145,3
-2.153871774673462,9.21579360961914,0.7695326209068298,-0.9684142470359802,-4.180151,0.267559,3
-0.36333897709846497,6.0829691886901855,-0.7507756352424622,-0.5077152848243713,-1.4046847,0.97097033,3
1.1573896408081057,3.2412638664245605,-1.949219346046448,0.08806181699037552,2.0231857,1.5766432,3
2.108749389648437,1.1614906787872314,-2.3456284999847408,0.5965498089790344,3.3344080000000003,1.8161024,3
2.3073256015777592,0.13089194893836975,-2.1117691993713383,0.9354908466339112,2.8887818,1.6163495,3
1.7338683605194092,0.3927522003650665,-0.5512171983718872,1.0396866798400881,-0.12492194,0.47586402,3
0.455454170703888,2.049872875213623,1.422760844230652,0.4621712267398834,0.023518313,-1.1539245,3
-0.8001840710639954,3.6330595016479488,1.9911613464355469,-0.2523265779018402,3.087313,-2.914438,3
-1.3618309497833252,5.712208271026611,2.300588130950928,-0.1370704472064972,-1.4810427,0.79290307,3
-2.3989088535308842,7.41109561920166,1.6553868055343628,0.16717007756233215,-1.1203268999999998,-0.18081611,3
-2.2860467433929443,6.5538368225097665,1.050900101661682,-0.25490510463714605,-0.59742624,-0.39400807,3
-1.6072632074356081,4.855837821960449,0.22246164083480835,-0.4867013394832611,1.6612481,0.5458081,3
-1.3728352785110474,4.320053577423097,-0.9114110469818116,-0.04777037724852562,1.5250251,3.4119878,3
-1.9303559064865112,6.058711528778076,-1.7858189344406128,0.6213743090629578,-2.5998425,2.2091942,3
-2.980257272720337,8.299242973327638,-2.735958337783813,1.3507896661758425,-2.7421741,0.5546656,3
-2.7691445350646973,9.735177040100098,-3.374642133712769,2.207174777984619,-0.2452624,0.0571159,3
-2.0940597057342534,11.32756805419922,-2.405966281890869,2.9087941646575928,2.3606887000000003,0.63346726,3
-1.9018800258636477,12.754189491271973,0.409472793340683,2.833118438720703,-0.29229903,0.78801614,3
-1.156014084815979,13.042118072509766,1.6540237665176392,2.4602680206298833,0.43127087,1.4764613000000002,3
-0.27556806802749634,11.800904273986815,1.561474323272705,2.0697059631347656,0.7593055000000001,2.2043072999999995,3
-0.4340451657772064,10.265676498413086,1.6487032175064087,1.6494081020355225,-0.7770206000000001,1.9688187,3
-1.4087951183319092,8.790907859802246,1.6032545566558838,1.2970818281173706,-0.12980886,0.9673051,3
-2.524005651473999,7.1180620193481445,1.8701088428497317,0.9895177483558656,1.2922854,-0.35918877,3
-3.05811071395874,5.653337001800537,2.4312989711761475,0.5827062129974365,0.22785273,-1.112691,3
-2.9484803676605225,4.444288730621338,2.6229350566864014,0.11312788724899292,-0.77579886,-1.0861185,3
-2.355718851089477,3.732168436050415,2.293498992919922,-0.23919695615768435,-0.91232723,-0.79076505,3
-1.929625391960144,3.9445221424102783,2.0057971477508545,-0.5313783288002014,-1.8194622,-0.43585235,3
-2.2150659561157227,5.398187160491943,2.5000178813934326,-1.0418789386749268,-0.45448375,-0.8035932,3
-3.536198377609253,7.703266143798827,1.9614022970199585,-1.468956708908081,-0.57604593,-2.6279423,3
-3.501911401748657,9.865951538085938,0.034364476799964905,-1.9058103561401367,2.4288,-2.0821342,3
-1.8286271095275881,11.586524963378904,-0.09200187772512436,-2.271273136138916,2.0668626,-2.9168816000000004,3
0.23119528591632846,13.101490020751953,0.16115999221801758,-2.67648983001709,2.6716192000000003,-1.5720617,3
0.7373002767562866,13.975661277770994,0.4890873730182648,-2.766853809356689,2.864958,0.4633413,3
-1.1106706857681274,13.263729095458984,1.0445603132247925,-2.6501750946044917,-0.40225476,-0.11575896,3
-4.098446846008302,12.215374946594238,1.6726146936416626,-2.2729380130767822,0.08307768,-1.6490307,3
-5.8106021881103525,12.071060180664062,2.7037487030029297,-1.8736004829406736,-0.58551437,-1.0021244,3
-5.56516170501709,11.272601127624512,3.018174886703491,-1.3999637365341189,-4.2510114,-0.28069258,3
-3.9198725223541264,9.373538970947266,1.8000364303588867,-0.973848521709442,-4.718323000000002,0.3753767,3
-2.1584093570709233,6.807566642761231,0.3275325298309326,-0.5511521697044373,-2.2901337,0.9663888,3
-0.5529221296310425,4.0015602111816415,-1.0989155769348145,-0.003736387705430389,0.7696901999999999,1.2452488000000002,3
0.7150201201438904,1.7956953048706057,-2.0911567211151123,0.5495507121086121,3.1764994,1.3964379999999998,3
1.0959783792495728,0.8789740800857544,-2.1044204235076904,0.9540324211120604,3.780034,1.2840388,3
0.7457846999168396,1.0435664653778076,-0.7318701744079591,1.1369504928588867,1.3884968,0.26572640000000003,3
0.005154662299901247,2.083914279937744,1.4192441701889038,0.7192025184631348,0.1863139,-1.2760975,3
-0.9061499834060668,3.7144079208374015,2.184659719467163,0.07351133227348328,3.0182853,-2.5928175,3
-0.6028105020523071,5.79424524307251,3.036818504333496,-0.15478108823299408,-2.0690005,-0.04520403,3
-1.5571548938751218,8.086405754089355,1.775714635848999,0.04010799899697304,-2.0967948,0.052839845,3
-2.503107786178589,7.621570110321045,0.8431569337844849,-0.4038005173206329,-0.6560693,-0.42577308,3
-1.7878843545913696,5.430327415466309,-0.4932741224765778,-0.4617770612239838,3.8789942,1.3594806000000002,3
-1.2245928049087524,5.1124539375305185,-1.393058180809021,0.16765910387039185,3.2091806,4.6062293,3
-2.455071449279785,7.298934459686278,-1.1070499420166016,0.6611751914024353,-3.8499782,3.1108313,3
-3.9076218605041504,9.303461074829102,-1.5547269582748413,1.3272088766098022,-4.020715,0.7425067,3
-4.275012969970703,10.209863662719727,-1.7802455425262451,2.100819826126098,0.68661255,0.5009095,3
-4.7430076599121085,10.94559383392334,-0.8851307034492493,2.5360219478607178,1.6823229,-0.4111123,3
-4.474621772766113,12.03466796875,0.9197788238525392,2.572788953781128,-0.11881329,-0.009162978,3
-2.7555594444274902,12.463677406311035,1.6549988985061646,2.433774709701538,-1.1242975,0.9978484,3
-1.2620632648468018,11.49703598022461,1.7464878559112549,2.1224465370178223,0.12736541,1.7892243000000003,3
-0.7840698361396791,9.992716789245604,2.029181241989136,1.7455339431762695,-0.25045475,1.5754215,3
-1.165250301361084,8.562900543212889,2.2402477264404297,1.3692994117736816,-1.1111639,1.2244794,3
-2.140501976013184,7.209042549133301,1.9910376071929927,1.0392452478408811,-0.24251351,0.5739079,3
-3.166855812072754,5.783900737762451,1.842255711555481,0.7501031756401062,0.5864305999999999,-0.6007859999999999,3
-3.4320693016052246,4.514378547668457,2.1730334758758545,0.4178374707698822,-0.48197266,-1.0021244,3
-2.9436473846435547,3.6665630340576167,2.3590850830078125,0.02871535159647465,-1.210735,-0.84665924,3
-2.2104029655456543,3.4753839969635014,2.3020703792572017,-0.33724573254585266,-1.7003433999999995,-0.39400807,3
-2.15644645690918,4.324907302856444,2.3857338428497314,-0.8731897473335266,-2.3835962000000004,-0.069027774,3
-3.5063369274139404,6.678969860076903,1.9576815366744995,-1.3915137052536009,-1.8374827,-1.9089539,3
-3.6280851364135738,9.048200607299805,-0.3254670798778534,-1.8691058158874512,3.769344,-2.542421,3
-1.6098114252090454,10.84212875366211,-0.18618953227996826,-2.1749343872070312,1.2260065,-3.0805933,3
0.7319968938827515,12.471590042114258,0.3966760337352753,-2.6736440658569336,1.2867876,-2.5512786,3
2.219977855682373,13.838682174682615,0.4686853289604187,-2.941569566726685,2.8307495,0.24404067,3
1.3129040002822876,14.150117874145508,0.8060227632522583,-2.9671199321746826,0.8436049000000001,0.7480045,3
-2.020728588104248,12.462065696716307,1.267719864845276,-2.720266342163086,0.47158796,-1.1139128,3
-4.4010114669799805,11.819029808044435,2.0786409378051762,-2.2276668548583984,1.185384,-1.3545936,3
-4.956500053405762,11.34848690032959,2.7585132122039795,-1.648499846458435,-2.0323486,-0.93615097,3
-3.992140054702759,10.18223476409912,2.289556741714477,-1.1396926641464231,-4.653877,-0.08857546,3
-2.211094379425049,7.6430416107177725,0.777892529964447,-0.7203105092048645,-3.4406984,0.7648033000000001,3
-0.6418275237083435,4.865077018737793,-0.5600481033325195,-0.1830296516418457,-0.6780604,1.2519683,3
0.5834393501281738,2.498724937438965,-1.4072345495224,0.3808815777301788,1.7537941000000004,1.493871,3
1.1167649030685425,0.8764691352844238,-1.7073184251785278,0.8071073293685913,2.5891523,1.2235631,3
0.9615951180458068,0.4099070727825165,-1.1806941032409668,1.0920876264572144,1.8234328,0.6872234,3
0.2921269237995148,1.2709490060806274,1.3470139503479004,0.7039124369621277,0.32284227,-1.3720033,3
-0.7833701968193054,3.114644289016724,2.826317310333252,-0.12552393972873688,2.9999592,-3.1328225,3
-0.8717831373214722,5.583827018737793,3.174360513687134,-0.08643659204244614,-2.694832,0.045814894,3
-2.0382521152496342,7.71905517578125,1.9205965995788572,0.09739455580711363,-1.1301007,-0.054367006,3
-2.537659883499145,7.4480652809143075,1.2488745450973509,-0.3281672894954681,-1.2843441999999998,-0.3304781,3
-2.038574457168579,5.816175937652588,0.22526349127292636,-0.5251648426055908,2.1875083,0.8536841999999999,3
-1.6183725595474243,4.610574722290039,-0.7346078753471375,-0.201361283659935,1.1633928999999998,3.1969633,3
-2.1121151447296143,6.233509063720702,-1.5672445297241209,0.33924323320388794,-2.0631974,3.2656856,3
-3.4670543670654297,8.504106521606445,-2.261756420135498,1.17779541015625,-3.4092388,1.1215485,3
-3.893460512161255,10.099618911743164,-2.325522422790528,2.232494831085205,-0.1432479,0.6423248,3
-4.053901672363281,11.282737731933596,-0.686252772808075,2.836906909942627,0.6398814,0.47311515,3
-3.9891517162323,12.39280891418457,1.2434110641479492,2.775768756866455,-0.86254174,0.5027421,3
-2.8497376441955566,12.784534454345705,1.7416796684265137,2.591341972351074,-1.4935656000000002,0.9663888,3
-1.242491602897644,11.7850923538208,1.4987502098083496,2.3144869804382324,0.21074851,1.6539177,3
-0.3813794553279877,10.268808364868164,1.8662126064300537,1.908435344696045,-1.1921035,1.9126191000000003,3
-0.5392618775367737,8.797113418579102,2.204070806503296,1.442044377326965,-1.8414533,1.5305228000000002,3
-1.4894381761550903,7.402002811431885,2.1982107162475586,1.052615761756897,0.30695978,0.5213734999999999,3
-2.4038455486297607,6.07330846786499,2.4160759449005127,0.5861978530883789,0.56291234,-0.5626069,3
-2.6808130741119385,4.750747680664063,2.466343402862549,0.08596029877662659,-0.52656585,-0.9083565999999998,3
