acc_x,acc_y,acc_z,gyro_x,gyro_y,gyro_z,label
0.0,0.0,0.0,0.0,0.24037547,0.13652839,1
0.03150220587849617,0.2780009210109711,0.045969903469085686,-0.0023277774453163147,0.004581489,0.15454891,1
0.10531299561262132,0.9420663714408876,0.16225603222846985,-0.014675872400403025,-0.45570546,0.040927973,1
0.2053622156381607,1.8629627227783203,0.3339059054851532,-0.029941247776150707,-0.6035349,-0.040011674,1
0.314746767282486,2.8966588973999023,0.5397219061851501,-0.044438254088163376,-0.6740898,-0.051618114000000014,1
0.4203909635543823,3.926735401153565,0.7599278092384338,-0.0554899238049984,-0.56107974,-0.07544186,1
0.5144636631011963,4.879648685455322,0.9801006913185121,-0.07472039759159088,-0.68691796,-0.05589417,1
0.5935671925544739,5.720038414001465,1.1916513442993164,-0.09583495557308196,-0.9068295,-0.08216137400000001,1
0.6572610139846802,6.445963382720947,1.313348650932312,-0.10887496918439864,-0.8744536,-0.10140363,1
0.7347453832626343,7.11030387878418,1.392492651939392,-0.10722585767507553,-0.7761043000000001,-0.1020145,1
0.8245155215263367,7.680601596832275,1.5477762222290041,-0.122071735560894,-0.7153232,-0.084910266,1
0.9101941585540771,8.11455249786377,1.6134600639343262,-0.14327296614646912,-0.52564955,-0.064751714,1
0.9131630659103394,8.426935195922853,1.6334221363067627,-0.16268807649612427,-0.5888741,-0.13897185,1
0.8135229349136353,8.75321102142334,1.6223173141479492,-0.18821680545806885,-0.77091193,-0.28252518,1
0.7353435158729553,9.02164077758789,1.5053430795669556,-0.21093623340129847,-0.9621128,-0.3753767,1
0.7051341533660889,9.155596733093262,1.3258520364761353,-0.2076312154531479,-0.9459248,-0.39767328,1
0.7395851612091064,9.22866439819336,1.155322790145874,-0.18366658687591556,-0.6722571999999999,-0.34941490000000003,1
0.8288387060165405,9.292340278625488,1.0703643560409546,-0.1728067547082901,-0.45723262,-0.26419923,1
0.9361727237701416,9.346424102783203,1.0464100837707522,-0.18898746371269226,-0.49021935,-0.16371189,1
1.0403636693954468,9.40836238861084,1.0191539525985718,-0.21058019995689392,-0.66248333,-0.09621128,1
1.1134459972381592,9.44892120361328,0.9368850588798524,-0.22052346169948575,-0.8249735,-0.024129177,1
1.0871727466583252,9.439346313476562,0.8079084753990173,-0.21198418736457825,-0.743423,0.014049901000000002,3
0.91161847114563,9.433714866638184,0.7101168036460876,-0.18991826474666595,-0.73945236,-0.028099801,3
0.6564740538597107,9.50407886505127,0.6152511835098267,-0.152372807264328,-0.81000733,-0.12889257,3
0.3701184391975403,9.619155883789062,0.4765329658985138,-0.12344800680875777,-1.063211,-0.2443461,3
0.11505839228630065,9.689823150634766,0.28377604484558105,-0.09535924345254898,-1.074512,-0.24037547,3
-0.10955791175365448,9.70073127746582,0.029240921139717106,-0.06877448409795761,-0.93279123,-0.24404067,3
-0.3202597498893738,9.630977630615234,-0.24143216013908386,-0.04437931627035141,-1.0360274,-0.24312437,3
-0.5127363204956055,9.412697792053224,-0.4985193014144898,-0.004534910898655653,-1.1490375,-0.2501493,3
-0.677230715751648,9.06099796295166,-0.6941826343536377,0.058057788759469986,-1.2351695,-0.28985557,3
-0.8207322955131531,8.63211727142334,-0.893596887588501,0.13155847787857056,-1.4504995,-0.43157628,3
-0.9517216086387634,8.257706642150879,-1.1623733043670654,0.2603761851787567,-1.5897768,-0.56382865,3
-1.0255148410797121,8.04850959777832,-1.5104712247848509,0.4676603376865387,-1.4541647,-0.7675522,3
-0.9629562497138976,8.113132476806639,-1.895553946495056,0.7525039315223694,-1.3698653,-0.883922,3
-0.7298376560211182,8.305759429931639,-2.1642916202545166,1.087701439857483,-1.144456,-1.1261301,3
-0.2746329605579376,8.72441577911377,-2.0392310619354252,1.379526972770691,-0.39584067,-1.0876455,3
0.11024196445941924,9.332857131958008,-1.5840811729431152,1.6227600574493408,0.22876903,-0.960891,3
0.240061029791832,10.14826488494873,-0.9312959909439088,1.7476829290390017,-0.2941316,-0.75228053,3
0.08495185524225235,11.347477912902832,-0.9156464934349059,1.7266145944595337,-0.0125227375,-0.47311515,3
-0.3092996478080749,12.654607772827148,-1.5460883378982544,1.6661748886108398,-0.61850107,-1.7311921,3
-0.8181806802749634,13.556455612182615,-1.827361226081848,1.5961970090866089,-0.5900958000000001,-2.0280726,3
-1.1662492752075195,14.144364356994627,-2.197714567184448,1.4230239391326904,-0.005497787,-2.3478606,3
-1.4013702869415283,14.665376663208008,-2.75817608833313,1.2519630193710327,0.95142263,-2.2522602000000003,3
-1.4040226936340332,14.914000511169435,-3.261620044708252,1.1248160600662231,1.817935,-1.6218473,3
-1.2545759677886963,14.4638671875,-3.4292924404144287,1.0073868036270142,1.8390098,-0.91721416,3
-0.92738676071167,13.330565452575685,-3.207721710205078,0.8549448251724243,1.1866057,-0.301462,3
-0.4786013066768646,11.813514709472654,-2.806396961212158,0.6545840501785278,0.5757405,0.29168814,3
-0.209187775850296,10.266507148742676,-2.522533178329468,0.4434353113174439,0.86590147,0.69058317,3
-0.1339573711156845,8.840944290161133,-2.41727066040039,0.23328076303005216,1.0995574,1.0366384,3
-0.09571509063243866,7.522246360778809,-2.305182218551636,0.02022889442741871,0.66798115,1.393689,3
-0.1106637641787529,6.3827900886535645,-2.1753711700439453,-0.1713550090789795,0.22357668,1.3866642,3
-0.4583207368850708,5.626467227935791,-1.891903519630432,-0.31670695543289185,-0.73273283,0.73761976,3
-0.9102556705474854,5.315465927124023,-1.6339640617370603,-0.4173298180103302,-1.4724906999999998,-0.08124508,3
-1.2096115350723269,5.1542558670043945,-1.4055218696594238,-0.4632224440574646,-1.6588044999999998,-0.6621779000000001,3
-1.2219276428222656,4.731413841247559,-0.9870367646217346,-0.4840639531612396,-2.1664336,-0.70646566,3
-0.6751927137374878,3.869112491607666,-0.4389739632606505,-0.4572441279888153,-1.9083431,-0.34177909999999995,3
0.40708646178245533,2.771911144256592,-0.6852249503135681,-0.5506813526153564,1.2767084,0.0018325958,3
1.5195438861846924,3.0133297443389893,-0.8057705760002136,-0.7422339916229248,0.10445796,1.6581936999999998,3
2.0689070224761963,5.18643856048584,0.3586062490940094,-0.9163642525672911,1.0690142,2.5619688,3
1.49106764793396,7.576891422271728,-0.1762002259492874,-1.0494544506072998,-1.1215485,0.59956425,3
1.5864208936691284,8.15924072265625,-0.4064893424510956,-0.5437225103378296,-0.7806858,0.7333437,3
2.0947127342224117,8.325043678283691,-0.19331036508083346,-0.4253346920013428,1.1786644,1.7171421999999998,3
2.06689715385437,9.24250030517578,0.2342526763677597,-0.5245420932769775,1.8805487,2.1429152,3
1.0715674161911009,10.861937522888184,0.9713918566703796,-0.7178878188133241,0.7519751,0.9114109,3
-0.4908501207828522,12.310115814208984,1.715564250946045,-1.0365238189697266,-1.5076154,0.20219639,3
-1.5053328275680542,13.149085998535154,1.6417313814163208,-1.4422677755355835,-2.1407773,-0.2846632,3
-1.4618123769760132,14.110734939575195,0.5769524574279785,-1.8561428785324097,-1.5115861000000002,0.21594086,3
-0.9437755346298218,14.866495132446287,-1.2919301986694336,-1.9672085046768188,-0.18997909,0.8524625,3
-1.0377327203750608,14.8378267288208,-2.3293898105621342,-1.7153419256210327,-0.8897252,0.93492925,3
-1.7386759519577026,14.061752319335938,-2.789536237716675,-1.4533236026763916,-1.0793989,0.7965683000000001,3
-2.5887575149536133,12.300193786621096,-3.166245698928833,-1.1024376153945925,-1.0757337,0.2049453,3
-3.052010059356689,10.177007675170898,-3.248305559158325,-0.6882163286209106,-0.66553766,-0.049480084,3
-3.2566983699798584,8.457489013671875,-3.4694628715515137,-0.2940962910652161,0.27977628,-0.32925636,3
-3.296451568603516,7.102690696716309,-3.3524358272552486,0.14415955543518064,0.53969944,-0.5885687,3
-3.0771231651306152,5.8919291496276855,-3.029197454452514,0.4964409470558167,0.5534439,-0.89736104,3
-2.6381967067718506,4.979835033416748,-2.7057700157165527,0.7853420376777649,0.55863625,-1.0128145,3
-2.1309647560119633,4.5723652839660645,-2.370382785797119,1.0446946620941162,0.6649268,-1.1346822,3
-1.7266985177993774,4.9293179512023935,-2.01916766166687,1.306666135787964,0.047647487,-1.5519031,3
-1.3696478605270386,6.0982842445373535,-1.6030216217041016,1.5558303594589231,-1.3594806000000002,-1.8353447,3
-0.7245447039604187,7.974064826965332,-1.461658596992493,1.694490909576416,-1.0375546,-2.2736404,3
0.4438875019550324,10.04137897491455,-1.6782371997833252,1.6584070920944214,-0.23060162,-1.6328428,3
0.4560439288616181,11.873650550842285,-2.3873271942138667,1.7221356630325315,1.4749341,-1.0574077,3
-0.9244889616966248,13.375042915344238,-2.585923671722412,1.7264944314956665,-0.7724390999999999,-2.5689938,3
-1.9817206859588623,14.549020767211914,-3.2700114250183105,1.5983269214630127,-0.12339478,-1.7253889,3
-2.6797170639038086,15.088671684265135,-3.946600437164306,1.3650764226913452,0.5494733,-1.3402383,3
-2.954422235488892,14.776629447937012,-4.2615275382995605,1.115417242050171,2.2999077000000003,-0.7855727,3
-2.6015217304229736,13.567139625549315,-3.940097570419312,0.9270389080047609,3.0234776,-0.13194689,3
-1.637814998626709,11.86462688446045,-3.1888012886047363,0.7353722453117371,2.6337454,0.4343252,3
-0.3916605412960053,9.869948387145996,-2.229144811630249,0.4848278164863586,1.4618006,1.0458013000000002,3
0.4971968531608582,7.540467739105225,-1.1952896118164062,0.09525983780622482,-0.91599244,1.6084082,3
0.8238374590873718,5.566089153289795,-0.5458468198776245,-0.2466176897287369,-1.4908166,1.1325442,3
0.6164607405662537,4.412065029144287,-0.3288252353668213,-0.5552095174789429,-1.7950275000000002,0.19761491,3
0.14290514588356018,4.477492809295653,-1.2806390523910522,-0.6312804222106934,-0.7031059000000001,-0.91599244,3
-0.620675802230835,5.175961971282959,-1.9930673837661743,-0.3932271003723145,-3.4040465,-1.4306464,3
-0.3871733844280243,4.395015239715576,-1.1326264142990112,-0.1089777946472168,-3.3560936000000003,-1.2727377,3
0.8201702237129211,2.5984251499176025,-1.4296696186065674,-0.07103993743658066,2.4239132000000003,-1.9007072,3
2.2283823490142822,3.0165486335754395,-0.1069486439228058,-0.34471097588539124,-3.3573153,1.1081096,3
2.8252010345458984,5.483123302459717,1.2816122770309448,-0.5656551122665405,3.535688,3.0332513,3
2.041086912155152,7.940361976623535,1.2017744779586792,-1.3600047826766968,-1.1181888999999998,1.5351044,3
1.292430758476257,9.314437866210938,0.2977954149246216,-0.9836062788963318,0.06963864,1.4306464,3
1.6822603940963743,10.10703182220459,0.04958198592066765,-0.5321658253669739,1.1664472,2.1126773,3
2.0428802967071533,11.444701194763185,0.541864275932312,-0.3989541232585907,3.0549371,1.808772,3
1.279444932937622,12.897881507873535,1.712348461151123,-0.9207948446273804,0.47647488,0.6637050999999999,3
0.1253209412097931,14.014673233032227,2.147225379943848,-1.6634652614593506,-2.5103507,0.49968776,3
-0.3805203139781952,14.781585693359375,0.2809602916240692,-2.18491530418396,-2.2956316,0.3921755,3
-0.4699320197105408,14.973981857299805,-1.6844820976257324,-2.078937530517578,-0.4700608,0.8365799999999999,3
-0.9047320485115052,14.431544303894045,-2.294778347015381,-1.882681369781494,-1.0204504,1.260215,3
-1.8065453767776491,13.109890937805176,-2.7913923263549805,-1.6066749095916748,-0.89552844,0.84421575,3
-2.702136993408203,11.025527954101562,-3.2173304557800293,-1.2667725086212158,-1.1383473999999998,0.32375857,3
-3.2759850025177,8.944619178771973,-3.6757886409759517,-0.9110108613967896,-1.5943583,-0.070554934,3
-3.5650787353515625,7.374878406524657,-3.9910638332366943,-0.44999733567237854,0.17165314,-0.5476406999999999,3
-3.670942068099976,6.11160945892334,-3.7864694595336914,-0.024283986538648602,0.9932669,-0.7877107,3
-3.5633084774017334,5.042909622192383,-3.403482675552368,0.3642356991767883,0.49235737,-0.95478237,3
-3.0974528789520264,4.4343905448913565,-3.2819786071777344,0.734767496585846,0.64904433,-1.1502593,3
-2.25265908241272,4.546223163604736,-3.169234037399292,1.1043022871017456,1.1753048,-1.2568552,3
-1.4051105976104736,5.487705707550049,-2.764579057693481,1.4647834300994873,0.5861251999999999,-1.4691309,3
-0.66663658618927,7.271885871887207,-2.21527099609375,1.7890775203704834,-0.9611965,-1.6865988999999997,3
0.3309212625026703,9.416000366210938,-1.3206218481063845,1.977736234664917,-2.2055290000000003,-1.2797627,3
0.9703004360198976,11.33957576751709,-1.9149104356765747,1.8819619417190552,0.926988,-1.1154399,3
0.9426497220993042,12.936047554016113,-2.27616286277771,1.936917781829834,0.025961773,-1.1960741,3
0.2419257760047913,14.110273361206055,-2.0444552898406982,1.849575757980347,-1.1032226,-1.8017471,3
-0.6819629073143005,14.948837280273438,-2.4644992351531982,1.5952903032302856,-0.17715092,-1.4046847,3
-1.2588622570037842,14.975171089172365,-3.0188803672790527,1.2536998987197876,0.977079,-1.063211,3
-1.3271369934082031,14.134913444519045,-3.3809292316436768,0.9755204916000366,2.119397,-0.28802297,3
-0.9727158546447754,12.562220573425293,-3.214226484298706,0.7505055069923401,2.4572055,0.5155702999999999,3
-0.34006905555725103,10.677751541137695,-2.519585132598877,0.5402243137359619,1.8790215,1.2241739,3
0.40503552556037903,8.711906433105469,-1.5536640882492063,0.31556960940361023,0.5552765000000001,1.6978999,3
0.9299270510673524,6.728584289550781,-0.7143826484680176,0.08568570017814636,-0.464563,1.7776178,3
1.0463080406188965,4.917014598846436,-0.5320059657096863,-0.1638585776090622,-0.86437434,1.138042,3
0.7384191751480103,3.875659942626953,-1.251030683517456,-0.4344761371612549,-0.33750305,-0.023518313,3
-0.048726741224527366,4.107007026672363,-2.2569875717163086,-0.4695149064064026,-0.2660318,-0.9462303,3
-0.9783166646957396,4.621438026428223,-2.284794807434082,-0.2827537953853607,-2.9581148999999995,-1.4248432,3
-1.2744916677474976,4.534419536590576,-1.8420870304107664,0.014983149245381357,-3.3426547,-1.8188512,3
-0.3748353719711304,4.3009557723999015,-1.4532425403594968,0.15551763772964478,-0.53023106,-1.5384641,3
1.1884162425994873,5.555294990539551,-0.354893296957016,0.10348401963710784,-0.21899518,0.93676186,3
1.9931144714355469,8.010234832763674,0.34043970704078674,-0.2842400074005127,3.957185,2.4972172,3
2.1773900985717773,10.01333713531494,1.1089189052581787,-0.6288027763366699,2.5179865,3.3692272000000005,3
1.8399425745010376,11.355972290039062,1.079041838645935,-0.7449890971183777,0.77366084,2.7501154,3
1.3141355514526367,12.650897026062012,0.783325731754303,-0.6934165954589844,1.7168368000000005,1.6853772,3
0.2986224591732025,13.666529655456545,1.6597958803176882,-0.7324613332748413,0.35185838,0.7538077,3
-0.8600177168846129,14.657777786254885,2.5080528259277344,-1.2584285736083984,-2.196977,-0.5180137,3
-1.177146315574646,15.574447631835938,1.5262776613235474,-2.0037684440612797,-1.915368,0.076358154,3
-0.7995735406875609,16.09779930114746,-0.5095349550247192,-2.4416098594665527,-1.3213016000000002,0.7128797,3
-0.4538401961326599,15.78021240234375,-2.38664984703064,-2.297955274581909,0.50488013,1.3353515,3
-0.8640943765640259,14.720376014709473,-3.0527269840240483,-1.922962307929993,0.17318029999999998,1.1633928999999998,3
-1.7840431928634644,13.077531814575195,-2.9492342472076416,-1.5833734273910522,-0.893085,0.88025683,3
-2.711984634399414,10.830766677856444,-2.952113628387451,-1.272120714187622,-0.27030787,0.8491027,3
-3.6834948062896733,8.584412574768066,-3.365587949752808,-0.9784992337226868,0.30970868,-0.0021380284,3
-4.155333518981934,6.884024143218994,-3.5070154666900635,-0.6382860541343689,0.8323039000000001,-0.7443393,3
-3.916288137435913,5.67300271987915,-3.1394248008728027,-0.3026127517223358,1.0763446,-0.98563105,3
-3.627823829650879,4.7363057136535645,-2.997854471206665,0.0505639873445034,0.21960606,-1.2186762,3
-3.262465000152588,4.3899502754211435,-3.1724736690521236,0.5515879988670349,1.5354098,-1.6441438000000002,3
-2.6604163646698,4.793402194976807,-2.9106268882751465,1.0308398008346558,1.8872682,-2.0451767,3
-1.8227385282516482,6.38391637802124,-2.4079513549804688,1.3357340097427368,0.45234573,-2.3774874,3
-0.3531504571437836,8.609630584716799,-1.6610662937164309,1.6162400245666504,-2.7916540000000003,-2.8258626,3
1.5257996320724487,10.66976833343506,-1.6755294799804688,1.8232885599136357,-3.3829718,-1.570229,3
2.7144579887390137,12.39238166809082,-2.4114677906036377,1.8227906227111816,1.3426818,-1.0436633,3
2.0437307357788086,13.793782234191895,-2.487342834472656,1.7730307579040527,1.9709567,-1.4953982,3
0.02181638777256012,14.825262069702148,-2.472031593322754,1.760130524635315,-0.9593639000000002,-1.5696182,3
-1.4049078226089478,15.26557159423828,-2.9784188270568848,1.637189865112305,0.453262,-0.9611965,3
-2.2851250171661377,15.148056983947756,-3.3533029556274414,1.4386849403381348,1.8374827,-0.5363397,3
-2.2677171230316158,14.22429084777832,-3.446772813796997,1.259943962097168,2.8530462000000005,0.13011430000000002,3
-1.5171689987182615,12.486075401306152,-2.8983771800994877,1.0820655822753906,2.3530529,0.6737844,3
-0.35757437348365784,10.293008804321287,-1.8079289197921755,0.8421115875244141,0.94959,1.1246029,3
0.6623312830924988,7.775837421417236,-0.3941603600978851,0.4966712594032288,-0.8051204000000001,1.5625933,3
1.098804950714111,5.1957783699035645,0.6862406134605408,0.02447034977376461,-1.5873333,1.4975362,3
1.1101677417755127,3.5602588653564453,0.5827919244766235,-0.4508910477161408,-1.2476922,0.86070913,3
0.8247666358947754,3.3774657249450684,-0.8744686245918274,-0.7096631526947021,-0.031154128,-0.21471913,3
-0.05259229615330696,4.239743232727052,-1.7915177345275881,-0.7031856775283813,-1.2623531,-1.2516629,3
-1.0341024398803709,5.0997185707092285,-1.7248107194900513,-0.4898331165313721,-4.0515637,-1.6966782,3
-1.0762097835540771,5.046091079711914,-0.9586243629455566,-0.1485041379928589,-2.7278187000000003,-1.6481144,3
0.026268713176250458,4.4974446296691895,-0.6990817785263062,-0.16339753568172455,0.6026186,-1.2681563,3
1.5808781385421753,5.868387222290039,-0.11146693676710127,-0.3433085083961487,2.1618521,2.1285598,3
1.8938570022583008,8.209120750427246,0.54739910364151,-0.7044434547424316,4.252233,3.1242702,3
1.4761475324630735,9.606424331665039,0.9454349279403688,-0.9558226466178894,-0.46578476,1.9960022,3
1.2171719074249268,10.485060691833496,0.464731514453888,-0.7138614058494568,0.6783658,2.2363777,3
0.9641984701156616,11.557450294494627,0.7715947031974792,-0.4371180832386017,2.021353,1.8955148,3
0.14292675256729126,12.740262985229492,2.265761613845825,-0.6635167598724365,1.4196508,0.3463606,3
-0.7840941548347473,13.870027542114258,3.5705983638763428,-1.3916751146316528,-2.7974575,-0.046120327,3
-1.0738604068756104,14.92851448059082,2.8512163162231445,-2.269109010696411,-3.7216966,0.1563815,3
-0.5751556754112244,15.731985092163086,-0.17156697809696198,-2.631518840789795,-0.4981606,1.4556919,3
-0.6999890804290771,15.78289031982422,-2.1316883563995357,-2.0679855346679688,0.37904188,1.4501941,3
-1.712950587272644,15.046527862548828,-2.0193374156951904,-1.6643489599227903,-0.79076505,1.1520919,3
-2.759950399398804,13.23110580444336,-2.023833036422729,-1.3995991945266724,-1.4553864,1.0363328,3
-3.7393529415130615,10.489267349243164,-2.5538792610168457,-1.0773682594299316,0.39645153,0.65240407,3
-4.686316967010498,8.056966781616211,-2.7694575786590576,-0.7771392464637756,0.30665436,-0.3979787,3
-5.0702409744262695,6.45603084564209,-2.919755220413208,-0.4875737428665161,0.55863625,-0.9978484,3
-4.823511123657227,5.468444347381592,-3.0339930057525635,-0.1411767601966858,1.0250319,-1.2324207,3
-4.201352119445802,4.8297085762023935,-3.0065505504608154,0.2960851490497589,0.7476991,-1.2705997,3
-3.392982721328736,4.555565357208252,-2.9824843406677246,0.6800922155380249,0.49663344,-1.430341,3
-2.3451616764068604,4.741274356842041,-2.9193329811096187,1.0085808038711548,1.0396926,-1.321607,3
-1.134892225265503,5.55354642868042,-2.839284658432007,1.410879611968994,0.50946164,-1.5653422,3
-0.22424255311489105,7.241123676300049,-2.49041748046875,1.939835906028748,-1.1945469,-1.9645426,3
0.5877772569656372,9.445440292358398,-1.742961287498474,2.354519844055176,-2.4065037,-1.4434745,3
0.8354210257530212,11.393662452697756,-2.160186767578125,2.342068910598755,1.5357152,-1.7846428,3
0.4779808223247528,12.986337661743164,-2.5885705947875977,2.1986651420593257,1.2040153999999998,-2.1132884,3
-0.15266269445419312,14.272822380065918,-2.8184731006622314,2.182271718978882,0.18875736,-1.779756,3
-1.0696591138839722,15.214004516601562,-3.1696619987487797,2.036665678024292,1.1389582,-1.1927143,3
-1.880840301513672,15.481348991394045,-3.3639843463897705,1.810374975204468,1.3051136,-0.929126,3
-2.0706493854522705,14.568042755126953,-3.391190767288208,1.5031545162200928,2.1847596,-0.34177909999999995,3
-1.58980393409729,12.696895599365234,-3.246992588043213,1.158332347869873,2.5357015,0.15913039999999998,3
-0.5544058680534363,10.587689399719238,-2.7222530841827397,0.7881814241409302,2.1896465,0.97524637,3
0.4382442533969879,8.388117790222168,-1.817779541015625,0.3680542409420013,0.66767573,1.5949692,3
1.021844506263733,6.161912441253662,-0.9398590922355652,-0.09393974393606186,-0.61483586,2.1029036,3
1.1659148931503296,4.205742359161377,-0.17389628291130066,-0.5275799632072449,-1.3197743999999998,1.4682146,3
0.9791763424873352,2.9866538047790527,-0.11458398401737213,-0.8974922895431519,-1.2895365,0.57787853,3
0.5457250475883484,3.656200408935547,-1.4253386259078982,-1.020672082901001,-0.4184427,-0.56230146,3
-0.12182988971471785,4.682008743286133,-2.03464937210083,-0.7892031073570251,-1.8216002,-1.1527027,3
-0.556155800819397,4.748485565185547,-1.2852200269699097,-0.4499861299991608,-4.283387,-1.427592,3
-0.09283499419689177,3.920730590820313,-0.07389116287231445,-0.2101940810680389,-2.3808472000000003,-1.5183055,3
0.9754924178123474,3.356934070587158,0.6754114031791687,-0.27587729692459106,-0.77732605,-0.95203346,3
2.1889047622680664,4.483770847320557,1.4889239072799685,-0.4320554435253143,0.10873401,1.5570955,3
3.417520761489868,6.888369560241699,2.22909951210022,-0.7895461320877075,3.2827900000000003,5.499009,3
3.482582092285156,9.178143501281738,2.410959959030152,-1.2682476043701172,2.2091942,3.2763758,3
2.207974910736084,10.481619834899902,0.4945434629917145,-1.3289530277252195,0.3005457,0.9239337,3
1.538950800895691,11.318038940429688,-0.1037217378616333,-0.8897119164466858,0.7501425,1.1988231000000005,3
0.9267893433570862,12.23446559906006,1.0057215690612793,-0.7430230975151062,1.4853188999999998,0.5009095,3
0.14069899916648865,13.45069694519043,2.300745248794556,-1.2743041515350342,0.056505036,0.26206118,3
-0.636885404586792,14.557080268859865,2.59063720703125,-2.092371225357056,-4.055228700000002,-0.016798794,3
-0.902679979801178,15.28303337097168,0.6377376914024353,-2.4292330741882324,-2.0350976000000003,0.77366084,3
-0.9328039288520812,15.233732223510742,-1.4883630275726318,-2.0593926906585693,1.4575243999999998,1.1496483999999998,3
-1.5804848670959473,14.05674934387207,-1.6675124168395996,-1.6830906867980957,-0.88697636,0.9477574,3
-2.1870217323303223,11.8193941116333,-2.166248083114624,-1.3795872926712036,-1.0296134,0.5687156,3
-2.6167845726013184,9.549248695373537,-2.922785758972168,-1.076406478881836,-0.040011674,0.4111123,3
-3.0791683197021484,7.784428596496582,-2.838736295700073,-0.6859853267669678,-0.2910773,0.18234327,3
-3.4650089740753174,6.327426433563232,-2.676687002182007,-0.37745308876037603,0.33200526,-0.3203988,3
-3.754151344299317,5.281936168670653,-2.723563432693481,-0.1168712079524994,1.0146471,-0.8750645,3
-3.865459442138672,4.70798397064209,-3.0042603015899663,0.2020811140537262,0.93767816,-1.4902058,3
-3.525583028793335,4.5439720153808585,-3.4077651500701904,0.6829158067703247,1.8057177,-1.5754215,3
-2.7187416553497314,4.7851080894470215,-2.9437577724456787,1.1624610424041748,0.43188173,-1.65911,3
-1.7864292860031128,5.612009048461914,-2.2074658870697017,1.5146846771240234,-0.6017023,-1.7150042,3
-0.92820942401886,7.337601184844972,-1.7578697204589844,1.849647879600525,-1.7779233,-2.2702806,3
0.4419143795967102,9.543177604675293,-1.6224573850631714,2.0614213943481445,-2.0631974,-1.0965031,3
1.14860737323761,11.47319507598877,-2.2524349689483643,2.0336828231811523,1.711339,-1.0140363,3
0.6407678723335266,13.05121612548828,-2.1721422672271733,1.9790658950805664,0.73761976,-2.4941628,3
0.2749841809272766,14.300573348999025,-2.39855432510376,1.9548757076263428,-0.115453534,-2.2308798,3
-0.30064937472343445,15.10863971710205,-2.7925143241882324,1.7924777269363403,0.42332962,-1.5873333,3
-1.0309655666351318,15.141557693481445,-3.1041488647460938,1.5372370481491089,1.0778716999999998,-1.25319,3
-1.3698453903198242,14.17752742767334,-3.2029056549072266,1.3052496910095217,2.8029552000000004,-0.21991149,3
-0.9556087255477904,12.29049301147461,-2.7712621688842773,1.0765390396118164,2.4578164,0.39064834,3
0.0362040176987648,10.062697410583496,-1.889910101890564,0.7644166350364685,1.3072516,1.1212431,3
0.9938298463821412,7.672848701477051,-0.8248656988143921,0.3673684000968933,-0.21380283,1.8044959,3
1.5206619501113892,5.3841896057128915,0.13141882419586182,-0.041604284197092056,-0.8231409,1.8924606,3
1.5017000436782837,3.635542392730713,0.7170135974884033,-0.4018836915493012,-1.1328496,0.9282097,3
1.127413034439087,3.3099172115325928,-0.2348708361387253,-0.6474989652633667,0.23762658,-0.18600847,3
0.1969371438026428,4.3055830001831055,-1.7667785882949831,-0.5670030117034912,0.3023783,-0.9447031,3
-0.941374659538269,4.844354629516602,-1.994446277618408,-0.2966276109218597,-2.8087585,-1.2675453,3
-1.296863079071045,4.53669548034668,-0.6002157926559448,-0.05351094156503677,-4.506353,-1.7953328999999998,3
-0.18783462047576904,4.023336887359618,0.8713514804840088,-0.03230573609471321,-1.7116444,-1.8319849,3
1.7914992570877075,4.620884895324707,1.4603248834609983,-0.33510738611221313,0.015271631,-0.1563815,3
3.5862700939178467,6.762852668762207,2.0458409786224365,-0.7634897232055664,3.1991012000000003,3.3903022000000003,3
3.829517602920532,9.155662536621094,2.3568494319915767,-1.2766127586364746,2.0320432,4.0372086000000005,3
2.8242475986480717,11.005419731140137,0.4961621761322022,-1.37260639667511,0.559858,2.0971005000000003,3
2.0778701305389404,12.288622856140135,-0.19745664298534396,-0.8412882685661316,1.9449949,1.7137824000000002,3
1.193354249000549,13.072613716125488,0.7869080901145935,-0.626969575881958,2.02624,1.2727377,3
0.17793358862400055,13.670161247253418,2.2322306632995605,-0.8586755394935608,-1.0403035,0.10567969,3
-0.5734874606132507,14.489853858947756,2.5108873844146733,-1.506482720375061,-2.5237896,-0.110872045,3
-0.9380885362625122,15.304624557495115,1.517631769180298,-2.1304140090942383,-3.4052682,0.30848694,3
-1.0202481746673584,15.481602668762207,-0.9203725457191468,-2.293736934661865,-0.9593639000000002,0.88453287,3
-1.2283666133880615,14.91078281402588,-2.6843087673187256,-2.010671854019165,1.2275337,1.1884383,3
-1.883156418800354,13.787103652954102,-2.8465070724487305,-1.7355144023895264,-0.6068946,0.9089675,3
-2.554606914520264,12.060994148254395,-2.8469278812408447,-1.4943419694900513,-1.5103643,0.505491,3
-2.9508156776428223,9.74943733215332,-3.209769487380981,-1.225889801979065,-1.0164797,0.28985557,3
-3.2444183826446533,7.806740760803223,-3.4325990676879883,-0.8525813221931458,-0.21074851,0.019242255,3
-3.542452335357666,6.296841621398926,-3.4961612224578857,-0.5223638415336609,0.40744713,-0.49327368,3
-3.762346029281616,5.292613983154297,-3.6774380207061768,-0.18190433084964752,0.43463063,-1.0922271,3
-3.651246309280396,4.774040699005127,-3.73620343208313,0.3162258267402649,1.010982,-1.4859296999999998,3
-3.2513363361358643,4.896612167358398,-3.3187899589538574,0.8050349950790405,1.1102476,-1.6594155,3
-2.4976911544799805,6.002609729766847,-2.677663803100586,1.1103057861328125,0.00580322,-1.8646661,3
-1.2280408143997192,8.091585159301758,-2.32094669342041,1.4174375534057615,-1.0381655,-2.5054638,3
0.5101777911186218,10.198186874389648,-1.7296103239059448,1.7890361547470093,-3.5396585,-1.9422461,3
2.0559923648834233,11.998586654663086,-1.8359404802322388,1.9576200246810915,-1.8542814,-0.81000733,3
2.8302092552185063,13.452469825744627,-2.351513624191284,2.0097098350524902,1.9596558,-0.8723155999999999,3
2.0471553802490234,14.553704261779785,-2.1808090209960938,1.897917866706848,-0.36254853,-1.3231341,3
0.14216160774230954,15.344014167785645,-2.2396657466888428,1.7252891063690186,-1.2528846000000002,-1.4984524,3
-1.1376426219940186,15.811568260192873,-2.637665271759033,1.538291335105896,0.83016586,-1.0586295,3
-1.7056231498718262,15.399974822998047,-2.9284555912017822,1.4062889814376829,2.4510968,-0.700357,3
-1.4592635631561282,13.972091674804688,-2.846660614013672,1.2918734550476074,3.3475416,0.022296581,3
-0.6641045212745667,11.749568939208984,-2.0694212913513184,1.109062910079956,2.8478537,0.74464476,3
0.2643779814243317,9.195515632629396,-0.9234238266944884,0.8313883543014526,1.3228287,1.4825699,3
0.8945329189300537,6.578534126281737,0.1837614476680756,0.42979896068573,-0.2666427,1.9049833,3
0.9288952350616456,4.3240442276000985,0.8316826224327087,-0.02978226915001869,-0.98899084,1.3891076,3
0.5959327220916748,3.1868135929107666,0.2629459798336029,-0.4893525540828705,-0.86009824,0.28863382,3
0.01503516547381878,3.8228483200073238,-1.5285185575485232,-0.6669153571128845,-0.09987647,-0.69027776,3
-0.7121672034263611,5.065275192260742,-2.5885660648345947,-0.5267711281776428,-1.9734001,-1.1911873,3
-1.2136476039886477,5.4947848320007315,-2.4368066787719727,-0.24768215417861936,-4.922962999999998,-1.7104226000000002,3
-0.618030309677124,4.777317523956299,-1.0194647312164309,-0.034194882959127426,-2.2204952,-2.087632,3
1.135345458984375,4.052943229675293,-0.143595352768898,-0.24323181807994845,-0.61117065,-1.5299120000000002,3
3.3298554420471187,5.352641582489014,0.5570606589317322,-0.5128056406974792,0.68661255,2.7925704,3
4.2883081436157235,7.704172134399414,1.250780701637268,-0.8492388129234314,4.0414844,4.597372,3
3.51289176940918,9.62230110168457,1.5069509744644165,-1.1197394132614136,0.29901853,1.6710218,3
1.9733867645263672,10.393866539001463,0.8134670853614807,-0.9318526983261108,-0.3549127,1.3096951,3
1.2184845209121704,11.14093780517578,0.9495660066604614,-0.5708947777748108,0.39064834,1.3481796,3
0.32871633768081665,12.340127944946287,1.8053513765335083,-0.5264297723770142,2.2116377000000003,0.66706485,3
-0.5231676697731018,13.630430221557615,2.7412734031677246,-1.1790974140167236,-1.5384641,0.089491755,3
-0.946721076965332,14.75895881652832,2.027307748794556,-1.943464279174805,-4.07722,-0.13347405,3
-0.7741308212280273,15.440202713012695,-0.5938266515731812,-2.202530860900879,-1.502423,0.75319684,3
-0.9911282658576964,15.227129936218262,-2.338573932647705,-1.8897618055343628,0.8518515999999999,1.1753048,3
-1.8003063201904297,14.10373306274414,-2.5425567626953125,-1.6358139514923096,-0.28160888,1.2180653,3
-2.6016268730163574,12.31856632232666,-2.6909565925598145,-1.4776313304901123,-0.72051555,0.6762278,3
-3.1039981842041016,10.35982894897461,-3.114161729812622,-1.2836074829101562,-0.07269296,0.13439035,3
-3.4661343097686768,8.554085731506348,-3.1409380435943604,-1.0152978897094729,-0.35308012,0.0009162979,3
-3.90674352645874,6.9552741050720215,-3.030724287033081,-0.7462052702903748,0.10476339,-0.35827246,3
-4.250500679016113,5.638562202453612,-3.16910171508789,-0.5595999956130981,0.26816985,-0.8622363000000001,3
-4.35161828994751,4.829000473022461,-3.617911577224731,-0.2405410259962082,0.24770586,-1.4718798,3
-3.8681426048278813,4.5308570861816415,-4.1284751892089835,0.3157393932342529,0.2779437,-1.5601498,3
-3.001487493515014,4.604325771331787,-4.391639232635498,0.9009065032005309,1.1743883999999998,-1.6731599999999998,3
-1.8871802091598509,5.678166389465332,-3.9477131366729736,1.4287148714065552,1.9767599,-1.7867808,3
-0.7156288623809814,7.867839813232423,-2.413046836853028,1.9501689672470093,-1.3958270000000002,-1.6713273999999998,3
0.2856787443161011,10.023890495300293,-1.3462183475494385,2.347441434860229,-3.8157697,-1.690875,3
0.8624086976051331,11.860440254211426,-2.3704943656921387,2.3263087272644043,1.9364429,-1.6346754,3
1.09756338596344,13.362347602844238,-2.415289640426636,2.2110671997070312,-0.1518,-1.8741345,3
0.5732162594795227,14.529356002807615,-2.2719862461090092,2.16370177268982,-0.6236934000000001,-1.7256943,3
-0.7601578831672668,15.466257095336914,-2.349820137023926,1.9729470014572144,0.112399206,-1.2922854,3
-1.909512042999268,15.771721839904785,-2.59981632232666,1.6982378959655762,0.97249746,-1.0873401000000005,3
-2.4427173137664795,14.976517677307127,-2.9246180057525635,1.4066665172576904,2.2687535,-0.42943826,3
-2.1415412425994877,13.183067321777346,-3.021087169647217,1.130000352859497,2.8845057,0.41813725,3
-1.23170268535614,10.905240058898926,-2.5549180507659908,0.8341480493545532,2.5189028,1.2690725,3
-0.16765651106834412,8.353075981140138,-1.5818158388137815,0.4659757316112518,0.990518,1.7977765,3
0.5023826360702515,5.81446647644043,-0.5688950419425964,-0.025916604325175285,-0.09407325,2.2049181,3
0.5993938446044922,4.005888938903809,-0.07172530889511107,-0.5251782536506653,-0.9718866,1.4300356,3
0.3744421005249024,3.681217670440674,-1.0526022911071775,-0.8934068083763123,-0.6267477,0.17440203,3
-0.2884410619735718,4.755049705505371,-2.367022752761841,-0.8898898363113403,-0.27977628,-1.0198395,3
-1.0265784263610842,5.798553943634032,-2.8132612705230717,-0.6156800985336304,-2.4611762,-1.7455473999999995,3
-1.1875743865966797,6.125074863433838,-1.869225263595581,-0.26124492287635803,-5.365535,-2.3863451,3
-0.11302630603313445,5.81682825088501,-0.3846744000911713,-0.04732490330934525,-2.8875601000000004,-2.4449883,3
1.840252161026001,5.979930400848389,0.3277157247066498,-0.19695356488227844,-1.1753048,-0.08796459400000001,3
3.6804883480072017,7.637941360473633,0.9237682819366456,-0.3239870667457581,0.41996986,3.1969633,3
4.6606178283691415,9.705894470214844,1.6143405437469482,-0.6013006567955017,1.5088371,5.424178,3
4.378399848937988,11.5774564743042,1.5621864795684814,-0.8100954294204712,3.6221254,3.6346483,3
2.7779014110565186,13.07991886138916,1.091241717338562,-0.9638311862945556,2.5219572,1.7980819,3
0.6528027653694153,13.814315795898438,1.0376675128936768,-1.1815638542175293,1.110553,0.8399397,3
-1.2248530387878418,14.354781150817873,1.6504833698272705,-1.1061474084854126,-1.8637499,0.22693644,3
-2.047679901123047,15.176101684570312,1.8095020055770876,-1.4423872232437134,-2.1227567,-0.20280726,3
-1.8254146575927732,15.90401840209961,0.6060491800308228,-2.0074424743652344,-2.1163425,0.44165558,3
-1.5334889888763428,15.881455421447756,-1.7060928344726562,-2.180925846099853,0.05925392700000001,1.2131784,3
-1.8525806665420528,14.984267234802244,-2.9699041843414307,-1.829121232032776,0.6096435,1.29198,3
-2.589651346206665,13.536940574645994,-3.0247631072998047,-1.523780345916748,-0.05497787,0.94225967,3
-3.23883318901062,11.56424045562744,-3.003700256347656,-1.2957957983016968,-0.58459806,0.6026186,3
-3.6311988830566406,9.287836074829102,-3.40613341331482,-1.0209310054779053,-0.12003502,0.049785517,3
-3.8403782844543457,7.478681087493896,-3.459317445755005,-0.6134657859802246,-0.004581489,-0.49968776,3
-3.84352707862854,6.145845413208008,-3.342716217041016,-0.2993606328964233,0.50701815,-0.9053023,3
-3.834182977676392,5.175558090209961,-3.3323962688446045,-0.007295634131878614,0.124005646,-1.2363913,3
-3.6498394012451167,4.6031575202941895,-3.594558000564575,0.4592545032501221,0.53969944,-1.5861117,3
-3.2064731121063232,4.544207572937012,-3.7696318626403813,1.0030412673950195,1.4312572,-1.7486018,3
-2.4372539520263667,5.2142720222473145,-3.3627071380615234,1.4027653932571411,0.8753699,-1.6746869999999998,3
-1.3654546737670898,7.140210151672362,-2.5971100330352783,1.738241195678711,-1.4141531,-2.257147,3
-0.025672100484371185,9.376343727111816,-1.9060002565383911,2.0947999954223637,-4.1422772000000005,-2.3762658,3
1.283594250679016,11.32469367980957,-1.943968772888184,2.246923923492432,-1.3750577,-1.0235047,3
0.9602420926094056,12.92759895324707,-2.3197567462921143,1.9480775594711304,2.7876835,-2.7559185,3
-0.22410984337329865,14.20506191253662,-2.495011568069458,1.8993957042694087,0.064446285,-2.155438,3
-1.368637204170227,15.184807777404785,-2.73172378540039,1.838019609451294,1.112691,-1.6319264999999998,3
-2.520294666290283,15.674281120300293,-2.831742286682129,1.6539155244827268,1.6618589,-1.2336423,3
-3.0802559852600098,15.211000442504885,-2.9271302223205566,1.4539738893508911,2.257147,-0.6236934000000001,3
-2.7203195095062256,13.617406845092773,-3.0379123687744136,1.2229870557785034,2.8561006,0.12889257,3
-1.7463816404342651,11.36058235168457,-2.6685562133789062,0.8971182107925415,2.4718661,0.9459248,3
-0.6782443523406982,8.851951599121094,-1.6703566312789917,0.4936585128307343,1.1169671,1.5894713,3
0.15156786143779755,6.47861909866333,-0.5511306524276733,0.05122337862849236,-0.37812558,2.175902,3
0.6722627282142639,4.293539047241212,0.21033871173858645,-0.33678674697875977,-1.0870347,1.7440202,3
0.9307730197906494,2.9580776691436768,0.04456661269068718,-0.6726640462875366,-1.0861185,0.659429,3
0.8605794906616211,3.0733861923217773,-1.1118326187133791,-0.8452207446098328,-0.48991394,-0.26816985,3
0.25783973932266235,3.997014760971069,-1.95891273021698,-0.7482150197029114,-1.4074335,-0.63346726,3
-0.6154378652572632,4.636484622955322,-1.7305542230606081,-0.5063755512237549,-5.010317,-0.77671516,3
-0.8046531677246094,4.435273170471191,-0.8332186937332153,-0.2489847242832184,-3.5784485,-1.3836098,3
0.15522688627243042,4.356732368469238,0.0829015001654625,-0.25194111466407776,-1.1756102,-1.0280862,3
1.431547999382019,5.7208619117736825,0.5498972535133362,-0.3929041028022766,0.6569856,0.9300423,3
2.291290521621704,8.013062477111816,0.7398785948753357,-0.7443893551826477,5.981898,4.0430117,3
2.251504182815552,9.926149368286133,1.3792953491210938,-1.1271134614944458,4.6459355,2.4831672,3
1.6038670539855957,10.454147338867188,2.196783781051636,-1.1709421873092651,-3.0958650000000003,1.393689,3
0.8738442063331604,10.90081787109375,1.5608049631118774,-0.9839459061622621,-1.3713925,0.7687739,3
0.13898879289627075,12.086862564086914,1.323806881904602,-0.6504656672477722,1.0497719,0.20158553,3
-0.5198792815208435,13.392515182495115,2.0931284427642822,-0.9870151281356812,2.2696697999999995,0.39614612,3
-0.7052474021911621,14.397794723510742,3.4773404598236084,-1.778503656387329,-4.4785585,0.115453534,3
-0.4904484748840332,15.28441333770752,2.694713830947876,-2.5252063274383545,-4.6966376,0.7141015000000001,3
-0.06016770377755165,15.578969955444336,-0.3687067329883576,-2.267523765563965,1.6542231,1.7870862,3
-1.259350299835205,14.853829383850098,-0.9004202485084534,-1.7623749971389768,-0.015577064,1.5091426,3
-2.9177463054656982,13.104119300842285,-1.2482928037643433,-1.530368089675903,-2.146275,1.1939361000000002,3
-4.228155612945557,10.772321701049805,-2.5274999141693115,-1.271120548248291,0.0720821,-0.08277224,3
-4.8912672996521,8.686435699462889,-3.096486568450928,-0.8495074510574341,0.02321288,-0.43279803,3
-5.124747276306152,6.949080467224121,-3.0612683296203613,-0.4499454200267792,0.9086621,-0.9257663,3
-5.120589256286621,5.61522102355957,-2.868856191635132,-0.1602201908826828,0.20097467,-1.1957687,3
-4.912003517150879,4.774586200714111,-2.954237937927246,0.22030524909496307,0.42760566,-1.6178766000000002,3
-4.448013782501222,4.445538520812988,-3.2248523235321045,0.6721727848052979,0.7351763000000001,-2.0335703,3
-3.73858642578125,4.812061309814453,-3.4739437103271484,1.1018798351287842,2.1380284,-1.6814066000000003,3
-2.2987210750579834,6.269822597503662,-2.753121852874756,1.444629788398743,-0.12339478,-1.7950275000000002,3
-0.8734416961669922,8.350656509399414,-1.63846755027771,1.9478561878204343,-3.0787609,-2.454762,3
0.627873957157135,10.422478675842283,-1.0926277637481692,2.3124802112579346,-3.3328807,-1.625207,3
1.424834132194519,12.18375015258789,-1.9515472650527956,2.1041936874389653,1.4004086000000002,-1.8090774,3
0.9741166234016418,13.62254524230957,-2.0873763561248784,1.9214885234832764,-0.462425,-2.5625796000000003,3
-0.2983517646789551,14.784377098083494,-2.3950390815734863,1.808255195617676,-1.0998629,-2.2806654,3
-1.600277304649353,15.609522819519045,-2.78754997253418,1.6073037385940552,0.015271631,-1.6413950000000002,3
-2.716425895690918,15.574528694152832,-3.42214035987854,1.3516792058944702,1.5048665,-1.1774428,3
-3.145980834960937,14.340057373046875,-3.924606323242188,1.1751755475997925,3.303254,-0.103847094,3
-2.7416086196899414,12.442209243774414,-3.620193243026733,1.0190719366073608,3.8151588,0.84635377,3
-1.7860021591186523,10.500874519348145,-2.710521697998047,0.8169527053833008,3.5732562999999997,1.8851302,3
-0.700368344783783,8.379818916320799,-1.448926568031311,0.5532605648040771,1.8219056,2.395508,3
0.2051774561405182,6.241793155670166,-0.3801694810390472,0.15999457240104675,-0.22204952,2.6777277,3
0.602260410785675,4.545754432678223,0.17044313251972198,-0.2422792911529541,-1.2727377,2.0201313,3
0.3988959193229675,3.724387407302856,0.08110914379358293,-0.5422809123992921,-1.9214766,0.5684100999999999,3
0.013042346574366093,3.8183631896972656,-0.9622534513473512,-0.669296145439148,-1.1313223999999995,-0.6722571999999999,3
-0.4039885699748993,4.476510047912598,-2.1859169006347656,-0.5389842987060547,-2.3631322,-1.0259482,3
-0.4815388917922974,4.231803894042969,-1.612865924835205,-0.2285728603601456,-4.889365,-1.4257594,3
0.5219576358795166,3.2630319595336914,-0.6651139855384827,-0.10226264595985413,-1.7986927,-1.6517797,3
1.8600674867630005,3.5726957321166988,0.04487951844930649,-0.3702821433544159,-1.6340646,0.099265605,3
2.6872191429138184,5.740703582763673,0.4819810092449188,-0.5923022031784058,2.0137172,3.085175,3
2.501204490661621,8.187034606933594,1.190093755722046,-0.9838894605636596,4.9938235,3.8163805,3
1.3943655490875244,9.466864585876463,1.4014098644256592,-1.2923351526260376,-1.7504343999999998,1.4914275,3
0.5406028628349304,9.64421558380127,0.1506098210811615,-1.0426441431045532,-0.09101892,1.2119566000000002,3
0.17325527966022491,10.242816925048828,0.02127860113978386,-0.735729455947876,1.0509937,1.2904528,3
-0.3401716351509094,11.544543266296387,0.8573394417762756,-0.8840909600257874,3.383888,0.59742624,3
-0.9152045845985411,12.976723670959473,1.9759700298309328,-1.570279598236084,-0.07513642,0.35460728,3
-1.4135189056396484,14.07243824005127,2.3349342346191406,-2.34722900390625,-4.396703,0.24251351,3
-1.2583614587783811,14.59770679473877,0.06187290698289871,-2.503257751464844,-1.2089024,1.0705414,3
-1.2567222118377686,14.276859283447266,-1.4035173654556274,-2.0320816040039062,1.6508633,1.2327261,3
-2.014856576919556,13.176910400390625,-1.3294299840927124,-1.702433943748474,-1.146594,1.3658947,3
-2.9282805919647217,11.031427383422852,-1.8349866867065432,-1.4256129264831543,-1.6536123,1.0021244,3
-3.793412208557129,8.757847785949707,-2.9293575286865234,-1.1854654550552368,0.42088616,-0.093462385,3
-4.2780585289001465,7.025034427642822,-3.121498346328736,-0.7723137736320496,-0.110872045,-0.3924809,3
-4.475729465484619,5.644848346710205,-3.257984161376953,-0.4274836182594299,0.8365799999999999,-0.97585726,3
-4.3684186935424805,4.722284317016602,-3.408095121383667,-0.12323880940675735,0.92179567,-1.2702943000000002,3
-3.88610577583313,4.274688720703125,-3.445151329040528,0.2764970362186432,0.50823987,-1.400714,3
-3.119647979736328,4.357622623443604,-3.3560881614685063,0.7432596683502197,1.0598511999999998,-1.5222762,3
-2.0531435012817383,5.18943977355957,-3.048292636871338,1.1842772960662842,0.9401216,-1.5778649,3
-0.9983230233192444,7.029317378997803,-2.4837350845336914,1.6463700532913208,-1.3845261,-2.5167649,3
0.3214821517467499,9.226513862609863,-1.5257632732391355,2.009969472885132,-3.1713068,-2.261423,3
1.6528058052062988,11.189557075500488,-1.3952981233596802,2.049570322036743,-1.6826283,-1.5158621,3
2.44517183303833,12.816280364990234,-2.096722364425659,2.1387932300567627,1.6902641,-1.2156218,3
1.5887192487716677,14.135893821716307,-1.8196444511413572,2.045483350753784,-0.22327125,-1.4340062,3
-0.2121133953332901,15.18779182434082,-1.879464030265808,1.8953903913497925,-1.0595458,-1.7852536,3
-1.5233305692672732,15.913962364196776,-2.186877965927124,1.6715737581253052,0.7669413,-1.344209,3
-2.0040435791015625,15.682510375976562,-2.565263271331787,1.4453222751617432,1.8781052,-1.0552697,3
-1.6354955434799194,14.425982475280762,-2.769497394561768,1.2537087202072144,2.7577512000000004,-0.21288654,3
-0.821417510509491,12.203084945678713,-2.393487930297852,1.0138384103775024,2.1212296000000004,0.8368853999999999,3
0.06559386849403381,9.34193515777588,-1.444086670875549,0.6770913004875183,0.4905248,1.7256943,3
0.583756148815155,6.561850070953369,-0.4104193150997162,0.2549425959587097,-0.31215215,2.302962,3
0.6670100688934326,4.4007530212402335,0.2810755670070648,-0.14607547223567965,-0.8402450999999999,1.8918496,3
0.6651613712310791,3.072892904281616,0.025934215635061264,-0.4900741875171661,-0.3643811,0.8268061,3
0.34517359733581543,2.988324880599976,-1.066314935684204,-0.6889342665672302,-0.13347405,-0.34330627,3
-0.4247531294822693,3.8974032402038574,-1.7565690279006958,-0.6087412238121033,-1.7614299,-0.7696901999999999,3
-0.9685728549957277,4.599778175354004,-1.595696210861206,-0.3888892233371735,-3.879605,-1.169807,3
-0.7715352177619934,4.21155309677124,-0.7680314779281616,-0.12731575965881348,-3.116329,-1.7699821,3
0.3470040261745453,3.261663913726806,-0.7198176980018616,-0.15270811319351196,0.87109387,-1.8894062,3
2.007028341293335,3.80936861038208,0.2400729060173035,-0.3006528913974762,-1.5271631,1.5106697,3
3.095296621322632,6.086268901824951,1.0130752325057983,-0.4367130696773529,2.0289888,4.8753157,3
2.713545322418213,8.323771476745605,1.2085707187652588,-0.8146689534187317,6.3746843,3.1841352,3
1.3444863557815552,9.444883346557617,1.5049058198928833,-1.0881732702255251,-0.58276546,1.5842791,3
-0.16303043067455292,9.660683631896973,0.7430402040481567,-1.142107367515564,-0.33353242,0.7840455,3
-1.3780958652496338,10.35503387451172,0.709479033946991,-0.7669935822486877,1.3814718,-0.6056729000000001,3
-1.7268648147583008,11.80956745147705,1.7665092945098877,-1.0752930641174316,1.917506,-0.22968534,3
-1.3762844800949097,13.16910457611084,2.7316274642944336,-1.7200261354446411,-1.9168952,0.2284636,3
-0.8423893451690674,13.98021411895752,1.7129497528076172,-2.268317461013794,-5.3029213,0.24770586,3
-0.32334542274475103,14.115579605102539,-1.2093870639801023,-2.3006751537323,1.2486086,1.8167132,3
-1.03141987323761,13.561973571777346,-1.8640176057815552,-1.7036036252975464,0.93309665,1.5173893,3
-2.412243366241455,12.302194595336914,-1.579098343849182,-1.4198588132858276,-1.8038851,1.248914,3
-3.64013934135437,10.225663185119627,-2.2662527561187744,-1.191253900527954,-0.49205196,-0.05131268,3
-4.2430195808410645,8.233969688415527,-2.9328861236572266,-0.8491898775100708,0.32436943,-0.4465425,3
-4.466424942016602,6.636959552764893,-3.0494368076324463,-0.4940101206302643,0.95294976,-0.8707884,3
-4.469331741333008,5.365710258483887,-2.9354493618011475,-0.21666398644447327,0.043676864,-1.1997393,3
-4.1477084159851065,4.667002201080322,-3.0478079319000244,0.15922211110591888,0.32925636,-1.428203,3
-3.618240594863892,4.504674434661865,-3.20017671585083,0.6442001461982727,0.4120286,-1.6148223,3
-2.628131866455078,5.3160367012023935,-3.0930325984954834,1.1415756940841677,1.2959507,-1.4703526000000002,3
-1.4559577703475952,7.049189567565918,-2.543898820877075,1.5015956163406372,0.42058071,-1.6688838,3
-0.35312169790267944,9.210247039794922,-1.6717662811279297,1.95192289352417,-2.6529877,-2.6309967,3
0.9029409289360046,11.167888641357422,-1.5108100175857544,2.1489224433898926,-2.8386908,-1.8606955000000005,3
1.709082841873169,12.79643440246582,-2.3401224613189697,2.1180567741394043,1.4749341,-1.3106114,3
1.4438228607177734,14.102781295776367,-1.905791163444519,2.0523269176483154,-0.7556403,-1.4966198,3
-0.012198884971439837,14.966378211975098,-1.8677945137023928,1.8879015445709229,-0.9294315,-1.5986344,3
-1.3444197177886963,15.666046142578125,-1.9681062698364256,1.6500080823898315,-0.105068825,-1.0931433000000002,3
-2.243738412857056,15.643390655517578,-2.284924268722534,1.3593995571136477,0.94806284,-0.83169305,3
-2.3931684494018555,14.735687255859375,-2.799229383468628,1.1350502967834473,2.4776695,-0.023823744,3
-1.955962896347046,12.886598587036133,-3.015251874923706,0.956523299217224,3.4770449999999995,0.7458665,3
-1.1626855134963991,10.523289680480957,-2.5036308765411377,0.7338241338729858,2.8936687,1.6526959,3
-0.4259764850139618,8.000587463378906,-1.620059370994568,0.3847146928310394,1.5005904,2.094657,3
-0.05703796446323395,5.612022876739502,-0.5503284931182861,-0.0652112290263176,0.30604348,2.0390682,3
0.03276289626955986,3.723868608474731,0.16753137111663818,-0.5142812132835388,-1.1417072,1.1404854,3
0.01744644716382027,2.8695948123931885,-0.08255492150783539,-0.8597782850265503,-1.201572,-0.10354166,3
-0.2202760875225067,3.54630970954895,-1.356523871421814,-0.8701382279396057,-0.7684685,-1.2250903,3
-0.8928712010383606,4.327360153198241,-1.497782826423645,-0.618434727191925,-3.4263432000000003,-1.457219,3
-0.9292468428611756,3.8698618412017822,-0.6848864555358887,-0.28554755449295044,-4.725348,-2.0525072,3
0.16520781815052032,3.2776613235473637,-0.2727688252925873,-0.2674481272697449,-0.45204028,-2.2024746,3
1.613731861114502,4.546519756317139,0.09757911413908003,-0.4786143600940704,0.12308934,0.8313876,3
2.5016469955444336,7.007145404815674,0.22377103567123413,-0.6609958410263062,5.3139167,4.5506406,3
2.1805615425109863,9.252145767211914,0.7507491111755371,-1.1116962432861328,5.09034,3.378085,3
1.34890615940094,10.115132331848145,1.0992441177368164,-1.2866830825805664,-0.20097467,1.4837917,3
0.7620189189910889,10.538713455200195,0.6953736543655396,-1.1262422800064087,0.24556783,1.3185526,3
0.3165281116962433,11.315706253051758,1.009054183959961,-0.7718744277954102,-0.06780604,0.6178902,3
0.02545851841568947,12.445693016052244,1.9955369234085083,-0.913253366947174,-0.116675265,0.48472157,3
-0.09378869831562042,13.459481239318848,2.755829334259033,-1.5525805950164795,-1.4068227,0.15699236,3
0.031461313366889954,14.377062797546387,2.8607659339904785,-2.2537641525268555,-4.3160680000000005,0.2968805,3
0.2571403980255127,15.0286865234375,0.5279138088226318,-2.6453068256378174,-1.4544701999999998,1.6093245,3
-0.2635888457298279,14.781418800354006,-1.961844801902771,-2.0339744091033936,1.029308,1.5778649,3
-1.7925868034362793,13.684800148010256,-1.8774664402008057,-1.6461219787597656,-1.1624765,1.1337659,3
-3.045011043548584,11.514871597290039,-2.1727871894836426,-1.3805663585662842,-1.2021828,0.43890667,3
-3.9374418258666988,9.24259090423584,-2.9242167472839355,-1.125563383102417,-0.28955013,-0.09743301,3
-4.495605945587158,7.5672736167907715,-3.311147451400757,-0.7221677303314209,1.0030408000000002,-0.5348125,3
-4.709198951721191,6.222146987915039,-3.2210440635681152,-0.3852248191833496,0.50946164,-0.9761627,3
-4.560800552368164,5.20159387588501,-3.1638433933258057,-0.0476103276014328,-0.3827071,-1.3637567,3
-3.9598228931427,4.6921796798706055,-3.303279161453247,0.4361931681632996,-0.12797627,-1.4223998,3
-3.0120205879211426,4.743827819824219,-3.3634843826293945,0.9949719309806824,0.86651236,-1.6242907,3
-1.6907566785812378,5.705098628997803,-3.0926034450531006,1.4092575311660769,1.0253373,-1.3878858,3
-0.38937196135520935,7.561048030853271,-2.4251530170440674,1.851998209953308,-1.4291192,-1.9840903000000003,3
0.8260859251022339,9.674627304077148,-1.1505030393600464,2.2331984043121342,-4.0277400000000005,-1.6737707999999998,3
1.686426877975464,11.552935600280762,-1.141674518585205,2.1790308952331543,0.9071349,-1.457219,3
1.4042389392852783,13.10792064666748,-1.5267190933227541,1.9823291301727293,0.015271631,-2.1615467,3
0.5886623859405518,14.32108211517334,-1.3556504249572754,1.8990522623062132,-0.73884153,-1.9825631,3
-0.6412146091461182,15.03684139251709,-1.6003042459487915,1.7141964435577393,0.07513642,-1.1588113000000002,3
-1.5776098966598509,15.162460327148438,-1.8064186573028564,1.4573768377304075,0.9242391,-0.90469146,3
-1.8728606700897217,14.45444107055664,-2.0234735012054443,1.1573057174682615,2.07572,-0.2919936,3
-1.4817569255828855,12.972835540771484,-2.226701021194458,0.8904312252998352,2.91566,0.48930305,3
-0.8127912282943726,10.977252960205078,-2.0736989974975586,0.6335129737854004,2.4767532,1.4266758,3
-0.17514030635356906,8.7449951171875,-1.6567187309265137,0.3323502242565155,1.2880094,2.1881194,3
0.14093869924545288,6.427000522613525,-0.8134005665779114,0.0008565121097490191,-0.22479841,2.3151793,3
0.21924331784248352,4.274301052093507,-0.17985808849334714,-0.3274584710597992,-0.6249151,1.6615535,3
0.3381712436676025,3.0351483821868896,-0.549761176109314,-0.6458548903465271,-0.029321533,0.12522738,3
-0.12131069600582126,3.3906893730163574,-1.6083927154541016,-0.7361027598381042,-0.21563543,-1.2687671,3
-1.005575180053711,4.3913235664367685,-2.1081361770629883,-0.5267295837402344,-2.9553661,-1.3023646999999998,3
-1.7016087770462036,4.483912944793701,-1.5116213560104368,-0.2106091231107712,-5.6963186,-1.8020525,3
-1.1760650873184204,3.8223447799682617,-0.8459781408309937,0.002365250373259187,-1.4245378,-2.2299635,3
0.6227326393127441,4.784546852111816,-0.2915695607662201,-0.09739745408296584,-0.88178396,-0.8405505999999999,3
2.1749801635742188,7.094369888305664,-0.28697317838668823,-0.31566357612609863,3.680157700000001,3.5475998,3
2.4913830757141118,9.21511173248291,0.09112423658370973,-0.6709241271018982,4.9535065000000005,3.5760052000000004,3
1.927458882331848,10.01527214050293,0.5084167718887329,-0.8019229173660278,2.1557433999999995,1.5152513,3
1.360573410987854,10.420557975769043,0.24952276051044464,-0.9280174374580384,0.37048978,1.2009611,3
0.833547055721283,11.227926254272461,0.5360611081123352,-0.6284402012825012,0.50426924,0.7965683000000001,3
0.3016328513622284,12.233353614807127,1.4273605346679688,-0.5436514019966125,0.10842858,0.23304509,3
-0.0941283404827118,12.934687614440918,2.2984654903411865,-0.916259467601776,-0.42913285,0.2782491,3
-0.07647109776735306,13.624038696289062,3.037528276443481,-1.6081799268722534,-3.2345314,-0.24648413,3
0.36949288845062256,14.544574737548828,1.8118752241134644,-2.3234009742736816,-3.8655553,0.52015173,3
0.6627658009529114,14.713004112243652,-1.2035001516342163,-2.360889673233032,0.59803706,1.7537941000000004,3
-0.16335561871528625,14.233264923095705,-2.0978546142578125,-1.7698585987091064,0.22174409,1.4010195,3
-1.600348711013794,13.40966796875,-1.5783805847167969,-1.4889358282089231,-1.6658295,1.0952813999999995,3
-2.794052839279175,11.620790481567385,-1.696861743927002,-1.3591697216033936,-0.8921687,0.77488256,3
-3.66014575958252,9.78508758544922,-2.608530282974243,-1.1443382501602173,-0.14202617,0.24007004,3
-4.276385307312012,8.302707672119139,-2.96826434135437,-0.7453568577766418,0.7021896,-0.1160644,3
-4.5895113945007315,6.866666793823242,-2.9532008171081543,-0.39432045817375183,0.8732319,-0.69974613,3
-4.542638778686523,5.575936794281006,-2.8972470760345463,-0.12527287006378174,0.21135938,-1.1826351000000002,3
-4.129461765289307,4.823054790496826,-2.914501667022705,0.22949154675006864,-0.19486602,-1.3903292,3
-3.431443452835083,4.667233943939209,-3.0083019733428955,0.7033216953277588,0.4175264,-1.4810427,3
-2.2054243087768555,6.00375509262085,-3.027987241744995,1.162695288658142,0.22540927,-1.8393153,3
-0.5963214635848999,8.33540153503418,-2.156041622161865,1.6901874542236328,-2.6688702,-2.4495697,3
0.7031581401824951,10.483232498168944,-1.8371657133102417,2.0064854621887207,-2.5094345,-1.4358387,3
1.1676284074783323,12.233275413513185,-2.273376941680908,2.0139496326446533,2.1142046000000003,-1.8784106,3
1.0086500644683838,13.657866477966307,-2.106163740158081,1.905189037322998,-0.28160888,-2.0735822,3
-0.13979554176330564,14.81202793121338,-2.1828315258026123,1.8340705633163448,-0.8371908000000001,-1.9080375,3
-1.1956892013549805,15.664462089538574,-2.202667236328125,1.712226629257202,-0.18478674,-1.4865406,3
-1.8817540407180784,15.869720458984375,-2.3911283016204834,1.5232845544815063,1.2208142,-1.3445143999999998,3
-2.0209805965423584,15.431862831115724,-2.7469959259033203,1.3555480241775513,2.9236012,-0.8509353000000001,3
-1.4980875253677368,14.058636665344238,-2.7251272201538086,1.211206316947937,3.9361103,-0.14844026,3
-0.5356336236000061,11.924299240112305,-2.0536761283874507,1.0124797821044922,3.234226,0.90224797,3
0.5162702202796936,9.273728370666504,-1.0297648906707764,0.699104368686676,0.86559606,1.7959439,3
1.0515776872634888,6.4684181213378915,-0.1689850687980652,0.2617825567722321,-0.5195409000000001,2.4336872000000005,3
0.8894595503807068,4.119950294494629,0.1995050460100174,-0.17035949230194092,-0.80481493,2.3185391,3
0.4997825920581818,2.7250094413757324,-0.32050904631614685,-0.4675279557704926,-0.59528816,1.1346822,3
0.0036090796347707506,2.7531657218933105,-1.7670915126800537,-0.5405632257461548,0.5140431,-0.35705075,3
-0.6019189357757568,3.60678505897522,-2.5462777614593506,-0.4018056392669678,-1.4672983,-0.7510588,3
-1.083207368850708,3.834280252456665,-1.7203332185745241,-0.0977870523929596,-4.363105,-0.8784242,3
-0.4701615571975708,3.122194766998291,-0.2497784048318863,0.17697349190711975,-2.8087585,-1.4428637,3
0.9988546967506408,2.896993398666382,0.5281900763511658,0.029287364333868027,-0.7461719,-0.9596693,3
2.381674289703369,4.623526573181152,1.0184656381607056,-0.23416325449943545,1.0534371,1.9071213,3
3.0407087802886963,7.1679277420043945,1.1985082626342771,-0.5853961110115051,4.636467,4.3493605,3
2.3161780834198,9.351885795593262,1.2355732917785645,-0.9248587489128112,2.1991148,1.9242256,3
0.7308251857757568,9.81684684753418,0.2300973385572433,-1.2903046607971191,-1.3023646999999998,0.40958515,3
-0.21686094999313354,9.461346626281738,-0.9041161537170409,-0.724360466003418,0.6582073,-0.8903360999999999,3
-0.5132663249969482,10.456194877624512,-0.6343094706535339,-0.4297007620334625,3.0998356,0.4364632000000001,3
-0.8068298697471619,12.063032150268555,0.44792440533638,-0.8311302661895752,4.163657700000001,-0.12339478,3
-0.7257890701293945,13.150506973266602,2.244431495666504,-1.4540340900421145,-1.6502525,0.16310102,3
-0.5342809557914734,13.80732250213623,2.3059401512146,-2.0121228694915767,-6.3685756,0.19211712,3
-0.1188180148601532,14.115055084228516,-0.4841684401035309,-2.474743604660034,-0.26419923,1.2321151,3
-0.2184206396341324,13.78849983215332,-2.290417432785034,-1.892557501792908,2.1041253,1.8680259,3
-1.3209223747253418,13.167527198791506,-2.0394716262817383,-1.4770365953445437,-0.6966918000000001,1.5723672,3
-2.5299322605133057,11.592227935791016,-1.9884766340255735,-1.327146291732788,-1.1239921,0.91813046,3
-3.4396989345550537,9.56058406829834,-2.568680047988892,-1.1037139892578125,-0.30482176,0.43218717,3
-4.1500606536865225,7.813138008117676,-3.1590497493743896,-0.6899698972702026,1.2767084,-0.21899518,3
-4.542362689971924,6.628379821777344,-3.262296438217163,-0.3447718918323517,1.4425583,-0.64904433,3
-4.544617176055908,5.870007991790772,-3.074366569519043,-0.02405445836484432,0.7874053000000001,-0.95264435,3
-4.094367980957031,5.420948505401611,-3.0159838199615483,0.39291271567344666,0.5384777,-1.0091494,3
-3.208662748336792,5.4597740173339835,-2.994513273239136,0.9390845298767091,1.0005972,-1.1753048,3
-2.035074472427368,6.237983226776122,-2.5796592235565186,1.4449225664138794,0.6435465,-1.4083499,3
-0.8865615725517273,7.852157592773437,-1.7398110628128052,1.8831082582473757,-0.3359759,-1.7012596999999998,3
-0.0548921562731266,9.870869636535645,-0.5830185413360596,2.361790657043457,-1.4715744,-1.4172074,3
-0.2397363632917404,11.701087951660154,-0.7244240045547485,2.460005283355713,2.2455406000000004,-1.3805555,3
-0.6627984642982483,13.224472045898438,-0.958225965499878,2.270871639251709,1.1191051,-2.6847527,3
-0.5752760171890259,14.452704429626465,-0.9490094780921936,2.0498213768005367,-0.6979135000000001,-2.159714,3
-0.9775256514549256,15.367541313171387,-0.95654958486557,1.7332022190093994,-0.8081746999999999,-1.9043725,3
-1.279515266418457,15.820893287658693,-1.1117013692855835,1.3947525024414062,0.18692477,-1.5192219,3
-1.5781186819076538,15.689544677734375,-1.5451315641403198,1.0803310871124268,1.5158621,-1.3072516,3
-1.538337230682373,14.81593418121338,-2.0336623191833496,0.8505799770355225,2.9513955000000003,-0.6982189999999999,3
-1.0155240297317505,13.140966415405273,-2.1792445182800293,0.6789427995681763,3.743993,0.61208695,3
-0.414436548948288,11.010648727416992,-1.915674328804016,0.5222422480583191,3.1538973,1.6581936999999998,3
-0.2726045846939087,8.768301010131836,-1.4980154037475586,0.30673837661743164,1.8808541,2.2907448,3
-0.5812016725540161,6.872126579284668,-1.2789664268493652,0.05597889050841332,1.4135422,2.3109033,3
-0.6902570724487305,5.7213945388793945,-1.6281374692916868,-0.15112705528736115,1.53205,1.2311989,3
-0.5966223478317261,5.5545921325683585,-2.1752347946166988,-0.2982838749885559,1.0155635,-0.17684549,3
-0.5382689237594604,5.863656520843506,-2.724737882614136,-0.296796977519989,0.3213151,-0.82527894,3
-0.6544343829154968,5.877959251403809,-2.892789363861084,-0.12192339450120925,-1.6181821,-0.90316427,3
-0.736242413520813,4.992581367492676,-1.655326247215271,0.19396668672561648,-2.3170118,-1.1792754,3
-0.2711181938648224,3.5863192081451416,-0.4324110448360443,0.28844723105430603,0.72204274,-1.3744466999999998,3
0.5903295874595642,2.9602994918823238,0.5049485564231873,0.09051039069890976,1.1826351000000002,-0.2125811,3
1.595706582069397,4.805522918701172,1.4541919231414795,-0.14395098388195038,1.0754282,1.7577647,3
1.5768213272094729,7.340479850769043,1.0041216611862185,-0.5891820192337036,5.5161133,2.404671,3
0.4273062646389008,8.493339538574219,0.3743337988853455,-1.3864070177078247,-1.5314392,-0.16249016,3
-0.23131857812404635,8.3726806640625,-1.2518160343170166,-1.0389009714126587,0.88086766,-0.72295904,3
-0.3120361864566803,9.092880249023438,-1.1440681219100952,-0.4427492022514343,4.32065,0.16554448,3
-0.3029833436012268,10.63534927368164,0.3408519923686981,-0.7572166919708252,3.2501085,-0.016798794,3
-0.1358521729707718,12.211859703063965,1.5862804651260376,-1.3292578458786009,0.65026605,0.2779437,3
0.007658226881176232,13.311970710754395,2.0497827529907227,-1.9837888479232788,-3.9248092,0.5122104999999999,3
0.15599100291728973,14.143688201904295,-0.024077480658888817,-2.360857486724853,-0.9126327,1.0564915,3
0.07885880768299103,14.434993743896484,-2.465519666671753,-1.9998732805252075,1.858252,1.6569718999999998,3
-0.8997893333435059,14.19223403930664,-2.777646064758301,-1.5704940557479858,0.12736541,1.7183639,3
-2.1912426948547363,13.06130599975586,-2.755504846572876,-1.29114830493927,-0.0421497,1.1588113000000002,3
-3.1879303455352783,11.217361450195312,-3.3484749794006348,-0.9826872944831848,0.7425067,0.5137377000000001,3
-3.7153480052948,9.348877906799316,-3.75622034072876,-0.4967807829380035,1.0042624,-0.009468411,3
-3.7170817852020255,7.7287535667419425,-3.5506770610809326,-0.02489571645855904,1.7012596999999998,-0.29749137,3
-3.631423711776733,6.408639430999756,-3.0572381019592285,0.3822493553161621,1.2324207,-0.3567453,3
-3.5109198093414307,5.433833122253418,-2.69468092918396,0.7828164100646973,1.3848315,-0.48349985,3
-3.215870141983032,5.031601428985597,-2.46156644821167,1.2268368005752563,2.0210476,-0.81061816,3
-2.7774534225463867,5.413261413574219,-2.1562325954437256,1.6627211570739746,2.195755,-1.1765264,3
-2.286843776702881,6.549565315246582,-1.3764066696166992,2.0459871292114262,1.1795808,-1.817935,3
-1.6790878772735596,8.502232551574707,0.20290426909923556,2.3530168533325195,-1.4056008999999998,-1.7192802,3
-1.6078109741210938,10.521377563476562,1.0724999904632568,2.4795053005218506,0.25473082,-1.8988746,3
-2.10921311378479,12.25652027130127,-0.039699427783489234,1.9613441228866575,2.7785206,-3.4886515,3
-1.8369271755218504,13.68045425415039,-0.6998562216758728,1.7254478931427002,1.3222178,-2.8151724,3
-1.7073038816452026,14.828943252563475,-1.0785157680511477,1.4945716857910156,1.1734722,-2.0815234,3
-1.690163254737854,15.567272186279295,-1.2999647855758667,1.271964430809021,1.4703526000000002,-1.4807373,3
-1.6352169513702393,15.704702377319336,-1.5170460939407349,1.003210425376892,2.0299053,-1.2021828,3
-1.325039625167847,15.252660751342773,-1.8617351055145264,0.7224218845367432,2.7910433,-0.8891144,3
-0.70524001121521,13.957159042358398,-2.1121165752410893,0.4651512801647186,3.7174203,-0.048258353,3
-0.10167159885168076,12.160215377807615,-1.9852195978164675,0.2714962363243103,3.5589008,0.89369583,3
0.1613597720861435,10.079986572265623,-1.3076503276824951,0.0876382365822792,2.4333818,1.6123788,3
-0.0103808781132102,8.115190505981445,-0.6136036515235901,-0.1007007732987404,1.527774,1.7296648999999995,3
-0.2323559373617172,6.721835613250732,-0.5747111439704895,-0.2654670476913452,1.7696766,1.185384,3
-0.5444392561912537,6.11257266998291,-1.307118535041809,-0.3355509042739868,2.2724187,-0.09437868,3
-1.1975758075714111,6.179486274719237,-2.183635950088501,-0.2520886957645416,1.8423696,-0.90408057,3
-1.95799720287323,6.168198108673097,-2.7237393856048584,-0.04220064729452133,0.03268129,-1.0937542,3
-2.539931297302246,5.545675277709961,-1.8235629796981807,0.22357623279094696,-2.2455406000000004,-1.4471397,3
-1.9065567255020144,4.213532447814941,-0.19923308491706848,0.4586101174354553,-0.14049901,-2.349693,3
-0.38540440797805786,3.191582679748535,0.5872814059257507,0.28484290838241577,1.863139,-1.7828102,3
1.3111791610717771,4.0219459533691415,1.2211759090423584,0.012231640517711641,3.648392700000001,0.5720753000000001,3
2.1796348094940186,6.337625503540039,2.009729146957397,-0.3633035123348236,4.3713517,1.9486601000000003,3
1.870154976844788,8.731064796447754,2.1092777252197266,-1.0309302806854248,0.7761043000000001,0.3933972,3
0.96739000082016,9.808281898498537,0.6422196626663208,-1.1830726861953735,2.7015514,-0.46731192,3
1.0467714071273804,10.731256484985352,1.3076796531677246,-0.6777951717376709,2.8716774,0.1695151,3
1.1834429502487185,12.106415748596193,2.518940687179565,-0.8922061324119568,1.3289373,0.2180789,3
1.0654542446136477,13.46534824371338,2.712947368621826,-1.453480243682861,0.6078109,0.41905355,3
0.8862922191619873,14.405052185058596,1.9732939004898071,-1.997006058692932,-1.427592,0.8533788,3
0.7200343012809753,14.92739200592041,0.04657721146941185,-2.1981723308563232,0.5852089,0.8558222,3
0.4640328884124756,15.020355224609375,-1.6408443450927734,-2.037129640579224,1.1890492,1.2779301,3
-0.417578786611557,14.52722454071045,-2.228285312652588,-1.7062692642211914,-0.04550946,1.3741413,3
-1.6459656953811646,13.244714736938475,-2.7102813720703125,-1.3475826978683472,0.1572978,0.9810496,3
-2.92695426940918,11.571149826049805,-3.4774177074432373,-0.9818272590637208,0.816116,0.40042216,3
-3.8476834297180176,9.862334251403807,-3.828169584274292,-0.4750482141971588,1.4031575,-0.031154128,3
-4.1679935455322275,8.158206939697267,-3.5549509525299072,-0.02464217878878117,2.4862216,-0.27885997,3
-4.124117851257323,6.527054309844972,-3.031125783920288,0.2969355583190918,2.763249,-0.2968805,3
-4.018465518951416,5.382289409637451,-2.5230460166931152,0.5871621966362,2.278833,-0.50854534,3
-3.5578305721282963,5.138571262359619,-2.282541513442993,0.9112114310264589,1.6801848,-1.0784826,3
-2.687626600265503,5.802003860473633,-2.0571575164794917,1.3587708473205566,1.6618589,-1.4676038,3
-1.4929072856903076,7.432716846466064,-1.315245509147644,1.786997675895691,0.6056729000000001,-1.5769486,3
-0.3909395337104797,9.50253963470459,-0.20595020055770874,2.115601062774658,-0.72234815,-1.4709635,3
-0.12747591733932495,11.39369297027588,-0.1092873588204384,2.1832139492034908,3.07815,-1.2055426,3
-0.7580885887145996,12.950675964355467,-0.4894319176673889,1.9965740442276,1.4010195,-2.0024164,3
-1.519540786743164,14.234777450561525,-0.7685487270355225,1.899099826812744,0.39461896,-2.8900034,3
-2.0445842742919917,15.274934768676758,-1.050769925117493,1.7272883653640747,0.9166033,-2.4544566000000003,3
-2.415329694747925,16.087324142456055,-1.5517516136169434,1.5782097578048706,2.0201313,-2.0134118,3
-2.322676181793213,16.381942749023438,-2.0221407413482666,1.3937646150588991,2.8701503,-1.7281377,3
-1.8823596239089968,16.013219833374027,-2.40694260597229,1.1838728189468384,3.4171803,-1.1417072,3
-1.2334184646606443,14.923096656799315,-2.3884551525115967,0.9833350181579591,3.753767,-0.39920044,3
-0.5777098536491394,13.253796577453613,-2.0975370407104488,0.8135193586349487,3.4125986000000004,0.376293,3
-0.10168179124593736,11.127424240112305,-1.4141132831573486,0.6328198313713074,1.7159204,1.0360274,3
0.03965428099036217,8.787542343139647,-0.5976013541221619,0.3969813585281372,0.36774087,1.2308935,3
-0.11549222469329835,6.622800827026367,-0.3073217570781708,0.15149101614952087,-0.09254608,0.6798930000000001,3
-0.3548086881637573,5.288429260253906,-0.8856731057167053,-0.05493466928601265,0.13133603,-0.43157628,3
-0.9239516854286194,4.91179895401001,-1.5916974544525146,-0.15846164524555206,-0.40530908,-1.4034628999999998,3
-1.5811893939971924,4.911275386810303,-1.5036548376083374,-0.16076940298080444,-2.4284947,-1.6487253000000002,3
-1.1842331886291504,4.207557678222656,-0.6996737718582153,-0.08297865092754364,-2.1740694,-1.353372,3
0.020281538367271423,2.686168909072876,-0.3775309026241303,-0.15126213431358335,1.6041322,-1.3649784,3
1.4937093257904053,2.0198328495025635,0.2065606564283371,-0.40135908126831055,-0.34513888,0.7360926,3
2.298880815505981,3.5933237075805664,1.3265430927276611,-0.5752024054527283,2.9773571,1.9770653,3
2.30846905708313,6.213107109069824,2.1299314498901367,-1.0563818216323853,3.4461962999999995,2.1911736,3
1.0133627653121948,8.361692428588867,1.1897494792938232,-1.2870807647705078,0.118507855,0.43493605,3
1.0910155773162842,9.035539627075195,0.5615288615226746,-0.6372067332267761,2.9382617000000004,-0.037873644,3
1.5083866119384766,9.728368759155273,1.4521937370300293,-0.5170713067054749,4.1905355,0.6575964,3
1.285191297531128,11.048138618469238,2.9411313533782963,-0.8778788447380066,1.6859881,0.24098633,3
0.7297734022140503,12.566914558410645,3.3341083526611333,-1.5793567895889282,-1.0925325,0.28985557,3
0.2977893352508545,13.826089859008787,1.8929781913757324,-2.23890233039856,-2.2131648,0.54641896,3
0.16380062699317932,14.64336395263672,-0.4470680058002472,-2.2747652530670166,0.37568212,0.5983425,3
-0.17757560312747955,14.853732109069824,-1.5769280195236206,-2.110849142074585,0.59773165,1.1432343,3
-0.9023256301879884,14.29752254486084,-2.2114691734313965,-1.9441537857055664,-0.56779927,1.4321736,3
-1.768248438835144,12.791108131408693,-2.9621093273162837,-1.6760878562927246,0.27763826,0.91446525,3
-2.463828563690185,10.781721115112305,-3.4081954956054688,-1.406421184539795,0.64721173,0.34300083,3
-2.970612049102783,8.774200439453125,-3.2590432167053223,-1.070794939994812,0.12370021,-0.03023783,3
-3.3289990425109863,6.9311790466308585,-3.0402338504791264,-0.755331814289093,-0.3915646,-0.54825157,3
-3.4662764072418213,5.411481857299805,-3.2751967906951904,-0.4852788746356964,0.86590147,-0.9822713,3
-3.276108503341675,4.539410591125488,-3.5297017097473145,-0.11199849843978882,1.3078625,-1.0326678,3
-2.831415891647339,4.1079392433166495,-3.5509536266326904,0.3655247092247009,1.0552697,-1.1563678999999998,3
-2.2102198600769043,4.117403507232666,-3.48282241821289,0.8903494477272034,1.7009543000000005,-1.3600914,3
-1.5721752643585205,5.330793380737305,-2.8953680992126465,1.399002194404602,1.4138476,-1.7098118000000002,3
-1.0274592638015747,7.522266387939452,-1.7232553958892822,1.7925530672073364,-0.6618725000000001,-2.2049181,3
-0.30893632769584656,9.72747802734375,-1.0659036636352541,1.9936909675598145,-1.7476854,-2.0839667,3
0.4817245900630951,11.61939525604248,-1.497586011886597,1.9705299139022827,1.6771306,-1.3405437,3
0.4780725538730621,13.168014526367188,-1.2607208490371704,1.8912962675094604,0.9630291,-1.6878206999999998,3
-0.4820763766765594,14.418987274169922,-1.4656177759170532,1.7851572036743164,-0.39645153,-2.2229385,3
-1.3111906051635742,15.424888610839846,-2.092881441116333,1.6837505102157593,0.6261369000000001,-1.8845193,3
-1.9136868715286253,15.992652893066404,-2.7692794799804688,1.4939401149749756,1.1691961000000002,-1.4587462,3
-2.0359506607055664,15.64653491973877,-3.1676316261291504,1.2897239923477173,1.999362,-1.058324,3
-1.5859310626983645,14.382569313049315,-3.171583652496338,1.0642187595367432,2.562885,-0.4147775,3
-0.7509986758232117,12.26030445098877,-2.382357358932495,0.7993842959403992,1.7605137,0.44929138,3
0.04779348149895668,9.60519027709961,-1.175889492034912,0.456362783908844,0.07788532,1.2733486,3
0.5044375061988831,6.887331962585449,-0.16824257373809814,0.04719291999936104,-0.41141775,1.9672915,3
0.5698050260543823,4.587202548980713,0.27552157640457153,-0.29548412561416626,-0.2733622000000001,1.7259997,3
0.5120511054992676,3.033022165298462,0.18921639025211331,-0.5407975316047668,0.08582657,0.64751714,3
0.3127703964710236,2.5784826278686523,-0.6049425601959229,-0.6861677169799805,0.1386664,-0.44837508,3
-0.2728589773178101,3.287745475769043,-1.1566050052642822,-0.684924840927124,-1.68385,-1.1713341,3
-0.8808697462081909,4.174335956573486,-1.140112042427063,-0.5320361852645874,-3.842037,-1.3997977,3
-0.5877750515937805,4.185177803039552,-0.7061200737953186,-0.2966570556163788,-3.5020905,-1.3487904,3
0.719122588634491,3.809139490127564,-0.7090454697608948,-0.25714534521102905,1.6022996,-0.8717046999999999,3
2.108410358428955,4.998897075653076,-0.5052365064620972,-0.5067120194435121,0.7538077,1.1902708999999998,3
2.593791961669922,7.347705364227295,0.05224660038948059,-0.5136075019836426,4.1535783,2.7962356,3
2.017779588699341,9.599895477294922,0.8972237110137941,-0.7149184942245483,2.2919664,2.179567,3
0.894973874092102,10.84745979309082,0.6411633491516113,-0.7481086850166321,0.12492194,2.0308216,3
0.15565328299999234,11.19680404663086,0.24993352591991425,-0.4939455687999725,1.9468275,0.8738427,3
-0.2742769122123718,12.0684232711792,1.3788256645202637,-0.5472458004951477,1.9483547,0.3662137,3
-0.5802327394485474,13.229249954223633,3.04201602935791,-1.1635098457336426,-1.0974194,-0.25137106,3
-0.7929640412330627,14.376482009887695,3.3829407691955566,-2.0302062034606934,-2.933375,0.35888332,3
-0.7411772608757019,15.369379997253418,1.3879047632217407,-2.6082379817962646,-1.185384,0.8344419,3
-0.6027540564537048,16.093460083007812,-1.4377228021621704,-2.2731645107269287,0.57879484,1.2089024,3
-1.049651026725769,16.029590606689453,-2.2956981658935547,-1.916791081428528,-0.675617,1.1905763,3
-1.8855552673339844,14.246675491333008,-2.521878242492676,-1.644591212272644,-0.72295904,1.0897835,3
-2.6089184284210205,11.745893478393555,-3.0130155086517334,-1.4365007877349854,-0.54000485,0.7309003000000001,3
-3.3259401321411133,9.52277660369873,-3.4005925655364986,-1.1724826097488403,0.09865474,0.08979719,3
-3.8390352725982666,7.603907108306885,-3.372187614440918,-0.9163140654563904,0.50854534,-0.44165558,3
-4.056361675262451,5.991748332977295,-3.1835083961486816,-0.6735231280326843,0.86254174,-0.94806284,3
-3.941056489944458,4.7439141273498535,-3.1675076484680176,-0.46564581990242,0.5021312,-1.2541064,3
-3.409874677658081,4.118886470794679,-3.3682382106781006,-0.13144797086715698,0.47067168,-1.2730431999999998,3
-2.691068172454834,4.041876792907715,-3.5562233924865723,0.3432873785495758,0.8588764999999999,-1.289842,3
-1.978927969932556,4.579614639282227,-3.3545353412628174,0.8724598884582521,1.3127494,-1.4633276000000002,3
-1.3837987184524536,6.072767734527588,-2.628380298614502,1.3841931819915771,-0.089491755,-2.08977,3
-0.6204423308372498,8.276288986206055,-1.6488500833511353,1.6870605945587158,-2.8280005,-3.1285462,3
0.7067817449569702,10.38176441192627,-1.7913330793380735,1.759172797203064,-1.5143349,-2.3362541,3
2.216773509979248,12.156217575073242,-2.3894927501678467,1.93258535861969,-0.43768495,-0.93279123,3
2.969182252883911,13.602242469787598,-1.5371421575546265,1.8692996501922607,-2.071444,-1.4700472,3
1.2814600467681885,14.755226135253904,-1.6371062994003296,1.6149946451187134,-1.215011,-2.4620924,3
-0.4891449809074402,15.377481460571287,-2.1464571952819824,1.524787664413452,0.4071417,-1.640784,3
-1.5455162525177002,15.308551788330078,-2.820747375488281,1.4118710756301882,1.9364429,-1.102001,3
-1.6902602910995483,14.188963890075685,-3.02645206451416,1.3160163164138794,3.206737,-0.40866885,3
-1.0997499227523804,12.091657638549805,-2.35184383392334,1.1566777229309082,3.036611,0.29046643,3
-0.03813371062278748,9.421605110168457,-1.1023679971694946,0.9087865948677064,1.5018122,1.205848,3
0.9739151000976562,6.50806999206543,0.27550452947616577,0.5039871335029602,-0.602924,2.0824397,3
1.4243425130844116,3.952371835708618,1.1562052965164185,0.039036165922880166,-1.0858129,2.39337,3
1.245511531829834,2.2231521606445312,1.4062260389328003,-0.3305980265140533,-0.9462303,1.466382,3
1.0352511405944824,1.7106263637542725,0.2665947675704956,-0.5994148254394531,0.58032197,0.40225476,3
0.6010956168174744,2.6847314834594727,-1.732820749282837,-0.6151468753814697,0.95203346,-0.8539896,3
-0.367285281419754,4.35974645614624,-2.04287338256836,-0.38040307164192205,-2.1038198,-1.0827587,3
-1.0892034769058228,4.8223066329956055,-0.8801980018615723,-0.0704289972782135,-5.6059103,-1.5509868999999998,3
-0.2384125143289566,4.432809352874756,0.010951415635645391,0.09649287909269333,-1.1307116,-1.9746219,3
1.6211811304092407,4.969470024108887,0.3879297077655792,-0.07667684555053711,-0.6881397,-0.82527894,3
3.079604148864746,7.002242565155028,0.4848796427249909,-0.22234609723091125,2.3258693,2.141999,3
3.5199649333953857,9.22862148284912,0.967750370502472,-0.4045506715774536,3.3270776,3.882354,3
2.9072170257568364,10.633221626281738,1.4815853834152222,-0.5630658864974976,0.5467244000000001,2.685058,3
1.739389419555664,11.60582160949707,1.1244683265686035,-0.6192902326583862,1.2534955,1.9926424,3
0.5092923045158386,12.557683944702148,1.2655177116394043,-0.6097472906112671,1.6374242,1.4193454,3
-0.8806117177009583,13.696139335632324,2.1687853336334233,-0.7742651700973511,0.009773844,0.20097467,3
-1.8481361865997317,14.754698753356935,2.427387952804565,-1.3642271757125854,-1.9062049,-0.19486602,3
-1.9839168787002563,15.539408683776855,1.3665999174118042,-2.0339181423187256,-1.4413365,0.03726278,3
-1.2219361066818235,15.968646049499512,-0.7658191919326782,-2.278463840484619,-0.3191771,1.0821478,3
-0.6816044449806213,15.64006233215332,-2.7051103115081787,-1.9133472442626955,1.1594223,1.3558153999999998,3
-1.0280481576919556,14.660358428955078,-2.7883994579315186,-1.564118504524231,0.08124508,1.1093313,3
-1.5798637866973877,13.058788299560547,-2.089152574539185,-1.421876072883606,-1.8035797,1.1276573,3
-1.9327791929244995,10.872308731079102,-2.209160327911377,-1.3607828617095947,0.10598512,1.287093,3
-2.7861616611480717,8.838200569152832,-2.515929698944092,-1.2075530290603638,0.4636467000000001,0.5164866,3
-3.5206291675567627,7.116317272186278,-2.583491086959839,-0.991225004196167,0.77824235,-0.12980886,3
-3.9689447879791264,5.741499423980713,-2.7068328857421875,-0.8029848337173462,0.75808376,-0.86315256,3
-3.732312440872192,4.99298095703125,-3.3183794021606445,-0.5568875670433044,-0.3005457,-1.3045027,3
-2.9764211177825928,4.7455925941467285,-4.1929473876953125,-0.027212891727685932,0.45753807,-1.3497068,3
-2.0768425464630127,4.825972557067871,-4.270223140716554,0.6726053357124329,1.0647382,-1.4602734,3
-1.1101018190383911,5.626012802124023,-3.66185474395752,1.2472336292266846,0.47739118,-1.312444,3
-0.3953728377819061,7.434865951538086,-2.943462371826172,1.7375307083129885,0.26939157,-1.928807,3
0.22291316092014316,9.5706787109375,-1.9468642473220823,2.1996865272521973,-1.5418239,-1.8466456,3
0.6882342100143433,11.470086097717285,-1.394863486289978,2.4462454319000244,-0.5186246,-1.423316,3
0.8840442299842834,13.041974067687988,-1.3574663400650024,2.401331186294556,0.3387248,-1.9532416,3
1.0550438165664673,14.317069053649902,-1.3584574460983276,2.2167701721191406,-0.8793405000000001,-1.9336939,3
0.5242505669593811,15.31019687652588,-1.8237643241882324,1.9925594329833984,-0.40133846,-2.4397957000000003,3
-0.3794499635696411,16.026262283325195,-2.420776128768921,1.7657666206359863,0.9450085,-1.4688255,3
-1.0026665925979614,15.999414443969727,-2.839604616165161,1.6092629432678225,1.5628988,-1.0815369,3
-0.9085752367973328,14.886153221130373,-3.020602941513061,1.4474421739578247,2.31915,-0.59498274,3
-0.2787734866142273,12.90843391418457,-2.7467610836029053,1.2184126377105713,2.6435194,0.12156218,3
0.7040744423866272,10.644354820251463,-2.1293301582336426,0.9020652770996094,1.7595973000000005,1.1704178,3
1.5237226486206057,8.300491333007812,-1.3707185983657837,0.5452574491500854,0.20738874,1.9486601000000003,3
1.574677586555481,6.035632133483888,-0.7615324854850769,0.14996029436588287,-0.3359759,2.3558018,3
0.9584465026855468,4.253640651702882,-0.5814735293388367,-0.20756730437278748,-0.26389378,1.981036,3
0.3280637860298157,3.3199775218963623,-0.95017272233963,-0.4702682793140411,-0.13775012,0.6609562,3
-0.20040500164031985,3.594592571258545,-1.7596297264099119,-0.5696126818656921,-0.48349985,-0.59773165,3
-0.6409395933151245,4.59183931350708,-2.4797558784484863,-0.3703422844409943,-2.0121900000000004,-1.135904,3
-0.7073563933372498,4.858366966247559,-1.5783674716949463,-0.013303116895258428,-4.0112467,-1.5344934,3
0.1986161917448044,4.165682792663573,-0.3164809048175812,0.11045201122760773,-1.2742649,-1.7195857,3
1.4816190004348757,3.9983720779418954,0.4086031913757324,-0.15553410351276398,-1.7174476000000003,-0.22143865,3
2.423937559127808,5.4724998474121085,0.826981782913208,-0.3203578293323517,1.4905111999999998,1.632232,3
2.9125258922576904,7.805830955505371,1.3539894819259644,-0.6746755242347717,4.9244900000000005,4.220773,3
2.491640567779541,9.74156093597412,1.9962079524993896,-1.081202745437622,1.6673566999999998,2.2757785,3
1.3800927400588991,10.389204978942873,1.7713559865951538,-1.3239459991455078,-2.6627617000000003,1.2428053999999995,3
0.7011646628379822,10.6242036819458,0.4247102737426758,-1.0711832046508791,0.44837508,0.5839871999999999,3
0.2571368813514709,11.65129852294922,0.2286573946475983,-0.8806319236755371,1.7415768,0.80909103,3
-0.29453131556510925,13.008675575256348,1.3921232223510742,-1.267537236213684,-0.42546764,0.19272798,3
-0.8172784447669983,14.223773002624512,2.091049194335937,-1.8879015445709229,-2.2058344,0.2883284,3
-1.0256253480911257,15.032430648803713,1.5988316535949707,-2.43310022354126,-3.9782598,0.5647449000000001,3
-0.9024854302406312,15.143529891967773,-1.197400450706482,-2.6054835319519043,-1.534188,1.1737776000000002,3
-1.1075271368026731,14.727331161499025,-3.53029203414917,-2.053354501724243,1.3833044,1.185384,3
-1.97093665599823,13.39268684387207,-3.2015490531921387,-1.6563386917114258,-0.52595496,0.7101309,3
-2.7138710021972656,11.203051567077637,-2.9635415077209477,-1.3540351390838623,-1.7666223,0.57726765,3
-3.3611974716186523,8.793366432189941,-3.2167024612426762,-1.0091029405593872,0.09712757,0.35888332,3
-3.9204528331756587,6.919468402862549,-3.2208800315856934,-0.6647967696189879,0.017104227,-0.3921755,3
-4.173497200012207,5.65199613571167,-3.24679970741272,-0.3511171340942383,-0.16676621,-0.97158116,3
-4.007734775543213,4.863707065582275,-3.4982540607452397,0.04234371334314346,0.076358154,-1.3426818,3
-3.4993212223052983,4.458543300628662,-3.69267201423645,0.5136955380439758,-0.24678956,-1.5589281,3
-2.7979679107666016,4.413285732269287,-3.774155139923096,1.0071816444396973,0.462425,-1.7626517,3
-1.7952429056167605,5.303900718688965,-3.4671835899353027,1.4608918428421018,0.5757405,-1.7846428,3
-0.6987622380256653,7.4026994705200195,-2.473582029342652,1.8615331649780276,-1.0002918,-1.6319264999999998,3
0.22313545644283292,9.604012489318848,-1.5548875331878662,2.09695053100586,-2.4297166,-1.5448782,3
0.4974589645862579,11.510066032409668,-2.333795547485352,1.9278593063354488,0.98563105,-1.783421,3
0.21508386731147766,13.076949119567873,-2.4324445724487305,1.895274519920349,-0.105374254,-1.9339994,3
-0.5472281575202942,14.34471321105957,-2.692111730575561,1.830610036849976,-0.6939429,-2.1407773,3
-1.5843504667282104,15.319021224975586,-3.087529182434082,1.7036445140838623,0.3390302,-1.5632042,3
-2.577495813369751,15.764752388000488,-3.417555332183838,1.4944410324096682,0.9923506,-1.2614367,3
-3.121373414993286,15.368741035461426,-3.734739065170288,1.2705562114715576,2.1859813,-0.80848014,3
-2.7528226375579834,13.766246795654295,-3.625469207763672,1.0344825983047483,3.3670892999999995,-0.17501289,3
-1.829851746559143,11.911325454711914,-3.0460972785949707,0.7772606015205383,3.3130276,0.6704246,3
-0.7613966464996338,10.023837089538574,-2.1396312713623047,0.4907610714435578,1.8127426,1.3338243,3
-0.03781987354159355,7.9246649742126465,-1.2924803495407104,0.12850388884544373,0.1282817,1.8057177,3
0.2747308015823364,5.894681930541992,-0.8511204123497009,-0.26961639523506165,-0.4642576,1.9236146,3
0.2831472456455231,4.254548072814941,-0.7212342619895935,-0.6147294044494629,-1.1117748,1.2125676,3
0.24967391788959506,3.735251665115357,-1.2318594455718994,-0.8623007535934448,-1.1249083,0.12980886,3
0.13214874267578125,4.438762664794922,-2.1332316398620605,-0.8463440537452698,-1.2162327,-0.83291477,3
-0.12390318512916565,5.237995624542236,-2.207741498947144,-0.5437406897544861,-3.6615262,-1.5323554,3
-0.14719444513320926,5.058434963226318,-0.9433884024620056,-0.2518555819988251,-3.2598825,-1.8829921000000005,3
0.7358371019363403,4.605918884277344,-0.0915943831205368,-0.289795458316803,-1.9413297,-1.541213,3
2.1645596027374268,5.6873836517333975,0.33900126814842224,-0.4228028059005737,-1.1239921,1.38025,3
3.167264699935913,7.920814037322997,0.1413455307483673,-0.4852374792098999,3.0967813,3.9330559,3
3.1486778259277344,9.766511917114258,0.2622765600681305,-0.6610550880432129,3.2980614,3.1047225,3
1.856306791305542,10.445857048034668,0.8347505331039429,-0.7546418905258179,1.7886133999999998,1.9569068,3
0.3893359899520874,11.434208869934082,1.4207415580749512,-0.8525798916816711,0.00030543262000000003,1.2345587,3
-1.0101351737976074,12.783703804016113,2.033377170562744,-0.988622784614563,0.1386664,0.37782016,3
-1.894890546798706,14.024115562438965,2.4101336002349854,-1.5092853307724,-2.4981334,-0.16310102,3
-1.919833302497864,15.086069107055664,1.4630581140518188,-2.1413047313690186,-2.0665572,0.46486846,3
-1.2541052103042605,15.81463623046875,-0.7229530215263367,-2.5184693336486816,-1.3197743999999998,1.2458596000000002,3
-1.2801417112350464,15.679315567016602,-2.649001121520996,-2.238166332244873,0.9410379,1.5778649,3
-2.1282939910888667,14.720643997192385,-2.7971835136413574,-1.8237632513046265,0.08216137400000001,1.0173961,3
-2.8695948123931885,12.967601776123047,-2.59490704536438,-1.5655198097229004,-1.0961976999999998,0.70280045,3
-3.330991506576538,10.63291072845459,-2.8638799190521236,-1.30926513671875,0.016798794,0.28588495,3
-3.728225708007813,8.413156509399414,-2.84933876991272,-1.0486736297607422,0.19333886,0.095294975,3
-4.0743980407714835,6.691879749298097,-2.759766101837158,-0.8156306147575378,0.10170906,-0.47067168,3
-4.276660442352295,5.380859851837158,-2.982806205749512,-0.5661925673484802,0.18906279,-1.1157454,3
-4.1449031829833975,4.577652454376222,-3.417348623275757,-0.16871805489063266,0.29382620000000004,-1.4514158,3
-3.6817219257354736,4.294163703918457,-3.72713303565979,0.3865934908390045,0.05497787,-1.6710218,3
-2.978574275970459,4.514148712158203,-3.699281454086304,0.9667025208473206,0.5137377000000001,-1.720502,3
-1.98187255859375,6.037708282470702,-3.2535707950592037,1.4328759908676147,0.5412266,-1.7712038,3
-0.9574319124221802,8.271241188049316,-2.3961546421051025,1.8269551992416384,-1.4746287,-2.6438248,3
0.26080960035324097,10.37314510345459,-1.6435704231262207,2.061251401901245,-2.053118,-2.0983222,3
1.0032086372375488,12.146380424499512,-2.152862787246704,1.970463991165161,0.08827003,-1.8881844,3
1.252606749534607,13.592196464538574,-2.053182601928711,2.0354504585266118,-0.045814894,-1.6077974,3
0.26434847712516785,14.740670204162598,-1.8481755256652832,1.942981481552124,-0.9605856,-1.8307631,3
-0.9362751245498656,15.63136100769043,-1.910745978355408,1.7674462795257568,-0.18967366,-1.1710287,3
-1.9078971147537231,15.80193042755127,-2.132293939590454,1.5147770643234253,0.7910705,-0.8567385000000001,3
-2.435219049453736,15.048524856567385,-2.5392158031463623,1.2768408060073853,2.1920900000000003,-0.31642818,3
-2.2577133178710938,13.549161911010742,-2.789177656173706,1.0597378015518188,2.9126055,0.27366763,3
-1.5055137872695925,11.601314544677734,-2.46277403831482,0.8332427144050598,2.6410758,1.2223413,3
-0.5209448933601379,9.430027961730957,-1.6454514265060425,0.5739210247993469,1.244027,2.0552561000000003,3
0.05816035345196724,7.105673313140869,-0.6367958784103394,0.2762708365917206,0.02107485,2.5240953,3
0.03655172511935234,5.0033721923828125,0.03140812367200852,-0.03658445179462433,-0.7098253999999999,1.8729129,3
-0.20265595614910129,3.815164804458618,-0.5471813678741455,-0.38189074397087097,-0.6282749,0.6075055,3
-0.6813196539878845,4.034895420074463,-1.7939208745956419,-0.5524696111679077,0.2003638,-0.7293731,3
-1.4354194402694702,4.865325450897217,-1.987434983253479,-0.4241914749145508,-2.2241604,-1.5943583,3
-1.6684606075286863,5.1859540939331055,-1.1002683639526367,-0.14349767565727234,-5.512448,-2.1386392000000005,3
-0.46764275431633,4.845447063446045,-0.403868556022644,0.052239879965782166,-2.324953,-2.415972,3
1.6070212125778198,5.183999538421631,0.01274680346250534,-0.14671875536441806,-1.7886133999999998,-0.82741696,3
3.257978200912476,7.1549439430236825,0.29217860102653503,-0.20749107003211972,1.3500122,3.2895093,3
3.5884859561920166,9.37175178527832,0.6694377660751343,-0.44377443194389343,4.4501534000000005,4.297437,3
2.735787868499756,11.226750373840332,1.4450366497039795,-0.8014192581176758,1.3066407,2.4874432,3
0.9988670349121094,12.528846740722654,1.3155595064163208,-0.9550198316574096,-0.4810564000000001,1.5714508,3
-0.13163433969020846,12.927560806274414,0.825301468372345,-0.7686412930488586,1.0543534,0.97494096,3
-0.785949170589447,13.335707664489744,1.3477964401245115,-0.8447974324226379,0.49571714,0.54305923,3
-1.2300299406051636,14.34172534942627,1.852671265602112,-1.4318666458129885,-1.2232577,0.6426301999999999,3
-1.1932796239852903,15.301841735839846,0.9686519503593444,-2.0844883918762207,-1.9932534,0.6374379,3
-0.8243499398231506,15.679950714111328,-1.2109267711639404,-2.3913161754608154,-0.947452,1.4807373,3
-0.9711782336235046,15.098310470581055,-2.760818719863892,-2.0768866539001465,0.68875057,1.6792686,3
-1.8191081285476685,13.969390869140625,-2.8803341388702397,-1.7736828327178955,-0.83291477,1.3561208,3
-2.82458758354187,11.891724586486815,-3.092934846878052,-1.4591468572616575,-0.6386596,0.80939645,3
-3.8078689575195312,9.307710647583008,-3.3479154109954834,-1.1792465448379517,0.30909783,0.049480084,3
-4.607433795928955,7.280220508575439,-3.2597229480743413,-0.8916655778884888,0.1853976,-0.64660084,3
-4.958352565765381,5.878751277923584,-3.3490145206451416,-0.661083996295929,0.45142943,-1.5900823,3
-4.703936576843262,5.022942543029785,-3.632182121276856,-0.24706096947193146,0.74220127,-1.7128662,3
-4.010027885437012,4.6888461112976065,-3.644516468048096,0.3208725452423096,0.50732356,-1.8732183,3
-3.2205209732055664,4.992575645446777,-3.550339937210083,0.8429856300354004,0.50854534,-1.9260582,3
-2.224281549453736,6.3008670806884775,-3.368525266647339,1.253039836883545,0.6432411,-2.223244,3
-0.9697608947753906,8.383365631103517,-2.710955858230591,1.6737067699432373,-2.2928827000000003,-2.7818804,3
0.5331565141677856,10.48149585723877,-1.9519236087799072,1.9609559774398804,-2.2748623,-1.7143933,3
0.938858151435852,12.24761962890625,-2.645646333694458,1.8167186975479128,1.108415,-1.9443841,3
0.5353944301605225,13.65895938873291,-2.29091477394104,1.849897146224976,-0.23854288,-1.847562,3
-0.7384116649627686,14.635140419006348,-2.3926379680633545,1.822716474533081,-0.16340645,-1.6035212,3
-2.0847418308258057,15.401707649230955,-2.4113380908966064,1.668317198753357,0.34055737,-1.2345587,3
-2.8161084651947017,15.258626937866213,-2.5214731693267822,1.4090539216995241,1.1814133999999998,-0.8368853999999999,3
-2.7606337070465092,14.168442726135256,-2.824005126953125,1.1659175157546997,2.2504275,-0.28191432,3
-1.9696369171142576,12.2692289352417,-2.7541310787200928,0.9092374444007874,2.7940977000000005,0.25870144,3
-0.7196823358535767,10.088263511657717,-2.1499991416931152,0.5976448655128479,2.160325,1.3429873,3
0.4215528070926666,7.749176025390625,-1.1208689212799072,0.2653582990169525,0.16646078,2.0690005,3
0.8923843502998352,5.44145393371582,-0.15224258601665494,-0.09338396787643433,-1.0060950000000002,2.2974641,3
0.7453934550285339,3.63864016532898,0.2387983798980713,-0.3995752036571503,-1.4080443,1.5479325000000002,3
0.2095685601234436,2.98435115814209,-0.6162339448928833,-0.5862952470779419,-0.64476824,0.14110987,3
-0.5766474008560181,3.614584684371948,-1.9557991027832031,-0.5399398803710938,-0.6621779000000001,-1.0085385,3
-1.4510308504104614,4.382405757904054,-2.1003363132476807,-0.2512233555316925,-4.08791,-1.8057177,3
-1.6216360330581665,4.3847265243530265,-0.7490922212600708,-0.017769770696759224,-4.945565,-2.1514673,3
-0.2472939491271973,3.9969511032104488,0.04194573312997818,-0.03595084697008133,-1.1410962,-1.8726074,3
2.1221816539764404,5.682689189910889,0.3608191609382629,-0.3231009244918823,-1.3997977,1.4709635,3
3.1536939144134517,8.048172950744629,0.770670473575592,-0.4539707601070404,3.196047,4.895779599999999,3
2.5244824886322017,10.197091102600098,1.493293523788452,-0.8968176245689392,3.6080756,3.6251798,3
0.8647034168243408,11.602164268493652,1.2932291030883791,-1.0851954221725464,-2.1789563,1.5958854,3
-0.07552564144134521,12.34795093536377,0.3755196332931519,-0.7466109991073608,0.10415252,1.484708,3
-0.5320640206336975,13.093180656433105,0.3542051017284393,-0.4347507357597351,1.8225164,1.5662584,3
-1.24046790599823,13.911916732788086,1.2761216163635254,-0.6041911840438843,0.4990769000000001,0.8237518,3
-2.022075891494751,14.807405471801758,1.8688364028930664,-1.2152013778686523,-1.572978,0.591623,3
-2.4609103202819824,15.346163749694824,1.5342836380004885,-1.8758584260940552,-2.9880474,0.5369505,3
-2.3765642642974854,15.204717636108398,-0.6295283436775208,-2.1920809745788574,-1.6221527,1.2837333999999998,3
-2.4163172245025635,14.173954963684082,-3.0626235008239746,-1.8666263818740845,1.967597,1.3347405,3
-2.9310832023620605,12.840617179870605,-3.324556589126587,-1.5186821222305298,0.15577064,0.8445212,3
-3.389365673065185,11.09255599975586,-2.9171140193939213,-1.3437950611114502,-1.1508701,0.50915617,3
-3.726280689239502,8.720909118652344,-3.2268240451812744,-1.149993658065796,0.57818395,0.08460484,3
-4.14532995223999,6.5493831634521475,-3.2908878326416016,-0.8693512082099915,0.655153,-0.4822781,3
-4.401455879211426,5.058565616607666,-3.290006160736084,-0.6626498103141785,0.38759398,-0.9932669,3
-4.287267208099365,4.523125648498535,-3.804593324661255,-0.3789564073085785,-0.43279803,-1.5714508,3
-3.7562744617462163,4.561834335327148,-4.3561110496521005,0.22722239792346954,1.2073752,-1.575116,3
-3.0994372367858887,5.077219009399414,-4.249793529510498,0.9394205808639526,1.2754866000000002,-2.0018053,3
-2.290289163589477,6.412814617156982,-3.4816696643829346,1.4750531911849976,0.8365799999999999,-1.9856175,3
-1.135110855102539,8.438592910766603,-2.161284685134888,1.8543673753738403,-1.9507982,-2.5744915,3
0.3741239905357361,10.480473518371582,-1.180699586868286,2.166543245315552,-3.5277467,-1.5296066,3
1.0786947011947632,12.224227905273438,-1.4779258966445925,1.9317694902420044,0.25625798,-2.378404,3
0.8472898006439209,13.653667449951172,-1.5769799947738647,1.808332681655884,-0.50732356,-2.8964176,3
0.03070609457790852,14.697931289672852,-1.7175740003585815,1.7952743768692017,-0.32345316,-2.1090124,3
-1.1076003313064575,15.258140563964846,-1.840239405632019,1.7219005823135376,0.46303585,-1.4104879,3
-1.9549351930618288,15.11337947845459,-2.181864023208618,1.541667342185974,1.7657060000000002,-0.95142263,3
-2.014843463897705,13.827614784240724,-2.653735876083374,1.3599023818969729,3.1086931,-0.15271631,3
-1.3664965629577637,11.761314392089846,-2.4593710899353027,1.1300615072250366,3.1138856,0.6218608,3
-0.34947600960731506,9.404108047485352,-1.6331099271774292,0.8380067348480225,1.8994855,1.7415768,3
0.5016680359840393,6.980839729309082,-0.59102863073349,0.5033146739006042,0.49418998,2.4678955,3
0.8605890274047852,4.700461864471436,0.2139123827219009,0.16801854968070984,-0.08246681,2.4379632,3
0.774941086769104,2.9186127185821533,0.4108843207359314,-0.14099068939685822,-0.52503866,1.3240504,3
0.4634429812431336,2.4101483821868896,-0.5618181228637695,-0.3759416043758392,-0.1695151,0.1966986,3
-0.16095462441444394,3.245226621627808,-1.8202892541885376,-0.4017465114593506,-0.7593055000000001,-0.75991637,3
-0.8896353840827942,4.280774116516113,-2.141201496124268,-0.22011008858680725,-3.76293,-1.2522738000000002,3
-1.0456153154373171,4.5726518630981445,-1.0864485502243042,0.017153151333332062,-4.568966400000001,-2.1252002999999995,3
0.4962021708488464,4.500889778137207,-0.18619978427886966,-0.008151478134095669,-1.5253305,-1.6954565,3
2.289260149002075,5.5020246505737305,0.19033735990524286,-0.2657431960105896,-1.3741413,0.6062838,3
3.4040722846984863,7.66323184967041,0.5973830223083496,-0.3417920172214508,2.1798725,3.7574322,3
3.5218079090118413,9.851633071899414,1.3450958728790283,-0.7388375401496887,3.8084393,4.3795980000000005,3
2.5174574851989746,11.647503852844238,1.6905258893966677,-1.0089234113693235,1.044885,2.1218405,3
0.8913794755935669,12.623406410217285,0.7374996542930603,-1.1986336708068848,-0.14477506,1.4639386,3
-0.22482213377952576,13.017590522766113,-0.08446715772151947,-0.8764833211898804,0.8561276,0.83077675,3
-0.9833475947380066,13.777355194091795,0.290139764547348,-0.8000883460044861,1.3286319,0.5757405,3
-1.4829111099243164,14.76056671142578,0.987360954284668,-1.2918356657028198,-0.16676621,0.38362336,3
-1.6665099859237669,15.435858726501465,1.0798680782318115,-1.862699508666992,-2.1248949,0.49418998,3
-1.5734604597091677,15.400429725646973,-0.04059558734297752,-2.14310884475708,-1.8432859,1.0372492,3
-1.4500428438186646,14.631656646728516,-2.1193363666534424,-1.9551026821136477,0.7690793,1.2092078000000002,3
-1.7724236249923706,13.405041694641113,-3.030187129974365,-1.6402298212051392,0.1863139,1.0885619,3
-2.361985206604004,11.631690979003904,-3.071216583251953,-1.452073335647583,-0.8231409,0.68661255,3
-2.898577213287353,9.334005355834961,-3.21763277053833,-1.2595276832580566,0.6102544,0.37782016,3
-3.4255399703979488,7.402755260467528,-3.0045416355133057,-1.0018535852432249,0.7348709,-0.03390302,3
-3.851024627685547,5.927070140838622,-2.8755693435668945,-0.8081046938896179,-0.4175264,-0.72082096,3
-3.915045976638794,5.043942451477051,-3.532144784927368,-0.577434778213501,-0.79901177,-1.4987578,3
-3.393413543701172,4.698737621307373,-4.2028326988220215,0.00035197689430788165,-0.01160644,-1.5280794,3
-2.7275798320770264,4.743542194366455,-4.415631771087647,0.7137635946273804,0.4569272,-1.8048013,3
-1.976239800453186,5.423880100250244,-4.239345073699951,1.3198169469833374,0.6401868000000001,-1.9208658,3
-1.000151753425598,6.8851051330566415,-3.5763547420501713,1.7677248716354368,-0.09682214,-2.0066924,3
0.2256664037704468,8.925808906555176,-2.359592914581299,2.1515827178955083,-2.7440066,-1.9611828,3
1.2411032915115356,10.90455722808838,-1.5968445539474487,2.2416675090789795,-1.645671,-1.4556919,3
1.4508730173110962,12.574481010437012,-1.9840277433395384,2.223180055618286,1.1569787,-1.8365663,3
0.7576395869255066,13.93765354156494,-2.0290486812591557,2.1413848400115967,-0.61208695,-1.9779817,3
-0.5740589499473572,15.03145694732666,-2.297913074493408,2.032012939453125,0.18387043,-1.6972891,3
-1.7868138551712036,15.711858749389648,-2.455592632293701,1.823326587677002,0.95264435,-1.3356569,3
-2.461531400680542,15.48358917236328,-2.6157186031341557,1.5639050006866455,1.5763378,-0.8891144,3
-2.261120080947876,14.132341384887695,-2.762991189956665,1.3047549724578855,2.516154,-0.21655174,3
-1.450653314590454,12.06389617919922,-2.5035207271575928,0.9851576685905457,2.5378397,0.64843345,3
-0.405548632144928,9.820096969604492,-1.798849105834961,0.6245176196098328,1.3200798,1.5900823,3
0.3964850306510925,7.4612250328063965,-0.8469979166984558,0.20619547367095947,-0.33505958,2.0964894,3
0.6801468729972839,5.162578105926514,-0.1498459279537201,-0.22087495028972626,-0.94959,2.0228803,3
0.6049929261207581,3.254483461380005,0.1783466637134552,-0.6009185910224915,-1.4407257,1.0262536,3
0.49465411901474,2.556057929992676,-0.4761834740638733,-0.8778755068778992,-0.76144356,0.056199603,3
0.0940052717924118,3.261662483215332,-1.6589123010635376,-0.8433293700218201,-0.5271766999999999,-1.0833695,3
-0.6974869966506958,4.3949832916259775,-1.8149309158325195,-0.5384421348571777,-3.8460076,-1.428203,3
-0.9075244665145874,4.396078109741212,-0.874823272228241,-0.18341214954853055,-5.177999,-1.7928895,3
0.4343617260456085,4.640960693359375,-0.7121938467025757,-0.11831866949796675,2.468201,3.9550471,3
1.0320773124694824,7.329245567321777,-0.25822171568870544,-0.4844097793102264,6.290385,4.498717299999999,3
0.4865833520889282,8.98336124420166,0.7538381814956665,-0.7832375168800354,1.1753048,1.9016235,3
-0.3446713984012604,9.745677947998047,0.974782407283783,-0.9826146960258484,-1.9963076,1.3222178,3
-0.9178882241249084,10.529083251953123,0.527188777923584,-0.6690773367881775,-0.12492194,0.7076874,3
-1.3823659420013428,11.914999008178713,1.0184518098831177,-0.7469785809516907,1.6151277,0.5531385,3
-1.732958436012268,13.314532279968262,1.8279813528060915,-1.420961618423462,-1.7088956000000002,0.79076505,3
-1.956037521362305,14.387551307678224,1.4595689773559568,-2.0822124481201167,-2.939789,0.47769663,3
-1.8305253982543943,14.79161262512207,-0.7261886596679688,-2.1844582557678223,-0.2519819,1.3967434,3
-2.3327558040618896,14.153189659118652,-2.018594026565552,-1.7738497257232666,1.4376713,1.4743233,3
-3.267354726791382,12.726761817932127,-1.882834792137146,-1.4502278566360474,-0.3155119,1.2596041,3
-4.007750988006592,10.60036849975586,-2.1461024284362797,-1.309554934501648,-0.47311515,0.63163465,3
-4.495118618011475,8.53209114074707,-2.920829057693481,-1.163523554801941,0.6960809,0.00030543262000000003,3
-4.752775192260742,6.8881592750549325,-3.206682682037353,-0.8320409059524536,0.95172805,-0.56230146,3
-4.80201530456543,5.53187894821167,-3.1190824508666988,-0.5533447265625,1.4291192,-1.0375546,3
-4.593604564666748,4.510254859924316,-2.9525017738342285,-0.27328920364379883,0.42088616,-1.4727961,3
-4.010908603668213,4.077547550201416,-3.0320444107055664,0.13669538497924805,-0.28313604,-1.6508633,3
-3.217538595199585,4.264407157897948,-3.288873672485352,0.6698203682899475,0.31581733,-1.78617,3
-2.194467306137085,5.37144136428833,-3.4156410694122314,1.1747040748596191,0.8509353000000001,-1.7088956000000002,3
-1.0365222692489624,7.342937469482423,-2.9715445041656494,1.6455103158950806,-0.6395759,-2.1933117,3
0.2538216710090637,9.504105567932127,-1.9324045181274412,2.1752545833587646,-3.1215215,-2.0271564,3
1.3878353834152222,11.418357849121096,-1.2720487117767334,2.2200424671173096,-0.20311269,-1.4358387,3
1.3344467878341677,12.999799728393555,-1.4646700620651243,2.01792311668396,1.2394456,-2.5411994,3
0.7490395903587341,14.114623069763185,-1.3498352766036987,1.9905152320861816,-0.7495316,-1.7311921,3
-0.5469039082527161,14.862319946289062,-1.4274842739105225,1.855415105819702,0.07086037,-1.321607,3
-1.6414713859558103,15.424933433532715,-1.465311884880066,1.6302597522735596,0.77304995,-1.1200215,3
-2.1109659671783447,15.267786026000975,-1.7246583700180054,1.3613678216934204,1.8625281,-0.79504114,3
-1.8403079509735107,13.930536270141602,-1.979663372039795,1.077106237411499,2.7968466,-0.2098322,3
-0.9131155014038086,11.501983642578125,-1.7457066774368286,0.7794471979141235,2.4312437,0.7870999,3
0.06435775756835938,8.91927433013916,-1.0491023063659668,0.4704708456993103,1.2770138,1.9294178,3
0.6722427010536194,6.43148946762085,0.019245151430368423,0.15201908349990845,-0.2098322,2.4700336,3
0.8579277396202087,4.2179155349731445,0.8739808201789856,-0.1631573587656021,-0.88697636,1.9672915,3
0.9908431172370912,2.893558979034424,0.2354358583688736,-0.4799320101737976,-0.19547687,0.75961095,3
0.6375899910926819,2.9956533908843994,-1.1172933578491209,-0.6230378746986389,0.31398472,-0.6792821,3
-0.2780746817588806,4.099639892578125,-2.027365207672119,-0.4894906580448151,-0.84604836,-1.4074335,3
-1.2360670566558838,4.708080291748047,-1.608818531036377,-0.11241303384304048,-5.872553,-1.8191566000000003,3
-0.846994936466217,4.0876946449279785,-0.6085191965103149,0.210317000746727,-3.2134566,-2.3160956,3
1.0233275890350342,3.567549228668213,0.19110064208507535,0.06552097201347351,-2.4165828,-1.2049317,3
3.1407179832458496,4.717582702636719,0.8776811957359314,-0.03524768352508545,-1.8866574,1.8747455,3
4.547378540039063,7.046653270721436,0.8968097567558289,-0.2259382605552673,5.332854,5.9531875,3
4.134570598602295,9.35411262512207,0.9335520267486572,-0.769306480884552,7.239364,2.85213,3
2.145891666412353,11.071457862854004,1.8422399759292605,-1.199504017829895,-4.4681739999999985,1.4248432,3
0.5173496603965759,11.42154598236084,0.906381905078888,-0.8476483225822449,-0.7855727,0.09193522,3
-0.3795223236083984,12.255743026733398,0.7389267086982727,-0.5122968554496765,2.5121834,0.7483099,3
-1.101534128189087,13.467158317565918,1.289779543876648,-0.8801595568656921,2.28036,0.43493605,3
-1.4932658672332764,14.536767959594727,1.9151716232299805,-1.5428857803344729,-1.6187929,0.28710666,3
-1.4866827726364136,14.973169326782227,1.0065648555755615,-2.0123610496521,-3.9736784,0.4990769000000001,3
-1.28082275390625,14.683282852172852,-1.824980974197388,-2.1582107543945312,0.91813046,1.1209377,3
-1.4839149713516235,13.661075592041016,-3.0322573184967037,-1.7683426141738892,1.1771374,1.2657127,3
-2.1636731624603267,12.238798141479492,-2.8806242942810063,-1.4715903997421265,-0.07971791,0.9071349,3
-2.7338521480560303,10.199990272521973,-2.989210605621338,-1.3614646196365356,-0.14508049,0.3222314000000001,3
-3.1429147720336914,8.218852996826174,-3.268634796142578,-1.122175693511963,0.16707164,-0.105374254,3
-3.4266602993011475,6.6360697746276855,-3.326887845993042,-0.7539109587669373,0.6007859999999999,-0.62980205,3
-3.5047380924224854,5.3635220527648935,-3.1692025661468506,-0.43423762917518616,-0.26175576,-0.8891144,3
-3.4088225364685063,4.4958767890930185,-3.2283880710601807,-0.06125713884830475,-0.6936375,-1.2431108,3
-3.026362895965576,4.160918712615967,-3.530216693878174,0.4586036503314972,-0.34666604,-1.378112,3
-2.473593473434448,4.3228487968444815,-3.708130598068237,1.0211929082870483,-0.06291912,-1.5479325000000002,3
-1.8560078144073489,5.107765197753906,-3.683282375335693,1.5640690326690674,0.66339964,-1.6963727,3
-1.2766964435577393,6.721385955810548,-2.9945106506347656,2.073505163192749,-0.6038403,-1.992337,3
-0.8735926151275635,8.947383880615234,-2.0719711780548096,2.3369126319885254,-1.2321151,-1.6102408,3
-0.8735639452934265,10.984935760498047,-2.825277090072632,2.029620409011841,2.0451767,-2.3787093,3
-0.243952751159668,12.65577793121338,-2.78598690032959,1.9714066982269287,-0.9804387,-1.7721201000000002,3
-0.3983807563781738,14.005207061767578,-2.784817695617676,1.8664655685424805,-0.90224797,-1.7785342,3
-1.1897789239883425,15.06105136871338,-2.807917594909668,1.6290581226348877,-0.57757306,-1.3439035,3
-1.968239426612854,15.518450736999512,-2.927555799484253,1.3249107599258425,0.20799962,-1.1658363,3
-2.269723653793335,15.096184730529785,-3.3461399078369136,1.0673679113388062,1.7397442,-0.5726861999999999,3
-1.9034327268600464,13.590858459472654,-3.6487119197845463,0.8709776401519775,2.4975226000000004,0.3203988,3
-0.9935797452926636,11.65109634399414,-3.5408000946044917,0.7094907760620117,2.6374106,1.2678508,3
0.025928575545549396,9.561954498291016,-2.8345823287963867,0.5727638602256775,1.509448,2.0384574,3
0.6068446040153503,7.350654125213622,-1.7252382040023804,0.4010222554206848,0.089186326,2.4819455,3
0.6040839552879333,5.30951738357544,-0.9412910342216492,0.1651087999343872,-0.8888089,1.8353447,3
0.3035228252410889,4.136767864227295,-1.1555017232894895,-0.13139863312244415,-0.7626653,0.49571714,3
-0.4951394200325012,3.9889941215515137,-1.8914823532104488,-0.3611645400524139,-0.47769663,-0.6453791,3
-1.6931483745574951,4.434959888458252,-1.6140161752700806,-0.4027315676212311,-2.7889054,-1.5302174,3
-2.1435203552246094,4.50092077255249,-0.14207947254180908,-0.2902258038520813,-5.5704803,-1.9520199,3
-1.050838828086853,3.9206717014312735,0.08866419643163681,-0.17057572305202484,-1.1230757,-1.6270396,3
0.9634666442871094,3.999844312667847,-0.10693333297967912,-0.4582335948944092,0.15271631,-0.24709499,3
2.6352035999298096,5.8459882736206055,0.43742790818214417,-0.5358642935752869,-0.675617,3.1386256,3
3.2837939262390137,8.229313850402832,0.6280815005302429,-0.6772007346153259,3.5494324999999995,5.7965,3
2.7300984859466557,10.113691329956056,0.8665392398834229,-0.9146043658256532,5.255579,2.1618521,3
1.6178205013275146,10.854533195495604,0.9950502514839172,-1.2019690275192259,-1.1319333,1.1814133999999998,3
0.6462034583091736,11.449875831604006,0.3938904404640198,-1.0088469982147217,-1.1557571000000002,0.9059132,3
-0.3243694603443146,12.576162338256836,0.3507167100906372,-0.8001971244812012,1.110553,0.9605856,3
-1.2608487606048584,13.825758934020994,0.9060571193695068,-1.1841660737991333,1.3060299,0.5732970000000001,3
-1.830522894859314,14.865739822387695,1.2703458070755005,-1.78178870677948,-1.3448198,0.44501534,3
-1.9509761333465576,15.177263259887695,0.5203763842582703,-2.1432368755340576,-2.5363126,0.6053675000000001,3
-1.6250489950180054,14.524765014648438,-1.7164353132247925,-2.0557692050933842,0.8216136999999999,0.8371908000000001,3
-1.3154733180999756,13.426063537597654,-3.0015332698822017,-1.6824764013290403,0.4166101,1.1050552,3
-1.4410265684127808,12.18922233581543,-2.8577380180358887,-1.4211013317108154,-1.1557571000000002,1.3756685,3
-2.1348938941955566,10.077536582946776,-3.121495723724365,-1.267153263092041,-0.13439035,0.8527679,3
-2.9649088382720947,8.068867683410645,-3.1998412609100337,-1.0327979326248171,0.011301007,0.06872234,3
-3.5242917537689213,6.392253875732423,-3.158046007156372,-0.7682848572731018,0.4615087000000001,-0.48838675,3
-3.875266551971436,5.043967723846436,-3.1214311122894287,-0.543230414390564,0.2003638,-0.9468411,3
-3.9444489479064937,4.3097429275512695,-3.239629030227661,-0.23897096514701846,-0.8402450999999999,-1.6282613,3
-3.5588133335113525,4.186980247497559,-3.511711835861206,0.3354376554489136,0.26206118,-1.6667458,3
-2.9191601276397705,4.731322288513184,-3.5774853229522705,0.9506175518035888,0.7049385,-1.8387043,3
-2.0939569473266597,6.25369930267334,-3.252739429473877,1.4218138456344604,0.31520647,-2.3096814,3
-0.8706083297729492,8.439238548278809,-2.5192222595214844,1.7676554918289185,-1.7009543000000005,-2.8221974,3
0.6175424456596375,10.510882377624512,-2.065560340881348,2.0373885631561284,-1.6548339,-1.5741998,3
1.620158314704895,12.255738258361815,-2.098742723464966,2.137530565261841,0.41783184,-0.8472700999999999,3
1.4121605157852173,13.681711196899414,-1.558408498764038,2.0811893939971924,-0.7330383,-2.117259,3
-0.12624621391296387,14.832585334777832,-1.69981849193573,1.8991432189941408,-1.1340714,-2.1126773,3
-1.5250912904739382,15.727943420410154,-2.1823246479034424,1.7484840154647827,0.06414085,-1.6566665,3
-2.351375102996826,15.904698371887207,-2.661077976226806,1.5728445053100586,1.1691961000000002,-1.178359,3
-2.5125067234039307,15.146656036376953,-2.9199023246765137,1.4065052270889282,2.4871378,-0.7910705,3
-1.9711235761642456,13.516416549682615,-2.7479679584503174,1.1719270944595337,3.150232,-0.20189096,3
-0.8917065262794495,11.432718276977539,-2.0730786323547363,0.8696655035018921,2.510656,0.65668017,3
0.3427267074584961,8.990748405456543,-1.143696904182434,0.5234413743019104,0.66248333,1.4425583,3
0.9798985719680786,6.605690956115723,-0.4254799485206604,0.12716753780841827,-0.40591997,2.0494528,3
0.648357093334198,4.385972976684569,-0.2254538685083389,-0.20975960791110992,-0.33414328,1.8417587,3
0.2660906910896301,2.914423942565918,-0.7344241142272949,-0.4240257740020752,0.115453534,0.84849185,3
-0.09453721344470978,2.51966404914856,-1.6555371284484863,-0.5199615359306335,0.5332854,-0.16371189,3
-0.5287867188453674,2.913672924041748,-1.960926175117493,-0.4042705595493317,-1.5482379,-0.8347474,3
-0.7909207940101624,3.3842046260833736,-1.438581109046936,-0.12303034961223602,-4.2723913,-1.2730431999999998,3
-0.1467568725347519,3.4631314277648926,-0.723392128944397,0.06705866008996964,-2.160325,-1.5033393999999998,3
1.3520565032958984,3.73029899597168,-0.1896537095308304,-0.09422030299901962,-1.0085385,-0.5006041,3
2.5471112728118896,5.290105819702148,0.3076918721199036,-0.2439163774251938,-0.5412266,1.7767016,3
3.178980588912964,7.61841869354248,0.6654772162437439,-0.3642010688781738,4.745812,4.340503,3
2.8623831272125244,9.776389122009276,1.2329455614089966,-0.7641667127609253,4.1993933,2.6563475,3
1.763891100883484,10.835387229919434,1.6214642524719238,-1.1586315631866455,-1.01312,1.3753631000000002,3
0.7931203246116638,11.139139175415039,0.8403781056404114,-1.0636858940124512,0.45631635,0.68875057,3
0.2941212654113769,11.811863899230955,0.5570388436317444,-0.7552466988563538,1.2253957,0.39064834,3
0.2256860285997391,13.043991088867188,1.287095546722412,-0.8845685124397278,0.44104472,0.5363397,3
0.10396413505077362,14.27763557434082,2.2707693576812744,-1.4943612813949585,-3.0274482000000003,0.72234815,3
-0.03913014754652977,15.127306938171387,0.8157490491867065,-2.2286534309387207,-3.3374622000000005,0.68783426,3
-0.1628531664609909,15.104982376098633,-2.131723403930664,-2.3060390949249268,-0.8237518,1.676825,3
-1.2176460027694702,14.626020431518555,-3.0850670337677,-1.738744616508484,0.9025534,1.432479,3
-2.6200940608978267,13.427870750427244,-2.554443597793579,-1.4575568437576294,-1.9462167,1.1786644,3
-3.772474527359009,11.143317222595217,-3.068883419036865,-1.3011122941970823,0.07666359,0.32559118,3
-4.357943534851073,8.99847412109375,-3.479360342025757,-1.1122244596481323,-0.098043874,-0.06414085,3
-4.7480735778808585,7.314453125,-3.5229854583740234,-0.8201016783714294,0.41080686,-0.49480084,3
-4.983634471893311,5.982211112976074,-3.3886339664459233,-0.5901252627372742,0.20463985,-0.8552113000000001,3
-4.947364807128906,5.163744449615479,-3.538938283920288,-0.333566814661026,-0.25625798,-1.4724906999999998,3
-4.43302583694458,4.768492221832275,-3.900901556015015,0.14744803309440613,0.4783075,-1.5741998,3
-3.676435708999634,4.699746608734131,-4.00144624710083,0.7274613976478577,0.6740898,-1.6737707999999998,3
-2.7479686737060547,5.205389499664307,-3.779693126678467,1.2759032249450684,1.2110404,-1.8133535,3
-1.5451112985610962,6.628203868865968,-2.8495025634765625,1.7454516887664795,-0.41783184,-2.2049181,3
-0.16796106100082395,8.763484954833983,-1.6855274438858032,2.0921671390533447,-3.261104,-2.4162774,3
1.1303662061691284,10.779522895812988,-1.5789783000946045,2.115618705749512,-1.2901474,-1.425454,3
1.616390585899353,12.476919174194336,-2.2714314460754395,1.9506678581237795,1.2754866000000002,-1.676825,3
1.2571102380752563,13.829000473022461,-2.0821821689605717,1.8523894548416135,-0.7498371,-1.8387043,3
0.14259590208530426,14.920822143554688,-2.327319860458374,1.6639297008514404,-0.5180137,-1.5372424,3
-0.9113226532936096,15.688075065612793,-2.638939380645752,1.4176685810089111,0.63346726,-1.1997393,3
-1.427121639251709,15.345170021057127,-2.996208667755127,1.1196191310882568,1.4294246000000002,-0.7602218000000001,3
-1.1822690963745115,14.05068588256836,-3.222508192062378,0.8637958765029907,2.349693,-0.017715093,3
-0.3425869345664978,12.189518928527832,-2.8015780448913574,0.6108383536338806,2.2220223,0.79320854,3
0.8215027451515198,10.085171699523926,-2.0935719013214107,0.378912091255188,1.7250835,1.7424932,3
1.522127628326416,7.639055252075195,-1.2678953409194946,0.13342392444610596,0.43310347,2.3316727000000004,3
1.4037765264511108,5.26542854309082,-0.8003051877021791,-0.14913274347782135,-0.31703907,2.503631,3
0.8486576676368713,3.6641170978546143,-1.2787151336669922,-0.2970649898052216,-0.29810223,1.3469579,3
-0.014720211736857891,3.408337116241455,-2.226439476013184,-0.27237430214881897,0.13133603,-0.48166725,3
-0.9844053387641908,4.15006160736084,-2.7323594093322754,-0.15658101439476013,-0.945314,-1.3674219,3
-1.872182250022888,4.626709461212158,-2.0562143325805664,0.13899709284305573,-4.5625525,-1.6719381999999998,3
-2.0791914463043213,4.1576313972473145,-0.43193703889846796,0.3726654350757599,-3.4959817,-2.1664336,3
-0.6856186389923096,3.80458927154541,0.366398811340332,0.19743965566158292,-1.0858129,-1.647809,3
1.4110201597213743,5.1871304512023935,0.5339488983154297,-0.13768231868743894,1.8964312,1.457219,3
2.5841848850250244,7.560818672180176,0.6519436240196228,-0.4535933136940002,5.7378573,4.004527,3
2.3322231769561768,9.724394798278807,1.2440145015716553,-0.9076161384582521,1.1264355,2.5784621,3
1.514870524406433,10.672154426574707,1.0655372142791748,-1.1334106922149658,-0.43035457,0.9651671,3
1.2338875532150269,11.499960899353027,0.4107576906681061,-0.8994187712669373,0.90010995,1.0693196000000005,3
0.921558141708374,12.779497146606445,0.63372403383255,-0.7196798920631409,1.8979583,1.4327843999999998,3
0.14051051437854767,14.032361030578613,1.6108849048614502,-0.9465481042861938,0.5983425,0.54305923,3
-0.5692145228385925,15.030141830444336,2.1065666675567627,-1.5393365621566772,-2.008525,0.45142943,3
-0.8770765066146851,15.35775661468506,1.2839603424072266,-2.0944948196411133,-2.8661797000000004,0.70524395,3
-0.8289034366607666,14.722307205200195,-1.1849381923675537,-2.285364389419556,-0.79534656,1.1505647,3
-1.1115763187408447,13.503011703491213,-2.9937984943389893,-1.89267373085022,1.4184291,1.2971723,3
-1.905363202095032,12.076157569885256,-2.871875286102295,-1.5050368309020996,0.44043383,0.7330383,3
-2.5747668743133545,10.237236976623537,-2.2639319896698,-1.4032361507415771,-0.29565877,0.5342017,3
-3.1378097534179688,8.057529449462889,-2.529204845428467,-1.312544345855713,0.7284568,0.105374254,3
-3.649076223373413,6.443172931671143,-2.9017906188964844,-1.0926839113235474,0.74220127,-0.4529566,3
-3.8286211490631104,5.486635684967041,-3.133047819137573,-0.8086413145065308,0.9062186,-0.9297369,3
-3.6806063652038574,4.725583076477051,-3.148288488388061,-0.4566645920276642,-0.29810223,-1.3136656999999998,3
-3.192480564117432,4.281206130981444,-3.309596300125122,0.004630355164408685,-1.378112,-1.500285,3
