acc_x,acc_y,acc_z,gyro_x,gyro_y,gyro_z,label
0.0,0.0,0.0,0.0,-4.4269404,5.2962017,1
0.007594576105475427,0.2882612645626068,0.030337201431393623,-0.002231111750006676,0.7611380999999999,0.03726278,1
0.02507050707936287,0.9749658703804016,0.10217876732349396,-0.08648766577243805,0.7877107,0.035430185,1
0.04823271185159683,1.9242513179779053,0.200797975063324,-0.20642535388469696,0.75625116,0.05222898,1
0.07292243838310243,2.986068725585937,0.3102603554725647,-0.3468433916568756,0.68966687,0.08704830000000001,1
0.0959910973906517,4.039826393127441,0.41789448261260986,-0.4674698114395142,0.43249258,0.0711658,1
0.11565860360860825,5.009915828704834,0.5158905386924744,-0.4843932986259461,-0.048258353,-0.017104227,1
0.13121700286865234,5.860434532165527,0.6006356477737427,-0.3993428945541382,-0.0033597588,-0.004581489,1
0.1427215188741684,6.582649230957031,0.6714091897010803,-0.32816678285598755,-0.00580322,0.0012217305,1
0.1505117416381836,7.1830196380615225,0.7290087342262268,-0.26656946539878845,-0.021685716,0.0067195175,1
0.1552259922027588,7.675271987915039,0.7751849293708801,-0.2155878245830536,-0.022296581,0.016798794,1
0.15941902995109558,8.078073501586914,0.8146618008613586,-0.17126215994358066,-0.009162978,-0.0021380284,1
0.16393938660621646,8.407203674316406,0.8496794700622559,-0.13467799127101898,0.015271631,-0.007330383,1
0.16871607303619385,8.67558479309082,0.8809857368469238,-0.10747938603162767,-0.01038471,-0.007330383,1
0.17369307577610016,8.894339561462402,0.9092371463775636,-0.0887012630701065,-0.0143553335,0.0012217305,1
0.1788284331560135,9.072797775268556,0.934997260570526,-0.07417208701372148,-0.024740042,0.0061086523,1
0.1840898096561432,9.21866226196289,0.9587369561195374,-0.06353722512722015,-0.0036651916,0.008246681,1
0.18945111334323886,9.338226318359377,0.9808421134948729,-0.05314332246780396,0.0076358155,0.007330383,1
0.1948881149291992,9.436594009399414,1.001617670059204,-0.04472194239497185,0.00030543262000000003,0.018325957,1
0.20038601756095886,9.517905235290527,1.0213230848312378,-0.037123441696166985,0.008857545999999999,0.022602014,1
0.20593833923339844,9.585416793823242,1.0400174856185913,-0.032384786754846566,-0.009773844,0.034208454,1
0.2113773673772812,9.639789581298828,1.0543700456619265,-0.03178825229406357,-0.01282817,0.016798794,1
0.21668797731399536,9.682907104492188,1.0640183687210083,-0.0319933220744133,-0.0015271631,0.018936822,1
0.22190891206264496,9.716971397399902,1.0698599815368652,-0.027940729632973667,0.007330383,0.011911872,1
0.2270285040140152,9.743781089782717,1.0727014541625977,-0.021896466612815857,0.009468411,0.025961773,1
0.2320830374956131,9.764751434326172,1.073099970817566,-0.018304215744137764,0.007941248,0.021685716,1
0.23708435893058774,9.78103256225586,1.0715380907058716,-0.015057695098221304,0.0033597588,0.019547688,1
0.2420439422130585,9.793545722961426,1.0683993101119995,-0.011610153131186962,0.0036651916,0.0067195175,1
0.2469684481620789,9.803032875061037,1.0639969110488892,-0.01147437747567892,0.01160644,0.0009162979,1
0.2518652379512787,9.810089111328123,1.0585784912109375,-0.011731379665434359,-0.022296581,0.0018325958,1
0.25664663314819336,9.815229415893556,1.0524430274963381,-0.010972494259476662,-0.026572637000000003,0.018020526,1
0.2593362331390381,9.81963062286377,1.0480090379714966,-0.013067029416561128,-0.04428773,0.01985312,1
0.25961408019065857,9.823732376098633,1.0457651615142822,-0.015810953453183174,-0.025961773,0.018020526,1
0.2579537332057953,9.827590942382812,1.0452812910079956,-0.016409989446401596,-0.007941248,0.00061086525,1
0.25473251938819885,9.831256866455078,1.0462138652801514,-0.015024607069790363,0.018936822,0.010690141499999998,1
0.2502681612968445,9.834765434265137,1.0482766628265379,-0.015295778401196003,0.022602014,0.026267206,1
0.2447981387376785,9.83814811706543,1.0512526035308838,-0.01729729399085045,0.03023783,0.040927973,1
0.23851877450942996,9.841431617736816,1.0549627542495728,-0.01736569032073021,0.05467244,0.03848451,1
0.2315905839204788,9.844634056091307,1.059261918067932,-0.015181184746325016,0.06291912,0.02687807,1
0.22411133348941806,9.847780227661133,1.0640552043914795,-0.015637824311852455,0.06963864,0.025350908,1
0.2162912040948868,9.850817680358887,1.069162368774414,-0.01752406917512417,0.06169739,0.028405234,1
0.2089602053165436,9.852856636047363,1.073751449584961,-0.01888140290975571,0.03481932,0.032070424,1
0.20232127606868744,9.85374355316162,1.0776252746582031,-0.019946949556469917,0.03268129,0.034208454,1
0.19624075293540955,9.853708267211914,1.0809237957000732,-0.02241010032594204,0.014660766,0.03145956,1
0.19060784578323364,9.852931022644043,1.0837606191635132,-0.02411732263863087,0.008552114,0.028710667,1
0.18533706665039065,9.851560592651367,1.0862258672714231,-0.025936601683497432,0.0070249503,0.0290161,1
0.18034684658050534,9.84970474243164,1.0883952379226685,-0.027738066390156742,0.01863139,0.04153884,1
0.1755969077348709,9.847472190856934,1.0903232097625732,-0.02854937128722668,0.011301007,0.04917465,1
0.171032652258873,9.844929695129396,1.0920590162277222,-0.02845321781933308,0.016187929,0.056505036,1
0.16661760210990906,9.842138290405273,1.0936405658721924,-0.02868901751935482,-0.004581489,0.07086037,1
0.16240708529949188,9.83917236328125,1.0950862169265747,-0.0343535877764225,-0.03756821,0.06291912,1
0.16191062331199646,9.837207794189453,1.095915913581848,-0.041332826018333435,-0.039095376,0.07147124,1
0.1660594493150711,9.836577415466307,1.0960140228271484,-0.048063594847917564,-0.049480084,0.084910266,1
0.17394283413887024,9.837018966674805,1.0955239534378052,-0.05586980655789375,-0.0571159,0.092240654,1
0.18481899797916407,9.838319778442383,1.094562292098999,-0.06236691027879715,-0.06719518,0.093462385,1
0.19810006022453308,9.840312004089355,1.0932217836380005,-0.0672108456492424,-0.052839845,0.071776666,1
0.2133653461933136,9.842869758605957,1.0915703773498535,-0.07223600149154663,-0.039095376,0.05222898,1
0.23012955486774445,9.84586238861084,1.0896810293197632,-0.079173743724823,-0.01740966,0.046731193,1
0.24814219772815704,9.849212646484377,1.0875951051712036,-0.08271562308073044,-0.0021380284,0.061086524,1
0.26724910736083984,9.85287094116211,1.0853397846221924,-0.0819883719086647,0.02321288,0.074830994,1
0.287171870470047,9.856683731079102,1.0832533836364746,-0.07838291674852371,0.028710667,0.1020145,0
0.3102959096431732,9.859457015991213,1.0872997045516968,-0.07667507976293564,0.021991149,0.12156218,0
0.3369912505149841,9.860928535461426,1.0986706018447876,-0.07686570286750792,0.014660766,0.11881329,0
0.3665100634098053,9.861361503601074,1.115879774093628,-0.07914058864116669,0.007330383,0.12492194,0
0.3983079195022583,9.860956192016602,1.1377897262573242,-0.0866728276014328,0.034208454,0.14294247,0
0.4319374561309815,9.859878540039062,1.1634763479232788,-0.09694667160511017,0.04428773,0.15454891,0
0.4670538902282715,9.858259201049805,1.192212462425232,-0.1046014204621315,0.04428773,0.16157386,0
0.5033543705940247,9.856204986572266,1.2233878374099731,-0.11197083443403244,0.040011674,0.1695151,0
0.5406178236007689,9.853801727294922,1.2565344572067259,-0.12021883577108385,0.005497787,0.17256944,0
0.5786585807800293,9.851116180419922,1.2912682294845579,-0.12725341320037842,-0.01863139,0.17348573,0
0.6176385283470154,9.84832763671875,1.327204704284668,-0.13615502417087555,-0.010079277,0.18387043,0
0.6641855835914612,9.849754333496094,1.3639824390411377,-0.14765597879886627,0.00061086525,0.21655174,0
0.713084876537323,9.839314460754396,1.4011991024017334,-0.15895061194896698,-0.0036651916,0.22571471,0
0.7574356198310852,9.823150634765623,1.4360901117324831,-0.16714023053646088,-0.00061086525,0.23182335,0
0.7896624207496643,9.818170547485352,1.47467041015625,-0.17322631180286407,0.018936822,0.2556471,0
0.8197640180587769,9.833359718322754,1.540247678756714,-0.17847661674022675,0.055283304000000005,0.2669481,0
0.875771164894104,9.847381591796877,1.6332876682281494,-0.18306834995746613,0.07452556,0.28710666,0
0.958986520767212,9.837221145629883,1.7142375707626345,-0.1926455944776535,0.07147124,0.29382620000000004,0
1.0616989135742188,9.804755210876463,1.7770872116088867,-0.20156706869602206,0.06536258,0.28802297,0
1.160541296005249,9.76097297668457,1.819072723388672,-0.2138621211051941,0.09193522,0.2846632,0
1.2285736799240112,9.721678733825684,1.858428120613098,-0.22483015060424805,0.07513642,0.2932153,0
1.2755893468856812,9.713212966918944,1.9460521936416624,-0.23003430664539334,0.07513642,0.30024028,0
1.3561482429504397,9.77109432220459,2.0623793601989746,-0.23432256281375885,0.034513887,0.35613444,0
1.4668657779693604,9.877485275268556,2.183229684829712,-0.24460701644420624,-0.06750060599999999,0.4361577999999999,0
1.568112850189209,9.97043228149414,2.2826852798461914,-0.2603965699672699,-0.09560041,0.54458636,0
1.6487566232681274,10.050701141357422,2.3502066135406494,-0.28573206067085266,-0.14172074,0.6750060999999999,0
1.6981854438781738,10.164199829101562,2.385390281677246,-0.3246987462043762,-0.17745635,0.8176431,0
1.7103464603424072,10.266672134399414,2.3504178524017334,-0.37563171982765203,-0.28985557,0.94714653,0
1.6430858373641968,10.210989952087402,2.234755754470825,-0.4292640089988709,-0.27885997,0.93309665,0
1.5211753845214844,10.013554573059082,2.084185838699341,-0.4756952822208405,-0.14569137,0.86834496,0
1.3750072717666626,9.787028312683104,1.936706781387329,-0.5094366073608398,-0.0012217305,0.8170323,0
1.2637712955474854,9.630824089050293,1.8042492866516116,-0.5267796516418457,0.022907447,0.81489426,0
1.2311464548110962,9.560935974121094,1.6488056182861328,-0.5548871159553528,-0.09590584,0.8597928,0
1.1822524070739746,9.430871963500977,1.4800937175750732,-0.5965760350227356,-0.07666359,0.926988,0
1.0768702030181885,9.269513130187988,1.3208645582199097,-0.6191444993019104,0.112399206,0.9251554,0
0.9342357516288756,9.23740005493164,1.1993131637573242,-0.6137391328811646,0.18417588,0.915687,0
0.7525370717048645,9.328465461730957,1.1483304500579834,-0.6036857962608337,0.13225232,0.8689558000000001,0
0.5904495120048523,9.48442268371582,1.167856216430664,-0.6085574626922607,-0.059864793,0.8295549999999999,0
0.5419561862945557,9.59912109375,1.1928658485412598,-0.6292212009429932,-0.17562376,0.88514376,0
0.6073775887489319,9.58993434906006,1.169253706932068,-0.6704681515693665,-0.14905111,0.9831876,0
0.7101218104362488,9.449591636657717,1.1201509237289429,-0.7100725769996643,-0.017104227,1.031446,0
0.8180838823318481,9.301198959350586,1.0896859169006348,-0.7351966500282288,0.13164146,1.0302242,0
0.9270071983337402,9.215567588806152,1.100230693817139,-0.7620400786399841,0.22052236,0.977079,0
1.0297232866287231,9.20018196105957,1.1838974952697754,-0.7967202663421631,0.25992316,1.0091494,0
1.1454735994338991,9.213258743286133,1.3189982175827026,-0.8364449143409729,0.23273966,1.1606439,0
1.285799503326416,9.203568458557127,1.4410327672958374,-0.8857977986335754,0.20189096,1.350623,0
1.4243755340576172,9.151721000671387,1.4896606206893919,-0.9483705759048462,0.11728613,1.5164729,0
1.5200445652008057,8.992521286010742,1.4546294212341309,-1.021210789680481,0.18906279,1.6423112000000002,0
1.5137568712234497,8.71109676361084,1.4048004150390625,-1.089809775352478,0.20005837,1.6954565,0
1.4790018796920776,8.39640998840332,1.356748342514038,-1.1494302749633791,0.3378085,1.7608191000000002,0
1.4615066051483154,8.08431339263916,1.2718123197555542,-1.2133647203445437,0.5222898,1.8466456,0
1.4317175149917605,7.818557739257812,1.111911058425903,-1.3022795915603638,0.59589905,2.0164661,0
1.2982032299041748,7.598074436187744,0.8421648740768433,-1.4382342100143433,0.38515055,2.303573,0
0.889670729637146,7.366997241973878,0.2327791899442673,-1.6130688190460205,-0.035124752999999995,2.6481009,0
0.2621839940547943,7.0443058013916025,-0.5372422933578491,-1.7947037220001218,-0.11942416,2.7855456000000003,0
-0.6050259470939636,6.406146049499513,-1.166091799736023,-1.924512505531311,0.52656585,2.4245240000000003,0
-1.0639129877090454,4.976057529449463,-1.2812844514846802,-1.940219521522522,2.0433443,1.6814066000000003,0
-0.8713330030441284,2.761242628097534,-0.7355504035949707,-1.7685809135437012,2.1138992,0.6936375,0
-0.18815620243549347,-0.540909469127655,0.7827377319335938,-1.4224019050598145,0.799928,-0.5589417,0
0.8767069578170776,-3.930407047271729,2.6694276332855225,-1.043124437332153,0.4654793,-1.790446,0
2.275077104568481,-6.0006937980651855,4.099223136901856,-0.7518904805183411,0.3885103,-1.7366898999999998,0
3.725809574127197,-6.2602386474609375,5.173888206481934,-0.5548049807548523,-0.5821546,-0.66920286,0
4.774662971496582,-5.068398475646973,5.978661060333253,-0.4779467582702637,-0.6918049,0.31123585,0
5.3419461250305185,-2.8181443214416504,6.287229061126709,-0.5732852816581726,-0.22449298,0.03176499,0
5.672708511352539,-0.3254895806312561,6.1259193420410165,-0.4285949170589447,-0.7874053000000001,-1.2284501,0
5.371429920196533,1.4240880012512207,5.860684871673584,-0.19896364212036133,0.204029,-0.8436049000000001,0
6.8646812438964835,3.821089506149292,7.835421562194824,-1.143609881401062,4.2271876,1.5329663999999998,0
9.030603408813477,3.1920855045318604,9.671868324279783,-1.3807917833328247,-6.5387015,0.8213083000000001,0
10.93918514251709,1.6343140602111816,8.61723518371582,-0.8895549178123474,10.002308,1.8698585,0
10.82818603515625,-1.3828569650650024,4.6468467712402335,-1.286471247673035,-3.4901786,1.7702875,0
8.585649490356445,-4.6363701820373535,0.9195428490638732,-1.017187476158142,2.2708917,0.31795537,0
5.6284050941467285,-6.9005393981933585,-0.4275220930576325,-0.5302651524543762,5.2360315,-0.19364429,0
2.9550981521606445,-6.511073112487793,0.9339157342910768,-0.20274634659290314,4.7519207,-0.22449298,0
3.1906471252441406,-3.3270559310913086,3.7377216815948486,-0.38855916261672974,0.89552844,-0.66920286,0
4.504334449768066,0.0641220286488533,5.341198921203613,-0.5092452168464661,-2.2363777,-0.5571090999999999,0
5.121824264526367,0.7794492244720459,5.750844955444336,-0.5197846889495851,-1.9327776,-0.116980694,0
5.400877475738525,-0.6094645857810974,5.757986545562744,-0.477070152759552,-1.6881261000000003,0.35216382,0
5.3240394592285165,-2.5803067684173584,5.311177730560303,-0.3995915353298187,-0.42424592,0.1337795,0
5.239571571350098,-4.047548770904541,4.597517013549805,-0.2358935922384262,2.0522017,-0.5815437,0
5.490808963775635,-4.623466491699219,4.602914810180664,-0.025192683562636372,2.629164,-1.4608842,0
6.245768070220947,-4.27495813369751,5.530328750610352,0.08047055453062057,1.346347,-1.5873333,0
7.428687572479247,-3.152611494064331,6.7731781005859375,-0.045944679528474815,-0.4972443,-0.3827071,0
8.348862648010254,-1.3713594675064087,7.386181354522705,-0.3392902910709381,-0.75900006,0.59315014,0
8.434352874755861,0.3730118274688721,7.332304000854492,-0.4691037833690643,-0.82986045,0.17837265,0
8.06587028503418,1.5882509946823118,7.082207679748535,-0.3449322283267975,-0.87017757,0.08460484,0
7.4759769439697275,2.045371055603028,6.780309200286865,-0.15094874799251554,-0.20922135,0.19333886,0
6.92119026184082,1.9116770029067995,6.57973575592041,0.014902171678841112,0.75625116,0.301462,0
6.6593523025512695,1.6321578025817869,6.5005879402160645,0.07532718777656555,1.3213016000000002,0.17195857,0
6.64425802230835,1.3281091451644895,6.572677612304688,0.034125939011573785,0.8707884,-0.02076942,0
6.7965497970581055,0.9999434351921082,6.704131126403809,-0.0026915243361145262,0.28069258,-0.040011674,0
6.959348678588867,0.7373213171958923,6.780880928039551,0.0020037929061800237,-0.10415252,0.048258353,0
6.993343830108643,0.5292046666145325,6.81901741027832,0.015170370228588581,-0.22540927,0.16798794,0
6.901750087738037,0.31860533356666565,6.847316265106201,0.014850275591015816,-0.13591751,0.22418754,0
6.70990800857544,0.16459141671657562,6.84506368637085,0.0053301877342164525,0.13713925,0.12797627,0
6.4568047523498535,0.0659673735499382,6.81049394607544,0.01797497645020485,0.32009340000000003,-0.03726278,0
6.256683826446532,0.023379728198051453,6.784165382385254,0.04060937464237213,0.42119157,-0.20708331,0
6.183995246887207,0.012078357860445976,6.8390793800354,0.05558168888092041,0.40561453,-0.2660318,0
6.215458393096924,0.011051763780415058,7.0218586921691895,0.06194259598851204,0.3436117,-0.19975294,0
6.253497123718263,0.010991038754582405,7.236559867858888,0.06726114451885222,0.15851954,-0.12461651,0
6.266878604888916,0.021149326115846637,7.416738510131836,0.07452951371669769,-0.008246681,-0.09437868,0
6.2453975677490225,0.02912679500877857,7.493533611297607,0.07451734691858293,-0.14721853,-0.1142318,0
6.205650806427003,-0.002689740620553493,7.4750237464904785,0.0695292204618454,-0.16218472,-0.17440203,0
6.198061466217041,-0.09130174666643144,7.4036030769348145,0.06665217876434326,-0.12186762,-0.2098322,0
6.286533832550049,-0.2286689132452011,7.356203079223633,0.0795847699046135,0.1151481,-0.26236662,0
6.449485778808594,-0.31436392664909363,7.234536647796631,0.11099056154489516,0.035124752999999995,-0.13347405,0
6.5001373291015625,-0.2851407825946808,7.029206275939941,0.19957734644412994,-0.07086037,-0.16523905,0
6.437325477600098,0.12835067510604858,7.1322832107543945,0.3097064197063446,-0.67011917,-0.023823744,0
6.374641418457031,0.8076907992362976,7.232877731323242,0.22141462564468384,0.16279559,0.10354166,0
6.255898952484131,1.5574322938919067,7.7976012229919425,-0.04441142454743385,0.9663888,-0.11026118,0
5.964966773986816,2.090595960617065,8.318726539611816,-0.3487856090068817,-0.105068825,-0.21533,0
5.830701351165772,2.307900667190552,8.475193977355957,-0.2766379714012146,-1.9101756,-0.019547688,0
5.81746244430542,2.174456596374512,8.025949478149414,-0.10059448331594467,-1.5192219,-0.047036625,0
5.713286399841309,1.7658923864364624,7.409708023071289,-0.028308631852269176,-1.0650436,-0.1160644,0
5.695855140686035,1.147539496421814,6.870262145996094,0.0033456513192504644,0.19425514,-0.058337633,0
6.000641822814941,0.7159883975982666,6.605806827545166,0.027666982263326645,1.282817,-0.040317107000000005,0
6.542984008789063,0.5923165678977966,6.73877477645874,0.012249556370079516,0.93554014,-0.06994407,0
7.181639194488525,0.5725831985473633,6.789418697357178,-0.04197202622890472,0.36774087,0.1160644,0
7.572740077972412,0.5057820677757263,6.628769397735597,0.04631633311510086,-0.26847526,0.089186326,0
7.6606788635253915,0.5767313838005066,6.602068901062013,0.12632706761360168,-0.28252518,-0.048258353,0
7.485198020935059,0.7334389686584473,6.735983371734619,0.11970528960227965,-0.18325958,-0.023823744,0
7.129818439483643,0.8053481578826904,6.974732398986816,0.0474277138710022,0.04795292,-0.035124752999999995,0
6.768116474151611,0.7976882457733154,7.1471195220947275,-0.02151846699416637,0.14660765,-0.061391957,0
6.520176410675049,0.7686867117881775,7.169920921325684,-0.015035982243716715,0.20005837,-0.0571159,0
6.447524070739746,0.7520985603332521,7.118156433105469,0.013969329185783865,0.28191432,-0.055283304000000005,0
6.563338279724121,0.7445899844169617,7.073763370513916,0.026841310784220692,0.14905111,0.009162978,0
6.722024440765381,0.7488709092140198,7.0322608947753915,0.04155238717794418,-0.07727446,0.08704830000000001,0
6.803272247314452,0.7684110999107361,6.981217384338379,0.06037252023816109,-0.03726278,0.05589417,0
6.809295654296875,0.8268275260925293,6.9325714111328125,0.06085785105824471,0.21655174,0.013133603,0
6.770457744598389,0.8879714608192444,6.918204307556152,0.04592278227210045,0.31795537,-0.014049901000000002,10
6.706673622131348,0.9250121116638184,6.938846111297607,0.02890942431986332,0.23732115,-0.010995574,10
6.616810321807861,0.9157820343971252,7.006720542907715,0.02272047847509384,0.05925392700000001,-0.0021380284,10
6.502102375030518,0.8926055431365967,7.10308313369751,0.02356238663196564,-0.070249505,0.007330383,10
6.3760437965393075,0.8804105520248413,7.181332588195801,0.02510014176368713,-0.040317107000000005,0.004886922,10
6.2812113761901855,0.8711725473403931,7.231153011322021,0.02576218731701374,0.042760565999999986,0.01985312,10
6.225135326385497,0.8707326054573059,7.251192569732666,0.02651212364435196,0.026267206,0.017715093,10
6.225953102111816,0.8631092309951782,7.248847961425781,0.024763509631156918,-0.042760565999999986,0.01740966,10
6.26239824295044,0.8486600518226624,7.233841419219972,0.019762689247727398,-0.118202426,-0.0012217305,10
6.307877540588379,0.8276085257530212,7.21328067779541,0.010667914524674416,-0.13897185,-0.011301007,10
6.350926399230957,0.8163771033287048,7.193709373474121,0.0029848325066268444,-0.119729586,-0.015577064,10
6.392611026763916,0.8327692151069641,7.1548380851745605,0.0010508389677852392,-0.087659165,-0.010079277,10
6.44072961807251,0.8677496910095215,7.124056816101074,0.003393271239474416,-0.026572637000000003,-0.014049901000000002,10
6.5063958168029785,0.8814647793769836,7.118505001068115,0.006485418882220984,-0.024740042,-0.01160644,10
6.57604455947876,0.8554415106773376,7.133606433868407,0.015810083597898483,-0.06780604,-0.04550946,10
6.616375923156737,0.8062821030616759,7.142720699310303,0.032421212643384933,-0.10293079,-0.08216137400000001,10
6.604177951812744,0.771867036819458,7.131869316101074,0.04789228737354279,-0.12034045,-0.08246681,10
6.568786144256593,0.7861573100090027,7.091128349304199,0.05092805624008179,-0.0983493,-0.045814894,10
6.539456844329834,0.8714818954467773,7.036379814147949,0.03838798776268959,-0.03390302,0.004581489,10
6.517748355865479,0.989803671836853,6.9962992668151855,0.021555431187152863,0.01740966,0.043676864,10
6.519569396972656,1.10386323928833,6.991265296936035,0.01039532944560051,0.011911872,0.044593163,10
6.544302463531494,1.166149377822876,7.010244846343994,0.006032404024153948,-0.0070249503,0.046120327,10
6.573789596557617,1.136023759841919,6.999375343322754,0.0001921425428008661,0.004276057,0.05100725,10
6.59136438369751,1.0788074731826782,6.974196910858153,-0.008453651331365108,0.032070424,0.05100725,10
6.598803997039795,1.0217313766479492,6.960010051727295,-0.016213659197092056,0.06536258,0.057421334,10
6.612072467803955,0.9796433448791504,6.968470573425293,-0.0171018447726965,0.07269296,0.050396383,10
6.6355814933776855,0.94961416721344,6.994006156921388,-0.015690824016928673,0.06536258,0.029626964,10
6.6564884185791025,0.9103621244430542,7.0262184143066415,-0.013407979160547256,0.055283304000000005,0.008552114,10
6.6593570709228525,0.8644381165504456,7.047560691833496,-0.01050094049423933,0.030543262,0.002443461,10
6.63801383972168,0.8279156684875488,7.048818111419678,-0.007484376430511475,0.035430185,0.0030543262,10
6.610218048095702,0.8176969289779663,7.050437450408936,-0.004943792708218098,0.044593163,0.010995574,10
6.571491241455077,0.8347542285919191,7.05665397644043,-0.002373882569372654,0.05955936,0.0125227375,10
6.5339460372924805,0.8534423112869263,7.06676197052002,0.0014153082156553864,0.028710667,0.016493361,10
6.50264310836792,0.8727188110351562,7.08060359954834,0.0030261611100286245,-0.02076942,0.0012217305,10
6.478744029998778,0.8935943841934204,7.105818271636963,0.0020729738753288984,-0.03268129,-0.00030543262000000003,10
6.462400436401367,0.9127498865127563,7.130502700805664,-0.0014137900434434414,-0.025961773,0.007941248,10
6.447789192199707,0.9251812696456908,7.13958215713501,-0.003125942777842283,-0.0421497,0.015577064,10
6.449753284454347,0.9250454902648926,7.1220455169677725,-0.0025245575234293933,-0.045814894,0.017104227,10
6.460480213165282,0.9196732640266418,7.097677230834961,-0.004637648817151785,-0.05222898,0.015882496,10
6.482309341430664,0.9114984273910522,7.0898475646972665,-0.008157482370734215,-0.030848695,0.013133603,10
6.506143093109131,0.9007519483566284,7.080888748168945,-0.009307348169386387,-0.02076942,0.009162978,10
6.536593437194824,0.8860459327697754,7.064849376678468,-0.006416400894522667,-0.021685716,0.011301007,10
6.568726539611816,0.8794583678245544,7.04522180557251,-0.0029694254044443373,-0.026572637000000003,0.0027488936,10
6.591541767120361,0.8845091462135315,7.03216552734375,-0.0017189342761412265,0.007330383,0.0076358155,10
6.609016418457031,0.8972045183181763,7.029233455657959,-0.0015659453347325325,0.019547688,0.0021380284,10
6.6203651428222665,0.9066982269287108,7.028779029846191,-0.0011157657718285918,0.01985312,0.0015271631,10
6.620532512664795,0.9083887338638306,7.025448799133301,-0.0011047887383028863,0.023823744,0.009468411,10
6.608726501464844,0.90504789352417,7.0168824195861825,-0.001488452311605215,0.027488936,0.0070249503,10
6.598721504211426,0.8951544761657715,7.0136260986328125,-0.002493165899068117,0.02443461,0.013439035,10
6.583798408508301,0.8886913061141968,7.022838115692139,-0.0013226410374045372,0.022907447,0.0076358155,10
6.572718620300293,0.8826144933700562,7.031064033508301,0.0011692198459059,0.017715093,0.018325957,10
6.565377712249756,0.8815187215805054,7.045185089111327,0.0031099219340831037,0.0076358155,0.024740042,10
6.561257839202881,0.8815181255340576,7.053976058959961,0.00431806454434991,0.007941248,0.01863139,10
6.552135467529298,0.8846250176429749,7.061446666717528,0.004040397237986325,-0.01038471,0.00580322,10
6.5366759300231925,0.8876324892044067,7.0711421966552725,0.0034411391243338585,-0.008246681,0.0027488936,10
6.530271530151367,0.887049674987793,7.076951026916504,0.0021980740129947662,0.004276057,0.0021380284,10
6.5316524505615225,0.8788824081420898,7.074927806854247,0.0017133636865764856,-0.007941248,-0.004581489,10
6.542874813079834,0.872928261756897,7.06861686706543,0.002097834367305041,-0.009468411,0.004276057,10
6.551239967346191,0.8731049895286559,7.06701135635376,0.003021102631464601,-0.01038471,0.008552114,10
6.554593086242676,0.8777465224266052,7.069221496582031,0.004740603733807802,-0.004886922,0.009773844,10
6.564266681671143,0.8828854560852051,7.068755626678468,0.005235021933913231,-0.003970624,0.01038471,10
6.5669307708740225,0.8928344845771791,7.062305927276611,0.0068506207317113885,-0.0027488936,0.010079277,10
6.5649094581604,0.9093150496482848,7.060346603393555,0.007017357740551232,-0.008246681,0.01038471,10
6.566386222839356,0.9171342253684998,7.060218811035156,0.005791465286165476,-0.0009162979,0.0143553335,10
6.561169624328612,0.915533185005188,7.057931423187256,0.004840086679905653,-0.004276057,0.014660766,10
6.551770687103272,0.9094954133033752,7.059164524078369,0.0055426410399377355,0.013439035,0.013439035,10
6.545084476470947,0.8994314074516296,7.054882049560548,0.00616573728621006,0.0067195175,0.014049901000000002,10
6.544789791107178,0.8917717337608337,7.050986289978027,0.007310477551072836,0.0036651916,0.016798794,10
6.549507141113281,0.8979394435882568,7.053513050079347,0.007885669358074665,0.005497787,0.01038471,10
6.544550895690918,0.9058939218521118,7.052451133728027,0.00821049977093935,0.0021380284,0.010995574,10
6.541242599487305,0.9091966152191162,7.049685478210449,0.008213409222662449,-0.006414085,0.0067195175,10
6.544068336486816,0.9030314087867736,7.057931423187256,0.007340695708990097,0.0009162979,0.004276057,10
6.538888454437256,0.9025580883026124,7.056787967681885,0.007173975463956594,-0.004886922,0.004581489,10
6.543012619018555,0.9062126874923706,7.0525879859924325,0.005948902107775211,-0.0061086523,-0.002443461,10
6.538020610809326,0.9124217629432678,7.0561180114746085,0.0034424664918333288,-0.008246681,-0.0030543262,10
6.531126022338867,0.9160914421081544,7.053936958312987,0.001884877448901534,-0.0070249503,0.004581489,10
6.532251834869385,0.908674657344818,7.044703483581543,0.003236307762563229,-0.004581489,0.012217305,10
6.544175148010254,0.9128771424293518,7.041037082672119,0.0050528119318187245,0.010079277,0.013133603,10
6.5667762756347665,0.9218340516090392,7.0468382835388175,0.005763872060924768,0.010690141499999998,0.0070249503,10
6.5889525413513175,0.9218770265579224,7.054707050323486,0.0041878484189510345,-0.0030543262,0.004276057,10
6.590382099151611,0.906843602657318,7.048357963562013,0.005364577751606703,-0.02443461,0.006414085,10
6.565053462982178,0.8926579356193542,7.034333229064941,0.008451380766928196,-0.0061086523,0.01038471,10
6.537337779998778,0.8965979218482971,7.024759292602539,0.008328309282660484,0.016493361,0.007330383,10
6.523683071136475,0.910640835762024,7.028313636779785,0.007378013338893652,0.01863139,0.005497787,10
6.53029203414917,0.9343020915985109,7.04288911819458,0.007544055115431547,0.009162978,0.0067195175,10
6.550906658172607,0.9537288546562196,7.058391571044923,0.006849032361060381,-0.01160644,0.011911872,10
6.559147357940674,0.953715980052948,7.066218376159668,0.0047705709002912045,-0.024129177,0.007330383,10
6.558700084686278,0.934188187122345,7.0621771812438965,0.0036144652403891095,-0.027488936,0.008246681,10
6.554013729095459,0.9021111726760864,7.054511547088622,0.005293525289744139,-0.021380283,-0.010079277,10
6.561235427856445,0.8751173615455627,7.060038089752197,0.011402394622564316,0.015271631,-0.022602014,10
6.565500259399414,0.8583207130432129,7.077446937561035,0.017279531806707382,0.0143553335,-0.02076942,10
6.556630611419678,0.8594022989273071,7.0754456520080575,0.02128021419048309,-0.036957346,-0.00580322,10
6.538991451263428,0.8900743722915649,7.052631855010986,0.01832009293138981,-0.053450707,0.0021380284,10
6.512330055236816,0.9424167275428772,7.03090238571167,0.01325232069939375,-0.004581489,0.01863139,10
6.502425193786621,0.9974366426467896,7.034365653991699,0.008866880089044571,0.021685716,0.024129177,10
6.512634754180907,1.0213127136230469,7.0485944747924805,0.0060441745445132256,-0.0009162979,0.024129177,10
6.5435309410095215,1.003046631813049,7.060393333435059,0.006496893707662821,-0.02107485,0.0070249503,10
6.5751285552978525,0.9572555422782898,7.06578254699707,0.006555534433573484,-0.009773844,0.00061086525,10
6.580249309539795,0.9228299856185912,7.0506649017333975,0.008629336953163147,-0.01863139,0.0030543262,10
6.559793472290039,0.9241230487823486,7.0275044441223145,0.008604674600064754,-0.0143553335,0.0033597588,10
6.5486836433410645,0.9417164325714112,7.0139336585998535,0.007324549369513988,0.026572637000000003,0.010690141499999998,10
6.557889461517334,0.966878354549408,7.02333402633667,0.007508806884288788,0.050396383,0.009468411,10
6.580434799194336,0.9825498461723328,7.051469326019287,0.009107913821935655,0.016493361,0.015271631,10
6.601565361022949,0.9812930226325988,7.0692200660705575,0.007077938877046108,-0.03848451,0.004276057,10
6.612675189971924,0.9577022194862366,7.06798791885376,0.0058346837759017936,-0.029321533,-0.0125227375,10
6.595817565917969,0.9247344136238098,7.0560970306396475,0.010786225087940693,-0.0033597588,-0.03359759,10
6.548341274261475,0.9014124870300292,7.040785789489746,0.0189225897192955,-0.008552114,-0.015882496,10
6.505587100982666,0.9236168265342712,7.006144046783447,0.01876328513026237,-0.0033597588,0.005192355,10
6.4807801246643075,0.9736244082450868,6.993186950683594,0.011962180025875568,0.029626964,0.024740042,10
6.489919662475586,1.0308234691619873,7.014660835266112,0.004540730733424425,0.030848695,0.03359759,10
6.51290225982666,1.0693655014038086,7.049799919128418,0.0008329562260769308,-0.010690141499999998,0.028710667,10
6.5318970680236825,1.0658689737319946,7.05760383605957,-0.002391322748735547,-0.028710667,0.027488936,10
6.5345540046691895,1.0302344560623171,7.0376691818237305,-0.007977333851158619,-0.02687807,0.03481932,10
6.53355884552002,0.9843068718910216,7.0137267112731925,-0.010898767039179802,-0.0009162979,0.014966198,10
6.545421123504639,0.9419403076171876,7.016479969024657,-0.007799529936164618,0.028710667,-0.00580322,10
6.5772809982299805,0.9013737440109252,7.039002418518066,-0.001272325054742396,0.03268129,-0.03268129,10
6.606640338897705,0.8645035624504089,7.063242435455322,0.007139999419450759,-0.00030543262000000003,-0.03726278,10
6.625180244445801,0.8505058288574219,7.076876163482666,0.014035332947969437,-0.034208454,-0.06047566,10
6.619009971618652,0.8571007251739502,7.080991744995117,0.020200369879603386,-0.01740966,-0.07666359,10
6.5956459045410165,0.8824391961097717,7.08566427230835,0.028896490111947063,-0.01282817,-0.07544186,10
6.566023349761963,0.9194433093070984,7.085726737976074,0.037291202694177635,-0.041233405,-0.06750060599999999,10
6.5292110443115225,0.962971806526184,7.086698532104492,0.04100755974650383,-0.058948494,-0.042455133,10
6.500096797943115,1.0032240152359009,7.080336093902588,0.04105110466480255,-0.044593163,-0.035430185,10
6.489697456359862,1.03577983379364,7.077861309051514,0.03689045086503029,-0.035430185,-0.03940081,10
6.49746036529541,1.0689152479171753,7.081753253936768,0.03361180052161217,-0.024129177,-0.023823744,10
6.519015312194824,1.1062371730804443,7.0769896507263175,0.029910098761320118,-0.03756821,-0.0036651916,10
6.5408782958984375,1.1402591466903689,7.061983585357666,0.026719743385910988,-0.053450707,0.016493361,10
6.543037414550781,1.1520174741744995,7.035179615020753,0.02318699471652508,-0.062002823,0.03756821,10
6.515567302703857,1.1371103525161743,7.001940727233888,0.018906613811850548,-0.052534413,0.03023783,10
6.490832805633545,1.1197279691696167,6.967381954193115,0.013638470321893692,-0.031154128,0.0421497,10
6.508086681365968,1.1225622892379759,6.949713706970215,0.007873546332120895,0.024740042,0.013744468,10
6.5699424743652335,1.1401325464248655,6.9591965675354,0.003651007544249296,0.06994407,-0.0018325958,10
6.655527114868164,1.156438231468201,6.985904216766357,0.0010459005134180188,0.056199603,0.00061086525,10
6.719691753387451,1.1471208333969116,6.998480796813965,-0.00115514756180346,0.028710667,0.017715093,10
6.7337398529052725,1.1152814626693726,6.987558364868164,-0.00505520636215806,0.0015271631,0.03268129,10
6.706486225128174,1.0731896162033079,6.963489055633545,-0.005955137312412262,0.034513887,0.036651913,10
6.658795833587647,1.0347710847854614,6.955976963043213,-0.0021245309617370367,0.07880162,0.021685716,10
6.6239118576049805,1.0045647621154783,6.97520923614502,0.007367558777332306,0.09010262,-0.00030543262000000003,10
6.613081932067871,0.9995645880699158,7.010140895843506,0.013443046249449251,0.07819075,-0.014660766,10
6.6086082458496085,1.0148719549179075,7.047963619232178,0.01388713251799345,0.029321533,-0.012217305,10
6.5834832191467285,1.0312721729278564,7.069264888763428,0.011501182802021505,-0.0021380284,0.007941248,10
6.52643632888794,1.039703130722046,7.063601493835449,0.010503977537155151,0.005192355,0.018020526,10
6.466000080108643,1.0476447343826294,7.063889503479004,0.012294255197048187,0.0033597588,0.009162978,10
6.431862831115723,1.0577049255371094,7.06988525390625,0.014655246399343012,0.006414085,0.01038471,10
6.42357063293457,1.0663491487503052,7.0811944007873535,0.0163396168500185,-0.021380283,0.007941248,10
6.429479122161865,1.077723264694214,7.088178634643555,0.014498991891741753,-0.04917465,0.009162978,10
6.436869621276856,1.0847548246383667,7.0858073234558105,0.009542294777929785,-0.06047566,0.013744468,10
6.446849346160889,1.0778154134750366,7.077425003051758,0.0031682418193668127,-0.043676864,0.01038471,10
6.480591773986816,1.0647190809249878,7.07804012298584,-0.0006087841466069221,-0.016493361,-0.014049901000000002,10
6.5274271965026855,1.0601775646209717,7.07884693145752,0.0007674930966459215,-0.0125227375,-0.009468411,10
6.564924240112305,1.0556058883666992,7.065544128417969,0.0013349311193451285,-0.03390302,0.0061086523,10
6.584900856018066,1.053645133972168,7.04210090637207,0.0005653821863234043,-0.03970624,0.015577064,10
6.587150096893311,1.0507473945617676,7.024764060974121,0.003098435001447797,-0.021991149,0.010079277,10
6.585695266723633,1.049957275390625,7.012045860290527,0.006238958798348904,0.01160644,0.00580322,10
6.587332725524902,1.0634636878967283,7.011157512664795,0.007374266628175973,0.009162978,-0.0012217305,10
6.588449954986572,1.0772116184234621,7.0104942321777335,0.0074455789290368566,0.004581489,0.0021380284,10
6.5839619636535645,1.0903948545455933,7.008106708526611,0.005922166164964438,-0.0067195175,0.011301007,10
6.571930408477782,1.0984020233154297,7.002761363983153,0.004492608830332756,-0.010079277,0.011911872,10
6.567506790161133,1.0917935371398926,7.002635002136231,0.0048387018032372,0.009773844,0.017715093,10
6.572906017303468,1.0782049894332886,6.999081134796143,0.0051847249269485465,0.01740966,0.008857545999999999,10
6.591897964477539,1.0689899921417236,6.995882987976074,0.005125860683619976,0.018020526,0.0061086523,10
6.60741138458252,1.070608615875244,6.992743968963622,0.005657949484884739,-0.0036651916,-0.002443461,10
6.61502742767334,1.0683916807174685,6.995562076568604,0.0040623778477311134,-0.009468411,0.0012217305,10
6.611656665802003,1.0630592107772827,6.9967098236083975,0.0029243910685181613,0.010995574,0.01160644,10
6.601500511169434,1.062014937400818,7.009321689605713,0.003143690526485443,0.03604105,0.0125227375,10
6.593861103057861,1.0570640563964844,7.024221897125244,0.005169907119125128,0.0076358155,0.009162978,10
6.583497047424316,1.050719141960144,7.033051013946532,0.008788417093455791,-0.009773844,-0.00030543262000000003,10
6.568420886993407,1.0520052909851074,7.03233528137207,0.012430883012712002,-0.01740966,0.00580322,10
6.554582118988037,1.0629720687866209,7.04249382019043,0.013940035365521908,-0.0015271631,0.00580322,10
6.540885925292969,1.078405737876892,7.057572841644287,0.014887304045259953,-0.016187929,-0.0015271631,10
6.529911518096924,1.0877695083618164,7.06354284286499,0.015312337316572666,-0.021991149,0.005497787,10
6.524548530578612,1.0958943367004397,7.061057090759277,0.014515154995024203,-0.01985312,0.0018325958,10
6.523747444152832,1.105776309967041,7.053378105163574,0.01267671026289463,-0.028099801,0.00030543262000000003,10
6.537795066833496,1.121363401412964,7.045901775360107,0.008277698419988155,-0.03023783,-0.00061086525,10
6.554231643676758,1.1240310668945312,7.042965888977051,0.004626050125807525,-0.015271631,0.0018325958,10
6.5776023864746085,1.1153197288513184,7.038268566131593,0.0034628172870725393,-0.0067195175,0.00580322,10
6.592055320739746,1.0961458683013916,7.023058891296388,0.0046502980403602115,0.007330383,0.018020526,10
6.598356246948242,1.0890574455261228,7.004518508911133,0.0054051363840699205,-0.004886922,0.010995574,10
6.60127067565918,1.0939297676086426,6.988697052001952,0.004845894873142242,0.0033597588,0.01863139,10
6.605457782745361,1.0998610258102417,6.985855102539063,0.00449695996940136,0.025350908,0.0125227375,10
6.610609531402588,1.0974712371826172,6.984133243560791,0.005900463089346886,0.024129177,0.007941248,10
6.610741138458253,1.09788715839386,6.985352993011475,0.00784960575401783,0.0070249503,0.013744468,10
6.600037097930907,1.098896026611328,6.990675926208496,0.008843220770359041,-0.006414085,0.009773844,10
6.584813594818115,1.0896521806716921,6.995302677154541,0.007500337902456522,0.012217305,0.018020526,10
6.578723430633545,1.08588707447052,7.000000476837157,0.0067425980232656,0.011301007,0.010079277,10
6.571603298187256,1.0899298191070557,7.0077104568481445,0.006058474071323872,0.009468411,0.010079277,10
6.5660643577575675,1.0936009883880615,7.008564472198486,0.005990860518068075,-0.0009162979,0.007330383,10
6.562340259552003,1.1009879112243652,6.999094009399414,0.004697660449892282,-0.005497787,0.0076358155,10
6.561902046203612,1.1120502948760986,6.996914863586426,0.002497210865840316,-0.0027488936,0.004276057,10
6.5661048889160165,1.1186224222183228,6.998443126678468,0.0013533831806853414,-0.0033597588,0.014049901000000002,10
6.572585582733153,1.1202861070632937,6.999114990234375,0.0008413218311034143,0.0076358155,0.014660766,10
6.573207378387451,1.1166877746582031,7.0065531730651855,0.0010803826153278349,0.004581489,0.017104227,10
6.574827671051025,1.105488657951355,7.0077271461486825,0.0013378408038988712,0.008246681,0.023823744,10
6.584728717803955,1.0947911739349363,6.999571800231934,0.0018687283154577015,0.015271631,0.022907447,10
6.588542461395264,1.0876991748809814,6.998464584350586,0.000595605350099504,0.01282817,0.016187929,10
6.586691379547119,1.0836930274963381,7.008071899414063,-1.6765070540714078e-05,0.016187929,0.005497787,10
6.580789566040039,1.0760810375213623,7.014179229736327,-0.0004891087883152069,0.010995574,0.0070249503,10
6.582468986511231,1.0718284845352173,7.017289638519287,-0.0010599180823192,0.0070249503,0.013744468,10
6.585462093353272,1.070332646369934,7.018742084503174,-0.0014485198771581054,0.010995574,0.015577064,10
6.58458948135376,1.0740314722061155,7.0174665451049805,-0.0019760197028517727,0.018936822,0.02107485,10
6.586963653564452,1.0752646923065186,7.019596576690674,-0.0019001407781615851,0.018936822,0.004886922,10
6.587717056274414,1.0804618597030642,7.025818824768066,-0.000810983416158706,0.022907447,0.013744468,10
6.586777210235597,1.0816296339035034,7.030245780944824,-0.0009791916236281397,0.020463986,0.022296581,10
6.586509704589844,1.076893925666809,7.030886650085449,-0.002013934776186943,0.018020526,0.022907447,10
6.578347206115723,1.0694679021835327,7.030162811279298,-0.002279956126585603,0.013744468,0.018325957,10
6.567629814147949,1.0593391656875608,7.029426574707031,-0.0025021384935826067,0.021685716,0.022296581,10
6.5638275146484375,1.0505980253219604,7.03720760345459,-0.004395590629428625,0.029626964,0.022602014,10
6.570542812347412,1.043258547782898,7.037535667419434,-0.004433986730873585,0.02107485,0.016493361,10
6.573344230651856,1.0445232391357422,7.03962516784668,-0.003938193432986736,0.021380283,0.0143553335,10
6.570738315582275,1.048974871635437,7.033150672912598,-0.0044022733345627785,0.012217305,0.014966198,10
6.564833164215088,1.0515742301940918,7.0295777320861825,-0.004940963350236416,0.015577064,0.02565634,10
6.555898666381836,1.0503512620925903,7.03197193145752,-0.004395140800625086,0.020158553,0.025961773,10
6.546368598937987,1.048137068748474,7.040689945220947,-0.0024477029219269753,0.021380283,0.021991149,10
6.545137882232666,1.0497642755508425,7.059396266937256,-0.0020232496317476034,0.015882496,0.0143553335,10
6.546761989593506,1.0459232330322266,7.067203044891357,-0.0033394875936210155,0.019547688,0.018020526,10
6.543642997741699,1.0386468172073364,7.069181442260742,-0.004946744535118341,0.020463986,0.01740966,10
6.538055419921875,1.0278593301773071,7.0726561546325675,-0.004494170658290386,0.021685716,0.016493361,10
6.534008026123048,1.0210696458816528,7.071221351623535,-0.0031967940740287304,0.024129177,0.019242255,10
6.535289764404298,1.0159748792648315,7.069839477539063,-0.0022739130072295666,0.018325957,0.013133603,10
6.528409957885742,1.0095088481903076,7.074132442474365,-0.0017003841931000352,0.011301007,0.018325957,10
6.524984836578369,1.0082485675811768,7.079481601715088,-0.0017455004854127765,0.010079277,0.02076942,10
6.518078327178955,1.0066710710525513,7.0851173400878915,-0.0017892738105729222,0.014660766,0.02107485,10
6.508959770202638,1.0092337131500244,7.091506004333496,-0.0020504489075392485,0.004276057,0.01985312,10
6.4995832443237305,1.0067219734191897,7.089371681213379,-0.0005169185460545123,-0.0030543262,0.016187929,10
6.497458934783936,1.0036163330078125,7.083723545074463,0.00018196695600636303,-0.0015271631,0.01282817,10
6.499756813049316,1.0026251077651978,7.082764148712157,-0.002118844073265791,-0.0033597588,0.008857545999999999,10
6.5071349143981925,0.9987935423851012,7.078371047973633,-0.0035249353386461726,-0.015882496,0.0125227375,10
6.509502410888673,0.9973182082176208,7.0732011795043945,-0.0035009824205189943,-0.019242255,0.02107485,10
6.506633281707764,0.9938359260559082,7.067606925964356,-0.002451376989483833,-0.015577064,0.008552114,10
6.508889198303223,0.9932125806808472,7.0701661109924325,-0.0023699935991317034,-0.008552114,0.010079277,10
6.515748500823975,0.9891030192375184,7.0831847190856925,-0.0027443822473287587,0.00580322,0.0067195175,10
6.533851623535156,0.987146258354187,7.085648059844972,-0.003258704440668225,0.005497787,0.016798794,10
6.5471296310424805,0.9862064719200134,7.075465679168701,-0.0018071185331791641,-0.011911872,0.02107485,10
6.5527591705322275,0.9839205741882324,7.066341876983643,-0.0005053534987382591,-0.002443461,0.020158553,10
6.55561637878418,0.9803507328033448,7.063426494598389,-0.0003369580372236669,0.0143553335,0.0143553335,10
6.549194812774657,0.9806564450263976,7.061841011047362,0.0010272591607645154,0.016493361,0.020158553,10
6.541922569274902,0.9760921597480774,7.061636447906494,0.0025230650790035725,0.0030543262,0.007941248,10
6.5378737449646,0.9747704267501832,7.0708374977111825,0.003785199020057917,0.012217305,0.018020526,10
6.5401649475097665,0.9785447120666504,7.078803062438965,0.0017006389098241925,0.010995574,0.0018325958,10
6.539306640625,0.9784746170043944,7.080027580261231,-0.0004370610986370593,0.009468411,0.010079277,10
6.536713600158691,0.9786221385002136,7.079597473144531,-0.00045111833605915313,0.004581489,0.007941248,10
6.5357933044433585,0.9739065170288086,7.082903861999513,0.0013627074658870695,0.0027488936,0.008246681,10
6.536050319671631,0.9704720377922058,7.084165573120117,0.002464438788592816,0.02076942,0.01038471,10
6.5345191955566415,0.9643858671188354,7.0847930908203125,0.0023954722564667463,0.004276057,0.00030543262000000003,10
6.532158851623535,0.96401184797287,7.082231044769287,0.0026002104859799147,-0.004886922,0.014966198,10
6.5295658111572275,0.9595587253570556,7.081655502319336,0.004304732196033001,-0.0009162979,0.008857545999999999,10
6.521458625793457,0.9530485272407532,7.079834938049316,0.0062393369153141975,-0.011911872,0.0012217305,10
6.510609149932861,0.9466465711593628,7.0767879486083975,0.008324182592332363,-0.009162978,0.0015271631,10
6.509227275848389,0.9501971006393432,7.078277111053468,0.009747386910021305,-0.009773844,-0.0036651916,10
6.510251522064209,0.9623914957046508,7.0785279273986825,0.010050494223833084,-0.02076942,-0.008246681,10
6.51305103302002,0.9852191209793092,7.077859878540039,0.009668900631368159,-0.035124752999999995,0.0067195175,10
6.512551784515381,1.0068055391311646,7.07809591293335,0.008705529384315014,-0.026572637000000003,0.008246681,10
6.513658046722412,1.014196515083313,7.079022407531737,0.008083591237664223,-0.023518313,0.009773844,10
6.525492668151856,1.0096776485443115,7.081126689910889,0.0077667785808444014,-0.013439035,0.009162978,10
6.545744895935059,1.0028969049453735,7.07929801940918,0.00737781822681427,-0.00580322,-0.0009162979,10
6.568288326263428,0.99190092086792,7.073227405548097,0.006059811450541019,-0.0143553335,0.005192355,10
6.571946144104004,0.9747847914695741,7.061539649963379,0.008771898224949837,-0.0015271631,-0.006414085,10
6.567332267761231,0.971477508544922,7.043506145477295,0.011428652331233023,0.009773844,-0.0067195175,10
6.5593743324279785,0.9793516397476196,7.031647205352782,0.012786658480763435,0.019547688,-0.005497787,10
6.546304225921631,0.9988139867782592,7.044220924377441,0.013465026393532751,0.010690141499999998,-0.002443461,10
6.540141105651856,1.018982172012329,7.054885387420653,0.015078826807439329,-0.004276057,0.0009162979,10
6.535032272338867,1.0365380048751829,7.071938514709473,0.015368719585239887,-0.01038471,0.010079277,10
6.52397346496582,1.0398648977279663,7.07816219329834,0.013798643834888935,-0.02076942,0.0125227375,10
6.517906665802003,1.0338579416275024,7.076354026794434,0.011749240569770336,-0.021380283,0.011301007,10
6.515931606292725,1.0210306644439695,7.070296764373778,0.012093929573893549,-0.017104227,0.004581489,10
6.520704746246338,1.0025982856750488,7.064922332763673,0.013527147471904756,-0.009468411,0.005497787,10
6.52366828918457,0.9954420924186708,7.067780017852782,0.015965769067406654,-0.018325957,0.0015271631,10
6.531191349029541,1.009505033493042,7.061232566833496,0.015852421522140503,-0.005497787,0.0030543262,10
6.538984775543213,1.030536651611328,7.062476634979247,0.01461121719330549,-0.011911872,-0.00030543262000000003,10
6.54561710357666,1.0386805534362793,7.057329654693604,0.01275253389030695,-0.004276057,0.0027488936,10
6.550105571746826,1.031736969947815,7.047770023345947,0.013400102965533732,-0.02107485,-0.0030543262,10
6.546750068664551,1.0264105796813965,7.035612106323242,0.013978220522403715,-0.007330383,-0.0012217305,10
6.539292335510254,1.0245796442031858,7.0321455001831055,0.014830039814114569,-0.0030543262,-0.006414085,10
6.539707660675049,1.0190311670303345,7.03346586227417,0.016475219279527664,-0.005497787,-0.00580322,10
6.5369625091552725,1.0255106687545776,7.0414981842041025,0.017662227153778076,-0.01038471,0.002443461,10
6.536376953125,1.0384002923965454,7.0505309104919425,0.017620911821722984,-0.01282817,0.0021380284,10
6.531836986541747,1.0533312559127808,7.0595574378967285,0.015223145484924316,-0.013744468,0.0021380284,10
6.52761697769165,1.0618236064910889,7.057189464569093,0.0117988009005785,-0.034513887,0.0021380284,10
6.526040554046631,1.0668114423751829,7.0535430908203125,0.010614546947181223,-0.034208454,0.011911872,10
6.529033660888673,1.0754594802856443,7.0445051193237305,0.010339414700865746,-0.03176499,0.0143553335,10
6.536970138549805,1.0727133750915527,7.039097785949707,0.010008586570620537,-0.035430185,0.013133603,10
6.550769329071045,1.0665249824523926,7.034445762634277,0.011715911328792572,-0.03481932,0.004886922,10
6.566234588623048,1.0550999641418457,7.032344341278076,0.014422006905078888,-0.02687807,-0.008552114,10
6.581706523895264,1.0520957708358765,7.0284790992736825,0.01530321594327688,-0.018020526,-0.0015271631,10
6.59566593170166,1.0523297786712646,7.0266289710998535,0.014125806279480456,-0.007941248,-0.010995574,10
6.59745454788208,1.054921269416809,7.03248929977417,0.013505992479622364,-0.0012217305,-0.004276057,10
6.586023807525635,1.0623435974121094,7.031581401824951,0.014368897303938866,-0.0012217305,0.0030543262,10
6.580873012542725,1.0743855237960815,7.030394077301025,0.013906501233577728,-0.003970624,0.007330383,10
6.57803201675415,1.0862325429916382,7.0313401222229,0.013234017416834831,0.0012217305,0.0076358155,10
6.576973915100098,1.0867958068847656,7.020266532897949,0.013039078563451769,-0.01160644,0.004581489,10
6.570150375366211,1.0868072509765625,7.013374328613281,0.0149969095364213,0.00030543262000000003,0.008552114,10
6.566070079803468,1.0894488096237185,7.0072264671325675,0.01565126143395901,0.0012217305,0.01282817,10
6.568429470062256,1.0945100784301758,7.004042148590088,0.013346726074814795,0.003970624,0.0070249503,10
6.572010517120361,1.0957366228103638,7.005825996398926,0.01171745453029871,0.002443461,0.009162978,10
6.567953109741211,1.08667254447937,7.005638599395753,0.011290743947029114,-0.009162978,0.007330383,10
6.561433792114258,1.078145146369934,6.995866775512695,0.009684679098427296,-0.011301007,0.010690141499999998,10
6.556834697723389,1.0755319595336914,6.99083137512207,0.010297131724655628,-0.011301007,0.0021380284,10
6.550908088684082,1.0732183456420898,6.989852428436278,0.00932034756988287,-0.00061086525,-0.00061086525,10
6.553375720977782,1.077442646026611,6.995823383331299,0.009794156067073343,-0.0015271631,0.007941248,10
6.5641212463378915,1.0864005088806152,7.006682872772218,0.008833426050841808,0.004581489,0.0067195175,10
6.567038536071777,1.0933070182800293,7.00888204574585,0.007813572883605957,-0.007941248,0.01160644,10
6.566672801971436,1.0947045087814329,7.008584499359131,0.006948087830096483,0.004276057,0.013133603,10
6.5651607513427725,1.1006039381027222,7.007596969604492,0.005255028139799832,0.002443461,0.0036651916,10
6.566022872924805,1.0946984291076658,7.012173652648926,0.0038340692408382893,-0.0015271631,0.013133603,10
6.56771183013916,1.0912576913833618,7.016792297363281,0.003923129756003618,-0.00061086525,0.019547688,10
6.564504623413086,1.0904247760772705,7.00933837890625,0.003783452557399869,0.0027488936,0.015577064,10
6.559741973876952,1.091533660888672,6.9984679222106925,0.0035478246863931413,0.004886922,0.010079277,10
6.556065082550049,1.0941634178161619,6.9935503005981445,0.0019077808829024434,-0.0009162979,0.007941248,10
6.556509971618652,1.0981262922286987,6.992164134979247,0.003255858086049557,-0.0012217305,0.026572637000000003,10
6.563447952270508,1.0993982553482056,6.9909749031066895,0.004037476144731046,0.00030543262000000003,0.02076942,10
6.568443775177003,1.0980918407440186,6.995232582092285,0.003594162408262491,0.0012217305,0.009773844,10
6.571041584014893,1.0963768959045408,6.996310710906982,0.002620985731482506,-0.00061086525,0.0125227375,10
