acc_x,acc_y,acc_z,gyro_x,gyro_y,gyro_z,label
0.0,0.0,0.0,0.0,0.058337633,0.016798794,1
0.07152952253818512,0.2725697457790375,0.06733861565589905,-0.0002872054756153375,0.055588737,0.018020526,1
0.24199126660823825,0.9218507409095764,0.22500130534172055,-0.0015187379904091358,0.044898596,0.018936822,1
0.4777365624904633,1.819347858428955,0.4385547339916229,-0.0034800744615495205,0.03604105,0.022296581,1
0.7415482997894287,2.8231389522552486,0.6719268560409546,-0.00538532854989171,0.046120327,0.019547688,1
1.0035023689270022,3.819214582443237,0.8971337080001831,-0.009651334956288338,0.029932396,0.013133603,1
1.24481463432312,4.736089706420898,1.0974335670471191,-0.01456564199179411,0.025961773,0.024740042,1
1.4565590620040894,5.539872646331787,1.2656545639038086,-0.015537068247795103,0.03940081,0.024740042,1
1.6381042003631592,6.221925735473633,1.4036647081375122,-0.014887862838804722,0.041233405,0.046731193,1
1.794175386428833,6.78771448135376,1.5195101499557495,-0.014115516096353531,0.02321288,0.069027774,1
1.927430510520935,7.250181198120117,1.6157951354980469,-0.010333671234548092,-0.0021380284,0.09010262,1
2.0409927368164062,7.62428092956543,1.6953002214431765,-0.0017884594853967426,-0.02687807,0.08277224,1
2.138015985488892,7.924517631530763,1.7607578039169312,0.0035814139991998672,-0.027794369,0.081855945,1
2.2213196754455566,8.163933753967285,1.8146200180053709,0.005820031743496656,-0.0143553335,0.04428773,1
2.2934112548828125,8.353691101074219,1.8590116500854488,-0.0007833638810552658,-0.0021380284,0.016187929,1
2.356354236602783,8.503164291381836,1.8957061767578125,-0.013455008156597614,-0.010079277,0.03634648,1
2.411890983581543,8.620063781738281,1.9261741638183596,-0.017715254798531532,-0.044898596,0.04795292,1
2.461451530456543,8.710683822631836,1.951618313789368,-0.014622969552874562,-0.070554934,0.057421334,1
2.502188205718994,8.781598091125487,1.9760351181030276,-0.010961521416902542,-0.08368854,0.06505715,1
2.527593851089477,8.839632987976074,2.0058984756469727,-0.008235062472522259,-0.07086037,0.020158553,1
2.5405521392822266,8.887383460998535,2.0401461124420166,-0.0130561962723732,-0.11209377,0.014049901000000002,1
2.5434608459472656,8.926873207092285,2.0779776573181152,-0.02427029795944691,-0.11911872,0.02565634,1
2.538261890411377,8.959729194641113,2.11873197555542,-0.0277424231171608,-0.14508049,0.05955936,1
2.5265629291534424,8.987252235412598,2.1618149280548096,-0.031478118151426315,-0.109650314,0.07238753,1
2.5096681118011475,9.010485649108887,2.2067325115203857,-0.033530186861753464,-0.029626964,0.03604105,1
2.488598108291626,9.0302734375,2.253124952316284,-0.032545823603868484,0.01160644,-0.008552114,1
2.464163303375244,9.047296524047852,2.3007168769836426,-0.03107307851314545,-0.005497787,-0.006414085,1
2.437006950378418,9.06209945678711,2.3492982387542725,-0.03634129092097282,-0.030848695,-0.0018325958,1
2.412713050842285,9.073931694030762,2.3981783390045166,-0.03887007385492325,-0.01282817,0.024740042,1
2.40195631980896,9.08072280883789,2.4463226795196533,-0.03390245512127876,0.022296581,0.023518313,1
2.4025003910064697,9.083366394042967,2.4938056468963623,-0.030352413654327393,0.008246681,0.021380283,1
2.4121532440185547,9.082669258117676,2.5407872200012207,-0.032574377954006195,0.00580322,0.0061086523,1
2.4291110038757324,9.079291343688963,2.58735466003418,-0.04453842341899872,-0.013133603,0.003970624,1
2.4519193172454834,9.073765754699707,2.633572578430176,-0.06345303356647491,-0.016187929,0.0076358155,1
2.479464054107666,9.066502571105957,2.6795454025268555,-0.07547979801893234,-0.0421497,-0.0070249503,1
2.5108416080474854,9.05783748626709,2.7253475189208984,-0.08288231492042543,-0.09010262,-0.0125227375,1
2.545171022415161,9.04808235168457,2.770891666412353,-0.08139999210834503,-0.10842858,-0.004581489,1
2.5819411277771,9.037432670593262,2.81629490852356,-0.06702006608247757,-0.11636983,0.02565634,1
2.6161437034606934,9.028847694396973,2.855093240737915,-0.048700343817472465,-0.09682214,0.040317107000000005,1
2.6368207931518555,9.028974533081056,2.8721430301666264,-0.03649996593594551,-0.06505715,0.036957346,1
2.6460802555084233,9.03642749786377,2.8709499835968018,-0.02527349628508091,-0.09437868,0.00030543262000000003,1
2.646151304244995,9.049779891967773,2.855069398880005,-0.007404129020869731,-0.12614368,-0.042455133,1
2.638828754425049,9.067885398864746,2.827364683151245,0.010040798224508762,-0.1826487,-0.07513642,1
2.6255857944488525,9.08979034423828,2.790199518203736,0.024623803794384003,-0.1994475,-0.09285152,1
2.6075263023376465,9.11480712890625,2.745311737060547,0.040372174233198166,-0.14599679999999998,-0.090713486,1
2.585653066635132,9.1422700881958,2.694332838058472,0.06883253157138823,-0.0711658,-0.092240654,1
2.560704231262207,9.171708106994627,2.638436794281006,0.10253442823886873,-0.07452556,-0.11056661,1
2.533297061920166,9.20272159576416,2.5786144733428955,0.12975874543190002,-0.13072516,-0.122783914,1
2.507657289505005,9.233120918273926,2.520526885986328,0.15424677729606628,-0.15760323,-0.1255328,1
2.491807222366333,9.258838653564453,2.4747443199157715,0.17535251379013062,-0.16707164,-0.12156218,1
2.48414945602417,9.280625343322754,2.439283847808838,0.18512289226055145,-0.18142697,-0.09987647,1
2.483071565628052,9.299253463745117,2.41211485862732,0.18678908050060272,-0.1908954,-0.08827003,1
2.48733901977539,9.315356254577637,2.3916215896606445,0.18258310854434967,-0.20005837,-0.06414085,1
2.4957945346832275,9.329408645629883,2.3764636516571045,0.1727588027715683,-0.2406809,-0.0030543262,1
2.5076663494110107,9.341825485229492,2.3656044006347656,0.16421175003051758,-0.21074851,0.025350908,1
2.5223402976989746,9.352940559387207,2.3582134246826167,0.1661023646593094,-0.20463985,0.044593163,1
2.5391478538513184,9.362985610961914,2.3535780906677246,0.17527513206005094,-0.20341812,0.024129177,1
2.557739496231079,9.372185707092283,2.3511743545532227,0.19079932570457456,-0.2049453,-0.022602014,1
2.574702501296997,9.381246566772461,2.3463172912597656,0.2075805068016052,-0.17073683,-0.07513642,1
2.5831849575042725,9.391484260559082,2.3294811248779297,0.21763479709625244,-0.10781772,-0.093767814,1
2.58454704284668,9.402716636657717,2.302609443664551,0.22192516922950745,-0.08277224,-0.0580322,1
2.580185651779175,9.414748191833496,2.2676689624786377,0.2249035537242889,-0.03573562,-0.014660766,1
2.5711960792541504,9.42743968963623,2.226170301437378,0.23163850605487826,-0.002443461,0.02443461,1
2.5585412979125977,9.440632820129396,2.1795318126678467,0.2436240017414093,-0.03023783,0.037873644,1
2.542896509170532,9.454253196716307,2.128652811050415,0.2544005215167999,-0.07880162,0.050701816,1
2.52487587928772,9.4682035446167,2.0744316577911377,0.26307645440101624,-0.073303826,0.027794369,1
2.504948139190674,9.482418060302734,2.017528533935547,0.2671632170677185,-0.04520403,-0.025350908,1
2.48347544670105,9.49685001373291,1.9584394693374636,0.2580379843711853,-0.07727446,-0.08704830000000001,1
2.464503526687622,9.496419906616213,1.8954166173934937,0.2439459711313248,-0.08460484,-0.09590584,1
2.4560697078704834,9.452750205993652,1.8210405111312864,0.2324025928974152,-0.055283304000000005,-0.060170225999999986,1
2.453225612640381,9.387060165405273,1.7314459085464478,0.2281852811574936,-0.041233405,0.018936822,1
2.4485347270965576,9.367140769958496,1.6014832258224487,0.22916461527347565,-0.03145956,0.0720821,1
2.4243898391723637,9.43127727508545,1.4146196842193604,0.23223118484020236,-0.07299839999999999,0.06688975,1
2.3875386714935303,9.501852989196776,1.2464723587036133,0.2337101250886917,-0.108123146,-0.004886922,1
2.3669757843017583,9.550164222717283,1.1399255990982056,0.22167567908763885,-0.12492194,-0.105068825,1
2.359706163406372,9.568102836608887,1.0512484312057495,0.19623759388923645,-0.0983493,-0.13255776,1
2.343939304351806,9.558222770690918,0.9387644529342652,0.16656379401683807,-0.070249505,-0.0888809,1
2.321125268936157,9.580780029296877,0.8241930603981018,0.13930971920490265,-0.08582657,-0.055588737,1
2.3031480312347408,9.65304183959961,0.7445197105407715,0.1346457600593567,-0.08277224,-0.043066,1
2.301253080368042,9.726114273071287,0.7289925813674927,0.1463744342327118,-0.050701816,-0.03604105,1
2.3195736408233643,9.76174259185791,0.7657361030578613,0.1580534130334854,-0.087659165,-0.004581489,0
2.3615918159484863,9.8563232421875,0.7905920743942261,0.17786136269569394,-0.204029,-0.04337143,0
2.470144033432007,10.100784301757812,0.8239626884460449,0.2488126903772354,-0.3662137,-0.22479841,0
2.6411497592926025,10.302470207214355,0.9229746460914612,0.3539392054080963,-0.41263947,-0.46822822,0
2.8013839721679688,10.169593811035156,1.084909439086914,0.44401669502258295,-0.23151793,-0.38331795,0
2.8856296539306636,9.76467514038086,1.2173140048980713,0.5051657557487488,-0.10720685,-0.24709499,0
2.882016658782959,9.39365291595459,1.2998892068862915,0.574550449848175,-0.19517145,-0.26328292,0
2.874664306640625,9.241307258605957,1.4505925178527832,0.6502720713615417,-0.4792238,-0.44837508,0
2.927906274795532,9.216233253479004,1.7100638151168823,0.7206564545631409,-0.6423248,-0.5928446999999999,0
3.00018572807312,9.164717674255373,1.9314578771591189,0.7781434655189514,-0.68233645,-0.6789767,0
3.0491936206817627,9.08495807647705,1.9451967477798464,0.8157853484153748,-0.61941737,-0.6908886,0
3.001204013824463,9.037110328674316,1.6744457483291626,0.8582442998886108,-0.4538729,-0.6750060999999999,0
2.8396909236907963,9.087641716003418,1.3061383962631226,0.9214903712272644,-0.3277292,-0.7693848000000001,0
2.6110646724700928,9.19202709197998,1.1281042098999023,0.9926270842552184,-0.3277292,-0.9300423,0
2.4186022281646733,9.236827850341797,1.2686420679092407,1.0456470251083374,-0.46211955,-0.9651671,0
2.348710536956787,9.154516220092773,1.5487320423126218,1.0798301696777344,-0.59986967,-0.86529064,0
2.3853991031646733,8.930644989013672,1.6989896297454834,1.1059340238571167,-0.57604593,-0.77518797,0
2.497586488723755,8.61592960357666,1.6191247701644895,1.1351299285888672,-0.31764993,-0.7031059000000001,0
2.6341655254364014,8.310235977172853,1.4240745306015017,1.1856989860534668,-0.24037547,-0.6924158,0
2.69683837890625,8.15259838104248,1.2003148794174194,1.2609468698501587,-0.20922135,-0.69913524,0
2.5712087154388428,8.179553985595701,1.0013762712478638,1.3442293405532837,-0.21868975,-0.7254025,0
2.321722507476806,8.260405540466309,0.9512246251106262,1.4349356889724731,-0.32711834,-0.75319684,0
2.0880227088928223,8.214792251586914,1.137692093849182,1.5477048158645632,-0.24465153,-0.69913524,0
1.8913754224777224,7.939389228820801,1.48897385597229,1.684410810470581,-0.0888809,-0.6053675000000001,0
1.7558460235595703,7.425703525543213,1.950796365737915,1.8246419429779053,-0.099265605,-0.6979135000000001,0
1.9667270183563232,6.9182190895080575,2.3981945514678955,1.9132673740386963,-0.29046643,-0.9297369,0
2.4861860275268555,6.570000171661378,2.612738132476806,1.945972561836243,-0.71868294,-1.3405437,0
2.9946675300598145,6.256988525390625,2.457643985748291,2.0008697509765625,-0.7535023000000001,-1.604743,0
3.139739990234375,5.852008819580077,1.7109978199005127,2.1110217571258545,-0.012217305,-1.357648,0
2.7098679542541504,5.16511869430542,0.2515439987182617,2.1869051456451416,1.5705346000000002,-0.74372846,0
1.6643080711364746,3.8045222759246826,-1.93368935585022,2.131427526473999,2.7210991,-0.006414085,0
-0.282295823097229,1.5988560914993286,-4.510178565979004,1.828782320022583,1.151481,1.0855075,0
-2.9113082885742188,-0.5057156682014465,-6.3806519508361825,1.5167397260665894,-1.720502,2.1700988,0
-5.146944046020508,-1.7856138944625854,-7.2508721351623535,1.3716440200805664,-0.97158116,0.9416488000000002,0
-5.846264362335205,-1.5349241495132446,-8.603449821472168,1.248735427856445,2.7146852000000004,0.2443461,0
-4.846063137054443,0.9944028258323668,-10.443880081176758,1.3136770725250244,4.6303587,0.79412484,0
-3.329396963119507,4.235361099243163,-11.156246185302734,1.5741392374038696,-0.9975429,0.10170906,0
-1.5192488431930542,6.462904930114746,-10.342647552490234,1.482780933380127,-2.7800477000000003,-0.7287621999999999,0
0.04525775834918022,7.0169944763183585,-9.749424934387207,1.1199527978897097,-0.9086621,-1.1893546999999998,0
1.0066055059432983,6.908478260040282,-9.64609432220459,0.8987242579460144,-0.50701815,-1.2672399,0
0.6570526361465454,5.820086479187013,-10.037110328674316,0.9354181289672852,-0.09010262,-1.6325374,0
-0.6880266666412354,4.228448390960693,-10.629508018493652,1.0102452039718628,0.076052725,-1.5189165,0
-2.3363454341888428,2.527606248855591,-11.004297256469727,0.9648572206497192,-1.6050483999999998,-1.4126259,0
-3.5992026329040527,1.2314304113388062,-11.387861251831055,0.7969953417778015,-2.0903810000000003,-0.66614854,0
-4.24609375,1.0811104774475098,-11.932397842407227,0.6487261652946472,-1.3881912,-0.06658431,0
-4.58801794052124,1.968706488609314,-12.373151779174805,0.6437628269195557,-0.55833083,-0.009773844,0
-4.674178123474121,3.2673499584198,-12.37506866455078,0.681029200553894,-0.69027776,-0.11056661,0
-4.592889785766602,4.2801570892333975,-11.978297233581545,0.6808978319168091,-0.77854776,-0.19700404,0
-4.412119388580322,4.797189235687256,-11.231618881225586,0.6526830196380615,-0.70005155,-0.3585779000000001,0
-4.1072916984558105,4.896815776824951,-10.244144439697266,0.5853935480117798,-0.6102544,-0.56779927,0
-3.6994202136993413,4.615744113922119,-9.346442222595217,0.5321446657180786,-0.45540005,-0.63163465,0
-3.4110136032104488,4.0758018493652335,-8.993474006652832,0.5369573831558228,-0.21013765,-0.21624629,0
-3.4565014839172363,3.3594694137573238,-9.664155960083008,0.5892788767814636,0.13255776,0.17989981,0
-4.019030570983887,2.69218111038208,-11.170259475708008,0.6240416765213013,0.6826419,0.24556783,0
-5.089632987976074,2.505117177963257,-12.689852714538574,0.4748815596103668,0.81581056,-0.076358154,0
-6.075010299682617,3.331161499023437,-13.188525199890135,0.09864791482686996,0.16065755,-0.26297748,0
-6.0519776344299325,4.879061222076416,-12.458017349243164,-0.2921192944049835,-0.2773328,0.11178834,0
-5.071535110473633,6.2572879791259775,-11.114422798156738,-0.3575751483440399,-0.10781772,0.7528914000000001,0
-3.9831948280334473,6.710636615753174,-9.641695022583008,-0.1641419231891632,-0.018020526,0.64843345,0
-3.0708603858947754,6.4327898025512695,-8.59384822845459,0.10914842784404756,0.06811147,0.26450464,0
-2.332099437713623,5.799350261688232,-8.041227340698242,0.31516802310943604,0.32009340000000003,-0.1994475,0
-1.864230155944824,5.110449314117432,-7.789543628692628,0.3851032257080078,0.78954333,-0.29077184,0
-1.7780436277389526,4.25521183013916,-7.582620620727539,0.328462690114975,0.91446525,-0.29046643,0
-2.1691217422485347,3.023524522781372,-7.27672815322876,0.21117658913135529,0.2929099,-0.24465153,0
-2.815953493118286,1.9279804229736328,-7.083895683288574,0.06388572603464128,-0.07086037,-0.109650314,0
-3.3764858245849614,1.3874900341033936,-7.236252307891847,-0.09832007437944412,0.025045475,0.20677789,0
-3.7239584922790527,1.5476012229919434,-7.766062259674072,-0.22171005606651306,0.2837469,0.45173484,0
-3.802173614501953,2.5356688499450684,-8.533784866333008,-0.27217960357666016,0.0070249503,0.35643986,0
-3.731143712997437,3.8819348812103267,-8.968306541442871,-0.32678166031837463,-0.52015173,0.27214047,0
-3.538158893585205,4.809717655181885,-8.986087799072266,-0.40902429819107056,-0.48349985,0.099265605,0
-3.190577983856201,5.438252925872803,-8.720540046691895,-0.4641999006271362,-0.010690141499999998,-0.057421334,0
-2.8357274532318115,5.844070911407472,-8.395734786987305,-0.43932464718818665,0.17806722,-0.04917465,0
-2.596320629119873,6.045473575592041,-8.203936576843263,-0.3060265779495239,0.10995574,-0.00061086525,0
-2.4845635890960693,5.984619140625,-8.137503623962402,-0.1337670385837555,0.13622294,0.07971791,0
-2.537583112716675,5.607072353363037,-8.134471893310549,-0.015445993281900884,-0.021380283,0.1020145,0
-2.69010066986084,5.0358476638793945,-8.189327239990233,0.04380512237548828,-0.11148291,0.08521569999999999,0
-2.856504201889038,4.501652717590332,-8.299436569213867,0.043727390468120575,0.029321533,0.10170906,0
-2.9952950477600098,4.188583850860597,-8.399871826171875,0.002783546689897776,0.12583824,0.12186762,0
-3.0640714168548584,4.1491804122924805,-8.411861419677733,-0.03848094120621681,0.055283304000000005,0.099265605,0
-3.045278787612915,4.3365864753723145,-8.343276977539062,-0.06111141294240952,-0.0009162979,0.025350908,0
-2.951289653778076,4.653200626373291,-8.270077705383299,-0.06482484936714172,0.017104227,0.0027488936,0
-2.8278806209564213,4.9276885986328125,-8.287801742553711,-0.04459577053785324,0.16218472,0.027794369,0
-2.7626872062683105,5.065515518188477,-8.354732513427733,-0.0012921594316139815,0.22052236,0.042760565999999986,0
-2.757692575454712,5.0644564628601065,-8.37762451171875,0.037898968905210495,0.16920967,0.08368854,0
-2.785104990005493,4.947241306304932,-8.353317260742188,0.05947614833712578,0.0842994,0.08827003,0
-2.8084843158721924,4.77972412109375,-8.324604034423826,0.06215367838740349,0.06505715,0.084910266,0
-2.808182001113892,4.64193868637085,-8.311655044555664,0.05030422657728195,0.11362094,0.07269296,0
-2.761866569519043,4.585021018981934,-8.307180404663086,0.028515750542283055,0.14202617,0.07666359,0
-2.6717545986175537,4.61079216003418,-8.3343505859375,0.006523482967168093,0.1386664,0.07696902,0
-2.560526132583618,4.692485332489014,-8.367154121398926,-0.0054676253348588935,0.11911872,0.05497787,10
-2.4502089023590092,4.780609607696533,-8.371935844421388,-0.007072512060403824,0.09010262,0.034208454,10
-2.35819411277771,4.841485500335693,-8.352202415466309,0.0005578844575211406,0.07391469,0.030543262,10
-2.2893426418304443,4.874349594116211,-8.339085578918457,0.011880879290401936,0.07147124,0.02565634,10
-2.246133089065552,4.873323440551758,-8.344470977783201,0.02015217393636704,0.05589417,0.031154128,10
-2.2363622188568115,4.840350151062012,-8.33432674407959,0.02205751836299896,0.018325957,0.018936822,10
-2.247084856033325,4.775691509246826,-8.326201438903809,0.018595851957798004,0.007941248,0.002443461,10
-2.2477660179138184,4.719310283660889,-8.346585273742676,0.012003343552350998,0.030543262,0.011301007,10
-2.2276415824890137,4.6939659118652335,-8.381587982177733,0.006402037572115661,0.0018325958,0.01985312,10
-2.20522689819336,4.700272560119629,-8.398890495300293,0.005947359371930361,-0.018020526,0.039095376,10
-2.1880996227264404,4.727497100830078,-8.401538848876951,0.0091908173635602,-0.019547688,0.03390302,10
-2.1812310218811035,4.759300708770752,-8.390602111816406,0.015821557492017746,-0.006414085,0.033292156,10
-2.192518949508667,4.774956226348877,-8.370325088500978,0.024408433586359024,-0.0012217305,0.027794369,10
-2.2108230590820312,4.774008274078369,-8.347964286804201,0.030716940760612488,-0.03756821,0.018020526,10
-2.2340545654296875,4.76666784286499,-8.335386276245117,0.029391869902610782,-0.049785517,0.026267206,10
-2.2476894855499268,4.7570013999938965,-8.335005760192871,0.02445259690284729,-0.035430185,0.021380283,10
-2.247933149337769,4.744502544403076,-8.345808029174805,0.019691837951540947,-0.03848451,0.029626964,10
-2.2431859970092773,4.74354887008667,-8.355538368225098,0.01869446411728859,-0.039095376,0.029932396,10
-2.2534401416778564,4.756040096282959,-8.359646797180176,0.02112019807100296,-0.039095376,0.019547688,10
-2.271301746368408,4.762755393981934,-8.362109184265138,0.02089853398501873,-0.050701816,0.0067195175,10
-2.292122364044189,4.771674633026123,-8.370724678039549,0.018494151532649997,-0.049480084,-0.009773844,10
-2.3111896514892583,4.778116226196289,-8.374849319458008,0.015383576974272728,-0.040927973,-0.018936822,10
-2.326251745223999,4.777316093444824,-8.369354248046875,0.010507481172680857,-0.03848451,-0.015882496,10
-2.347161293029785,4.77123498916626,-8.378453254699707,0.006198766175657511,-0.03573562,-0.007330383,10
-2.368175745010376,4.761089324951172,-8.391159057617188,0.003864952363073826,-0.022907447,-0.002443461,10
-2.399653434753418,4.751158714294434,-8.38886833190918,0.001727325958199799,-0.010079277,-0.003970624,10
-2.4205756187438965,4.735875606536865,-8.38388729095459,0.00025898253079503775,-0.008857545999999999,-0.0143553335,10
-2.428945779800415,4.733280658721924,-8.38347339630127,-0.0033344749826937914,-0.010690141499999998,-0.004886922,10
-2.432690143585205,4.746343612670898,-8.39238166809082,-0.006343142595142126,-0.009162978,0.0070249503,10
-2.441955327987671,4.76038932800293,-8.401581764221191,-0.006708299275487661,-0.018325957,0.010995574,10
-2.4506967067718506,4.7688822746276855,-8.401773452758789,-0.0054904683493077755,-0.012217305,0.011301007,10
-2.4546399116516118,4.772722244262695,-8.39649772644043,-0.006669623777270317,0.015577064,0.00580322,10
-2.4597437381744385,4.772001266479492,-8.390340805053711,-0.009289029985666277,0.02076942,0.010079277,10
-2.462444543838501,4.768289566040039,-8.386343955993652,-0.009843187406659126,0.0076358155,0.015882496,10
-2.4559643268585205,4.759683609008789,-8.391077041625978,-0.009442619048058987,0.018936822,0.030543262,10
-2.448474407196045,4.748614311218262,-8.39411449432373,-0.008013793267309666,0.025350908,0.026267206,10
-2.4405505657196045,4.745043754577637,-8.385244369506836,-0.008350287564098835,0.025961773,0.032375857,10
-2.4355111122131348,4.743646621704102,-8.384382247924805,-0.00857815146446228,0.022296581,0.037873644,10
-2.4256834983825684,4.7513604164123535,-8.391716003417969,-0.007158537395298481,0.026267206,0.043676864,10
-2.41927170753479,4.770047187805176,-8.406105041503906,-0.006207967642694712,0.015882496,0.03145956,10
-2.4039781093597408,4.782279014587402,-8.408490180969237,-0.0068006226792931565,0.009162978,0.027794369,10
-2.3881630897521973,4.7851219177246085,-8.404492378234862,-0.0061644455417990685,-0.006414085,0.04184427,10
-2.3763468265533447,4.792149543762207,-8.403494834899902,-0.002043054671958089,0.012217305,0.03390302,10
-2.362532138824463,4.792969226837158,-8.400296211242676,0.003119367873296141,0.03145956,0.03176499,10
-2.3573739528656006,4.784404277801514,-8.400103569030763,0.006132992915809154,0.02687807,0.027183503,10
-2.358973503112793,4.767951488494873,-8.393771171569824,0.004933777265250683,0.006414085,0.02443461,10
-2.3627471923828125,4.746813774108887,-8.386646270751951,0.0026384380180388693,-0.0061086523,0.021991149,10
-2.358905553817749,4.72246789932251,-8.376700401306152,0.000907185603864491,-0.0021380284,0.022296581,10
-2.350069284439087,4.7007365226745605,-8.365296363830566,0.001356910215690732,0.0030543262,0.02687807,10
-2.3389227390289307,4.697484970092773,-8.370019912719728,-0.00019845100177917632,0.008246681,0.01863139,10
-2.334534168243408,4.711002826690674,-8.381753921508789,-0.0029569112230092287,-0.00030543262000000003,0.010995574,10
-2.333775520324707,4.72742223739624,-8.397928237915039,-0.001568598207086325,-0.004886922,0.019547688,10
-2.330597162246704,4.742241859436035,-8.409412384033201,0.00208841054700315,-0.0030543262,0.011301007,10
-2.334862232208252,4.746423721313477,-8.411934852600098,0.003402723465114832,-0.010995574,0.005497787,10
-2.3408854007720947,4.745441913604736,-8.403829574584961,0.0029944528359919786,-0.018936822,0.007941248,10
-2.3470358848571777,4.7431602478027335,-8.400570869445799,0.0040605622343719006,-0.011301007,0.008552114,10
-2.356119155883789,4.742107391357422,-8.406449317932129,0.005203584209084511,0.0143553335,0.015577064,10
-2.3606231212615967,4.741070747375488,-8.410599708557129,0.005344372242689133,-0.0012217305,0.0143553335,10
-2.368429183959961,4.736266136169434,-8.409770965576174,0.006699914112687111,0.0015271631,0.013439035,10
-2.382518768310547,4.730294227600098,-8.413810729980469,0.005208053160458803,-0.002443461,0.01985312,10
-2.3903980255126958,4.728609085083008,-8.404788970947267,0.0019200139213353395,-0.0009162979,0.0067195175,10
-2.3939526081085205,4.732914924621582,-8.392437934875487,0.0012358764652162788,-0.0015271631,0.022602014,10
-2.3922932147979736,4.739089488983153,-8.394562721252441,0.003286879975348711,0.0027488936,0.01160644,10
-2.3838250637054443,4.747390270233153,-8.401719093322754,0.0053905672393739215,0.013744468,0.017715093,10
-2.376694679260254,4.748159885406494,-8.416056632995605,0.006338873878121376,0.02443461,0.018936822,10
-2.377631187438965,4.735635757446289,-8.4207763671875,0.006028639152646065,0.013133603,0.016798794,10
-2.381852149963379,4.709123611450195,-8.417348861694336,0.005716594401746988,0.009468411,0.013133603,10
-2.377752780914306,4.686667919158936,-8.421180725097656,0.004849323071539402,0.00580322,0.014049901000000002,10
-2.3724188804626465,4.682913780212402,-8.417795181274414,0.0044390968978405,0.009162978,0.012217305,10
-2.3654768466949463,4.6785430908203125,-8.415249824523926,0.003993085119873285,-0.004276057,0.017104227,10
-2.3566229343414307,4.682972431182861,-8.418076515197754,0.0037300926633179188,-0.0070249503,0.007330383,10
-2.3506183624267583,4.689491271972656,-8.412894248962402,0.0022904053330421448,-0.007330383,0.0033597588,10
-2.344449520111084,4.695572853088379,-8.412788391113281,-0.0004927836707793176,-0.0015271631,0.004886922,10
-2.342491626739502,4.704732418060303,-8.415322303771973,-0.0018273419700562954,0.009162978,0.009773844,10
-2.3394646644592285,4.709108829498291,-8.414971351623535,-0.002984152641147375,-0.007330383,0.007330383,10
-2.336312055587769,4.711799144744873,-8.414104461669924,-0.0023983209393918514,-0.007330383,0.006414085,10
-2.331758737564087,4.71097469329834,-8.408625602722168,-0.0008724147919565438,-0.007330383,0.010079277,10
-2.333746671676636,4.713522911071777,-8.41709041595459,-0.0008109460468403995,-0.0070249503,0.003970624,10
-2.341397762298584,4.7161149978637695,-8.427985191345215,-0.0004169414169155061,-0.0027488936,0.008246681,10
-2.349316120147705,4.706680774688722,-8.434274673461914,0.00030035554664209485,-0.008552114,0.008857545999999999,10
-2.353223323822021,4.698189735412598,-8.43426513671875,-0.0013704533921554685,-0.002443461,0.014049901000000002,10
-2.3542239665985107,4.696149826049805,-8.436083793640138,-0.002912355586886406,0.004581489,0.01038471,10
-2.355663776397705,4.700440406799316,-8.436464309692383,-0.004314152989536524,-0.00030543262000000003,0.009468411,10
-2.3536059856414795,4.704556941986084,-8.436601638793945,-0.0029607820324599747,-0.007330383,0.010690141499999998,10
-2.3585045337677,4.709976196289063,-8.433426856994629,-0.001234831870533526,-0.016187929,0.0070249503,10
-2.360082626342773,4.707649230957031,-8.424570083618164,-0.001319481641985476,-0.0125227375,0.004581489,10
-2.3626296520233154,4.699378967285156,-8.414517402648926,0.0002722111239563674,-0.005192355,0.017104227,10
-2.366022109985352,4.692175388336182,-8.406959533691406,0.0004772870452143252,-0.00580322,0.017104227,10
-2.37054181098938,4.693994522094727,-8.40040397644043,0.0004780144372489304,-0.012217305,0.0143553335,10
-2.376333236694336,4.697277545928955,-8.401951789855957,0.0005346687976270914,-0.009162978,0.01038471,10
-2.3808634281158447,4.703455924987793,-8.408633232116701,0.0002645313215907663,0.00580322,0.018325957,10
-2.3880608081817627,4.70994234085083,-8.416677474975586,0.0003929748781956732,0.01282817,0.013744468,10
-2.3944787979125977,4.710948467254639,-8.419452667236326,0.0005355234025046228,-0.0033597588,0.014660766,10
-2.400965929031372,4.706787586212158,-8.415645599365233,0.0002063068823190406,-0.008857545999999999,0.0036651916,10
-2.3939073085784908,4.70478105545044,-8.412374496459961,-0.0009085597121156752,-0.010995574,0.0015271631,10
-2.387944459915161,4.704346656799316,-8.416854858398438,-6.215885514393449e-05,0.002443461,0.005192355,10
-2.388877391815185,4.701306343078613,-8.422677993774414,0.0009372470085509119,0.0033597588,0.00030543262000000003,10
-2.393063545227051,4.700854778289795,-8.431177139282228,-0.00019457790767773983,0.012217305,-0.0015271631,10
-2.3981525897979736,4.702218532562256,-8.440594673156737,-0.0014555235393345356,0.011911872,0.005192355,10
-2.4030275344848637,4.701166152954102,-8.446406364440918,-0.004924353677779436,0.012217305,0.013744468,10
-2.4047322273254395,4.696498394012451,-8.442802429199219,-0.007484102621674538,0.023518313,0.022907447,10
-2.4093921184539795,4.694394588470459,-8.43913745880127,-0.009969388134777546,0.015577064,0.016493361,10
-2.4090585708618164,4.694593906402588,-8.432173728942871,-0.009000642225146294,0.022602014,0.016493361,10
-2.398781538009644,4.6940269470214835,-8.429511070251465,-0.010123251006007195,0.019547688,0.018325957,10
-2.390106201171875,4.6898770332336435,-8.433377265930176,-0.011470254510641098,0.016798794,0.01740966,10
-2.388791561126709,4.683632373809815,-8.431281089782715,-0.013243253342807293,0.020463986,0.02321288,10
-2.386528491973877,4.6857452392578125,-8.431998252868652,-0.014124772511422634,0.0143553335,0.021685716,10
-2.3828437328338623,4.6865553855896,-8.434723854064941,-0.015391665510833262,0.020463986,0.019547688,10
-2.3803091049194336,4.69342851638794,-8.439338684082031,-0.01700224168598652,0.021380283,0.01863139,10
-2.371795654296875,4.699151515960693,-8.449204444885254,-0.017435537651181218,0.018325957,0.014049901000000002,10
-2.3648993968963623,4.712224960327148,-8.450603485107424,-0.01651441864669323,0.0143553335,0.015271631,10
-2.360055923461914,4.720179080963135,-8.448246955871582,-0.015010718256235124,-0.00030543262000000003,0.013133603,10
-2.356668472290039,4.7175259590148935,-8.439827919006348,-0.01350783184170723,0.002443461,0.013439035,10
-2.351857900619507,4.706016540527344,-8.429961204528809,-0.012524652294814587,0.014660766,0.019547688,10
-2.349493741989136,4.69423246383667,-8.421126365661621,-0.01432783901691437,-0.002443461,0.01038471,10
-2.3450403213500977,4.690633296966553,-8.412413597106934,-0.016636274755001068,-0.03756821,0.0076358155,10
-2.331122398376465,4.694199085235597,-8.40638256072998,-0.0177114699035883,-0.035430185,-0.0018325958,10
-2.320622444152832,4.705335140228272,-8.412538528442383,-0.01661008410155773,-0.01863139,-0.007941248,10
-2.317408800125122,4.7147722244262695,-8.413569450378418,-0.015866421163082126,-0.031154128,-0.0070249503,10
-2.317072629928589,4.710994243621826,-8.400705337524414,-0.01831833459436893,-0.08277224,-0.011301007,10
-2.318277597427368,4.710370063781738,-8.390076637268066,-0.0209693405777216,-0.10170906,-0.0070249503,10
-2.3283095359802246,4.717569351196289,-8.388225555419924,-0.02013007551431656,-0.063224554,-0.008246681,10
-2.3544554710388184,4.7297539710998535,-8.389068603515625,-0.018667209893465042,-0.027794369,-0.006414085,10
-2.3902761936187744,4.728709220886231,-8.381056785583496,-0.01608254201710224,-0.014966198,0.007941248,10
-2.4262409210205083,4.705847263336182,-8.360612869262695,-0.012516224756836893,-0.019547688,0.024740042,10
-2.44588303565979,4.67946195602417,-8.354386329650879,-0.01119839958846569,-0.04886922,0.04337143,10
-2.4546117782592773,4.679872989654541,-8.364733695983888,-0.011440258473157884,-0.058337633,0.039095376,10
-2.4604804515838623,4.710853099822998,-8.38765811920166,-0.008614140562713144,-0.0571159,0.038789943,10
-2.4617481231689453,4.746269226074219,-8.405056953430176,-0.0032652458176016808,-0.050396383,0.022296581,10
-2.446820020675659,4.763237953186035,-8.401849746704103,0.0023537056986242533,-0.048258353,0.01038471,10
-2.4266376495361333,4.761273384094238,-8.40074634552002,0.003191896015778184,-0.04795292,-0.002443461,10
-2.4137613773345947,4.755141258239746,-8.408229827880861,-2.8743637813022357e-05,0.0021380284,0.0033597588,10
-2.416020393371582,4.743323802947998,-8.388521194458008,-0.004361382685601711,0.014660766,0.0015271631,10
-2.4178855419158936,4.724206447601318,-8.338761329650879,-0.009577495977282524,-0.0076358155,-0.006414085,10
-2.424426794052124,4.711464881896973,-8.287972450256348,-0.009352193213999271,-0.01038471,0.011301007,10
-2.441537618637085,4.7141757011413565,-8.269452095031737,-0.0011946245795115829,0.0070249503,0.020158553,10
-2.46547269821167,4.725269794464111,-8.291553497314451,0.006002326495945454,0.020158553,0.03390302,10
-2.4839601516723637,4.727129936218262,-8.330327033996582,0.008405384607613087,-0.003970624,0.032375857,10
-2.4822261333465576,4.71615743637085,-8.374160766601562,0.0053290240466594705,-0.01740966,0.029321533,10
-2.4639041423797607,4.725166320800781,-8.42387866973877,0.00222426513209939,-0.0033597588,0.052839845,10
-2.456429958343506,4.757189750671387,-8.464508056640625,0.00827153492718935,0.024129177,0.0720821,10
-2.485463857650757,4.7900166511535645,-8.461084365844728,0.018593953922390938,0.03756821,0.07391469,10
-2.5429649353027344,4.787280559539795,-8.41619873046875,0.02881864830851555,0.03023783,0.08368854,10
-2.602726459503174,4.741830825805664,-8.373380661010742,0.03653519228100777,0.038179077,0.10415252,10
-2.642491340637207,4.69390344619751,-8.367647171020508,0.0423072874546051,0.03634648,0.12889257,10
-2.6346683502197266,4.671721935272217,-8.382226943969728,0.04772649705410004,0.020158553,0.12797627,10
-2.5833561420440674,4.6748576164245605,-8.388410568237305,0.051218047738075256,0.013744468,0.10629055,10
-2.501770257949829,4.6951823234558105,-8.384228706359862,0.05295836552977562,0.04734206,0.06536258,10
-2.4136850833892822,4.715251922607422,-8.385150909423826,0.05277923122048378,0.07422013,0.0290161,10
-2.337297916412353,4.722166061401367,-8.408997535705566,0.046015460044145584,0.08674286,0.0021380284,10
-2.287329912185669,4.7118659019470215,-8.453218460083008,0.033844463527202606,0.08155051,0.00580322,10
-2.268615484237671,4.67164945602417,-8.488631248474121,0.02595478855073452,0.076052725,0.022602014,10
-2.2700417041778564,4.616777896881104,-8.498688697814941,0.020666690543293956,0.05925392700000001,0.019547688,10
-2.2705984115600586,4.566824913024902,-8.495368957519531,0.016893835738301274,0.03145956,0.0076358155,10
-2.262589693069458,4.531508922576903,-8.478276252746582,0.012137242592871187,-0.02687807,-0.01863139,10
-2.235374212265014,4.522347927093506,-8.457057952880861,0.006805417127907276,-0.055588737,-0.025350908,10
-2.2001538276672363,4.545538425445557,-8.468606948852539,-0.0005243430496193469,-0.020158553,-0.021380283,10
-2.190185546875,4.582630634307861,-8.501537322998049,-0.006093368399888277,0.0143553335,-0.007941248,10
-2.216500997543335,4.601208209991455,-8.510734558105469,-0.01070847176015377,0.0061086523,-0.010995574,10
-2.256944179534912,4.600641250610352,-8.496241569519043,-0.012780896387994291,-0.018936822,0.0036651916,10
-2.2953670024871826,4.594025611877441,-8.474024772644043,-0.01243526954203844,-0.01985312,0.013133603,10
-2.321579933166504,4.6004557609558105,-8.460576057434082,-0.00966115016490221,-0.01282817,0.034513887,10
-2.3418779373168945,4.605276107788086,-8.446142196655272,-0.006458987016230822,-0.020158553,0.03481932,10
-2.345168352127075,4.624634742736816,-8.441160202026367,-0.005127210635691881,-0.00580322,0.032375857,10
-2.339277029037476,4.657402992248535,-8.438689231872559,-0.0064339404925704,0.022907447,0.01740966,10
-2.3257296085357666,4.677257537841797,-8.432392120361326,-0.00987167190760374,0.018936822,-0.005192355,10
-2.300893068313598,4.671192169189453,-8.435400009155272,-0.009568112902343271,0.00061086525,-0.0036651916,10
-2.2734038829803467,4.650659084320068,-8.447254180908201,-0.006150540430098772,-0.005497787,-0.004886922,10
-2.2630040645599365,4.6290059089660645,-8.468017578125,-0.004353294149041176,-0.0070249503,0.0015271631,10
-2.266618013381958,4.6117472648620605,-8.474701881408691,-0.006640630308538675,-0.028405234,0.0033597588,10
-2.275059938430786,4.597179412841797,-8.467329025268555,-0.012420992366969584,-0.037873644,-0.011911872,10
-2.2765135765075684,4.593127250671387,-8.455751419067383,-0.017499806359410286,-0.032375857,-0.015577064,10
-2.2807440757751465,4.597466945648193,-8.452218055725098,-0.02202671580016613,-0.025045475,-0.016187929,10
-2.2829647064208984,4.613056659698486,-8.444865226745605,-0.027842488139867786,-0.02443461,-0.022602014,10
-2.282207489013672,4.631606101989746,-8.443848609924316,-0.030690370127558705,-0.013133603,-0.021380283,10
-2.2803049087524414,4.6460533142089835,-8.44916820526123,-0.030622607097029686,-0.022602014,-0.02443461,10
-2.27720308303833,4.639828681945801,-8.452163696289062,-0.029608035460114483,-0.030848695,-0.019242255,10
-2.282256603240967,4.612072944641113,-8.450271606445312,-0.027754075825214386,-0.046731193,-0.0143553335,10
-2.2969846725463867,4.585651874542236,-8.460221290588379,-0.027613945305347443,-0.056505036,-0.0012217305,10
-2.32772159576416,4.586519718170166,-8.472010612487793,-0.028690941631793976,-0.05222898,0.0125227375,10
-2.371035099029541,4.621004581451416,-8.468474388122559,-0.031285181641578674,-0.032070424,0.021380283,10
-2.410402536392212,4.664471626281738,-8.4503173828125,-0.0334358774125576,-0.017104227,0.02687807,10
-2.442809581756592,4.701582431793213,-8.426551818847656,-0.034296371042728424,-0.005497787,0.03940081,10
-2.4677958488464355,4.728387832641602,-8.40742015838623,-0.03059569001197815,0.03023783,0.049785517,10
-2.49634861946106,4.7372331619262695,-8.389857292175293,-0.026349330320954326,0.052534413,0.05375614,10
-2.5254652500152592,4.7452073097229,-8.377415657043457,-0.020687628537416455,0.056505036,0.054061573,10
-2.5390586853027344,4.752102851867676,-8.383462905883789,-0.014786158688366413,0.07880162,0.05955936,10
-2.5396974086761475,4.7590065002441415,-8.395417213439941,-0.011255263350903988,0.08704830000000001,0.07299839999999999,10
-2.5275795459747314,4.764789581298828,-8.400729179382324,-0.008138235658407211,0.07452556,0.074830994,10
-2.5031161308288574,4.768778324127197,-8.403136253356934,-0.002972195390611887,0.08399397,0.08124508,10
-2.472664594650269,4.764742374420166,-8.409819602966309,0.0021620644256472588,0.09896017,0.07269296,10
-2.436944007873535,4.75501823425293,-8.420978546142576,0.005082085728645325,0.100792766,0.06078109,10
-2.401500940322876,4.746092796325684,-8.428491592407228,0.004677239805459976,0.08674286,0.050701816,10
-2.3670783042907715,4.722864627838135,-8.425737380981445,0.003161222208291292,0.06994407,0.03390302,10
-2.325148582458496,4.705087184906006,-8.431160926818848,0.00045953964581713086,0.07360926,0.032986723,10
-2.278470516204834,4.6986966133117685,-8.443767547607424,-0.002640881109982729,0.089186326,0.02687807,10
-2.2346842288970947,4.697075843811035,-8.45648193359375,-0.0057106479071080685,0.06780604,0.011301007,10
-2.199671506881714,4.692145347595215,-8.45911693572998,-0.006548903416842222,0.048258353,0.0009162979,10
-2.1684713363647456,4.686456680297852,-8.461641311645508,-0.01013033464550972,0.033292156,0.004886922,10
-2.1426990032196045,4.690550804138184,-8.467883110046388,-0.013734614476561545,0.016187929,0.014049901000000002,10
-2.1264188289642334,4.695984840393066,-8.475656509399414,-0.015620815567672253,0.027183503,0.017104227,10
-2.1202974319458012,4.697600841522217,-8.478890419006348,-0.015539710409939287,0.043676864,0.014966198,10
-2.1314001083374023,4.703773498535156,-8.484390258789062,-0.014658182859420775,0.030848695,0.013133603,10
-2.137705087661743,4.703427791595459,-8.473402976989746,-0.014920120127499104,0.005192355,0.016187929,10
-2.140204906463623,4.696329593658447,-8.458903312683105,-0.013304025866091251,0.00580322,0.024740042,10
-2.1389901638031006,4.688615798950195,-8.446856498718263,-0.01117627788335085,0.00580322,0.023518313,10
-2.1342546939849854,4.6833600997924805,-8.439998626708983,-0.009418432600796223,0.01985312,0.034208454,10
-2.1298201084136963,4.6878628730773935,-8.44190788269043,-0.009053341113030909,0.022602014,0.023823744,10
-2.1226134300231934,4.695397853851318,-8.437512397766112,-0.008554200641810894,-0.0070249503,0.015271631,10
-2.116527557373047,4.699568748474121,-8.436744689941406,-0.008139392361044884,-0.012217305,0.016187929,10
-2.1120338439941406,4.70808219909668,-8.448164939880371,-0.007460353896021844,-0.020463986,0.0036651916,10
-2.1019127368926998,4.714149475097656,-8.447142601013184,-0.008309144526720047,-0.018936822,0.0009162979,10
-2.090179204940796,4.723059177398682,-8.448902130126951,-0.008483472280204296,-0.024129177,-0.0018325958,10
-2.088842391967773,4.739047050476074,-8.459623336791992,-0.007539307232946157,-0.019547688,-0.0021380284,10
-2.093299388885498,4.75255012512207,-8.466583251953125,-0.006547578610479832,-0.01160644,-0.0076358155,10
-2.1042869091033936,4.758760929107666,-8.46553897857666,-0.007148304954171182,-0.016493361,-0.018020526,10
-2.1228041648864746,4.7590909004211435,-8.466614723205566,-0.007842089980840683,-0.014049901000000002,-0.007330383,10
-2.1438217163085938,4.75060510635376,-8.468680381774902,-0.0066595240496099,-0.014049901000000002,-0.0061086523,10
-2.1636264324188232,4.732133388519287,-8.463931083679201,-0.0053262473084032536,-0.002443461,0.0009162979,10
-2.1793875694274902,4.7157182693481445,-8.469058036804201,-0.004439133685082197,-0.00061086525,0.0070249503,10
-2.1902930736541752,4.703779220581055,-8.471254348754883,-0.004646977409720421,0.028099801,0.01985312,10
-2.202144861221313,4.6982903480529785,-8.464310646057129,-0.0039426484145224094,0.013133603,0.013133603,10
-2.2114391326904297,4.691581726074219,-8.460798263549805,-0.004208340309560299,0.005497787,0.01282817,10
-2.207119941711426,4.6959147453308105,-8.455676078796388,-0.004429257940500975,0.0061086523,0.011911872,10
-2.1914308071136475,4.707489490509033,-8.451967239379883,-0.0047856317833065995,0.021380283,0.008857545999999999,10
-2.174071311950684,4.712691307067871,-8.461797714233397,-0.005469650495797396,0.009468411,0.003970624,10
-2.163771390914917,4.715606689453125,-8.479916572570799,-0.004485213663429022,0.0067195175,0.009468411,10
-2.156419038772583,4.717051029205322,-8.492955207824707,-0.004609596449881792,-0.0012217305,0.006414085,10
-2.1693811416625977,4.719430923461914,-8.480404853820799,-0.0045115030370652676,-0.0061086523,0.004276057,10
-2.173428058624268,4.720464706420898,-8.46298885345459,-0.005190805066376925,-0.014966198,-0.0027488936,10
-2.175149917602539,4.717153072357178,-8.45738697052002,-0.004986378829926252,-0.004886922,0.0021380284,10
-2.173538446426392,4.713204383850098,-8.4571533203125,-0.0041620638221502295,0.013439035,0.008552114,10
-2.1666014194488525,4.715288162231445,-8.456196784973145,-0.004610349889844656,0.00580322,0.004581489,10
-2.1614930629730225,4.715498924255371,-8.452899932861326,-0.004532985854893923,-0.008857545999999999,0.0070249503,10
-2.156937837600708,4.7150540351867685,-8.455741882324219,-0.003112434409558773,-0.0015271631,-0.0030543262,10
-2.153794527053833,4.710620403289795,-8.455845832824707,-0.0021700283978134394,-0.013439035,0.0030543262,10
-2.151497364044189,4.700943946838379,-8.460009574890138,-0.0007807271904312074,-0.004886922,0.016187929,10
-2.1566762924194336,4.687572002410889,-8.464560508728027,0.001271971850655973,-0.0030543262,0.0143553335,10
-2.168941736221313,4.682365894317627,-8.466348648071289,0.0016770740039646626,-0.0009162979,0.007941248,10
-2.1909453868865967,4.69056510925293,-8.467497825622559,0.0007201374392025173,-0.009773844,-0.0009162979,10
-2.2020838260650635,4.6995887756347665,-8.467792510986326,-0.0011924364371225238,-0.008246681,0.0033597588,10
-2.1971821784973145,4.702147483825684,-8.470674514770508,-0.0027132919058203697,0.0030543262,-0.0018325958,10
-2.1953012943267822,4.701784610748291,-8.475652694702147,-0.0023943695705384016,0.013133603,0.007330383,10
-2.1935482025146484,4.705504417419434,-8.484407424926758,-0.001443121349439025,0.007330383,0.008552114,10
-2.197083711624145,4.702935695648193,-8.481266021728517,-0.001239787321537733,0.0018325958,0.008552114,10
-2.206761598587036,4.700991153717041,-8.475277900695799,-0.0011931502958759663,0.0012217305,0.0018325958,10
-2.214949607849121,4.696742534637451,-8.471503257751465,-0.0018547519575804472,0.005192355,0.009468411,10
-2.2096869945526123,4.702423095703125,-8.47435188293457,-0.003219466656446457,0.014966198,0.008857545999999999,10
-2.200316429138184,4.7036709785461435,-8.477522850036621,-0.0026704249903559685,0.022907447,0.015271631,10
-2.192626476287842,4.694582462310791,-8.481199264526367,-0.0004595170612446964,0.025961773,0.02076942,10
-2.1876871585845947,4.682973861694336,-8.482144355773926,0.0009341671830043196,0.014049901000000002,0.010995574,10
-2.1809546947479252,4.675082206726074,-8.484477043151855,0.0009087171638384461,0.008857545999999999,0.01740966,10
-2.1725599765777592,4.679773330688477,-8.481295585632324,0.00018988695228472352,0.007330383,0.0036651916,10
-2.1652824878692627,4.687098026275635,-8.483065605163574,-0.001504219719208777,-0.00061086525,0.0021380284,10
-2.1596522331237797,4.682243824005127,-8.489433288574219,-0.002911904826760292,0.0067195175,0.011301007,10
-2.15122652053833,4.67747688293457,-8.493036270141603,-0.002829340985044837,0.024129177,0.012217305,10
-2.1506927013397217,4.673867225646973,-8.493316650390625,-0.00116665568202734,0.018020526,0.008246681,10
-2.1521267890930176,4.669882774353027,-8.489739418029785,-0.0022451109252870087,-0.0036651916,0.0030543262,10
-2.1506354808807373,4.666210651397705,-8.48418140411377,-0.0039124758914113045,-0.004276057,0.005497787,10
-2.1493613719940186,4.6636929512023935,-8.484240531921388,-0.005221915431320667,-0.004581489,0.0061086523,10
-2.145540475845337,4.660111904144287,-8.488617897033691,-0.005733613856136799,0.0030543262,0.011911872,10
-2.142086267471313,4.661871433258057,-8.492918968200684,-0.0044354978017508975,-0.0067195175,0.008857545999999999,10
-2.143390893936157,4.666026592254639,-8.491872787475586,-0.004527074750512838,-0.008552114,0.004886922,10
-2.1447761058807373,4.6716041564941415,-8.490571975708008,-0.004072363488376141,-0.007941248,-0.0012217305,10
-2.144318103790283,4.6707916259765625,-8.489326477050781,-0.003956931643188,-0.0021380284,0.009162978,10
-2.1506807804107666,4.671053886413574,-8.486201286315918,-0.005076260305941105,0.0027488936,0.0067195175,10
-2.1602776050567627,4.669530868530273,-8.48043155670166,-0.00544251874089241,-0.00580322,0.005497787,10
-2.171377658843994,4.670351505279541,-8.47007942199707,-0.004573401063680649,-0.018325957,0.0021380284,10
-2.178476572036743,4.675682067871094,-8.461716651916504,-0.004003243986517191,-0.0030543262,0.005497787,10
-2.1813971996307373,4.680845737457275,-8.461977958679201,-0.0038064348045736547,0.0018325958,0.016493361,10
-2.177602052688598,4.687087059020996,-8.469727516174316,-0.0032350029796361928,0.013133603,0.013744468,10
-2.1767361164093018,4.6829609870910645,-8.48187255859375,-0.00210986495949328,0.007330383,0.003970624,10
-2.180627584457397,4.676971435546875,-8.493980407714844,-0.0028930397238582373,-0.004276057,0.0009162979,10
-2.184560060501098,4.675468444824219,-8.498376846313478,-0.0018278160132467747,0.0018325958,0.005497787,10
-2.1792476177215576,4.677032470703125,-8.495391845703125,-0.0021648805122822523,0.005192355,0.00030543262000000003,10
-2.174844980239868,4.672976493835449,-8.49335765838623,-0.0029651110526174307,0.010995574,0.009468411,10
-2.1681125164031982,4.66652250289917,-8.491927146911621,-0.003132408251985908,0.006414085,0.0143553335,10
-2.1674675941467285,4.660343647003174,-8.491389274597168,-0.0029497165232896805,-0.01282817,0.0012217305,10
-2.1623702049255367,4.65863847732544,-8.491425514221191,-0.002995843533426523,-0.0033597588,0.0076358155,10
-2.161296844482422,4.653025150299072,-8.492098808288574,-0.004840673413127661,0.0009162979,0.00580322,10
-2.1637413501739498,4.652608871459961,-8.492496490478517,-0.005812828429043293,0.003970624,0.005497787,10
-2.1681654453277592,4.659874439239502,-8.484651565551758,-0.007131151854991913,0.0030543262,0.004886922,10
-2.1684825420379643,4.671879768371582,-8.480521202087402,-0.006964931730180979,-0.008552114,0.01038471,10
-2.1723008155822754,4.679434776306152,-8.482641220092772,-0.006416110787540674,0.0009162979,0.002443461,10
-2.1746714115142822,4.6797523498535165,-8.489730834960938,-0.0060781268402934074,-0.0021380284,0.010079277,10
-2.174248218536377,4.679789066314697,-8.48966121673584,-0.005101459566503763,0.010995574,0.0021380284,10
-2.1700453758239746,4.679754257202148,-8.489033699035645,-0.005317487753927708,0.009162978,0.004886922,10
-2.1743531227111816,4.670171737670898,-8.490263938903809,-0.00582816731184721,-0.0021380284,0.00061086525,10
-2.1825428009033203,4.66025447845459,-8.492068290710451,-0.0049212537705898285,0.0012217305,0.013133603,10
-2.1870625019073486,4.6536216735839835,-8.499099731445312,-0.005094664171338081,0.007330383,0.008857545999999999,10
-2.187053918838501,4.655149459838867,-8.502658843994139,-0.005877266637980938,0.008857545999999999,0.011301007,10
-2.1885881423950195,4.660852909088135,-8.501786231994629,-0.007312605157494545,-0.0018325958,0.015271631,10
-2.1896653175354004,4.662485122680664,-8.50300407409668,-0.007995882071554659,0.0027488936,0.0067195175,10
-2.1908731460571294,4.658578872680664,-8.507552146911621,-0.0076066795736551285,0.014660766,0.010995574,10
-2.1895918846130367,4.655717849731445,-8.511360168457031,-0.009740647859871387,0.01740966,0.015271631,10
-2.189459085464477,4.6579999923706055,-8.518280029296875,-0.011232653632760048,0.009468411,0.005497787,10
-2.1853976249694824,4.660420894622803,-8.520479202270508,-0.011924953199923037,0.00030543262000000003,0.009773844,10
-2.180443525314331,4.660974502563477,-8.523146629333496,-0.012441014871001244,0.005192355,0.015577064,10
-2.1810872554779053,4.6592631340026855,-8.533933639526367,-0.012008985504508018,0.0067195175,0.004276057,10
-2.1800761222839355,4.657943248748778,-8.535460472106934,-0.012772412039339542,0.016187929,0.008552114,10
-2.1774561405181885,4.656343460083008,-8.529423713684082,-0.01355489157140255,0.0070249503,0.017104227,10
-2.17696213722229,4.652386665344238,-8.520489692687987,-0.013659241609275341,0.007941248,0.01863139,10
-2.178988218307495,4.657602310180664,-8.509585380554201,-0.013623378239572048,0.0021380284,0.0067195175,10
-2.178752899169922,4.667381763458252,-8.508133888244629,-0.014007310383021832,-0.0027488936,0.01740966,10
-2.1739866733551025,4.6756019592285165,-8.511545181274414,-0.01311755646020174,-0.0033597588,0.014660766,10
-2.1725125312805176,4.686481475830078,-8.510528564453125,-0.012698289006948471,0.013133603,0.0033597588,10
-2.1680796146392822,4.694288730621338,-8.506012916564941,-0.012844711542129515,0.014049901000000002,0.0009162979,10
-2.1694529056549072,4.696676254272461,-8.498787879943848,-0.01378530450165272,0.002443461,-0.0033597588,10
-2.1654677391052246,4.691014766693115,-8.498517990112305,-0.013330847956240177,-0.010690141499999998,-0.004276057,10
-2.1605088710784908,4.6843528747558585,-8.498558044433594,-0.013013215735554695,-0.008857545999999999,0.010079277,10
-2.160555124282837,4.679703712463379,-8.491711616516112,-0.012836499139666556,0.00030543262000000003,0.006414085,10
-2.1635677814483643,4.673768043518066,-8.485090255737305,-0.013944617472589016,0.002443461,0.020463986,10
-2.174213171005249,4.673975467681885,-8.47889518737793,-0.016143584623932842,-0.004581489,0.01160644,10
-2.1841077804565434,4.678464889526367,-8.472324371337889,-0.0164065919816494,-0.005497787,0.01038471,10
-2.188528060913086,4.683481693267822,-8.471750259399414,-0.015955910086631775,0.0021380284,0.009162978,10
