acc_x,acc_y,acc_z,gyro_x,gyro_y,gyro_z,label
0.0,0.0,0.0,0.0,-0.027183503,0.032986723,1
0.07385668903589249,0.2676029801368713,0.0338384248316288,0.0017630037618800996,0.01985312,0.029321533,1
0.2525915503501892,0.915307343006134,0.1167948991060257,0.004690113477408886,0.048563786,0.02107485,1
0.5156326293945312,1.8427882194519043,0.18466345965862274,0.009116968140006064,0.06169739,0.034513887,1
0.8059290647506714,2.8903064727783203,0.3441064655780792,0.015864722430706024,0.0143553335,0.03634648,1
1.0909709930419922,3.932432651519776,0.5246595144271851,0.024753415957093242,-0.026267206,0.04520403,1
1.355400562286377,4.889128684997559,0.5714111924171448,0.03627678006887436,-0.048563786,0.06750060599999999,1
1.5763201713562012,5.702371597290039,0.652184784412384,0.047879636287689216,-0.008857545999999999,0.06963864,1
1.7640186548233032,6.377249240875244,0.7141147255897522,0.0582348182797432,0.05131268,0.061086524,1
1.9453808069229128,6.976301670074463,0.7180606722831726,0.06587482243776321,0.07819075,0.03390302,1
2.1126797199249268,7.492133140563965,0.6855873465538025,0.07341612130403519,0.016493361,0.047036625,1
2.2510428428649902,7.882943630218506,0.6424384117126465,0.07982692867517471,0.0018325958,0.06536258,1
2.337031841278076,8.14484977722168,0.6383737325668335,0.08369137346744537,0.027488936,0.076052725,1
2.374262571334839,8.318522453308105,0.6813111901283264,0.0838233232498169,0.08368854,0.05467244,1
2.3778057098388667,8.415562629699707,0.78402179479599,0.08205188065767287,0.15363261,0.02321288,1
2.367083072662353,8.414752006530763,0.9403775334358216,0.06982187181711197,0.25503623,-0.025961773,1
2.342165946960449,8.374736785888674,1.1025985479354858,0.03962251543998718,0.32559118,-0.11575896,1
2.3024086952209477,8.329482078552246,1.2132676839828491,-0.007444567512720823,0.45265114,-0.18478674,1
2.239542245864868,8.284444808959961,1.2597929239273071,-0.058507289737463,0.52564955,-0.22602014,1
2.0907416343688965,8.184821128845215,1.2890509366989136,-0.11713878065347673,0.87017757,-0.3707952000000001,1
1.863218903541565,8.073611259460451,1.4446924924850464,-0.20379213988780973,0.7425067,-0.5467244000000001,0
1.7427144050598145,8.170997619628906,1.7048710584640503,-0.26706942915916443,-0.0125227375,-0.5671884,0
1.7566125392913818,8.400516510009767,1.7226101160049438,-0.2869875729084015,0.015882496,-0.5109888,0
1.7983961105346682,8.587678909301758,1.6419504880905151,-0.289652556180954,-0.010690141499999998,-0.45234573,0
1.9350186586380005,8.91418170928955,1.5444819927215576,-0.27647775411605835,-0.030543262,-0.22999077,0
2.1283919811248784,9.34023380279541,1.4870861768722534,-0.24735791981220245,0.13591751,0.013744468,0
2.2875852584838867,9.64137363433838,1.4220483303070068,-0.2298372834920883,0.29229903,0.076052725,0
2.4153993129730225,9.762014389038086,1.3051878213882446,-0.20560777187347407,0.31887165,0.07971791,0
2.5876502990722656,9.87028980255127,1.2197586297988892,-0.14931818842887878,0.14935656,0.2003638,0
2.7943503856658936,10.084716796875,1.1745389699935913,-0.07681211084127426,0.03359759,0.41691554,0
2.967616558074951,10.18330192565918,1.0521485805511477,-0.023902352899312973,0.4822781,0.45142943,0
3.055551767349243,9.967931747436523,0.9083360433578492,-0.018920743837952614,0.99387777,0.34116822,0
3.1403408050537114,9.538222312927246,0.9200208187103271,-0.06867653876543045,1.0167851,0.3145956,0
3.1721684932708736,9.055432319641113,1.007664918899536,-0.16399970650672913,1.1239921,0.2941316,0
3.032154083251953,8.675552368164062,1.0976730585098269,-0.3165775537490845,1.5928311000000002,0.21777347,0
2.52911376953125,8.539701461791992,1.1148310899734497,-0.5883587002754211,0.7910705,0.029321533,0
1.9185599088668823,8.554306983947754,0.7264901399612427,-0.7816449999809265,0.27397305,0.26878070000000004,0
1.5225027799606323,8.260708808898926,0.37286919355392456,-0.6767221093177795,0.9825767,-0.1518,0
0.98074609041214,7.75880241394043,1.2777276039123535,-0.6642217636108398,0.20250183,-0.33414328,0
0.25284072756767273,7.29575252532959,1.8039259910583496,-0.8578387498855591,1.022283,-0.39492437,0
-0.6181604266166687,6.811744689941406,1.7222625017166138,-0.982792317867279,1.2241739,-0.41172317,0
-1.2834365367889404,6.272194862365723,2.0175607204437256,-0.9165874719619752,0.63255095,-0.49480084,0
-1.1674888134002686,5.613114356994629,2.653099536895752,-0.837889552116394,0.7199047,-0.3894266,0
-0.3870675563812256,5.041885852813722,3.014094829559326,-0.7809198498725891,0.84849185,0.041233405,0
0.1529790461063385,4.863984107971191,3.2575039863586426,-0.7150846719741821,0.5036584,0.42455134,0
-0.17194296419620514,5.019241809844972,3.6469390392303462,-0.6284491419792175,0.32650748,0.19425514,0
-0.492947518825531,5.530817985534668,4.34862232208252,-0.5317356586456299,0.38362336,0.19700404,0
-0.4744869470596314,6.2866973876953125,5.104489326477051,-0.4075433909893036,0.5329799,0.49602258,0
-0.6253077983856201,7.238961696624756,5.7382144927978525,-0.3266344666481018,0.5390885999999999,0.76052725,0
-1.1096354722976685,8.22725772857666,6.361532211303711,-0.262430876493454,0.20738874,0.6918049,0
-1.3769452571868896,8.880057334899902,7.0224971771240225,-0.17190924286842346,0.10415252,0.7846564,0
-1.2602120637893677,9.280824661254883,7.6020874977111825,-0.0704520046710968,-0.061086524,1.0317514,0
-1.0256072282791138,9.708765983581543,8.098065376281737,0.06852687895298004,-0.40561453,1.2464706,0
-0.8574151396751404,10.261576652526855,8.553276062011719,0.2559596598148346,-0.7333437,1.3316863,0
-0.8315191268920898,10.764922142028807,8.860421180725098,0.4695219993591309,-1.0155635,1.4107933,0
-0.8883380889892578,11.058880805969238,9.049845695495604,0.6943684220314026,-1.3090841999999998,1.5015068,0
-0.9499744772911072,11.126948356628418,9.1317138671875,0.9321283102035522,-1.5436565,1.6487253000000002,0
-0.95313560962677,11.073448181152344,9.078814506530762,1.1841974258422852,-1.790446,1.8628336,0
-0.8567956686019897,10.878889083862305,8.892500877380371,1.4741607904434204,-1.9749273,2.0977113,0
-0.6470845341682434,10.494699478149414,8.638034820556639,1.7839512825012207,-2.1456642,2.281887,0
-0.3566366732120514,9.99106502532959,8.35943603515625,2.0839955806732178,-2.2104158,2.3732114,0
0.008360777050256729,9.61568546295166,7.786257266998291,2.3625402450561523,-2.1175644,2.3298400000000004,0
0.4888829290866852,9.33802890777588,6.673023223876952,2.6008143424987797,-2.5265386000000003,2.0005836,0
1.1556004285812378,8.755358695983888,5.149357318878174,2.765955924987793,-3.1600057999999995,1.5787812,0
1.9870015382766724,7.571789264678955,3.43754506111145,2.878170728683472,-3.1651983,1.3228287,0
2.911698818206787,5.933215618133545,1.6349039077758791,2.9141542911529537,-2.7947085,1.1979067,0
3.692603588104248,4.0868330001831055,-0.022385766729712486,2.8973193168640137,-2.453235,1.1230757,0
4.192760944366455,2.205982446670532,-1.421185851097107,2.804446220397949,-2.2275202000000003,1.0054842,0
4.444883346557617,0.6816753745079039,-2.7630486488342285,2.594175100326538,-1.7559321,1.1224649,0
4.394140720367432,-0.1159111112356186,-3.883622169494629,2.3116703033447266,-2.2464569,1.0525209,0
3.987356424331665,0.06059958413243294,-4.916220664978027,2.0457234382629395,-2.862209,0.782213,0
3.717562913894653,1.099261999130249,-5.99726152420044,1.842535734176636,-3.3014212,0.659429,0
3.925247192382813,2.1366312503814697,-7.130373001098633,1.6616592407226562,-2.02624,1.0198395,0
4.214047908782959,2.533610582351685,-7.943011283874513,1.5466183423995972,-0.410196,1.534799,0
4.038189888000488,2.2531867027282715,-8.319307327270508,1.4792602062225342,-0.13439035,1.3151928,0
3.6174156665802,1.789323091506958,-8.674014091491701,1.4090441465377808,-0.20738874,0.79229224,0
3.39453673362732,1.3960096836090088,-9.21676254272461,1.3214033842086792,-0.33475417,0.59773165,0
3.5309345722198486,1.0347044467926023,-9.86268711090088,1.2458600997924805,-0.096516706,0.55863625,0
3.9380278587341313,0.4327954053878784,-10.196779251098633,1.240857481956482,0.053450707,0.516792,0
4.481184482574463,-0.5039345622062683,-10.08084487915039,1.255648136138916,-0.36682457,0.39767328,0
4.989704132080078,-1.5268774032592771,-9.748740196228027,1.1811126470565796,-0.6533204,0.047647487,0
5.318379878997803,-2.1439425945281982,-9.638521194458008,1.0390926599502563,-0.95386606,-0.33964106,0
5.845196723937987,-1.8993908166885376,-9.919477462768556,0.9882673621177672,-1.9663752,-0.4175264,0
6.728382110595702,-0.8181937932968141,-10.643802642822266,1.0587586164474487,-1.9938642,0.23243423,0
7.588856220245361,0.3634664416313171,-11.988449096679688,1.225606918334961,-0.6768387,0.66706485,0
7.500663757324219,0.8506957888603209,-13.36623764038086,1.4101611375808716,1.0995574,-0.8481864,0
6.639095783233643,0.8654717803001404,-14.540042877197266,1.1677483320236206,0.6429357,-1.2473868,0
5.747461795806885,0.5263819098472595,-15.262950897216795,0.7522351741790771,0.08735373,-1.3836098,0
5.252908229827881,0.6622061729431152,-14.926795959472654,0.3993414044380188,0.45112398,-0.62796944,0
4.663345813751222,1.9672303199768064,-13.399725914001465,0.2329929620027542,1.8912388,0.589485,0
3.90287971496582,2.9384839534759517,-11.396703720092773,0.31822139024734497,2.784629,1.2950343,0
3.3898675441741943,2.8418245315551762,-8.952122688293457,0.40224820375442505,1.3026701,1.2849549999999998,0
3.1072466373443604,1.8883224725723269,-7.174239635467528,0.35619741678237915,-0.3811799,0.5543602,0
3.234919786453247,0.6797295808792114,-6.6454524993896475,0.2283269762992859,-1.2534955,-0.07574729,0
3.551784038543701,-0.22407032549381256,-6.926940441131593,0.08827170729637146,-0.52442783,-0.3903429,0
3.6767327785491934,-0.6017085909843445,-7.1914310455322275,0.001754866563715041,-0.6786713000000001,-0.46822822,0
3.5785653591156006,-0.6187098026275635,-7.551496982574463,-0.06012887135148048,-0.88147855,-0.41722095,0
3.412501335144043,-0.4323830306529999,-8.17020320892334,-0.03701639175415039,-0.8790351000000001,-0.36132678,0
3.3926925659179688,-0.09336809068918228,-8.975650787353516,0.053867381066083915,-0.7119634,-0.44409904,0
3.646500587463379,0.3346424400806427,-9.78959846496582,0.13287179172039032,-0.09437868,-0.4089743,0
4.294332027435304,0.8886772990226746,-10.289006233215332,0.12759758532047272,0.1994475,-0.19333886,0
5.098659038543701,1.5462632179260254,-10.47236442565918,0.031771525740623474,0.41508293,0.016493361,0
5.580164432525635,2.1701912879943848,-10.524823188781738,-0.07695101946592331,0.7452555999999999,0.24617869,0
5.453976631164551,2.5780961513519287,-10.189403533935547,-0.09159930050373076,0.655153,0.3042109000000001,0
5.178207874298097,2.691235065460205,-9.426339149475098,-0.02690235339105129,0.118202426,0.21777347,0
4.954145431518555,2.556097984313965,-8.594351768493652,0.014691594988107681,-0.24831672,0.12095132,0
4.837087631225586,2.264129877090454,-8.032943725585938,0.013865196146070955,-0.24953845,0.08368854,0
4.773367404937744,1.904237508773804,-7.80202054977417,-0.016252677887678146,-0.12614368,0.040011674,0
4.691479206085205,1.6204752922058103,-7.810135841369629,-0.053768206387758255,-0.15577064,-0.04184427,0
4.597911834716797,1.500663161277771,-7.951876640319824,-0.07758230715990068,-0.3912592,-0.16615535,0
4.5509233474731445,1.566322684288025,-8.189532279968263,-0.08717634528875351,-0.50762904,-0.22785273,0
4.5789222717285165,1.800113081932068,-8.484097480773926,-0.08448885381221771,-0.4288274,-0.21471913,0
4.6422438621521,2.1354706287384038,-8.758004188537598,-0.07367033511400223,-0.18509217,-0.16035213,0
4.711623668670653,2.4924209117889404,-8.976118087768555,-0.05597630515694618,0.06841691,-0.07452556,0
4.740891933441162,2.7552945613861084,-9.08786392211914,-0.02432803437113762,0.13347405,0.010995574,0
4.7140159606933585,2.87853741645813,-9.065714836120604,0.007373682688921691,0.06291912,0.036651913,0
4.64280891418457,2.873337745666504,-8.946310043334961,0.01705477200448513,-0.008246681,0.06078109,0
4.550002098083496,2.7708890438079834,-8.804221153259277,0.0028726875316351648,-0.005497787,0.08307768,10
4.449367046356201,2.604358196258545,-8.706921577453612,-0.021207667887210846,-0.019547688,0.05497787,10
4.361598014831543,2.4253077507019043,-8.661033630371094,-0.03679849207401276,-0.05100725,-0.0021380284,10
4.29828691482544,2.2804791927337646,-8.664722442626951,-0.033627040684223175,-0.035124752999999995,-0.056199603,10
4.283793449401856,2.203131437301636,-8.691314697265625,-0.011816246435046196,-0.002443461,-0.08155051,10
4.31069278717041,2.202214002609253,-8.717378616333008,0.015805918723344803,-0.0018325958,-0.07452556,10
4.349203586578368,2.251690626144409,-8.730358123779299,0.03343372419476509,0.041233405,-0.02687807,10
4.3738622665405265,2.3146655559539795,-8.715221405029299,0.03418594226241112,0.044593163,0.004276057,10
4.387874126434326,2.3704466819763184,-8.690324783325195,0.02504520304501057,0.034208454,0.027488936,10
4.398588180541992,2.4003360271453857,-8.686595916748049,0.018155187368392944,0.0027488936,0.03145956,10
4.412539005279541,2.4019694328308105,-8.698812484741211,0.015440340153872969,0.017104227,0.04734206,10
4.4269065856933585,2.3757731914520264,-8.711240768432617,0.017280386760830883,0.02107485,0.044898596,10
4.426466941833496,2.3249828815460205,-8.713114738464355,0.022903615608811382,0.036957346,0.032375857,10
4.407893180847168,2.2612013816833496,-8.704587936401367,0.031021019443869587,0.05497787,0.020158553,10
4.388782024383545,2.2019505500793457,-8.690566062927246,0.03727098554372788,0.05467244,-0.0009162979,10
4.382730007171632,2.1824333667755127,-8.675213813781737,0.04005540907382965,0.047036625,0.011301007,10
4.410828590393066,2.2025716304779053,-8.675914764404299,0.03723464533686638,0.05497787,0.008246681,10
4.4624457359313965,2.233701467514038,-8.680562019348145,0.033392097800970084,0.038789943,0.03145956,10
4.520634651184082,2.259295463562012,-8.679986953735353,0.030780952423810962,0.017715093,0.040317107000000005,10
4.5642733573913565,2.2664682865142822,-8.669136047363281,0.029955726116895683,0.034513887,0.06047566,10
4.5811767578125,2.244773626327514,-8.645722389221191,0.027646634727716446,0.04917465,0.06750060599999999,10
4.569631576538086,2.208523988723755,-8.625021934509277,0.025877688080072403,0.04428773,0.05467244,10
4.553816318511963,2.1613385677337646,-8.61772632598877,0.022594179958105087,0.028405234,0.03726278,10
4.5529141426086435,2.1226119995117188,-8.61302661895752,0.01917560957372189,0.019242255,0.0143553335,10
4.574085235595703,2.1084389686584477,-8.607650756835938,0.01661419309675694,0.018325957,0.009468411,10
4.602774620056152,2.1082124710083012,-8.604218482971191,0.017086340114474297,0.016798794,0.013744468,10
4.623316764831543,2.112059593200684,-8.603724479675293,0.01826249063014984,0.018936822,0.021685716,10
4.636436939239502,2.105215311050415,-8.613801956176758,0.016885334625840187,0.025961773,0.021991149,10
4.6342430114746085,2.091522216796875,-8.616804122924805,0.015238845720887184,0.027183503,0.014049901000000002,10
4.624950408935547,2.0768499374389653,-8.617623329162598,0.016533654183149338,0.03634648,0.01740966,10
4.617759704589844,2.0677764415740967,-8.609957695007324,0.018670670688152317,0.016798794,0.006414085,10
4.607568740844727,2.0545284748077397,-8.596199989318848,0.01860593445599079,0.00580322,-0.004581489,10
4.600689888000488,2.047747611999512,-8.590660095214844,0.01764056459069252,-0.013744468,-0.008552114,10
4.5989041328430185,2.051048755645752,-8.600239753723145,0.015392868779599668,-0.02076942,-0.014049901000000002,10
4.605484008789063,2.0629007816314697,-8.613517761230469,0.014610219746828081,-0.0076358155,-0.0067195175,10
4.616532325744629,2.0631563663482666,-8.62940502166748,0.014034027233719826,0.012217305,0.009162978,10
4.626965522766113,2.0645692348480225,-8.634435653686522,0.011971567757427692,0.020463986,0.013133603,10
4.6234092712402335,2.06812047958374,-8.628268241882324,0.00972666684538126,0.022907447,0.011301007,10
4.61375904083252,2.0700969696044917,-8.619594573974611,0.006993135903030635,0.03848451,0.007941248,10
4.606306552886963,2.0723733901977544,-8.613017082214355,0.0051190308295190326,0.015577064,0.0143553335,10
4.608801364898682,2.0793960094451904,-8.60515022277832,0.005378492176532745,0.014049901000000002,0.020158553,10
4.612252712249756,2.086984157562256,-8.611080169677733,0.00373467430472374,-0.0009162979,0.010690141499999998,10
4.613997459411621,2.0851876735687256,-8.622567176818848,-0.0004922638763673604,0.00580322,0.013744468,10
4.613855361938477,2.077890634536743,-8.634262084960938,-0.004500316921621561,0.027794369,0.020463986,10
4.612426280975342,2.074970006942749,-8.637081146240233,-0.00374045385979116,0.03390302,0.020158553,10
4.60952615737915,2.068546295166016,-8.630586624145508,-0.0006203520460985602,0.03604105,0.01863139,10
4.607092380523682,2.058501958847046,-8.617049217224121,0.0020474076736718416,0.015271631,0.0143553335,10
4.6155128479003915,2.0505609512329097,-8.60615348815918,0.004145603626966477,0.009468411,0.011911872,10
4.623848915100098,2.0432758331298833,-8.596682548522951,0.004099681042134762,0.030848695,0.021991149,10
4.6226115226745605,2.0415985584259038,-8.590302467346191,0.005380648653954268,0.03481932,0.020158553,10
4.618154525756836,2.048125028610229,-8.594416618347168,0.008275862783193588,0.007941248,0.020463986,10
4.617231369018555,2.048522472381592,-8.600348472595215,0.012847078964114191,-0.005192355,0.007330383,10
4.62184476852417,2.0470175743103027,-8.599590301513674,0.015560915693640709,0.0061086523,0.011911872,10
4.631714344024658,2.0464274883270264,-8.594549179077147,0.016858061775565147,0.020158553,0.01740966,10
4.647698879241943,2.0464298725128174,-8.581853866577147,0.017520325258374214,0.016493361,0.025961773,10
4.6510539054870605,2.043109178543091,-8.572105407714844,0.018515503033995632,0.029932396,0.02565634,10
4.6474037170410165,2.0342507362365723,-8.56486988067627,0.019185373559594158,0.00030543262000000003,0.01282817,10
4.640575408935547,2.019702434539795,-8.56962776184082,0.018737917765975,-0.028099801,0.01038471,10
4.6400299072265625,1.9956059455871584,-8.587454795837402,0.015646696090698242,-0.022602014,0.01160644,10
4.651474952697754,1.9813710451126096,-8.607982635498049,0.013793726451694964,-0.0070249503,0.02321288,10
4.672174453735352,1.977959990501404,-8.619866371154785,0.012613574974238873,0.029626964,0.026572637000000003,10
4.686697006225586,1.965922713279724,-8.620753288269043,0.009517279453575613,0.013744468,0.030848695,10
4.683761596679688,1.955342411994934,-8.617746353149414,0.006780555006116629,0.017715093,0.018936822,10
4.667985439300537,1.9475975036621092,-8.613327980041504,0.0045468700118362895,0.004581489,0.01038471,10
4.650122165679932,1.9474118947982788,-8.607803344726562,0.00406143581494689,-0.008246681,0.010995574,10
4.63800573348999,1.9455993175506592,-8.619744300842285,0.005862872116267681,-0.010995574,0.0076358155,10
4.635970592498778,1.9515670537948608,-8.633210182189941,0.006699696648865938,-0.00580322,0.013133603,10
4.641865253448486,1.954041004180908,-8.636075019836426,0.007601538207381964,-0.0036651916,0.020158553,10
4.63746452331543,1.9577940702438357,-8.640335083007812,0.0063442569226026535,-0.0033597588,0.015271631,10
4.625919818878174,1.965941786766052,-8.649600982666017,0.0032548215240240093,0.0076358155,0.01282817,10
4.614485263824463,1.9733508825302124,-8.658342361450195,0.001757860416546464,0.010995574,0.017715093,10
4.618786811828613,1.9770148992538448,-8.659711837768555,0.001903204945847392,0.016798794,0.018020526,10
4.630457878112793,1.977472424507141,-8.660202026367188,0.0011044613784179091,0.010995574,0.018020526,10
4.643674373626709,1.971182942390442,-8.657807350158691,0.001416477607563138,0.013439035,0.019242255,10
4.64516544342041,1.9563912153244016,-8.652178764343263,0.0018801785772666333,0.01038471,0.01740966,10
4.642144680023193,1.9450488090515137,-8.639640808105469,0.002683428581804037,-0.0021380284,0.010079277,10
4.637339115142822,1.931311845779419,-8.63211727142334,0.0012047551572322845,-0.0076358155,0.013439035,10
4.635258674621582,1.9202814102172847,-8.630971908569336,-1.0160614692722447e-05,0.007330383,0.013133603,10
4.6440110206604,1.91731071472168,-8.628284454345701,-0.00046168407425284397,0.01985312,0.020158553,10
4.646862030029297,1.920462727546692,-8.627941131591799,0.0011829951545223596,0.03390302,0.021380283,10
4.6427574157714835,1.9294772148132324,-8.628976821899414,0.002971674082800746,0.01985312,0.019242255,10
4.6437602043151855,1.9383201599121092,-8.622650146484375,0.006314022000879049,0.004886922,0.008246681,10
4.642854690551758,1.937639832496643,-8.61872386932373,0.00723454961553216,-0.0061086523,0.010079277,10
4.649167060852051,1.9209911823272705,-8.623214721679688,0.00449964078143239,-0.020158553,0.002443461,10
4.655370235443115,1.9049452543258667,-8.633645057678223,0.0020854377653449774,0.009773844,0.01740966,10
4.6582603454589835,1.9022825956344604,-8.643051147460938,0.001904684235341847,0.014049901000000002,0.013439035,10
4.663003444671631,1.8919534683227541,-8.646030426025389,0.00267653726041317,0.025350908,0.020463986,10
4.663586139678955,1.883517026901245,-8.641711235046388,0.003640185808762908,0.0027488936,0.009162978,10
4.660855770111084,1.87051522731781,-8.636809349060059,0.0024018865078687672,-0.009468411,0.005497787,10
4.656525135040283,1.866138339042664,-8.630433082580566,-0.0007911989814601839,0.004276057,0.01160644,10
4.652597904205322,1.8729233741760252,-8.62810230255127,-0.0032206361647695303,0.00061086525,0.008552114,10
4.658029556274414,1.8873673677444456,-8.631937026977539,-0.0045241424813866615,0.0027488936,0.011301007,10
4.667918682098389,1.899909496307373,-8.63044261932373,-0.0035686432383954525,0.00580322,0.019242255,10
4.677051544189453,1.8976709842681885,-8.627714157104492,-0.0025161688681691885,0.00580322,0.022296581,10
4.674299716949463,1.8912543058395384,-8.635200500488281,-0.003755664452910423,0.009162978,0.014660766,10
4.670181751251222,1.8755406141281128,-8.641005516052246,-0.004233629908412695,0.004276057,0.007941248,10
4.6595420837402335,1.869436264038086,-8.638454437255861,-0.004813995212316513,0.018325957,0.016187929,10
4.648438930511475,1.8611207008361816,-8.632115364074707,-0.004374924581497908,0.0125227375,0.013133603,10
4.6507086753845215,1.8544977903366089,-8.628012657165527,-0.004069263115525246,0.010995574,0.012217305,10
4.665932655334473,1.8567457199096682,-8.632121086120605,-0.003533155657351017,-0.005497787,0.0030543262,10
4.680882930755615,1.8663114309310915,-8.644210815429688,-0.003270040499046445,-0.00061086525,-0.004276057,10
4.679443836212158,1.8707337379455569,-8.647269248962402,-0.0017441340023651721,-0.0027488936,0.003970624,10
4.665322780609131,1.87127149105072,-8.644322395324707,0.00016158954531420022,-0.0015271631,0.007330383,10
4.65144157409668,1.8703798055648804,-8.643278121948242,0.0018333536572754387,-0.004886922,0.006414085,10
4.652101039886475,1.8676189184188845,-8.645002365112305,0.0010624027345329523,-0.002443461,0.0036651916,10
4.658940315246582,1.86890721321106,-8.646658897399902,-0.0010871206177398562,0.031154128,0.02321288,10
4.664607048034668,1.8664404153823853,-8.646152496337889,-0.0002517556131351739,0.03023783,0.01985312,10
4.6719970703125,1.8609923124313357,-8.638952255249022,-0.000512129336129874,0.013744468,0.015882496,10
4.673341274261475,1.8575422763824463,-8.630389213562013,-2.844801019818988e-05,-0.015271631,-0.0018325958,10
4.666201591491699,1.8558593988418581,-8.621760368347168,-0.0015988096129149199,-0.0125227375,-0.0070249503,10
4.666770458221436,1.8488638401031492,-8.623136520385742,-0.0036219959147274494,-0.01282817,0.005497787,10
4.671435356140137,1.8395600318908687,-8.632835388183594,-0.005395314656198025,-0.0021380284,0.014049901000000002,10
4.68397855758667,1.8324898481369016,-8.646251678466799,-0.0072677056305110455,0.008857545999999999,0.0125227375,10
4.692185878753662,1.8257336616516116,-8.658392906188965,-0.009141297079622746,0.004886922,0.018936822,10
4.693099021911621,1.8184611797332764,-8.654346466064451,-0.010463711805641651,0.005497787,0.004581489,10
4.68749475479126,1.8139744997024536,-8.656037330627441,-0.011188934557139874,-0.002443461,0.0036651916,10
4.683328151702881,1.8119291067123413,-8.660653114318848,-0.010974260978400707,-0.01038471,-0.0027488936,10
4.676412582397461,1.8121581077575684,-8.666277885437013,-0.010720474645495416,-0.008246681,-0.004276057,10
4.669688701629639,1.8197537660598757,-8.667511940002441,-0.009730401448905468,0.00580322,-0.0033597588,10
4.668646335601807,1.826876640319824,-8.661378860473633,-0.00849916972219944,0.0021380284,0.004886922,10
4.669215679168701,1.8337101936340328,-8.654052734375,-0.006905125454068185,-0.0030543262,0.0030543262,10
4.674664497375488,1.8361958265304563,-8.651852607727049,-0.0074745072051882735,0.009468411,0.014660766,10
4.674783229827881,1.8357409238815308,-8.652935028076174,-0.008887756615877151,0.005192355,0.008552114,10
4.675558567047119,1.8372386693954468,-8.657490730285645,-0.009559609927237034,0.0015271631,0.0067195175,10
4.669344425201416,1.8388316631317136,-8.656315803527832,-0.010541732423007488,0.0061086523,0.004581489,10
4.6650214195251465,1.8429222106933596,-8.648493766784668,-0.009682152420282364,0.0012217305,0.004581489,10
4.661437511444092,1.8433570861816408,-8.648900985717772,-0.008553873747587204,-0.004886922,0.0021380284,10
4.660728454589844,1.841533899307251,-8.64879035949707,-0.008690651506185532,0.004276057,0.01863139,10
4.66700553894043,1.83869469165802,-8.640995025634767,-0.011148562654852869,0.0015271631,0.022907447,10
4.674366474151611,1.8304510116577148,-8.637290954589844,-0.0146196773275733,0.0125227375,0.02687807,10
4.679342269897461,1.8250800371170044,-8.640050888061522,-0.017390651628375053,0.007330383,0.022296581,10
4.68170166015625,1.8231958150863647,-8.640507698059082,-0.01962603628635406,0.015271631,0.020463986,10
4.679577350616455,1.8141707181930544,-8.645277976989746,-0.02025311999022961,0.011911872,0.013133603,10
4.6794633865356445,1.8193557262420652,-8.644699096679688,-0.018804391846060756,0.00030543262000000003,0.01160644,10
4.678274631500244,1.8288110494613647,-8.642107963562013,-0.016482656821608543,-0.006414085,0.006414085,10
4.6711769104003915,1.832590103149414,-8.628230094909668,-0.01524644624441862,0.00061086525,-0.004276057,10
4.657575130462647,1.829883098602295,-8.617771148681639,-0.014447876252233982,-0.015271631,-0.016493361,10
4.6485137939453125,1.8339591026306152,-8.617039680480957,-0.014444973319768906,-0.014049901000000002,-0.010690141499999998,10
4.654162406921387,1.847331404685974,-8.625600814819336,-0.01624408736824989,-0.005497787,0.010690141499999998,10
4.668294906616211,1.859742522239685,-8.642254829406737,-0.019306136295199398,0.006414085,0.021380283,10
4.673926830291748,1.8635077476501465,-8.653215408325195,-0.019032483920454982,0.018936822,0.021685716,10
4.659376621246338,1.850725531578064,-8.656521797180176,-0.01664911024272442,0.017715093,0.0076358155,10
4.638402938842773,1.8307126760482788,-8.651765823364258,-0.015092771500349043,0.0030543262,-0.016187929,10
4.633024215698242,1.8219466209411619,-8.648468971252441,-0.01249038614332676,-0.024740042,-0.024740042,10
4.641427993774414,1.829068899154663,-8.647475242614746,-0.012107902206480505,0.0018325958,-0.0018325958,10
4.653805732727051,1.8430092334747317,-8.648701667785645,-0.011100545525550842,0.015882496,0.0030543262,10
4.65743350982666,1.8515098094940183,-8.641002655029299,-0.011206349357962608,0.0143553335,0.013133603,10
4.646716117858887,1.854188323020935,-8.63848876953125,-0.011033331044018269,0.01282817,0.02076942,10
4.639513969421387,1.8555402755737305,-8.65003490447998,-0.00993869174271822,-0.004581489,0.0070249503,10
4.64107608795166,1.84429132938385,-8.662652969360353,-0.010447857901453972,0.004276057,0.008857545999999999,10
4.647825241088867,1.833967447280884,-8.677072525024414,-0.011165007017552851,0.004581489,0.00030543262000000003,10
4.654686450958252,1.8253960609436035,-8.684604644775389,-0.010712540708482264,-0.0027488936,0.007941248,10
4.662795066833496,1.819658875465393,-8.681970596313478,-0.008322732523083687,0.0015271631,0.009468411,10
4.674875259399414,1.8190199136734009,-8.676349639892576,-0.007715728599578142,0.015882496,0.007941248,10
4.686944007873535,1.8245340585708616,-8.672945976257324,-0.007622928358614446,0.01863139,0.009162978,10
4.689108848571777,1.8269225358963013,-8.660743713378906,-0.008110715076327324,0.009468411,0.013439035,10
4.677407264709473,1.82877779006958,-8.654273986816406,-0.00891165528446436,-0.004886922,0.0067195175,10
4.668703556060791,1.8254344463348389,-8.659313201904299,-0.011995065957307816,-0.0018325958,0.011911872,10
4.676493167877197,1.829262375831604,-8.665672302246094,-0.015837825834751133,-0.0015271631,0.0143553335,10
4.690973281860352,1.833060383796692,-8.668430328369139,-0.017662288621068,0.004581489,0.024740042,10
4.7026047706604,1.8333696126937864,-8.671560287475586,-0.01613814197480679,0.03390302,0.021991149,10
4.6973876953125,1.828193545341492,-8.658896446228027,-0.014293602667748928,0.01985312,0.015882496,10
4.680886745452881,1.8292601108551023,-8.636233329772951,-0.014432511292397974,-0.005192355,-0.0033597588,10
4.67462682723999,1.825186014175415,-8.627687454223633,-0.014729537069797516,-0.021380283,0.00061086525,10
4.681803226470947,1.82495641708374,-8.632526397705076,-0.01649470441043377,-0.013744468,0.0009162979,10
4.6846585273742685,1.8312879800796509,-8.642929077148438,-0.016785243526101112,-0.00030543262000000003,-0.0009162979,10
4.677971363067627,1.8322410583496092,-8.648296356201174,-0.015592903830111028,0.004886922,0.0076358155,10
4.665545463562012,1.8282136917114256,-8.652562141418457,-0.012427530251443386,-0.004581489,0.00580322,10
4.658012390136719,1.8218891620635984,-8.655567169189451,-0.011060073971748352,-0.0033597588,0.003970624,10
4.659815788269043,1.8218138217926023,-8.658768653869629,-0.010423033498227595,0.0018325958,0.002443461,10
4.661500453948975,1.8210856914520264,-8.664740562438965,-0.009748240932822227,0.008857545999999999,0.0015271631,10
4.661278247833252,1.8210936784744265,-8.664346694946289,-0.01043491531163454,0.0070249503,-0.00580322,10
4.660375595092773,1.8267227411270144,-8.662045478820799,-0.010352511890232565,0.004276057,0.0036651916,10
4.659944534301758,1.83931565284729,-8.655323028564451,-0.009741557762026787,0.003970624,0.0009162979,10
4.653788089752197,1.8520087003707888,-8.648101806640625,-0.010006071999669077,0.01038471,0.013133603,10
4.645388603210449,1.8590844869613647,-8.645255088806152,-0.009910690598189829,0.005192355,0.016187929,10
4.641297340393066,1.8544384241104128,-8.644527435302733,-0.01196116767823696,0.0070249503,0.016493361,10
4.649838924407959,1.849520206451416,-8.650303840637207,-0.013308661058545113,0.009773844,0.020463986,10
4.666254997253418,1.8461581468582156,-8.65533447265625,-0.013579952530562878,0.009162978,0.024129177,10
4.679633140563965,1.8356430530548096,-8.649079322814941,-0.01404861081391573,0.0018325958,0.02443461,10
4.682967662811278,1.8188296556472776,-8.641946792602539,-0.014221401885151863,0.013133603,0.03145956,10
4.678642749786377,1.8061344623565676,-8.636039733886719,-0.016043948009610176,0.01740966,0.019547688,10
4.672780990600586,1.805622220039368,-8.63736629486084,-0.017377017065882683,0.0027488936,0.0076358155,10
4.673705577850342,1.8153585195541384,-8.641194343566895,-0.01668897271156311,-0.009162978,-0.00061086525,10
4.680120944976807,1.821976900100708,-8.635998725891112,-0.01533035095781088,-0.016187929,0.0012217305,10
4.685235977172852,1.823580384254456,-8.624179840087889,-0.014899098314344885,-0.0067195175,0.009162978,10
4.684203624725342,1.8187087774276731,-8.624641418457031,-0.014922413043677809,-0.00061086525,0.004886922,10
4.675966262817383,1.819741129875183,-8.629316329956055,-0.01498960517346859,0.004581489,-0.0012217305,10
4.666121006011963,1.831864595413208,-8.643853187561035,-0.013439441099762915,0.019242255,0.004581489,10
4.654707431793213,1.8430763483047483,-8.651937484741211,-0.009624690748751163,0.004581489,0.01160644,10
4.6480913162231445,1.849739670753479,-8.646308898925781,-0.005774585995823145,0.008552114,0.007330383,10
4.651371955871582,1.8482064008712769,-8.628232955932617,-0.0052569624967873105,-0.015271631,-0.0067195175,10
4.6620683670043945,1.8384414911270144,-8.615582466125487,-0.006981890182942152,-0.010690141499999998,0.0018325958,10
4.6740450859069815,1.8283092975616453,-8.61607837677002,-0.009704482741653921,-0.005192355,0.004886922,10
4.675999164581299,1.827043294906616,-8.635787010192871,-0.011824057437479496,0.007330383,0.010995574,10
4.672211170196533,1.828409194946289,-8.653037071228027,-0.010739228688180448,0.007941248,0.011911872,10
4.670273780822754,1.8324953317642207,-8.653163909912111,-0.009312063455581663,-0.004276057,0.016187929,10
4.677610874176025,1.8373808860778809,-8.651759147644043,-0.010140176862478256,-0.0027488936,0.016493361,10
4.681967735290527,1.831947922706604,-8.646561622619629,-0.012783984653651714,0.009468411,0.018020526,10
4.68280029296875,1.823940992355347,-8.639931678771973,-0.014856544323265553,0.0143553335,0.010079277,10
4.680498600006104,1.8256680965423584,-8.6351318359375,-0.014648835174739359,0.007330383,0.004581489,10
4.676321029663086,1.8373047113418581,-8.646956443786621,-0.013006869703531264,-0.00061086525,0.0012217305,10
4.674803256988525,1.8476241827011108,-8.663012504577638,-0.011334734968841076,0.00061086525,0.0036651916,10
4.670462131500244,1.8503797054290767,-8.665266990661621,-0.010323414579033852,-0.003970624,0.0061086523,10
4.6643333435058585,1.851046442985535,-8.652201652526855,-0.010258628986775877,0.013439035,0.01740966,10
4.653375148773193,1.8492616415023804,-8.637524604797362,-0.01063268817961216,0.01160644,0.014049901000000002,10
4.6497530937194815,1.842182755470276,-8.636590003967285,-0.010994517244398594,0.008552114,0.011911872,10
4.657577991485597,1.832918643951416,-8.648886680603027,-0.011710425838828087,0.0125227375,0.01740966,10
4.665619850158691,1.8295589685440063,-8.659612655639647,-0.011712782084941864,0.008246681,0.007330383,10
4.6710968017578125,1.8263555765151975,-8.662925720214844,-0.010652090422809124,0.004886922,0.004581489,10
4.677002906799316,1.830150127410889,-8.659149169921875,-0.008671323768794538,-0.0012217305,0.01160644,10
4.687563896179199,1.8338270187377932,-8.655145645141603,-0.007319861557334661,-0.0015271631,0.01282817,10
4.696099758148193,1.8343127965927124,-8.655365943908691,-0.006441250909119845,0.011911872,0.025045475,10
4.705569267272949,1.8297717571258545,-8.64610481262207,-0.008452565409243107,0.0015271631,0.023518313,10
4.709827423095703,1.82340943813324,-8.638282775878906,-0.012209150940179823,0.004886922,0.020463986,10
4.710511207580566,1.8099178075790403,-8.63813304901123,-0.014907987788319588,-0.0033597588,0.009162978,10
4.7022905349731445,1.8017204999923704,-8.636929512023926,-0.014022036455571651,-0.003970624,0.005192355,10
4.698671340942383,1.804820537567139,-8.631198883056639,-0.012492568232119085,-0.008552114,-0.009162978,10
4.695627212524414,1.8107376098632808,-8.629461288452147,-0.011694813147187231,-0.0067195175,-0.008552114,10
4.69481086730957,1.8257677555084229,-8.632111549377441,-0.011512922123074532,-0.003970624,-0.004886922,10
4.686487674713135,1.8384948968887331,-8.63371753692627,-0.010770170018076895,0.004276057,0.002443461,10
4.681299686431885,1.843448281288147,-8.634792327880861,-0.010315879248082638,0.01985312,0.007330383,10
4.678579807281494,1.8455889225006104,-8.64000129699707,-0.009188028052449226,0.00061086525,0.005497787,10
4.679670333862305,1.8434749841690063,-8.643314361572267,-0.009178695268929005,-0.0030543262,0.004581489,10
4.682406425476074,1.8322519063949585,-8.645485877990723,-0.010264132171869278,0.0030543262,0.013133603,10
4.686236381530762,1.8239775896072388,-8.644145011901855,-0.010641863569617271,0.00030543262000000003,0.015271631,10
4.689995765686035,1.8149980306625368,-8.638095855712889,-0.010859833098948002,-0.009162978,0.013133603,10
4.696105480194092,1.8019007444381716,-8.633269309997559,-0.010980207473039629,-0.013439035,0.0067195175,10
4.698615074157715,1.7918450832366943,-8.641106605529785,-0.013862938620150091,0.004886922,0.01282817,10
4.695476531982422,1.7874953746795654,-8.655351638793945,-0.01633935421705246,0.009468411,0.010995574,10
4.690454006195068,1.7953672409057615,-8.658844947814941,-0.01557599473744631,0.013133603,0.014049901000000002,10
4.68573808670044,1.8079441785812376,-8.659528732299805,-0.0120794540271163,0.004581489,0.010995574,10
4.673627853393555,1.816825270652771,-8.659242630004883,-0.01062186062335968,-0.0021380284,0.0033597588,10
4.67039966583252,1.8202372789382932,-8.662571907043457,-0.010944573208689691,-0.00030543262000000003,0.007330383,10
4.674517154693604,1.8211742639541624,-8.665338516235353,-0.01234738714993,0.0021380284,0.005192355,10
4.678635120391847,1.819666147232056,-8.660640716552733,-0.012223176658153534,0.011301007,0.009162978,10
4.679088592529297,1.8215460777282717,-8.651741027832031,-0.011371854692697523,0.015577064,0.007330383,10
4.674195766448975,1.8241173028945925,-8.652928352355957,-0.009616084396839142,0.0021380284,0.005497787,10
4.671530246734619,1.8210352659225464,-8.64722728729248,-0.00840773619711399,0.00061086525,0.00030543262000000003,10
4.67421293258667,1.817982077598572,-8.65113353729248,-0.007726503070443869,0.003970624,0.0027488936,10
4.681354999542236,1.8086183071136477,-8.658295631408691,-0.007796875201165677,0.009162978,0.005497787,10
4.68287467956543,1.8008726835250854,-8.660280227661133,-0.008244442753493786,-0.00030543262000000003,0.0061086523,10
4.684816360473633,1.7973769903182983,-8.657737731933594,-0.007490940392017363,0.009773844,0.018020526,10
4.688708782196045,1.8015803098678589,-8.655734062194824,-0.006271259393543005,0.011301007,0.01863139,10
4.699025630950928,1.8025540113449097,-8.652018547058105,-0.005686678923666477,0.0076358155,0.015271631,10
4.708132266998291,1.7984999418258667,-8.647031784057617,-0.0077396142296493045,-0.007330383,0.011301007,10
4.713567733764648,1.794966459274292,-8.648983001708983,-0.012519078329205513,0.00061086525,0.012217305,10
4.710239887237549,1.7945841550827026,-8.656596183776855,-0.01573037914931774,0.008246681,0.009773844,10
4.694523811340332,1.7976200580596924,-8.652987480163574,-0.01798187382519245,0.020463986,0.0033597588,10
4.678142547607422,1.8075617551803589,-8.648210525512695,-0.017758134752511978,0.016187929,0.0070249503,10
4.669893264770508,1.8242934942245483,-8.644803047180176,-0.015859030187129974,0.0061086523,0.0076358155,10
4.665818691253662,1.8348940610885618,-8.652077674865723,-0.013447248376905918,0.016187929,0.007941248,10
4.659029006958008,1.8356519937515257,-8.65461540222168,-0.00966323260217905,0.026267206,0.006414085,10
4.660600662231445,1.8348164558410645,-8.645310401916504,-0.0063755055889487275,0.015577064,0.010995574,10
4.669196605682373,1.8318355083465576,-8.631913185119629,-0.00350821134634316,-0.0076358155,0.0021380284,10
4.681316375732422,1.823570966720581,-8.621823310852049,-0.0051045557484030715,-0.021685716,0.008552114,10
4.699960708618164,1.8068684339523315,-8.622403144836426,-0.008598372340202332,-0.013744468,0.016187929,10
4.719157695770264,1.7873777151107788,-8.627939224243164,-0.010790243744850159,0.0070249503,0.018325957,10
4.73002815246582,1.7712481021881104,-8.623414039611816,-0.010259285569190979,0.010690141499999998,0.0125227375,10
4.73263692855835,1.7693270444869995,-8.621325492858888,-0.009103750810027122,0.0036651916,0.011301007,10
4.728342533111572,1.770785927772522,-8.624757766723633,-0.006792905740439892,-0.008552114,0.004581489,10
4.723596572875977,1.771747589111328,-8.631368637084961,-0.007090958766639233,-0.01282817,0.004886922,10
4.723450183868408,1.7653710842132568,-8.645917892456055,-0.00904299970716238,0.0021380284,0.008857545999999999,10
4.7154812812805185,1.7606189250946045,-8.664162635803223,-0.011976337060332298,0.014660766,0.009162978,10
4.70285701751709,1.7722657918930054,-8.674034118652344,-0.013113929890096188,0.009773844,0.0076358155,10
4.693309783935547,1.7846755981445312,-8.668515205383299,-0.013493986800312996,-0.0009162979,-0.002443461,10
4.686005115509033,1.793641448020935,-8.655643463134767,-0.014102283865213394,0.0027488936,0.004886922,10
4.692164421081543,1.7993388175964355,-8.642362594604492,-0.014550087042152882,-0.006414085,-0.00061086525,10
4.710926532745361,1.8036311864852903,-8.638554573059082,-0.016536351293325424,0.007941248,0.010690141499999998,10
4.7294273376464835,1.8019241094589236,-8.646736145019531,-0.02110031619668007,0.0036651916,0.013439035,10
4.743437767028809,1.8011082410812378,-8.654492378234862,-0.02625333704054356,-0.0036651916,0.01282817,10
4.7491841316223145,1.8031569719314573,-8.658543586730957,-0.030791396275162693,0.015882496,0.018936822,10
4.740490436553955,1.8074996471405032,-8.65577220916748,-0.03358595445752144,0.035430185,0.022296581,10
4.71317195892334,1.808945894241333,-8.64539909362793,-0.03267151489853859,0.03145956,0.0021380284,10
4.684854984283447,1.8102437257766724,-8.626664161682129,-0.028977174311876294,-0.0036651916,-0.0070249503,10
4.678731441497803,1.814277410507202,-8.616381645202638,-0.024234509095549583,-0.03970624,-0.015882496,10
4.684823989868164,1.8193035125732424,-8.61064624786377,-0.022763708606362343,-0.027794369,0.0067195175,10
4.688189029693604,1.8236290216445925,-8.616574287414549,-0.023939050734043118,0.002443461,0.008246681,10
4.684592723846436,1.819449782371521,-8.633447647094728,-0.025082971900701526,0.013133603,0.009773844,10
4.674688816070557,1.8157099485397337,-8.648872375488281,-0.023156480863690376,0.0036651916,0.007941248,10
4.665650367736816,1.8157334327697756,-8.665058135986326,-0.021009242162108418,-0.0030543262,-0.0015271631,10
4.665431022644043,1.8231801986694336,-8.663246154785156,-0.017170427367091182,0.0030543262,0.009773844,10
4.672194004058838,1.8336747884750368,-8.633103370666504,-0.01454015262424946,0.020463986,0.0061086523,10
4.6818013191223145,1.8354545831680296,-8.604560852050781,-0.012662268243730068,0.021685716,0.0009162979,10
4.690513610839844,1.8365710973739624,-8.587464332580566,-0.011715110391378404,-0.015271631,-0.007330383,10
4.700929641723633,1.8335205316543581,-8.588054656982424,-0.01393747515976429,-0.029321533,-0.00061086525,10
4.711992263793945,1.8299322128295896,-8.597000122070312,-0.017377765849232674,-0.016493361,0.008857545999999999,10
4.713263988494873,1.8222461938858032,-8.611098289489746,-0.01992185041308403,-0.0070249503,0.01863139,10
4.7130537033081055,1.8154176473617556,-8.628090858459473,-0.01870393380522728,0.006414085,0.015271631,10
4.7070817947387695,1.8142837285995483,-8.628109931945799,-0.018815506249666214,0.0018325958,0.01740966,10
4.708845615386963,1.8199340105056765,-8.629064559936522,-0.019279181957244877,-0.013439035,0.009468411,10
4.716464042663574,1.8278243541717532,-8.631756782531737,-0.02259918861091137,-0.009773844,0.012217305,10
4.719152927398682,1.829853653907776,-8.632964134216309,-0.025741562247276303,-0.006414085,0.010995574,10
4.71789026260376,1.834047794342041,-8.638519287109375,-0.02535245567560196,-0.004581489,0.01282817,10
4.699675559997559,1.840559005737305,-8.646247863769531,-0.0234137661755085,0.007330383,0.0076358155,10
4.67199182510376,1.846696615219116,-8.647581100463867,-0.01980434916913509,-0.0036651916,0.0061086523,10
4.651824951171875,1.8551138639450075,-8.643148422241211,-0.01571449264883995,-0.008857545999999999,0.005192355,10
4.638652801513672,1.8515653610229488,-8.64266300201416,-0.01415777113288641,-0.016798794,-0.002443461,10
4.640953540802002,1.8477860689163208,-8.635225296020508,-0.01391966175287962,0.004581489,0.0070249503,10
4.647188186645508,1.8483400344848635,-8.624506950378418,-0.014476933516561985,0.008552114,0.0009162979,10
4.654215335845947,1.8514062166213991,-8.62300968170166,-0.013419898226857184,0.014966198,0.0143553335,10
4.654603481292725,1.850791931152344,-8.627532958984375,-0.008812250569462776,0.0012217305,0.008552114,10
4.657282829284668,1.8497369289398196,-8.629232406616211,-0.0057917311787605286,-0.007941248,-0.0015271631,10
4.667611122131348,1.8441249132156368,-8.63200855255127,-0.005057734437286854,-0.009468411,0.005497787,10
4.681844234466553,1.840076208114624,-8.627032279968263,-0.006421102676540613,0.01038471,0.009162978,10
4.693511486053467,1.839309334754944,-8.620796203613281,-0.007449457421898842,0.03023783,0.021685716,10
4.698789596557617,1.8430620431900024,-8.615185737609862,-0.008956962265074253,0.008857545999999999,0.01740966,10
4.698667526245117,1.8425061702728271,-8.616756439208983,-0.008823568001389503,0.0070249503,0.01740966,10
4.6927361488342285,1.8367198705673216,-8.625432014465332,-0.009023903869092464,-0.010079277,0.009468411,10
4.683194637298584,1.82948100566864,-8.637896537780763,-0.00818968378007412,-0.005192355,0.009468411,10
4.679332733154297,1.8281443119049072,-8.648532867431639,-0.009375386871397495,-0.0009162979,0.0018325958,10
4.677495956420898,1.8261306285858157,-8.651297569274902,-0.009598574601113794,0.011301007,0.010079277,10
4.677751064300537,1.824005126953125,-8.648530960083008,-0.007549633271992207,0.0030543262,0.010079277,10
4.679418563842773,1.823117733001709,-8.644026756286621,-0.004460305906832218,0.0021380284,0.007941248,10
4.683424472808838,1.8245891332626345,-8.640329360961914,-0.0033186136279255147,0.005497787,0.003970624,10
4.692191123962402,1.82649827003479,-8.639134407043457,-0.005045564845204353,0.0015271631,0.013439035,10
4.6934781074523935,1.817832469940185,-8.637943267822267,-0.007652674335986377,-0.012217305,0.003970624,10
4.694822311401367,1.809935212135315,-8.648077964782715,-0.009597131051123142,-0.017715093,0.004276057,10
4.69755744934082,1.8004549741744995,-8.661365509033201,-0.010105484165251257,-0.004581489,0.006414085,10
4.697710990905762,1.7956743240356443,-8.675270080566406,-0.010382572188973429,-0.003970624,0.0015271631,10
4.694936752319336,1.793937921524048,-8.668083190917969,-0.010063542053103449,0.0009162979,0.0036651916,10
4.683043479919434,1.7967864274978638,-8.656462669372559,-0.010012425482273102,-0.0012217305,0.002443461,10
4.671800136566162,1.8018971681594849,-8.650099754333496,-0.010036387480795385,-0.019547688,-0.006414085,10
4.663105487823486,1.8141555786132808,-8.654415130615233,-0.012176268734037876,-0.016187929,0.0018325958,10
4.666682720184326,1.824703574180603,-8.661574363708496,-0.013494097627699377,0.0030543262,0.008246681,10
4.679554462432861,1.832143187522888,-8.669582366943361,-0.012348244898021221,0.0036651916,0.015577064,10
4.6844658851623535,1.8363937139511108,-8.664300918579103,-0.01101643219590187,0.017715093,0.01740966,10
4.682267189025879,1.8300232887268064,-8.649821281433105,-0.011560976505279541,-0.0018325958,0.017715093,10
4.674510002136231,1.8240615129470823,-8.640650749206543,-0.012227497063577177,0.0009162979,0.004276057,10
4.664451122283936,1.8208156824111936,-8.638253211975098,-0.014046501368284224,-0.00061086525,0.008552114,10
4.661613941192627,1.8186912536621092,-8.637144088745117,-0.015216090716421602,0.007330383,0.006414085,10
4.665425777435303,1.8177230358123782,-8.636221885681152,-0.01390023436397314,0.0027488936,0.010995574,10
4.6718525886535645,1.8173464536666868,-8.639725685119629,-0.013974448665976523,0.008857545999999999,0.007941248,10
4.671131610870361,1.814982771873474,-8.640283584594728,-0.013626668602228165,0.0012217305,0.0036651916,10
4.6696205139160165,1.8124207258224487,-8.636839866638184,-0.012558447197079659,-0.0030543262,0.0009162979,10
4.669821739196777,1.810063719749451,-8.636005401611326,-0.013080679811537266,-0.0021380284,0.003970624,10
4.673964977264403,1.8088550567626955,-8.632346153259277,-0.013463016599416731,0.0027488936,0.005192355,10
4.681534290313722,1.809518337249756,-8.623530387878418,-0.013995879329741,-0.0033597588,0.004886922,10
4.688635349273682,1.810489296913147,-8.62004566192627,-0.012698722071945669,-0.008552114,0.008552114,10
4.70033073425293,1.8084783554077148,-8.624725341796875,-0.013382014818489552,0.0018325958,0.006414085,10
4.705348491668701,1.806855320930481,-8.632122039794924,-0.015217817388474941,0.002443461,0.0036651916,10
4.703299045562744,1.8037049770355225,-8.633764266967772,-0.015828263014554974,0.0015271631,0.004276057,10
4.699313163757324,1.8038285970687864,-8.634365081787111,-0.016892382875084874,0.005192355,0.011911872,10
4.68602180480957,1.8055573701858518,-8.634449005126951,-0.01736571080982685,0.014660766,0.009468411,10
4.6700825691223145,1.8131194114685056,-8.63120174407959,-0.015927273780107498,0.008246681,0.0036651916,10
4.666585445404053,1.8242216110229488,-8.6253662109375,-0.014443229883909225,0.010995574,0.0061086523,10
4.67470645904541,1.8294676542282104,-8.629337310791017,-0.013875560835003851,-0.014966198,-0.0033597588,10
4.685155391693115,1.8372905254364011,-8.632019996643066,-0.014535481110215187,-0.01282817,0.007330383,10
4.697508335113525,1.8353937864303589,-8.640305519104004,-0.0166154932230711,-0.013744468,0.0076358155,10
4.697722434997559,1.824689865112305,-8.650959968566895,-0.016988009214401245,0.0015271631,0.004886922,10
4.691282272338867,1.8101322650909424,-8.643321990966799,-0.015192143619060516,-0.004581489,-0.0036651916,10
4.677298545837402,1.8001586198806765,-8.632622718811035,-0.01266817282885313,-0.002443461,0.004886922,10
4.665179252624512,1.8002780675888062,-8.636537551879883,-0.010485487990081309,-0.0030543262,-0.0033597588,10
4.660353183746338,1.8065003156661987,-8.647903442382812,-0.009441860020160677,-0.004276057,0.006414085,10
4.64780330657959,1.810887575149536,-8.654830932617188,-0.009175623767077923,0.0012217305,0.0027488936,10
4.631162166595459,1.822002410888672,-8.660726547241211,-0.007330431602895259,0.01038471,0.010079277,10
4.628571033477783,1.833555102348328,-8.662265777587889,-0.006998866330832243,0.01038471,0.015882496,10
4.636537551879883,1.8434009552001955,-8.657723426818848,-0.005987298209220171,0.010690141499999998,0.015577064,10
4.655580997467041,1.845456838607788,-8.645968437194824,-0.0062193325720727435,-0.0030543262,0.008857545999999999,10
4.67744779586792,1.835610628128052,-8.646111488342285,-0.0085207000374794,-0.003970624,0.01985312,10
4.693509578704834,1.8119590282440183,-8.648563385009767,-0.010593056678771973,-0.0061086523,0.00061086525,10
4.700714111328125,1.7944313287734983,-8.647981643676758,-0.011387936770915985,-0.003970624,-0.0076358155,10
4.688809394836426,1.7955498695373535,-8.645051956176758,-0.008666315115988255,-0.003970624,0.0018325958,10
4.673267364501953,1.8057011365890503,-8.641753196716309,-0.005463873967528343,-0.013133603,-0.0015271631,10
4.660216331481934,1.8085085153579712,-8.654985427856445,-0.007166400086134672,-0.009468411,0.006414085,10
4.664117813110352,1.8055299520492556,-8.677422523498535,-0.01043666619807482,0.014660766,0.008857545999999999,10
4.662581920623778,1.804138422012329,-8.685794830322267,-0.011420557275414469,0.022296581,0.015577064,10
4.651806354522705,1.806102275848389,-8.678330421447754,-0.010045613162219523,0.013744468,0.020158553,10
