acc_x,acc_y,acc_z,gyro_x,gyro_y,gyro_z,label
0.0,0.0,0.0,0.0,0.39645153,0.17348573,1
0.040569346398115165,0.28755754232406616,0.010872185230255129,0.008175996132194996,0.49021935,0.16187929,1
0.14229513704776764,0.9721360206604004,0.032784514129161835,0.030244475230574608,0.3491095,0.12644911,1
0.2909492552280426,1.9178000688552856,0.056776300072669976,0.06729651987552643,0.036651913,0.074830994,1
0.4674295485019684,2.9746389389038086,0.0755988359451294,0.1130862608551979,-0.1151481,0.037873644,1
0.6543487310409546,4.0224199295043945,0.08503410220146179,0.16150306165218353,-0.03970624,0.008552114,1
0.8393288254737854,4.985870838165283,0.08359362930059433,0.2074972838163376,0.03268129,0.010995574,1
1.0151796340942385,5.829394340515138,0.07160492986440659,0.2558463513851166,0.015577064,0.04520403,1
1.1786829233169556,6.5443968772888175,0.05029156804084778,0.30345261096954346,0.05681047,0.06627888,1
1.3143229484558103,7.138875961303711,0.004764470737427473,0.3463141620159149,0.12095132,0.08032878,1
1.394144892692566,7.6290950775146475,-0.09508387744426727,0.3792955577373505,0.16493362,0.057421334,1
1.4265583753585815,8.030092239379883,-0.2398277074098587,0.39315649867057795,0.16615535,0.04062254,1
1.419750094413757,8.356453895568848,-0.4212897121906281,0.3821374773979187,-0.009773844,0.06505715,1
1.3809680938720703,8.621289253234862,-0.6323319673538208,0.35806363821029663,-0.017715093,0.15332718,1
1.3162808418273926,8.8358736038208,-0.8671340942382812,0.3469624221324921,0.08124508,0.1908954,1
1.2308003902435305,9.009657859802246,-1.120766043663025,0.35162684321403503,-0.12583824,0.14110987,1
1.1285560131072998,9.150442123413086,-1.3895251750946045,0.3727278411388397,-0.34391713,0.00580322,1
1.0128188133239746,9.264602661132812,-1.670426607131958,0.40118247270584106,-0.26236662,-0.13530666,1
0.8863644003868103,9.35731029510498,-1.9608149528503416,0.4229856133460999,-0.08674286,-0.27366763,1
0.7698621153831482,9.43412971496582,-2.2318778038024902,0.43041932582855225,0.02321288,-0.39522982,1
0.70028156042099,9.501021385192873,-2.430777311325073,0.4349159598350525,0.071776666,-0.50793445,1
0.6698073744773865,9.560037612915039,-2.569671630859375,0.4320602715015411,-0.046120327,-0.57726765,1
0.6707372665405273,9.612720489501953,-2.660361289978028,0.3815429210662842,0.08796459400000001,-0.6713409,1
0.6968370676040649,9.66030216217041,-2.7123701572418213,0.3107060790061951,-0.17256944,-0.7791585999999999,1
0.7431744337081909,9.703786849975586,-2.7332892417907715,0.26631903648376465,-0.42180246,-0.8323039000000001,1
0.8058062791824341,9.743988037109377,-2.729201555252075,0.2398151010274887,-0.16187929,-0.7877107,1
0.8815386891365051,9.781554222106934,-2.7050163745880127,0.17076072096824646,0.13041973,-0.8374963,1
0.9677581191062928,9.816994667053224,-2.6647167205810547,0.0683593824505806,0.24862215,-0.9202685,3
1.062407612800598,9.850729942321776,-2.611467838287353,-0.016428014263510704,0.32162055,-0.8772025,3
1.1785926818847656,9.879462242126463,-2.567887544631958,-0.06383529305458069,0.36774087,-0.81092364,3
1.3522789478302002,9.913959503173828,-2.598033905029297,-0.06526535749435425,0.4343252,-0.70829827,3
1.5088489055633545,9.91620922088623,-2.674985408782959,-0.021468454971909526,0.5571090999999999,-0.5656611999999999,3
1.5372264385223389,9.907060623168944,-2.7250466346740723,0.04722601175308228,0.5729916,-0.4474588,3
1.3743675947189329,9.944411277770996,-2.7358720302581787,0.1266225129365921,0.50671273,-0.36682457,3
1.0777046680450442,10.051783561706543,-2.783385992050171,0.20441193878650665,0.57543504,-0.31612277,3
0.7953003048896791,10.178948402404783,-2.8746566772460938,0.2877145707607269,0.6609562,-0.32986724,3
0.6894318461418152,10.23927116394043,-2.9612784385681152,0.3692139387130737,0.5885687,-0.28680122,3
0.7210433483123779,10.303088188171387,-3.045775413513184,0.431834876537323,0.42363504,-0.16646078,3
0.81996750831604,10.36147403717041,-3.131755113601685,0.4773774147033691,0.301462,-0.06352998,3
0.9490399956703186,10.36992359161377,-3.197831392288208,0.5071409940719604,0.2706133,0.01282817,3
1.0967875719070437,10.269388198852539,-3.267554759979248,0.5010237097740173,0.25320363,0.08643743400000001,3
1.2581853866577148,10.056371688842773,-3.3196234703063965,0.4540177881717682,0.12064589,0.18753563,3
1.3977515697479248,9.771831512451172,-3.345497131347656,0.3743489980697632,-0.14966199,0.3210097,3
1.4745750427246094,9.470276832580566,-3.309945106506348,0.2824515998363495,-0.33536503,0.364992,3
1.460593581199646,9.196523666381836,-3.269576072692871,0.18465687334537506,-0.5335908,0.29626966,3
1.336400270462036,8.98137378692627,-3.200767993927002,0.07157516479492188,-0.6731735,0.24984388,3
1.064258694648743,8.809294700622559,-3.065433979034424,-0.04684874787926674,-0.78954333,0.21533,3
0.6329207420349121,8.62812614440918,-2.8665833473205566,-0.153552308678627,-0.6533204,0.18051068,3
0.09163330495357512,8.418600082397461,-2.58608078956604,-0.2361281961202621,-0.60139686,0.15943582,3
-0.37203896045684814,8.165263175964355,-2.25045108795166,-0.28931769728660583,-1.0354166,0.030848695,3
-0.6188530325889587,7.8391971588134775,-1.9258058071136477,-0.2820519208908081,-1.9474384,-0.11301007,3
-0.593899130821228,7.402058601379394,-1.6417776346206665,-0.1803179830312729,-3.1710014,-0.08521569999999999,3
0.07316655665636063,6.7338600158691415,-1.9584206342697144,-0.1029280498623848,-1.269378,0.23701571,3
0.7148693799972534,6.170558452606201,-2.3092479705810547,-0.2544875741004944,0.8436049000000001,0.087659165,3
0.7767080068588257,6.626591205596924,-1.5278319120407104,-0.4774318635463714,-1.3356569,-0.12217305,3
0.9231063723564148,7.9867730140686035,-0.5475218892097473,-0.629895806312561,-2.8066204,0.13775012,3
1.0413335561752322,9.7582426071167,-0.22782328724861145,-0.6386855244636536,-2.7122416,0.21410827,3
0.9692612290382384,11.095775604248047,-0.2899847626686096,-0.571300745010376,-1.4431691,0.59131753,3
0.7928017973899841,11.615692138671875,-0.40188026428222656,-0.6177825331687927,-0.073303826,0.5369505,3
0.7334874272346497,12.102885246276855,-0.3173994719982147,-0.6457421183586121,0.8735373,0.7498371,3
0.8090910315513611,12.950760841369627,-0.05196909978985786,-0.5965489149093628,0.58551437,1.0833695,3
0.9019162654876708,13.902320861816404,0.054059822112321854,-0.6114331483840942,0.33658674,1.2400563999999998,3
0.8737960457801819,14.610936164855955,0.11036257445812224,-0.7818917632102966,0.013133603,1.2409728,3
0.6082034707069397,15.092596054077148,0.056941725313663476,-0.9601159095764159,-0.24404067,1.2235631,3
-0.024723872542381287,15.301085472106935,-0.3890679776668549,-1.1165601015090942,0.08277224,1.4227052,3
-0.7966947555541992,14.897164344787598,-1.068426489830017,-1.2343742847442627,0.31245756,1.2675453,3
-1.3880833387374878,13.976720809936525,-1.7419832944869995,-1.28959059715271,0.51159966,0.9630291,3
-1.7385920286178589,12.61334991455078,-2.217954158782959,-1.3799110651016235,0.38087448,0.43890667,3
-1.7780311107635498,10.830911636352539,-2.58388352394104,-1.421244740486145,-0.29871312,0.09040806,3
-1.6416581869125366,9.232900619506836,-3.0411772727966313,-1.3340060710906982,-1.0873401000000005,-0.06963864,3
-1.9815120697021484,8.058250427246094,-3.138686180114746,-1.0976755619049072,-2.5610526,-0.35246924,3
-2.5849359035491943,7.156944751739503,-3.0421245098114014,-0.7936543822288513,-3.0250046000000004,-0.79259765,3
-3.1883866786956787,6.315603256225586,-3.2834858894348145,-0.5013157725334167,-2.5964828,-1.3414601000000002,3
-3.2402629852294917,5.6340980529785165,-4.074244022369385,-0.17672200500965118,-0.66889745,-1.4208726,3
-2.3245744705200195,5.3667869567871085,-4.485912322998047,0.2245715856552124,0.20341812,-1.3298537,3
-0.9076134562492372,5.731128692626952,-4.353372573852538,0.6470105051994324,1.1866057,-1.5760323,3
0.5088080763816833,7.023477554321289,-3.967299222946167,0.9909471869468688,1.9068159,-1.6468927,3
1.695021390914917,9.027766227722168,-3.226058006286621,1.2680301666259766,0.8943066999999999,-1.2800682,3
2.2289984226226807,10.972695350646973,-2.319843292236328,1.4464368820190432,-1.4202617,-1.0290025,3
1.9290430545806885,12.44972038269043,-1.7631710767745972,1.5367136001586914,-1.5964963,-1.0280862,3
1.181218504905701,13.683416366577148,-1.4580048322677612,1.5684170722961426,-1.5482379,-0.9627236,3
0.2061313092708588,14.801922798156738,-1.4647815227508545,1.5562371015548706,-0.88056225,-0.8017605999999999,3
-0.2931855916976929,15.703874588012695,-1.7788540124893188,1.476845145225525,0.23151793,-0.31520647,3
-0.31526070833206177,16.086637496948242,-2.288746833801269,1.4360809326171875,2.9236012,-0.029321533,3
-0.04289758205413818,15.829179763793945,-2.420462846755981,1.3881434202194214,3.674049,-0.0076358155,3
0.520474374294281,14.839272499084473,-2.261293172836304,1.2304836511611938,3.9840631,0.17440203,3
1.3551623821258545,12.950566291809082,-1.5741267204284668,0.9313481450080872,2.0952678,0.40653083,3
2.2146873474121094,10.426867485046387,-0.6679691672325134,0.521027147769928,0.23090707,0.7076874,3
2.732675313949585,7.937883377075195,-0.0190822035074234,0.11380752176046373,-0.77549344,1.2162327,3
2.7980008125305176,5.808471202850343,0.2905938923358917,-0.20684508979320526,-1.1050552,1.3148874,3
2.4725372791290283,4.048375129699707,0.5227653980255127,-0.4164024591445923,-1.3573426000000002,0.77732605,3
1.90715491771698,2.7703075408935547,0.6454323530197144,-0.5766405463218689,-0.7449501999999999,-0.010995574,3
1.0539443492889404,2.405404806137085,0.04965120926499367,-0.7640228271484375,-0.17165314,-0.87781334,3
-0.6182634830474854,3.164127349853516,-1.3051358461380005,-0.7655979990959167,-4.0619483,-2.3231206,3
-2.0387330055236816,3.9900660514831534,-0.9186889529228209,-0.7022696137428284,-5.756794,-2.5772405,3
-1.8641959428787231,4.248504161834717,-0.6447752118110657,-0.6644562482833862,-2.2950208,-0.9621128,3
-0.9937682151794434,4.491691589355469,-0.2652319371700287,-0.6270280480384827,-1.0488556999999998,-0.64660084,3
0.503916323184967,6.170083522796631,0.1592053323984146,-0.4813291728496552,-0.17195857,0.6414085,3
1.9857996702194212,8.519696235656737,0.297749787569046,-0.20106591284275052,0.9941832,2.2941043,3
2.7077810764312744,10.059690475463867,-0.2654202878475189,0.07947928458452225,3.8835757000000006,1.8044959,3
3.0006649494171143,10.513715744018556,-0.40263959765434265,0.1356992870569229,5.1227160000000005,0.7641924,3
3.4905481338500977,11.350605010986328,0.24034230411052704,0.07989957183599472,3.7708712,1.1676688999999998,3
4.084683418273927,12.678389549255373,1.2712106704711914,-0.14507122337818146,2.0409007,1.3753631000000002,3
4.2497310638427725,13.956868171691895,1.9200165271759035,-0.5163097381591797,1.4776831,1.1145236,3
3.815893888473511,15.036328315734865,2.236926794052124,-0.9776694774627686,0.9101892,1.6065756000000002,3
2.344703197479248,15.870848655700685,1.9491620063781736,-1.821332097053528,10.002308,1.5482379,3
0.4676108360290527,15.83705234527588,-0.7776817083358765,-2.0411136150360107,-2.790127,1.2345587,3
-0.9524190425872804,14.709028244018555,-3.602960586547852,-1.897182822227478,3.184746,1.8005253,3
-2.0035200119018555,12.988912582397461,-4.074415683746338,-1.5470143556594849,2.3698518,1.0903945,3
-2.719634294509888,11.071820259094238,-3.0596227645874023,-1.375322341918945,-0.4605924,0.5158757,3
-3.412460327148437,8.913703918457031,-2.236903429031372,-1.2541054487228394,-1.6297885,-0.3268129,3
-4.153797626495361,7.1540889739990225,-1.9271217584609983,-1.0943828821182249,-2.1966715,-1.0525209,3
-4.732770442962647,5.915923595428468,-2.213469982147217,-0.8969616293907166,-3.0424144,-1.2406673,3
-4.184754371643066,5.055110454559326,-3.7024195194244394,-0.5850902795791626,-0.26022860000000003,-1.2742649,3
-2.7620842456817627,4.445586204528809,-4.418893337249756,-0.12350667268037795,1.4114041000000002,-0.9034697,3
-1.358269453048706,4.3739333152771005,-4.145100116729736,0.3977023363113403,1.2980887,-1.0363328,3
-0.2558479607105255,5.1383957862854,-3.546055316925049,0.922253668308258,1.2412782,-1.6410894,3
0.5094156265258789,6.552161693572997,-3.0237982273101807,1.2249008417129517,1.0290025,-2.037541,3
1.1331557035446167,8.499972343444824,-2.4161434173583984,1.3608819246292114,0.41538838,-2.071444,3
1.6017584800720217,10.510613441467283,-1.7343963384628296,1.5440744161605835,-1.1001683,-1.767844,3
1.9258201122283936,12.247089385986328,-1.373550295829773,1.780854344367981,-0.04428773,-1.2003502,3
2.02705192565918,13.665109634399414,-1.2554279565811155,1.883269429206848,-0.116675265,-0.98440933,3
2.1364450454711914,14.781657218933105,-1.0721615552902222,1.844565987586975,-0.4560109000000001,-0.9428705,3
2.334523200988769,15.640469551086426,-1.3275471925735474,1.6984444856643677,0.084910266,-0.6261369000000001,3
2.464864730834961,16.082319259643555,-1.900983452796936,1.5592859983444214,1.5033393999999998,-0.31612277,3
2.4528071880340576,15.876806259155273,-2.26949143409729,1.4605939388275146,2.486527,-0.06414085,3
2.2965216636657715,14.919458389282227,-2.3081953525543213,1.255963921546936,2.2085834,-0.07788532,3
2.2344348430633545,13.237527847290039,-2.1160440444946294,0.9282102584838868,1.4272866000000002,0.3659083,3
2.382239818572998,11.06255054473877,-1.6877235174179075,0.5379492044448853,0.5671884,1.0219775,3
2.495082378387451,8.711112022399902,-1.148985743522644,0.1516684889793396,0.13408493,1.2791518,3
2.178011178970337,6.522605895996094,-0.7303628325462341,-0.16107849776744845,0.025961773,1.2198979,3
1.3814514875411987,4.6905789375305185,-0.17048659920692444,-0.3540312647819519,-0.6780604,0.7305948,3
0.7867356538772583,3.521268367767334,0.1321721374988556,-0.4765187799930573,-0.88270026,-0.16249016,3
0.2563256025314331,3.173588514328003,-0.12015867978334427,-0.6105490326881409,-0.5665775,-0.8747590000000001,3
-0.7096652984619141,3.6109352111816406,-0.7928003072738647,-0.7075690627098083,-1.2055426,-1.5323554,3
-1.8394529819488523,4.22565507888794,-0.5826297402381897,-0.7878444790840149,-3.8206568,-1.8768835,3
-2.1360764503479004,4.602738857269287,-0.1751616597175598,-0.7594159245491028,-5.681352,-1.6612481,3
-1.3680410385131836,4.7451210021972665,-0.14412586390972135,-0.7221669554710388,-3.4352007000000007,-0.8038987,3
0.5509834885597229,5.848316192626952,-1.250279664993286,-0.7936620712280273,2.6713138,-0.5842925999999999,3
2.8476259708404537,8.008611679077147,-1.0180184841156006,-0.7997358441352844,2.6844473,1.539075,3
4.102461814880371,10.105484008789062,-0.1960662454366684,-0.5408536791801453,1.7415768,1.9062049,3
4.626762390136719,11.335071563720705,0.3853296339511871,-0.22460928559303284,1.4187346,1.6337591,3
4.977375984191895,12.117413520812988,0.816897988319397,-0.011906012892723085,1.2284501,1.4816537,3
5.230175018310547,13.290576934814453,1.046188473701477,-0.10696016997098924,2.349693,1.6114625,3
5.16786527633667,14.44799518585205,1.20024836063385,-0.521947979927063,2.5964828,1.7687602999999998,3
4.653375625610352,15.431605339050293,1.258051872253418,-1.0469536781311035,2.4810293,1.9419407,3
3.22526478767395,16.217981338500973,1.5165970325469968,-1.7431906461715698,-6.027101999999998,1.7452419999999995,3
1.315554976463318,16.46665382385254,0.2700304388999939,-1.9660855531692505,-5.279097599999999,1.3842206,3
-0.09132394194602966,15.716364860534668,-2.0945391654968257,-2.164766550064087,-0.11178834,1.4590516000000002,3
-0.7570772171020508,13.937888145446776,-3.417844295501709,-1.8922104835510252,2.2208006,1.3460416000000002,3
-1.243773341178894,12.023431777954102,-3.2644009590148926,-1.5881487131118774,0.19914207,0.8179486,3
-2.027008533477783,9.98706340789795,-2.94242000579834,-1.3763319253921509,-1.1010846,0.29749137,3
-3.1303288936614986,8.301313400268555,-2.9353334903717037,-1.161418318748474,-2.5329528,-0.59803706,3
-3.871737718582153,6.912327289581299,-3.460895776748657,-0.8984425067901611,-2.223855,-1.0955868,3
-4.066633701324463,5.802177429199219,-3.996161460876465,-0.5416406989097595,-0.84513205,-1.3252722,3
-3.700180530548096,5.081179141998291,-4.206687450408936,-0.09417680650949478,0.022907447,-1.4819591,3
-2.9057021141052246,4.532883644104004,-4.14943790435791,0.3123873174190521,0.15057829,-1.5531249,3
-1.8626570701599119,4.4535489082336435,-4.006401538848877,0.6963116526603699,0.2284636,-1.6389513999999998,3
-0.7678943872451782,5.195504665374756,-3.683083295822144,1.0918198823928833,0.31734450000000003,-2.0118847,3
0.30609047412872314,6.885560989379883,-3.3001325130462646,1.3544256687164309,0.9550878,-2.0772474,3
1.5924266576766968,9.063623428344727,-2.6368508338928223,1.535556435585022,-0.35643986,-1.5250251,3
2.446295022964477,11.0458402633667,-1.9666475057601929,1.6829992532730105,-1.1621711,-1.3234396000000002,3
2.4862170219421387,12.695881843566895,-1.617123007774353,1.7578991651535034,-0.9184359,-1.0833695,3
1.8833277225494385,14.037555694580078,-1.303581714630127,1.6942124366760254,-2.0350976000000003,-1.3790283,3
1.4233543872833252,15.040972709655762,-1.722147822380066,1.527336835861206,-0.5821546,-1.0082331,3
1.488832712173462,15.610129356384276,-2.5081515312194824,1.417294144630432,2.8964176,-0.36193767,3
1.7346707582473757,15.495408058166506,-2.539513111114502,1.382692575454712,3.3053918,-0.07147124,3
2.043372631072998,14.712976455688475,-2.241217374801636,1.222456455230713,2.8689287,-0.08063421400000001,3
2.5049588680267334,13.123757362365724,-1.7121021747589111,0.9423719644546508,2.3988678,0.36713,3
3.04854679107666,10.746435165405273,-0.8896956443786621,0.6530853509902954,1.103528,0.7501425,3
3.2472226619720463,8.126582145690918,-0.03528599068522453,0.3437385559082031,-0.013744468,0.8527679,3
2.7428746223449707,5.80096435546875,0.5448987483978271,-0.021150419488549232,-0.18081611,0.54519725,3
1.9164859056472776,3.866762638092041,0.8762272000312805,-0.3753593862056732,-0.3491095,0.44318274,3
1.141429781913757,2.426693916320801,0.9294651746749878,-0.6020613312721252,-0.11209377,0.23854288,3
0.5955493450164795,1.7178409099578855,0.5596514940261841,-0.719081699848175,0.63041294,-0.52412236,3
0.0181643720716238,1.8867347240448,-0.4068098664283752,-0.717560887336731,0.3817908,-1.2861768,3
-0.8647695779800415,2.472424268722534,-0.28574296832084656,-0.6313363909721375,-4.837442,-2.2540927,3
-1.2338974475860596,3.0367894172668457,0.013432079926133156,-0.6894124746322632,-5.2018228,-1.1624765,3
-0.9162667989730836,3.4262337684631348,-0.2108849287033081,-0.7554202675819397,-2.763249,-0.21288654,3
-0.02510656788945198,4.325082302093507,-0.2933931350708008,-0.6945068836212158,-1.0219775,-0.08796459400000001,3
1.6933175325393677,6.564692974090576,0.1018773466348648,-0.4668407738208771,-0.59223384,1.1863003,3
3.239247560501098,8.928254127502441,0.3957227766513825,-0.16814780235290527,0.659429,1.2757921,3
4.0883073806762695,10.864813804626463,0.14031489193439484,0.02721177227795124,2.6804767000000003,1.0259482,3
4.48572301864624,12.133387565612793,-0.3181523084640503,-0.03222281858325005,4.4666467,1.1661416999999998,3
4.725915431976318,13.320637702941895,-0.4093485772609711,-0.2642664313316345,4.1960335,1.475545,3
4.737334251403809,14.475582122802734,-0.2552593946456909,-0.496974766254425,3.7134497,1.9788979,3
4.063452243804932,15.448453903198242,-0.1836274266242981,-0.8621352910995483,1.4596626,1.9755383,3
3.0545685291290283,15.991479873657227,-0.20306204259395602,-1.1726092100143433,-3.0360002999999995,1.2977833,3
1.954877853393555,15.7940092086792,-0.8233897089958191,-1.3484355211257937,-0.8750645,1.6352862,3
0.6319681406021118,14.684493064880373,-1.6447675228118896,-1.5902912616729736,-0.4636467000000001,1.6111571000000002,3
-0.5688475370407104,12.993111610412598,-2.3008158206939697,-1.6223086118698118,0.4728097,1.2183707,3
-1.4498097896575928,10.9522066116333,-2.770026683807373,-1.6042221784591677,-0.21227567,0.7528914000000001,3
-2.054172277450561,9.01329231262207,-3.0818774700164795,-1.522647261619568,-0.5164866,0.22968534,3
-2.505645036697388,7.6081886291503915,-3.110661268234253,-1.3594099283218384,-1.1215485,-0.33933565,3
-2.8602406978607178,6.47953462600708,-3.2151753902435303,-1.1032350063323977,-2.0204368,-0.4373795,3
-2.728363037109375,5.517126560211182,-4.052011966705321,-0.7506324648857117,-1.0354166,-0.37995818,3
-2.1591503620147705,4.750548362731934,-4.8119540214538565,-0.2788762152194977,0.09621128,-0.50854534,3
-1.4422729015350342,4.221435546875,-4.846773624420166,0.2015615999698639,0.020463986,-0.6646214,3
-0.7201762199401855,3.871932029724121,-4.301260471343993,0.6112162470817566,-0.61300325,-0.8063421,3
-0.1351630985736847,4.177062511444092,-3.476602792739868,0.9907373785972596,0.03604105,-1.2932017,3
0.09254441410303116,5.689821720123291,-2.7118289470672607,1.3340796232223509,1.568702,-1.9468275,3
0.12114913761615753,8.018016815185549,-2.01861572265625,1.4826136827468872,1.1838568,-1.93797,3
0.24410007894039154,10.228540420532227,-1.2511720657348633,1.5801827907562256,-0.8011498,-2.0454822,3
0.6843645572662354,12.046966552734375,-0.9146888852119446,1.6702754497528076,-0.9764681,-1.8445076,3
1.1494823694229126,13.518051147460938,-0.9537737369537354,1.6655540466308594,-0.6264423000000001,-1.6178766000000002,3
1.4790502786636353,14.696348190307615,-0.9137885570526124,1.6008292436599731,0.45998153,-1.2742649,3
1.6926378011703491,15.347406387329102,-0.5911000967025757,1.39277982711792,0.23640485,-0.9783007,3
1.86862051486969,15.23502254486084,-0.5733782649040222,1.0968803167343142,0.10445796,-0.88239485,3
2.1305489540100098,14.775941848754885,-1.0025578737258911,0.8960539698600769,3.019507,-0.47067168,3
2.366452932357788,13.828099250793455,-0.945308804512024,0.8134967088699341,3.2940907,-0.095294975,3
2.784749746322632,12.11512565612793,-0.4962894320487976,0.6654748320579529,1.8506162,0.24404067,3
3.2992937564849854,9.923786163330078,-0.07832779735326767,0.4119229018688202,1.1618657,0.4092797,3
3.475626230239868,7.777649879455566,0.2568110525608063,0.1458493173122406,0.62888575,0.36010507,3
3.190842866897583,5.807151317596436,0.5234112739562988,-0.0666913390159607,0.32253686,0.15302174,3
2.676065444946289,4.0050134658813485,0.6135976910591125,-0.2251797318458557,0.3286455,0.089491755,3
2.2048559188842773,2.468611240386963,0.3689911365509033,-0.3463073968887329,0.24801129,-0.0018325958,3
1.8052186965942385,1.638201355934143,-0.14269252121448514,-0.5059063434600829,0.05955936,-0.22266038,3
1.2129563093185425,1.608883500099182,-0.5292342901229858,-0.5353260040283203,-3.7314703,-1.0363328,3
0.4122718572616577,2.02923846244812,-0.5216597318649292,-0.4426730275154114,-7.364897,-1.5234979,3
0.16003446280956268,2.2022640705108643,-0.7172706127166748,-0.4021972119808197,-3.4898732000000003,-0.5687156,3
0.5635141730308533,2.5845823287963867,-1.0482484102249146,-0.3091033697128296,2.484389,-0.5833763000000001,3
1.5783257484436035,4.388969421386719,-0.33599942922592163,-0.3159525692462921,2.3380868,0.116980694,3
2.9890527725219727,6.979886531829834,1.27590012550354,-0.217932790517807,-0.3155119,0.9786061,3
3.49165415763855,9.007213592529297,1.732845902442932,-0.0891726016998291,0.31948254,0.61850107,3
3.451751232147217,9.54248046875,1.0364080667495728,-0.16516020894050598,2.3970351,0.36132678,3
3.721924304962158,10.813337326049805,0.7998222708702087,-0.4465404450893402,2.1099286,0.6994406999999999,3
4.080765247344972,12.331164360046387,0.8801543712615967,-0.6299355626106262,0.8491027,0.8747590000000001,3
4.256752014160156,13.516283988952635,0.9376118779182434,-0.7722231149673462,0.3622431,1.2559389,3
4.1117467880249015,14.393446922302244,1.0537090301513672,-1.1286189556121826,-0.49510628,1.4337007,3
3.676003217697144,14.982685089111328,1.072881102561951,-1.7154994010925293,-2.0665572,1.4175128,3
2.4952547550201416,15.143845558166506,0.8018236756324768,-2.043995857238769,-6.7693033,1.9181169,3
0.8745046854019165,14.774262428283693,-0.917625606060028,-2.040759801864624,-1.8008307,2.0161607,3
-0.5187815427780151,13.542142868041992,-2.5550463199615483,-1.9082984924316408,0.7996226,1.2843441999999998,3
-1.317828893661499,11.82408618927002,-3.3922438621521,-1.5542092323303225,1.5415184,0.7877107,3
-1.636404037475586,10.24281120300293,-3.362391233444214,-1.307356357574463,0.3747658,0.5665775,3
-1.878687620162964,8.631462097167969,-2.7077486515045166,-1.1450345516204834,-1.6450601000000002,0.35918877,3
-2.298856258392334,6.722079753875732,-2.1273560523986816,-0.9908949732780457,-3.157257,-0.40225476,3
-2.8518311977386475,5.162412643432617,-2.1616268157958984,-0.8092103600502014,-3.429703,-1.14018,3
-3.0468783378601074,4.298764228820802,-2.8507893085479736,-0.5572057962417603,-1.68385,-1.5378532,3
-2.76082706451416,3.9895870685577393,-3.4958412647247314,-0.2714606821537018,-0.01740966,-1.8240436,3
-2.1040616035461426,4.267648220062257,-3.4532985687255864,0.07360122352838516,0.28038713,-2.0427334,3
-1.2593629360198977,5.603693008422852,-3.0466480255126958,0.4430413544178009,0.7089091,-2.8677068,3
-0.21307744085788727,7.713947296142577,-2.9569106101989746,0.6634846925735474,0.57879484,-4.086993700000002,3
1.408011555671692,9.879454612731934,-2.7898938655853267,0.9230536222457886,-1.6016886,-3.3597589,3
3.5057291984558105,11.740001678466795,-2.88954758644104,1.111079216003418,-2.6960537,-1.9547688,3
4.991923809051514,13.264605522155762,-3.491489887237549,1.2904225587844849,-2.1520782000000005,-1.4950926000000002,3
5.322234153747559,14.496435165405273,-3.5885741710662837,1.4488648176193235,-1.3478742,-0.6478225999999999,3
4.678970813751222,15.373208045959473,-3.0930936336517334,1.5211219787597656,-1.502423,-0.52687126,3
4.027934074401856,15.67144775390625,-2.748382806777954,1.5717157125473022,-0.42638394,-0.31734450000000003,3
3.79301118850708,15.558828353881836,-2.7648966312408447,1.634605884552002,1.4712689,0.25717425,3
3.732776641845703,14.88774299621582,-2.621605634689331,1.657602071762085,2.094657,0.47219884,3
3.690932035446167,13.531217575073242,-2.196033239364624,1.5540049076080322,1.2867876,0.4596761,3
3.720110893249512,11.439237594604492,-1.4552544355392456,1.2637368440628052,-0.23090707,0.64965516,3
3.740678787231445,9.016283988952637,-0.6422467231750488,0.7985872626304626,-1.2825116,0.98715824,3
3.2317726612091064,7.0447187423706055,-0.04837927594780922,0.26549437642097473,-1.8643607,0.88514376,3
2.3709285259246826,5.571096897125244,0.2860521972179413,-0.22946979105472565,-1.5317446,0.59040123,3
1.265241265296936,4.238342761993408,0.5431416034698486,-0.6236686110496521,-0.88056225,0.23273966,3
0.14709584414958954,3.2152304649353027,0.7732321619987488,-0.9449431896209716,-0.8765915999999999,-0.28924468,3
-0.6920608878135681,2.753268241882324,0.6387763619422913,-1.1490074396133425,-1.3698653,-0.7510588,3
-1.260689377784729,2.838106632232666,0.35804620385169983,-1.234770655632019,-1.5803083999999998,-0.9202685,3
-1.658118724822998,2.910665273666382,0.4750285744667053,-1.2035430669784546,-3.6071594,-1.2782356,3
-2.0387213230133057,3.1704952716827397,0.5719240307807922,-0.8742725849151611,10.002308,-2.2409592000000003,3
-1.4437384605407717,3.7937200069427486,-0.7898228168487549,-0.9595766663551332,-0.09468412,-0.591623,3
-0.3991665542125702,4.843414783477783,-0.5733886957168579,-1.3030518293380735,0.47769663,-0.8038987,3
1.1231402158737185,7.1476149559021,0.6353909373283386,-0.7753141522407532,-0.9798279,0.70646566,3
1.7940897941589355,9.046229362487793,1.270645260810852,-0.078153096139431,-0.91538155,1.2357804,3
2.234262704849243,9.840611457824707,1.2704594135284424,0.2569851279258728,0.1337795,1.0876455,3
3.0735747814178467,11.147025108337402,1.0801502466201782,0.2309388369321823,0.6047566,0.86559606,3
4.0016698837280265,12.573209762573242,0.9897934198379515,-0.12965284287929535,0.31826079999999995,0.32162055,3
4.566939830780028,13.560386657714846,1.0661778450012207,-0.6258581280708313,-0.21105394,1.1713341,3
4.6813578605651855,14.143961906433105,1.2138890027999878,-1.0042076110839844,-0.8530733,1.3622295,3
4.542892456054688,14.611475944519045,1.3714723587036133,-1.1022361516952517,-1.6530013,1.6096298999999998,3
4.140584945678712,14.991604804992676,1.4052516222000122,-1.0367587804794312,-1.917506,2.062892,3
3.3134772777557373,15.138422966003418,1.0915493965148926,-1.2593204975128174,-1.0451905,3.0433307000000003,3
2.055008172988892,14.700753211975098,0.5075247883796692,-1.794110655784607,-0.116980694,2.669481,3
0.015218950808048247,13.340802192687988,0.37639161944389343,-1.998076677322388,-6.088494,2.1456642,3
-2.00064468383789,11.635552406311035,-0.5197342038154602,-1.7639670372009275,-3.7998872,1.6783522000000002,3
-3.678211688995361,9.830883979797363,-1.4183387756347656,-1.7597578763961792,-2.9501736000000003,0.5681046999999999,3
-4.577845573425293,8.111841201782228,-2.187218189239502,-1.5420597791671753,-2.2146919,-0.48441613,3
-4.5910325050354,6.680747985839844,-2.616440534591675,-1.2302137613296509,-1.9333885,-0.94042706,3
-4.091042995452882,5.623049736022949,-2.6605281829833984,-0.912883996963501,-3.2308662,-1.2250903,3
-3.4005072116851807,4.834665775299072,-2.7042338848114014,-0.6139901876449585,-3.4428365,-1.5662584,3
-2.680133581161499,4.093547344207764,-2.9649944305419917,-0.34758588671684265,-3.0479121,-2.0146337,3
-1.786527395248413,3.7413442134857178,-3.0403103828430176,-0.06634148210287094,-2.7140744,-2.4107797000000004,3
-0.8165202140808105,4.599289894104004,-2.909306526184082,0.2437488883733749,-2.0234911,-3.657861,3
0.19345903396606445,6.732758522033691,-2.8187041282653813,0.3506956696510315,-2.2434027000000003,-4.6013427,3
1.0931634902954102,9.053510665893556,-2.8347361087799072,0.5553926229476929,-2.9776626,-3.666718700000001,3
2.0931472778320312,11.064739227294922,-3.0295557975769043,0.6430345773696899,-2.670703,-3.2992833,3
3.3490598201751713,12.71902561187744,-3.71042275428772,0.6784458160400391,-1.7956384,-2.243097,3
4.298021793365479,14.058116912841795,-4.203579902648927,0.8190532922744751,-0.8729264000000001,-1.2119566000000002,3
4.522197723388672,15.04304313659668,-4.165168762207031,1.0231606960296629,0.6792821,-0.34208453,3
4.0252718925476065,15.200687408447266,-3.707894086837769,1.1887433528900146,0.9810496,-0.081855945,3
3.5050373077392583,14.828786849975586,-3.0066633224487305,1.2263028621673584,0.38973203,-0.21227567,3
3.4208769798278813,14.099778175354006,-2.567739963531494,1.1396915912628174,0.66828656,-0.025961773,3
3.5695371627807617,12.411234855651855,-2.0745363235473637,0.9938220977783204,0.6933321,0.2125811,3
3.8030931949615483,10.190163612365724,-1.2530196905136108,0.8235390782356262,0.06811147,0.45142943,3
3.9194178581237793,7.878561019897461,-0.3895746469497681,0.5256106257438661,-1.2932017,0.44776422,3
3.5489249229431152,6.0716285705566415,0.10406444221735,0.12118304520845412,-1.5293012,0.2678644,3
2.8425812721252437,4.837351799011231,0.2052847295999527,-0.26815664768218994,-1.1939361000000002,0.27305678,3
1.6399869918823242,3.9303679466247563,0.2729823887348175,-0.550747811794281,-0.99082345,0.13897185,3
-0.15818123519420624,3.457066297531128,0.3133105933666229,-0.7877181768417358,-1.7641789,-0.07574729,3
-1.5744794607162476,3.36372447013855,0.2898399233818054,-0.9609174132347108,-1.4193454,-0.18692477,3
-1.9041836261749268,3.2797787189483643,0.4301005005836487,-1.0554945468902588,-0.40653083,-0.31429017,3
-1.5289944410324097,3.081220388412476,0.6098661422729492,-1.15081524848938,-0.2171626,-0.5723807,3
-0.929194450378418,3.113001108169556,0.7874500751495361,-1.1940077543258667,-3.5448510000000004,-0.4166101,3
-0.05863846465945244,4.053075313568115,0.664470911026001,-0.8521695733070374,-6.15966,-0.25411993,3
1.2193647623062134,6.350024700164795,-0.15145188570022586,-1.0540089607238772,-2.0647244,0.3155119,3
2.5658164024353027,8.59239387512207,-0.5292707681655884,-1.0705420970916748,0.16707164,0.55741453,3
2.8277072906494136,9.33851432800293,-0.7084800004959106,-0.8309712409973145,-1.6081028,0.07819075,3
3.0295515060424805,9.513643264770508,-0.500356137752533,-0.6479571461677551,-1.153619,-0.027794369,3
3.2745769023895264,10.247052192687988,-0.15076148509979248,-0.4432239830493927,-1.0051788,0.21930063,3
3.6990778446197514,11.645450592041016,0.12130755186080933,-0.20431919395923612,0.17715092,1.0711522,3
3.8805785179138175,13.016950607299805,0.2888568043708801,-0.0998404175043106,1.8677205,1.4349225,3
3.596562623977661,13.746870040893555,0.5803276300430298,-0.2301117181777954,2.9825497000000003,1.3991868,3
3.144611597061157,14.25723361968994,1.2051063776016235,-0.4841417074203491,1.5210545,1.269378,3
2.5628337860107417,14.75808811187744,1.839521050453186,-0.728150486946106,-0.10048734,1.3219124,3
1.7460680007934568,15.055200576782227,2.354271650314331,-1.0019073486328125,-1.5534303,0.636827,3
0.7735536098480225,15.190210342407227,2.9971921443939213,-1.5169566869735718,-6.6028423,1.3005321,3
-0.3506549596786499,14.748332977294922,2.6163830757141118,-2.0087902545928955,-8.182235,1.2067643,3
-1.8950811624526975,13.20535373687744,1.1209192276000977,-2.0196092128753658,-6.21983,0.7367035,3
-3.6638569831848153,11.257291793823242,-1.843223571777344,-1.8814758062362669,-0.29962940000000005,0.13622294,3
-4.484965324401856,9.63066864013672,-2.2058391571044917,-1.457780122756958,-0.64904433,-0.52839845,3
-4.757695198059082,8.125981330871582,-1.857147216796875,-1.179835319519043,-1.990199,-1.1777482,3
-4.5278658866882315,6.68407154083252,-2.0859341621398926,-0.8789108395576477,-2.656042,-1.4611896,3
-3.8034954071044917,5.522031784057617,-2.716726541519165,-0.566628634929657,-2.1838431000000003,-1.8567249,3
-2.792433977127075,4.73719596862793,-3.1997392177581787,-0.2504096627235413,-2.3136520000000003,-1.9779817,3
-1.6321080923080444,4.397458553314209,-3.3225007057189937,0.07374193519353868,-3.0515773,-2.1413882,3
-0.3580664098262787,4.861498355865479,-3.4838140010833736,0.36859363317489613,-3.1590896,-2.5744915,3
0.9068479537963868,6.467915058135986,-3.725803852081299,0.5756009221076965,-2.5689938,-3.0094275,3
1.836658000946045,8.680471420288086,-3.819507122039795,0.8067470788955688,-2.225993,-2.8506026,3
2.2505688667297363,10.723194122314453,-3.7887423038482666,1.0894906520843506,-1.1630874,-2.3090706,3
2.22742772102356,12.433382034301758,-3.683821678161621,1.3319917917251587,-0.56046885,-2.3652701,3
2.116204738616944,13.825453758239744,-3.4684264659881587,1.4876224994659424,-0.06841691,-1.7476854,3
2.079773187637329,14.944579124450685,-3.29532527923584,1.5730834007263184,-0.14080444,-1.3729197,3
1.9379138946533203,15.79526138305664,-3.1744616031646733,1.5852103233337402,-0.26022860000000003,-1.246776,3
1.6682536602020264,16.343236923217773,-3.147099256515503,1.5504615306854248,0.86926126,-1.0073168,3
1.4380968809127808,16.175971984863278,-3.077385902404785,1.532217264175415,1.3271046999999998,-0.37232238,3
1.3518377542495728,15.017318725585938,-2.8036763668060303,1.4289414882659912,0.97433007,0.21044308,3
1.4740860462188718,12.995851516723633,-2.1779255867004395,1.1889467239379885,0.30207285,0.74067414,3
1.7186483144760132,10.636661529541016,-1.4899827241897583,0.8743464350700378,0.10903945,1.4172074,3
1.795092225074768,8.336792945861816,-0.8339115381240845,0.5311883091926575,-0.2883284,1.6215417,3
1.5690340995788574,6.2661614418029785,-0.1795237958431244,0.21559664607048035,-0.9388999,1.4178182,3
0.992374837398529,4.527602195739746,0.5375956296920776,-0.052138660103082664,-2.0631974,0.65148777,3
0.3102063536643982,3.0897228717803955,1.1007150411605835,-0.3379700481891632,-2.7409523,-0.20097467,3
-0.2934942841529846,2.1080563068389893,1.0738685131072998,-0.6546545028686523,-3.0860913,-0.6258314,3
-1.0439621210098269,2.1827189922332764,0.4116206169128418,-1.0151032209396362,-1.6963727,-1.1145236,3
-1.7153311967849731,3.0129902362823486,0.5899220108985901,-1.2197377681732178,-0.6365215999999999,-1.4789047,3
-1.5803924798965454,3.8103995323181152,1.1910742521286009,-1.2081714868545532,-3.631594,-0.84849185,3
-0.2496173232793808,4.671514987945557,-0.0646212100982666,-1.063022255897522,-3.011871,0.9059132,3
1.606101393699646,6.188355922698975,-1.2267063856124878,-0.7490836977958679,-0.13194689,1.7977765,3
2.8712470531463623,8.362096786499022,-0.8054315447807312,-0.6556466221809387,-0.10995574,3.0405817,3
3.7344450950622563,10.241703987121582,-0.09553560614585876,-0.4006803333759308,-0.14844026,2.266921,3
4.244839668273927,11.216444969177246,0.692027747631073,-0.10364843904972076,-0.89766645,1.1780536,3
4.75547456741333,12.28911304473877,1.1523027420043943,0.02705447748303413,-0.41813725,1.4865406,3
5.257616996765137,13.565564155578613,1.3244497776031494,-0.07739969342947006,0.8875871999999999,2.1743748,3
5.305915355682373,14.703812599182127,1.2041008472442627,-0.3313392698764801,2.5384505,2.6160305,3
4.890332221984863,15.645574569702148,0.8947035074234009,-0.5677922964096069,4.364632,3.1490104,3
3.4468288421630864,16.377740859985348,1.055156946182251,-1.1793460845947266,-5.148678,2.5986207,3
1.297961711883545,16.413557052612305,-0.15742643177509308,-1.400578260421753,-1.346347,1.9352211,3
-0.2987794876098633,15.391904830932615,-1.8984177112579343,-1.5311601161956787,1.0290025,1.7617353,3
-1.1933577060699463,13.813516616821287,-2.6650514602661133,-1.4048454761505127,0.9147707,1.4553864,3
-1.7117253541946411,11.769712448120115,-2.8834266662597656,-1.2018389701843262,-0.4111123,0.93767816,3
-2.5894222259521484,9.517269134521484,-2.674795389175415,-0.9995084404945374,-1.5824465,0.20311269,3
-3.922434568405152,7.8381147384643555,-2.351027727127075,-0.8257119059562683,-1.7446311999999995,-0.5372560000000001,3
-4.561931610107422,6.651731967926025,-2.264106750488281,-0.6895297169685364,-0.8237518,-1.0619892,3
-4.5370073318481445,5.579366683959961,-2.2115516662597656,-0.5006808042526245,-0.32559118,-1.1490375,3
-4.0110435485839835,4.628601551055908,-2.1322689056396484,-0.2504297792911529,-0.9126327,-1.3255776,3
-3.1393380165100098,4.032444477081299,-2.346295118331909,0.02989466674625874,-1.3243558000000002,-1.7296648999999995,3
-2.1658582687377934,4.1548805236816415,-2.7479114532470703,0.3817236423492432,0.2864958,-2.2791383,3
-1.0747168064117432,5.441511154174805,-2.8476989269256587,0.6301164627075195,0.47800204,-2.8927524,3
0.17120276391506195,7.6294307708740225,-2.564891815185547,0.8086220622062683,-0.18295415,-3.234226,3
1.5685949325561523,9.820828437805176,-2.1543338298797607,0.9998608231544496,-1.7519615000000002,-3.425427,3
2.772261142730713,11.694388389587402,-1.942009687423706,1.1523200273513794,-2.019826,-2.5723536,3
3.3971188068389893,13.228601455688475,-2.0195295810699463,1.2601765394210815,-1.2550226,-1.6749926,3
3.5042722225189213,14.467803001403807,-2.5192701816558842,1.4273393154144287,1.5317446,-1.094976,3
3.562575578689575,15.425687789916992,-2.613558292388916,1.6420115232467651,1.7901406000000002,-0.5354234,3
3.7259342670440674,16.121145248413086,-2.033611536026001,1.6477423906326294,0.32467487,-0.3622431,3
4.005613327026366,16.271713256835938,-1.5236864089965818,1.4855045080184937,1.4810427,-0.24923302,3
4.106247425079347,15.17835521697998,-1.260261058807373,1.317312479019165,2.554333,-0.19242255,3
3.9598119258880615,13.072513580322266,-0.7019868493080139,1.1035890579223633,1.5549575,0.4728097,3
3.83233094215393,10.217364311218262,-0.22585855424404144,0.8223044276237488,0.88025683,1.1487321,3
3.342109680175781,7.480499744415282,0.2537042498588562,0.5439935922622681,1.0482447,1.2024882,3
2.4238884449005127,5.218839168548584,0.8739055395126343,0.31406983733177185,0.52656585,0.88239485,3
1.5932492017745972,3.3018572330474854,1.2182053327560425,0.14700280129909515,0.24098633,0.5821546,3
1.053963303565979,1.7996004819869995,1.0657739639282229,0.016637813299894333,1.1270463,0.19120082,3
0.6872665286064148,1.0881731510162354,0.5004617571830751,-0.2415199875831604,2.1395555,-0.11362094,3
0.15865939855575562,1.193476915359497,0.2263073325157165,-0.5113522410392761,-1.3237450000000002,-1.5286902,3
-0.3430573046207428,1.6307369470596311,0.7290040850639343,-0.6123822927474976,-5.693264,-2.1310034,3
-0.361772745847702,2.3862102031707764,0.931072235107422,-0.8295465707778931,-4.741536,-0.61483586,3
0.03856371343135834,3.3542301654815674,0.7792308926582336,-1.0587773323059082,-2.828917,-0.06169739,3
0.9588814973831176,4.75831937789917,0.5853092670440674,-1.1297446489334106,-0.97097033,-0.043676864,3
2.636238574981689,7.064382076263428,0.9026739597320556,-0.9839073419570924,-0.41141775,0.9841039,3
3.9281837940216064,9.35348129272461,1.1039069890975952,-0.6195816397666931,0.9615019,0.6337727,3
4.233907699584962,10.55465602874756,0.6956736445426941,-0.3151903450489044,2.8292224,1.0439687,3
4.354592800140382,11.389205932617188,0.6770190596580505,-0.2895212769508362,2.9407053,1.069625,3
4.641717433929443,12.708498001098633,1.2987371683120728,-0.3235475420951843,1.0277808000000002,1.5436565,3
4.851653575897217,13.981938362121582,1.81217360496521,-0.3527784645557404,-0.40194935,1.8118263,3
4.787780284881592,15.057365417480467,1.6714401245117188,-0.5017736554145813,0.15057829,2.3200662,3
4.294405937194823,15.920475006103516,1.10216224193573,-0.9419276714324952,1.8252654,2.4245240000000003,3
3.018763303756714,16.203554153442386,0.5943256616592407,-1.3855756521224976,-4.0124683,2.5146267000000004,3
1.3742001056671145,15.709835052490234,-1.034054398536682,-1.4685727357864382,-0.21135938,1.9101756,3
-0.07879090309143066,14.48144245147705,-2.498389482498169,-1.384138822555542,1.8170186,1.7122552,3
-1.0679070949554443,12.701095581054688,-2.815951108932495,-1.1841323375701904,0.79504114,1.0650436,3
-1.8173527717590328,10.40147304534912,-2.382537603378296,-1.066700100898743,-0.56169057,0.41325033,3
-2.7817459106445312,8.227699279785156,-2.0264885425567627,-0.942158579826355,-1.3759739,-0.6988298000000001,3
-3.5965547561645512,6.88992977142334,-1.8815051317214968,-0.7880294322967529,-2.2840252,-1.2147056,3
-3.942672967910767,5.930539131164551,-2.2947008609771733,-0.5961005687713623,-1.8686367,-1.3460416000000002,3
-3.161301851272583,5.172962665557861,-3.286659479141236,-0.2701312005519867,-0.26206118,-1.2538009,3
-1.817943096160889,4.470335006713867,-3.808242082595825,0.1602068990468979,0.14294247,-1.187522,3
-0.5917153358459473,4.342287540435791,-3.5987510681152344,0.5981705784797668,-0.07391469,-1.4398094,3
0.3589444160461426,5.458855628967285,-2.965160846710205,0.9789372086524964,-0.5702427,-2.0998492000000004,3
1.1039283275604248,7.569135665893555,-2.5791478157043457,1.1750309467315674,0.08735373,-2.1820107,3
1.8829677104949951,9.758157730102539,-2.085848569869995,1.3128901720046997,-0.766025,-2.2220223,3
2.5991744995117188,11.640185356140135,-1.6055200099945068,1.4015733003616333,-1.1096367,-2.0494528,3
3.1183807849884038,13.184062004089355,-1.397187113761902,1.5174742937088013,-0.34269542,-1.2779301,3
3.1950571537017822,14.430612564086914,-1.2307291030883791,1.5765417814254759,0.5320636,-1.1239921,3
3.139084815979004,15.388178825378418,-0.8334206938743591,1.5635443925857544,0.5653558000000001,-0.7644979000000001,3
3.0647006034851074,15.935455322265625,-0.2872902452945709,1.3609157800674438,-0.15607607,-0.5702427,3
3.2143030166625977,15.73306369781494,-0.11668970435857773,1.0151824951171875,0.8940013000000001,-0.37140608,3
3.4924042224884038,14.87433624267578,-0.22404703497886655,0.7583885192871094,2.8179214,-0.1160644,3
3.499661922454834,12.80972957611084,-0.08253423124551773,0.5698244571685791,2.3124304,0.07452556,3
3.507194995880127,10.015671730041504,0.026627561077475548,0.3327336013317108,1.5015068,0.7348709,3
3.366672992706299,7.184906959533691,0.17853499948978424,0.11439088732004166,0.8194756999999999,1.0647382,3
2.8505306243896484,4.858797073364258,0.39897939562797546,-0.050851933658123016,0.27916542,0.8521569999999999,3
2.303591728210449,2.974436044692993,0.4715432226657867,-0.14121796190738678,-0.3915646,0.7263188,3
1.9283092021942136,1.7357773780822754,0.04581315442919731,-0.18820570409297946,0.15241088,0.59803706,3
1.5367844104766846,1.5170272588729858,-0.5174388885498047,-0.2910119593143463,0.7476991,0.09896017,3
0.7180704474449158,2.4860141277313232,-0.612220048904419,-0.34131866693496704,-2.005776,-1.0345002,3
-0.7320899367332458,3.759692668914795,-0.07944190502166748,-0.32159656286239624,-5.2277846,-2.392759,3
-1.9985756874084477,4.437995433807373,0.4811767637729645,-0.3870429694652557,-5.1428747,-2.8313603,3
-1.8138914108276367,4.727114677429199,0.5698116421699524,-0.488130271434784,-1.5787812,-1.0509937,3
-0.8528875708580017,5.103392601013184,0.836833655834198,-0.5980252623558044,-0.1777618,-0.6722571999999999,3
0.6919056177139282,6.6839966773986825,1.1814659833908079,-0.6719224452972412,1.0048733,0.21502456,3
2.6150188446044917,8.86463737487793,1.5136109590530396,-0.5217483639717102,2.5332582,1.5381587,3
3.728753328323364,10.446758270263672,1.856498122215271,-0.3119553327560425,2.574186,1.3643675,3
4.755486965179443,11.793302536010742,2.209472179412842,-0.2514326870441437,1.3301591,1.2944235,3
5.644558906555176,13.184266090393065,1.9443992376327517,-0.428995281457901,1.892155,1.4914275,3
5.728301525115968,14.40303897857666,0.8293825387954712,-0.8684340715408325,1.6417004000000002,1.949271,3
5.062193870544434,15.403213500976562,0.4895171225070954,-0.9465486407279968,-2.9886582,1.9055941000000003,3
4.169231414794922,16.079444885253903,-0.3158659338951111,-1.007698655128479,-0.68936145,2.1389446,3
2.769527673721313,16.037914276123047,-1.5729900598526,-0.9687246680259703,3.681074,2.8725939,3
0.7800000309944153,15.173700332641602,-1.97074294090271,-0.8681157231330872,1.7226400000000002,1.9541580000000005,3
-0.6884934902191162,13.739236831665039,-2.1275033950805664,-0.8314251899719238,2.2327125,1.351234,3
-1.249961495399475,11.85824489593506,-1.885162353515625,-0.8932431936264038,0.61819565,0.9877690999999998,3
-1.4017587900161743,9.659764289855957,-1.822695016860962,-0.9786017537117004,-0.31978795,0.77274454,3
-1.6398298740386963,7.735254764556885,-2.007776260375977,-0.9777281284332277,-0.7886270000000001,0.31031954,3
-2.1229846477508545,6.3721065521240225,-2.328898668289185,-0.8670815229415894,-1.6698002,-0.28252518,3
-2.465717077255249,5.393118858337402,-2.6831259727478027,-0.6820054054260254,-1.8820758,-0.7079928000000001,3
-2.341940402984619,4.647125244140625,-3.054823398590088,-0.39408212900161743,-1.4865406,-0.78893244,3
-1.6877183914184568,4.011626243591309,-3.308669090270996,-0.06002514064311981,-0.8472700999999999,-0.66798115,3
-0.8526416420936584,3.473526954650879,-3.3565878868103027,0.33294886350631714,-1.0213667,-0.6808093000000001,3
-0.16462163627147675,3.2702200412750244,-3.079183340072632,0.7555395364761353,-0.6954701,-1.1997393,3
0.11922015249729155,4.560364723205566,-2.577768325805664,1.0732150077819824,-0.2275473,-2.0430388,3
0.15642817318439484,6.6983160972595215,-2.1285767555236816,1.2234960794448853,0.17318029999999998,-2.118786,3
0.22042283415794373,8.997647285461426,-1.6525946855545044,1.3617172241210938,-0.43585235,-2.3194554,3
0.8477152585983276,11.014554023742676,-1.0777572393417358,1.4966533184051514,-1.3509285,-2.3289237000000003,3
1.8408137559890747,12.677313804626465,-0.9523772597312928,1.5766557455062866,-1.5378532,-1.7721201000000002,3
2.518580675125122,14.02478313446045,-1.4022057056427002,1.5434573888778689,-0.91415983,-1.208597,3
2.8010315895080566,15.094038963317873,-1.8059096336364744,1.4709573984146118,0.15149458,-0.9602802,3
2.8086066246032715,15.706880569458008,-1.8519574403762815,1.3167810440063477,-0.06383542,-0.66553766,3
2.75691294670105,15.702054023742676,-1.9533008337020876,1.0747001171112058,0.63041294,-0.28405234,3
2.419417381286621,15.163148880004885,-2.1658003330230717,0.9621827602386476,3.7229183,0.25717425,3
1.8677551746368408,14.194615364074707,-1.965919613838196,0.8649429678916931,3.5402696,0.46578476,3
1.6533081531524658,12.698285102844238,-1.502204418182373,0.6368042826652527,2.6218336,0.6545420999999999,3
1.9418728351593015,10.683969497680664,-0.9133493304252625,0.367832750082016,1.8677205,0.91415983,3
2.4215097427368164,8.417538642883299,-0.1554499864578247,0.11563383042812347,0.73548174,1.0916162,3
2.5095856189727783,6.3064799308776855,0.5564358234405518,-0.04203549399971962,0.17379116,1.0005972,3
2.132983684539795,4.437497138977051,1.0039626359939575,-0.13355280458927155,-0.023823744,0.33200526,3
1.6116564273834229,2.944516658782959,1.0365272760391235,-0.1909112334251404,0.6453791,-0.07819075,3
1.0540472269058228,2.194763660430908,0.2812831997871399,-0.2917962074279785,1.7650951,-0.5149594,3
0.0501423217356205,2.643463373184204,-1.121572971343994,-0.3797961473464966,1.7935003,-1.2098186000000002,3
-1.0074234008789062,3.5304923057556152,-0.6736282110214233,-0.2927672266960144,-6.808093,-2.1740694,3
-1.7243193387985232,3.803277015686035,-0.172348752617836,-0.3313849866390228,-9.356929,-1.6575828999999995,3
-1.112354040145874,3.346813201904297,-1.4167528152465818,-0.3786920607089996,-1.7208074,-0.9288206,3
0.479381650686264,3.7402753829956055,-1.6079707145690918,-0.6173515915870667,2.7113254,-1.6902641,3
2.3084583282470703,5.89997148513794,-0.1345161497592926,-0.6126114726066589,0.3115413,0.7367035,3
3.075834035873413,8.312392234802246,0.8176178336143494,-0.17916782200336456,0.5018258,0.9957104,3
3.175968170166016,10.325057983398438,1.003942370414734,0.3169349730014801,1.4740178999999998,1.1670581,3
3.215500593185425,12.06607723236084,0.8109537959098816,0.5912339687347412,3.2128458,1.5280794,3
3.2318501472473145,13.214046478271484,0.2727043926715851,0.3548286259174347,5.332854,0.54825157,3
3.228545427322388,14.09296989440918,0.034525331109762185,-0.4193609654903412,5.1666985,1.1459832,3
3.2210140228271484,15.062695503234865,0.5140652060508728,-1.0107883214950562,2.4914138,1.3713925,3
2.668996334075928,15.869837760925293,1.3458664417266846,-1.396381974220276,-4.2418485,1.677436,3
1.867557168006897,15.982100486755373,0.9030863642692566,-1.707514405250549,-4.681977,1.5360206,3
1.1961044073104858,15.017333984375,-1.3210368156433103,-2.025440216064453,-1.2541064,1.4636332,3
0.5034013390541077,13.544739723205565,-3.1325473785400386,-1.9819457530975344,2.1490240000000003,1.5332718,3
-0.1909058839082718,11.950606346130373,-3.467424869537353,-1.7812871932983398,1.7654005000000002,1.4019357,3
-0.7841705083847046,10.059002876281738,-3.0939519405364986,-1.6268550157546997,-0.30573806,0.86559606,3
-1.5573714971542358,8.228041648864746,-2.861867666244507,-1.4326434135437012,-1.1285735,0.16157386,3
-2.5328118801116943,6.911480903625487,-2.852078676223755,-1.2033783197402954,-2.1975877,-0.49938235,3
-3.1329560279846187,5.855203151702881,-3.3805928230285645,-0.9155829548835754,-1.9071213,-0.9941832,3
-2.9608519077301025,5.130133628845215,-4.2283244132995605,-0.4851276874542236,-0.4538729,-0.96577793,3
-2.1913294792175293,4.563978672027588,-4.545466899871826,-0.0018706809496507046,0.081855945,-0.88453287,3
-1.3153671026229858,4.265080451965332,-4.106788635253906,0.4516134858131409,0.36651915,-0.9468411,3
-0.5975521206855774,4.835101127624512,-3.2153196334838867,0.8981890678405762,0.41080686,-1.4929546,3
0.053189095109701164,6.4325523376464835,-2.6842284202575684,1.171715497970581,0.19914207,-2.0451767,3
0.873562216758728,8.602207183837889,-2.4555788040161133,1.3527815341949463,-0.08582657,-2.123673,3
1.992948293685913,10.652708053588867,-2.075781345367432,1.5644632577896118,-1.1710287,-2.1160371,3
3.0755388736724854,12.37570571899414,-1.6030077934265137,1.7249307632446291,-1.6563611,-1.5430456,3
3.534013271331787,13.77910327911377,-1.427788496017456,1.7307246923446655,-1.8106046,-1.3417655000000002,3
3.5706727504730225,14.890979766845705,-1.4382369518280032,1.6525212526321411,-1.171945,-0.7968736999999999,3
3.1124329566955566,15.62149715423584,-1.447235107421875,1.4480966329574585,-0.7449501999999999,-0.7593055000000001,3
2.662391662597656,15.731253623962402,-1.6144853830337524,1.1813815832138062,0.23854288,-0.42088616,3
2.365032911300659,15.294839859008787,-1.8463776111602783,1.0351991653442385,3.1899383,0.18417588,3
2.1686267852783203,14.308695793151855,-1.5284092426300049,0.9273513555526732,2.962391,0.15149458,3
2.216243028640747,12.695727348327635,-0.8843563795089722,0.7123337984085083,1.7336355,0.42455134,3
2.528686285018921,10.438961029052734,-0.30355104804039,0.43899521231651306,1.0952813999999995,0.8347474,3
2.754133939743042,7.873094081878662,0.22900229692459104,0.15225061774253845,0.50243664,0.8720101,3
2.496515989303589,5.597383499145508,0.5994922518730164,-0.03858863189816475,0.548557,0.9272934000000002,3
2.01921820640564,3.844548225402832,0.8037904500961304,-0.1278570145368576,0.6301074999999999,0.5732970000000001,3
1.5598366260528564,2.505833625793457,0.7200346589088441,-0.15480633080005646,1.1948525,0.17318029999999998,3
1.0638408660888672,1.8153648376464844,0.14224188029766086,-0.2439787983894348,1.5674802,-0.039095376,3
-0.0708918645977974,2.4576661586761475,-1.2031623125076294,-0.19696444272994995,-1.7800613999999997,-1.0464121,3
-1.3630532026290894,3.592427968978882,-1.1798588037490845,-0.06728237867355348,10.002308,-2.0427334,3
-1.825015425682068,3.863126993179321,-1.2171403169631958,-0.3095653057098389,-6.919881299999999,-1.0751228000000002,3
-0.8945522904396057,4.231203556060791,-1.221077561378479,-0.4764090478420258,-1.2669345,-1.3701707,3
1.0679044723510742,6.0149922370910645,-0.5528145432472229,-0.4447830319404602,0.6169739000000001,-1.0015136,3
3.1143229007720947,8.355871200561522,0.19644460082054135,-0.2701780796051025,-0.015882496,1.0693196000000005,3
3.959368705749512,10.217496871948242,-0.21750712394714355,-0.06640443205833435,4.7616944000000005,1.8209893,3
3.857877016067505,10.647191047668457,-0.4012095630168915,-0.0945562794804573,4.3585234,0.73914695,3
3.771665096282959,11.009613990783693,0.1171971932053566,-0.0275057889521122,2.3243423,1.207986,3
4.004051208496094,12.086770057678224,0.850462794303894,-0.08166137337684631,0.88086766,1.8695531000000003,3
4.119487285614014,13.455883026123047,0.7956918478012085,-0.3355008363723755,1.5409076000000002,2.1755965,3
3.63604998588562,14.633090019226074,0.4126037657260895,-0.8542761802673341,2.95109,2.221106,3
2.300599813461304,15.524300575256348,0.5874099731445312,-1.6611313819885254,-4.3982296,2.3026567000000004,3
0.6097438931465149,15.542154312133787,-1.210527777671814,-1.9443129301071167,-3.5741725,1.4398094,3
-0.35722866654396057,14.629364013671875,-3.96390438079834,-2.011505126953125,1.7858646,1.500285,3
-0.8064899444580078,13.264334678649902,-4.674559593200684,-1.6730573177337646,3.0387492000000003,1.1588113000000002,3
-1.0662411451339722,11.6553373336792,-3.5075278282165527,-1.4943524599075315,0.49663344,1.0888673,3
-1.4494987726211548,9.364371299743652,-2.644316434860229,-1.4046341180801392,-1.0998629,0.65057147,3
-2.31184458732605,7.41086483001709,-2.466806173324585,-1.2452175617218018,-1.4697418,-0.049785517,3
-3.2166690826416016,6.300180435180664,-2.556213140487671,-1.1228272914886477,-1.9468275,-0.5674938,3
-3.78085994720459,5.375858783721924,-2.972662210464477,-0.9139509797096252,-1.6389513999999998,-0.95539325,3
-3.557024955749512,4.54651403427124,-3.7422497272491455,-0.5471866726875305,-0.19150625,-1.0436633,3
-2.5116829872131348,3.840801239013672,-4.290237903594972,-0.1378292292356491,0.16157386,-1.0085385,3
-1.292725920677185,3.3594350814819336,-4.359465599060059,0.28095394372940063,0.23518312,-1.0659598,3
-0.36339470744133,3.8530099391937256,-3.733810186386109,0.7559489011764526,0.28771752,-1.4776831,3
0.309208482503891,5.1647982597351065,-3.0375554561614986,1.1385657787322998,-0.024129177,-2.1850650000000003,3
0.9886208176612854,7.614432334899902,-2.644148349761963,1.323092699050903,0.51007247,-2.3930645,3
1.627400040626526,9.858089447021484,-2.007432222366333,1.4908636808395386,-0.6563747,-1.9208658,3
2.0362648963928223,11.73813247680664,-1.5658349990844729,1.6944231986999512,-0.30695978,-1.5134187,3
2.035408496856689,13.26701831817627,-1.2250540256500244,1.7951508760452268,-0.14019357,-1.3723087,3
1.9304323196411133,14.49482250213623,-0.7807573676109314,1.7506364583969116,-0.5204572000000001,-1.2263118999999998,3
1.8597474098205569,15.393707275390625,-0.6862978935241699,1.5310380458831787,-1.1071932,-1.0671816,3
2.008076429367065,15.727450370788574,-1.094818115234375,1.2612344026565552,0.29779682,-0.7128797,3
2.262728214263916,15.49790859222412,-1.533571720123291,1.1204273700714111,2.3096814,-0.39278635,3
2.32660174369812,14.721964836120605,-1.61953604221344,1.0623420476913452,2.7107146,-0.25350907,3
2.2533116340637207,13.363454818725586,-1.4456146955490112,0.9291682839393616,2.0925188,0.22785273,3
2.321298122406006,11.437984466552734,-1.145781397819519,0.685613214969635,1.7693712,0.9224065,3
2.424081325531006,9.182992935180664,-0.6557145118713379,0.3939034044742584,1.1120802,1.1603385,3
2.2858598232269287,6.952645778656006,-0.1802772730588913,0.13159474730491638,0.9999864,1.3029754999999998,3
1.87156081199646,5.004677295684815,0.15895912051200867,-0.05205346643924713,0.7330383,1.2550226,3
1.3952213525772097,3.4349257946014404,0.3860812485218048,-0.1572878658771515,0.27152961,0.8512407,3
1.0528682470321655,2.461461305618286,0.33225950598716736,-0.2381571978330612,0.45020768,0.26633725,3
0.5631169080734253,2.501664400100708,-0.2702454626560211,-0.3187636137008667,-0.6020076999999999,-0.7837400999999999,3
-0.549953281879425,3.4167487621307373,-0.7566266059875488,-0.22966963052749634,-4.108985,-1.9801197,3
-1.6887551546096802,4.14826250076294,-0.5795286297798157,-0.3331611752510071,-5.7082305,-2.0873265,3
-1.7160325050354004,4.303153991699219,-0.5282779932022095,-0.3933888673782349,-2.2385156000000004,-0.9260716999999998,3
-1.042298674583435,4.514598369598389,-0.33566778898239136,-0.38857072591781616,-0.5137377000000001,-0.86101454,3
0.23843491077423096,6.007047653198242,-0.09605872631072998,-0.32809025049209595,0.9969321,-0.13805555,3
1.7378369569778442,8.325533866882324,0.12767957150936127,-0.17691375315189362,2.2296581,0.6960809,3
2.519665241241455,10.35710334777832,0.2321384996175766,0.0373431034386158,3.1978796000000003,0.7984009,3
2.998207092285156,11.56085205078125,0.3031322360038757,0.1411527842283249,3.8912115,0.9486737,3
3.5119516849517822,12.673124313354492,0.302876889705658,0.0001493262534495443,4.485889,0.7473936,3
4.0562615394592285,13.884324073791506,0.5208211541175842,-0.4227909445762634,3.9205332,1.1578951000000002,3
4.327113151550293,14.95953369140625,0.8247198462486267,-0.9356319904327391,2.475226,1.4037683,3
4.070777416229248,15.807433128356935,0.930983066558838,-1.5342128276824951,-2.7608054,1.2498302,3
3.307571649551392,16.189485549926758,0.13386978209018707,-1.7598830461502075,-4.721988,1.3655893,3
2.2334725856781006,15.79172134399414,-1.5353171825408936,-1.9653651714324951,-0.81306165,1.7256943,3
1.019114971160889,14.632184982299805,-3.1124250888824463,-1.8699005842208865,1.8442022,1.6148223,3
-0.1551266461610794,13.142879486083984,-3.251479387283325,-1.7037512063980105,1.1899655,1.1896601,3
-1.125735878944397,11.190279006958008,-2.9343748092651367,-1.60321307182312,-0.4447099,0.6759224,3
-2.1512556076049805,9.250378608703613,-3.0612609386444087,-1.4280668497085571,-0.68600166,-0.033292156,3
-2.902907371520996,7.921588897705077,-3.268998861312866,-1.214949369430542,-0.98837996,-0.5222898,3
-3.1149365901947017,6.710573673248291,-3.6034281253814697,-0.9500557780265808,-0.98532563,-0.677755,3
-2.8289978504180913,5.668026447296143,-4.107039451599121,-0.5521522760391235,-0.6985244,-0.7492262,3
-2.090749502182007,4.877670764923097,-4.532140254974365,-0.09932874143123628,0.2773328,-0.8472700999999999,3
-1.1610435247421265,4.344038009643556,-4.494151592254639,0.3685323894023895,0.48288897,-0.7480045,3
-0.24024353921413424,4.160616874694823,-4.024418830871582,0.8338100910186768,-0.25625798,-0.85154617,3
0.5439514517784119,4.821038246154785,-3.4367165565490723,1.2474172115325928,-0.5494733,-1.3759739,3
1.157379388809204,6.5622315406799325,-2.967928647994995,1.501579761505127,0.029626964,-1.6756034,3
1.7814418077468872,8.775397300720215,-2.4219801425933842,1.6836482286453247,-0.5766568,-1.563815,3
2.145923852920532,10.804081916809082,-1.7396953105926514,1.867287755012512,-1.2388347,-1.3396275,3
2.0300922393798833,12.501734733581545,-1.3737143278121948,1.965093016624451,-0.8179486,-1.4355333,3
2.003212213516236,13.881061553955078,-1.1424754858016968,1.8805121183395384,-1.3487904,-1.2098186000000002,3
1.9708611965179443,14.986442565917967,-1.2977303266525269,1.684670090675354,-0.52870387,-0.929126,3
1.869963765144348,15.460869789123535,-1.684902548789978,1.5078170299530032,0.8426886,-0.5354234,3
1.765004277229309,15.327296257019045,-1.987761378288269,1.4262288808822632,2.713769,-0.24770586,3
1.516610026359558,14.788050651550293,-1.9343677759170528,1.370051383972168,3.200934,-0.17837265,3
1.45040762424469,13.727426528930664,-1.600087285041809,1.1824491024017334,2.7864618,0.13927728,3
1.8839246034622192,11.916939735412598,-1.0174489021301272,0.8847231864929199,2.05098,0.4642576,3
2.4773406982421875,9.564001083374023,-0.32256442308425903,0.5429587364196777,1.0253373,0.5458081,3
2.688535451889038,7.237096309661865,0.18635602295398712,0.17126329243183136,0.6759224,0.7693848000000001,3
2.3677775859832764,5.312913417816162,0.4921645522117615,-0.1581629365682602,0.41263947,0.7489208,3
1.8239169120788572,3.716708898544312,0.7255873680114746,-0.3813824355602264,-0.05589417,0.34238997,3
1.3341608047485352,2.491741418838501,0.7525277733802795,-0.5264126062393188,-0.019547688,-0.038789943,3
0.9085239171981812,1.8820964097976685,0.2895693778991699,-0.67488694190979,0.40439278,-0.42363504,3
0.0204651840031147,2.444177865982056,-0.8126575350761414,-0.6738334894180298,-3.256828,-1.4618006,3
-0.9832152724266052,3.3438231945037837,-0.7816097140312195,-0.6691946983337402,-8.26745,-1.4184291,3
-1.1943647861480713,3.4893665313720703,-0.7331998944282532,-0.8507373332977295,-3.3527339,-0.55955255,3
-0.6479783058166504,3.433176279067993,-0.6442366242408752,-0.9289650917053224,-0.25167647,-0.5540548000000001,3
0.3128010332584381,4.279859542846681,-0.2190093696117401,-0.8300982117652893,0.6774496,-0.5213734999999999,3
1.8597142696380613,6.569925785064697,0.4445969462394713,-0.4539768099784851,0.7058548000000001,1.2846496,3
3.085577726364136,8.907988548278809,0.17796532809734344,-0.03297335281968117,5.440671400000001,1.1957687,3
3.441161632537842,10.2477445602417,-0.454808384180069,-0.20057237148284912,6.1489697,0.01160644,3
3.603549718856812,10.901820182800293,-0.1331174522638321,-0.3942193388938904,3.2727106,0.22479841,3
3.861142873764038,11.73571491241455,0.5971190929412842,-0.4230419993400574,-0.27275133,1.1441506,3
4.066983699798584,12.833074569702148,1.0520265102386477,-0.5056191682815552,-1.7812830000000002,1.462106,3
4.102703094482422,14.085492134094238,0.943288028240204,-0.7383149862289429,-1.8759671,1.4165965,3
3.674646377563477,15.14070987701416,0.6017028093338013,-1.025960922241211,-0.3912592,1.9963076,3
2.4358468055725098,15.867032051086426,0.2590594291687012,-1.5322930812835691,0.36041048,2.405282,3
0.4591224193572998,15.541421890258787,-0.6807125210762024,-1.9481449127197263,-5.8902683,1.319469,3
-0.9617329835891724,14.374737739562988,-3.135497093200684,-1.910892128944397,2.019826,1.1676688999999998,3
-1.6496367454528809,12.785260200500488,-4.2857022285461435,-1.6434863805770874,3.0827315,1.0085385,3
-1.9467061758041384,11.158987998962402,-3.9280376434326167,-1.4096903800964355,0.9969321,0.7629706999999999,3
-2.3226163387298584,9.243972778320312,-3.248270273208618,-1.2240486145019531,-1.2880094,0.20189096,3
-3.037705183029175,7.386415481567383,-3.0148396492004395,-1.0097012519836426,-1.7974709,-0.50671273,3
-3.5871427059173584,6.132590770721436,-3.1913321018218994,-0.7266877889633179,-1.2861768,-0.95569867,3
-3.656891345977783,5.3135037422180185,-3.472608089447021,-0.3965471386909485,0.09682214,-1.0543534,3
-3.1317150592803955,4.722691059112549,-3.6603853702545166,-0.02620016224682331,0.56291234,-1.0442741,3
-2.199671745300293,4.220273494720459,-3.7172331809997563,0.3750735223293304,0.5662721,-1.0534371,3
-1.1535146236419678,4.090574264526366,-3.6355292797088623,0.7754571437835693,0.49418998,-1.2348641000000002,3
-0.2028627097606659,4.669570446014403,-3.239020109176636,1.1106038093566897,-0.076052725,-1.743104,3
0.5903328061103821,6.063080310821532,-2.781438112258911,1.2900818586349487,0.15027285,-1.9159788,3
1.4060577154159546,8.395092964172362,-2.1818857192993164,1.460448980331421,-0.61361414,-1.7458528000000002,3
1.8348103761672971,10.52231216430664,-1.834176540374756,1.6735166311264038,-0.33628133,-1.3884968,3
1.9602553844451904,12.28069305419922,-1.6498461961746216,1.89031982421875,0.548557,-1.2266175,3
2.135343074798584,13.704769134521484,-1.4953129291534424,1.90538227558136,-0.19456059,-1.2962561,3
2.4314918518066406,14.825934410095215,-1.33905827999115,1.7183609008789062,-1.3707817,-1.0647382,3
2.644702434539795,15.565696716308596,-1.4118680953979492,1.440961480140686,-1.4804319,-0.8689558000000001,3
2.768603801727295,15.67424488067627,-1.8894050121307373,1.2346316576004028,1.717753,-0.75502944,3
2.5188803672790527,15.12623691558838,-2.1265308856964107,1.162757158279419,3.6545014,-0.6450737,3
2.1637647151947017,13.88471221923828,-1.9534173011779783,0.95223867893219,2.5885415000000003,-0.08552113,3
2.279675006866455,11.99471378326416,-1.410462737083435,0.685901939868927,1.1905763,0.4465425,3
2.673899412155152,9.618727684020996,-0.7208411693572998,0.3822400867938995,0.37140608,0.7293731,3
2.5949294567108154,7.1290221214294425,-0.2730012238025665,0.03510598465800285,0.5006041,0.98349303,3
1.9458348751068115,5.083508968353272,0.09661278128623962,-0.24442653357982635,0.48747048,1.010982,3
1.3352296352386477,3.5683984756469727,0.4052368998527527,-0.3647012114524841,0.28496864,0.6536258,3
0.9199851751327516,2.6511998176574707,0.5169355869293213,-0.4604204893112183,0.8933904,0.084910266,3
0.484124630689621,2.4870171546936035,0.215440034866333,-0.6281055808067322,0.49266282,-0.45570546,3
-0.4588046967983246,3.2302768230438232,-0.19253109395504,-0.5748496651649475,-4.427246,-1.4465289,3
-1.6441158056259155,4.134924411773682,-0.390444815158844,-0.5310575366020203,-8.9335985,-1.6924021,3
-1.673769474029541,4.396734714508057,-0.9087564945220948,-0.636824905872345,-4.378682,-0.78801614,3
-0.6051969528198242,4.844435214996338,-1.216768741607666,-0.8501787781715393,-0.2968805,-1.1649200000000002,3
1.29253089427948,6.800095558166504,-1.0590730905532837,-0.908400535583496,1.7296648999999995,-0.1600467,3
2.9884960651397705,9.049761772155762,-0.504594624042511,-0.6794635057449341,1.5039502,0.9431759,3
3.670468807220459,10.589893341064453,-0.4128870666027069,-0.3262079060077667,2.6004534,1.0164797,3
3.895904064178467,11.31714153289795,-0.8165580630302429,-0.17193220555782318,5.123327,1.0177015,3
4.1878085136413565,12.253016471862793,-0.4959161281585693,-0.2751077115535736,3.7479637,1.2061534,3
4.4861273765563965,13.400564193725586,0.3630824983119965,-0.3287924528121948,0.98471475,1.6349808,3
4.4491539001464835,14.532511711120605,0.9673799872398376,-0.5548916459083557,-0.65179324,2.0680842,3
4.0396461486816415,15.48991584777832,0.9550213813781738,-0.94145667552948,-0.514654,1.815186,3
3.2141921520233154,16.210533142089847,0.5555129051208496,-1.2415716648101809,0.28496864,2.5689938,3
1.6637022495269775,16.318008422851562,0.2504190504550934,-1.589394450187683,-2.8053987,2.1285598,3
-0.026975782588124275,15.589263916015625,-0.7221682667732239,-1.7648878097534182,-1.2932017,1.2822062,3
-0.9216533303260804,14.30104923248291,-2.324158906936645,-1.8088090419769287,1.4706581,1.1774428,3
-1.2214069366455078,12.650452613830565,-3.00451397895813,-1.6818516254425049,1.9147571,0.95325524,3
-1.1715737581253052,10.397210121154783,-2.605788230895996,-1.5361981391906738,-0.5739079,0.766025,3
-1.525937557220459,8.399279594421388,-2.586813449859619,-1.317039966583252,-1.4501941,0.14508049,3
-2.423434257507324,7.041200637817383,-2.7651302814483643,-1.0714591741561892,-2.3145685,-0.32925636,3
-3.191187858581543,5.951649188995361,-2.9679045677185063,-0.8242239952087402,-2.154827,-1.0161743,3
-3.3822400569915767,4.997821807861328,-3.1928594112396236,-0.5185281634330751,-1.5803083999999998,-1.251052,3
-2.8541576862335205,4.273912429809569,-3.502650022506714,-0.12750527262687686,-0.5723807,-1.1795808,3
-1.9709179401397705,3.9038698673248287,-3.6611096858978267,0.3000938892364502,0.45875978,-1.1609493,3
-1.1414324045181274,4.213275909423828,-3.318888664245605,0.7182625532150269,1.0231993,-1.6496416,3
-0.4362457990646362,5.333742618560791,-2.803781032562256,0.9736731648445128,0.6065891999999999,-2.0720549,3
0.3742645084857941,7.337645530700684,-2.389918327331543,1.1501989364624023,-0.040927973,-2.56991,3
1.4883314371109009,9.527362823486328,-2.080193281173706,1.3178876638412476,-1.3243558000000002,-1.9770653,3
2.5008187294006348,11.445796012878418,-1.894137382507324,1.485822677612305,-0.9569204,-1.357648,3
2.828413724899292,13.024892807006836,-1.980506181716919,1.559566855430603,-0.34025195,-1.2363913,3
2.7558889389038086,14.303459167480467,-1.9737932682037356,1.5656450986862185,-0.75686204,-1.0076222,3
2.645374298095703,15.30685806274414,-1.9913936853408811,1.480420708656311,-0.9773844,-0.7021896,3
2.662266492843628,15.83105754852295,-2.2680234909057617,1.31084406375885,0.45173484,-0.44929138,3
2.699390649795532,15.6410551071167,-2.637737512588501,1.1834069490432741,3.2943962,-0.22479841,3
2.6212410926818848,14.799304962158205,-2.4153928756713867,1.0872337818145752,3.2983668,0.049785517,3
2.560823678970337,13.173455238342285,-1.7893710136413574,0.8917301893234253,2.0399845,0.535118,3
2.78546142578125,10.774089813232422,-0.9300302863121032,0.6287682056427002,0.37751472,0.97585726,3
3.014519453048706,8.100337028503418,-0.17166148126125336,0.3153159618377685,-0.5720753000000001,0.98532563,3
2.744503259658813,5.764801979064941,0.1982422918081284,0.001442103646695614,-0.23304509,0.74220127,3
2.0985610485076904,3.777491807937622,0.3985351622104645,-0.20803730189800265,-0.14355333,0.4352415,3
1.3074355125427246,2.2421834468841557,0.4383087158203125,-0.3012421131134033,0.36865717,0.14782938,3
0.5731251239776611,1.5740121603012085,0.14548470079898834,-0.3974217176437378,1.2324207,-0.59712076,3
-0.14061324298381805,1.8187568187713623,-0.4921275675296784,-0.4922302961349487,-1.1166617,-1.4230106000000002,3
-0.8990114331245422,2.2766668796539307,-0.21929505467414856,-0.4629710018634796,-5.796195,-2.1135938,3
-1.1937538385391235,2.585925579071045,0.1944531947374344,-0.5008543133735657,-6.537785,-1.03786,3
-0.9074755907058716,2.8167166709899902,-0.038115572184324265,-0.6262231469154358,-3.4810157,0.054367006,3
0.10132508724927902,3.5827431678771973,-1.1152666807174685,-0.7009637951850891,2.1740694,-0.17837265,3
1.8802199363708496,5.919132709503174,-1.3847997188568115,-0.498454362154007,2.7999008,1.45783,3
2.458916187286377,8.377871513366701,-1.2456448078155518,-0.054051335901021964,2.7989845,1.2843441999999998,3
2.420867681503296,9.58201503753662,-1.1482603549957275,0.016427239403128624,2.3060162,0.5885687,3
2.798114776611328,10.829798698425293,-0.352731853723526,0.03874658793210983,0.59315014,0.61208695,3
3.1585581302642822,12.288223266601562,0.2726994752883911,0.0951545238494873,-0.0070249503,1.0806206,3
3.2503902912139893,13.541363716125488,0.4319755733013153,0.010392052121460438,1.0219775,1.5216653,3
3.0439815521240234,14.451216697692873,0.5582390427589417,-0.2526748776435852,2.0696115,1.3680327,3
2.5279476642608643,15.293008804321287,0.7940986752510071,-0.6895784139633179,2.5024095,1.351234,3
1.668726682662964,15.799077033996582,1.1130867004394531,-1.409706950187683,0.66675943,1.6982054,3
0.5980817675590515,15.493743896484375,0.6538071632385254,-2.0647099018096924,-8.228354,1.5204436,3
-0.4783107042312622,14.231070518493652,-1.9479093551635744,-2.189293622970581,-1.994475,0.8029824000000001,3
-1.0558133125305176,12.495555877685547,-4.3327388763427725,-2.0546603202819824,1.7437148,1.2131784,3
-1.621738076210022,10.67028522491455,-4.804239273071289,-1.6738667488098145,-0.32986724,0.5308419,3
-2.462462902069092,9.177414894104004,-4.270634651184082,-1.3224148750305176,-1.9895881,-0.05009095,3
-3.3614425659179688,7.753880023956299,-3.632061958312988,-1.008854866027832,-2.5897632,-0.7464773,3
-3.970051288604736,6.282901287078857,-3.732313632965088,-0.6866359710693359,-1.8301523,-1.0793989,3
-3.9748318195343018,5.28474760055542,-4.394958019256592,-0.2699445784091949,0.32895094,-1.3362677,3
-3.502047300338745,4.688715934753418,-4.6000518798828125,0.17106766998767853,1.2391402,-1.3329079,3
-2.6055924892425537,4.570815086364746,-4.2587504386901855,0.6110396981239319,0.9410379,-1.3881912,3
-1.3862909078598022,5.5060081481933585,-3.719252586364746,1.0363062620162964,0.75319684,-1.7586810000000002,3
-0.03359153866767883,7.50064754486084,-3.2822082042694087,1.2929641008377075,1.5515977,-1.9651535,3
1.5157275199890137,9.670571327209473,-2.5057508945465092,1.4623395204544067,0.81183994,-1.5247196,3
2.5429527759552,11.563312530517578,-1.7556344270706177,1.5835888385772705,-0.6646214,-1.0742066,3
2.7547743320465092,13.1192626953125,-1.239062786102295,1.707206964492798,-0.5027421,-0.9691377,3
2.541720151901245,14.379304885864258,-0.8162606954574585,1.73312509059906,-1.3387111,-0.8546004999999999,3
2.1941514015197754,15.298385620117188,-0.735787034034729,1.6474323272705078,-1.3359623,-0.9440921999999998,3
2.049977779388428,15.646846771240234,-1.0478700399398804,1.4709392786026,-0.13469578,-0.6600399,3
2.3061318397521973,15.475845336914062,-1.4504835605621338,1.2375434637069702,1.4388931,-0.3979787,3
2.676873683929444,14.905158996582033,-1.6189372539520264,1.0230915546417236,2.4355197,-0.31642818,3
2.8499515056610107,13.849780082702635,-1.4468810558319092,0.8078243136405945,2.2101104,-0.24984388,3
2.9101333618164062,12.245182037353516,-1.0534123182296753,0.5260542035102844,1.5903877,0.15363261,3
3.079613208770752,10.167861938476562,-0.5607954263687134,0.20019282400608066,0.94714653,0.6404922,3
3.285483360290528,7.875101089477539,-0.12226618826389313,-0.14940708875656128,-0.070249505,0.6960809,3
3.2013418674468994,5.933810710906982,-0.0020271330140531067,-0.4974454045295715,-0.47891834,0.9850202,3
2.7241790294647217,4.422202110290527,-0.2537428140640259,-0.7154418826103209,-0.7761043000000001,1.0372492,3
1.9384030103683472,3.4192588329315186,-1.0268325805664062,-0.6556321382522583,-0.2846632,0.7470882,3
1.004730463027954,3.189249992370605,-2.246189594268799,-0.4418986141681671,1.9498819,0.025045475,3
-0.3660836815834045,3.720806121826172,-2.693568229675293,-0.2156817317008972,-1.5286902,-1.2131784,3
-1.8261479139328003,4.329436302185059,-1.9424635171890257,-0.11511140316724774,-6.310238,-2.382069,3
-1.807912826538086,4.425642967224121,-1.4487583637237549,-0.12170150130987167,-1.6417004000000002,-0.98654735,3
-0.9239211082458496,4.519699096679688,-1.0069010257720947,-0.10644993931055068,0.26236662,-0.84574294,3
0.4017066061496735,5.7295284271240225,-0.4635230004787445,0.004211129155009985,1.0488556999999998,-0.5131268,3
2.1015288829803467,7.950026512145996,0.5120044946670532,0.17200733721256256,0.17134771,0.9410379,3
3.3132135868072514,10.095690727233887,0.9681087136268616,0.3179823160171509,0.79901177,0.8579602,3
3.884587049484253,11.3431396484375,0.8540467023849487,0.33016157150268555,1.7681494999999998,0.80664754,3
4.153794288635254,12.155908584594727,0.2793791592121124,-0.002512615406885743,3.9721513,1.2479976000000002,3
4.231129169464111,13.337148666381836,0.06623435020446777,-0.4421676695346832,4.149607700000002,1.6267341,3
3.5583524703979488,14.461895942687988,-0.08045878261327744,-0.7995617985725403,-0.4428773,1.461495,3
2.6950914859771733,15.175142288208008,-0.3147082030773163,-0.912472367286682,-1.003957,1.0042624,3
2.196818590164185,15.541488647460938,-0.8875625729560852,-1.035608172416687,2.3753495,1.2534955,3
1.7827078104019165,15.423698425292967,-1.4267826080322266,-1.2862871885299685,0.4978552,1.3008375,3
1.2524685859680176,14.810626983642578,-1.9197311401367188,-1.285572528839111,0.4147775,1.1905763,3
0.7249612212181091,13.719520568847654,-2.4242722988128658,-1.2878719568252563,0.8384125,1.2229522,3
0.08879780769348145,12.006950378417967,-2.5692477226257324,-1.2740274667739868,0.25289822,1.044885,3
-0.5674268007278442,10.175285339355467,-2.490687847137451,-1.2338122129440308,-0.5332854,0.73273283,3
-1.2638626098632812,8.581953048706055,-2.5438401699066158,-1.163538098335266,-1.0891727,0.36835176,3
-2.1171720027923584,7.469948768615723,-2.748718738555908,-0.9760221242904664,-2.1444426,-0.12370021,3
-2.8101768493652344,6.6194748878479,-3.346807718276977,-0.7172670364379883,-1.9892827,-0.4914411,3
-2.895503044128418,5.96846342086792,-4.3811001777648935,-0.319100022315979,-0.05100725,-0.5534439,3
-2.327011823654175,5.443867206573486,-5.110142707824707,0.1734791398048401,2.017077,-0.40439278,3
-1.299513578414917,5.26129961013794,-4.803018093109131,0.6815140843391418,1.702176,-0.27947086,3
-0.3032541573047638,5.547752857208252,-3.902498483657837,1.1708593368530271,1.2366967,-0.59498274,3
0.302075058221817,6.514383792877197,-3.057292938232422,1.5387444496154783,1.3335188999999998,-1.3695598999999998,3
0.3813287019729614,8.15412712097168,-2.3296127319335938,1.7450960874557495,1.527774,-1.6972891,3
0.056149173527956016,10.099818229675293,-1.4971644878387451,1.9122713804244995,0.79412484,-1.498147,3
-0.3302958905696869,11.881510734558105,-0.521228015422821,2.038854122161865,-0.08093964,-1.5317446,3
-0.5954397916793823,13.36961841583252,0.4986387193202973,2.0145406723022456,-1.7837266,-1.486846,3
-0.9441306591033936,14.57880973815918,1.133185625076294,1.8205603361129759,-2.1978931,-1.8542814,3
-1.1069498062133791,15.48076343536377,0.9060745835304259,1.4182604551315308,-0.99021256,-1.9294178,3
-0.8352657556533813,15.916104316711426,-0.05565434321761131,1.0029119253158572,0.96791595,-1.5796975,3
-0.32084301114082336,15.832505226135256,-0.6339836716651917,0.6717551946640015,3.712228,-0.8512407,3
0.21984358131885529,15.253952980041506,-0.4770970344543457,0.4760643243789673,4.5149050000000015,-0.32742378,3
0.8495658636093141,14.11462116241455,-0.038890756666660316,0.3955814838409424,4.399146,-0.076052725,3
1.5998876094818115,12.391023635864258,0.29117274284362793,0.2717423141002655,4.4941354,0.06536258,3
2.3923211097717285,10.24950122833252,0.7001771330833435,0.03560183197259903,3.449556,0.22968534,3
3.061939239501953,8.074872970581055,0.9855247735977172,-0.2439228892326355,1.8072448,0.34330627,3
3.508396863937378,6.116660118103027,1.022915244102478,-0.4591752290725708,0.2742785,0.2837469,3
3.799046039581299,4.621309280395508,0.4407264888286591,-0.4990642368793488,0.45142943,0.73639804,3
3.589296817779541,3.636662244796753,-0.9308180809020996,-0.25753575563430786,2.896723,0.8790351000000001,3
2.96364426612854,3.076135396957397,-1.7444483041763306,-0.02601689659059048,3.5579846,0.87598073,3
1.951817870140076,3.1686615943908687,-2.9571659564971924,0.10284888744354248,2.946814,0.269697,3
0.7260534763336182,3.909950256347656,-3.182124137878418,0.17917500436306,-5.1007247000000016,-1.1441506,3
-0.5114791989326477,4.145355701446533,-2.370346784591675,0.0034561450593173504,-3.6123517,-1.7510452,3
-0.6592443585395813,4.883438587188722,-1.0604226589202879,0.06341638416051865,1.6093245,-0.8002335,3
-0.030760126188397408,6.3191776275634775,0.586542546749115,0.3805668354034424,0.13713925,-0.71685034,3
1.090008020401001,8.487778663635254,1.6869866847991943,0.7404320240020752,-1.1166617,0.7144069000000001,3
1.6694515943527222,10.524009704589844,1.2419441938400269,0.8745555281639099,1.7085901,0.95233893,3
1.8197317123413088,11.778593063354492,0.04744268208742142,0.42359334230422974,6.093381,-0.15271631,3
2.1415884494781494,12.638875961303713,-0.6938145756721497,0.0696960911154747,4.50788,0.5653558000000001,3
2.557047128677368,13.354138374328613,-0.5614511370658875,0.12509255111217502,0.88300574,0.7519751,3
2.579431295394897,13.915465354919435,0.04875065386295319,0.1267186552286148,1.3472633,0.7119634,3
2.358726501464844,14.351893424987793,0.32329896092414856,-0.0436406284570694,3.0234776,0.85918194,3
1.795443773269653,14.75932788848877,0.42003557085990906,-0.4835736453533173,3.7675114,0.9639453,3
1.0931997299194336,14.927867889404295,0.2548319399356842,-1.0754190683364868,0.00030543262000000003,1.0629056,3
0.5538910031318665,14.325185775756836,-0.6943596601486206,-1.2430078983306885,-1.3976597,0.7510588,3
0.3622637987136841,13.300003051757812,-2.0419921875,-1.3748054504394531,1.6074919,0.80909103,3
0.4134034514427185,11.932689666748047,-2.9877405166625977,-1.3769280910491943,2.7855456000000003,1.0931433000000002,3
0.47528168559074396,10.41660213470459,-3.0059447288513184,-1.2924374341964722,1.1389582,1.1029171999999998,3
0.1949237436056137,8.760775566101074,-2.93855881690979,-1.1308228969573977,0.36193767,0.61636305,3
-0.6971591711044312,7.524108409881593,-2.9917030334472656,-0.8713213801383972,0.15760323,0.16493362,3
-1.8713221549987795,6.71297550201416,-3.029606819152832,-0.5718274116516113,-0.52839845,-0.32314770000000004,3
-2.6592371463775635,6.0743775367736825,-3.3326261043548584,-0.2547982037067413,-0.7110472,-0.80481493,3
-2.505629301071167,5.618166923522949,-3.915606021881104,0.10730953514575957,1.180497,-0.8185594,3
-1.6086193323135376,5.511720180511475,-4.122434616088866,0.5925418138504028,2.9208522,-0.38331795,3
-0.6723356246948242,6.105056285858153,-3.5106508731842037,1.1579855680465698,2.4706445,-0.58184916,3
-0.2815946042537689,7.516343116760254,-2.549868583679199,1.6148854494094849,2.427273,-1.0430524,3
-0.3965984582901001,9.20431137084961,-1.534842014312744,1.9165737628936768,2.2461514,-1.412015,3
-0.5885634422302246,11.010361671447754,-0.3946636319160461,2.0905606746673584,0.82894415,-1.8252654,3
-0.720093309879303,12.630084991455078,0.6162153482437134,2.1717863082885738,-0.47219884,-1.8445076,3
-0.9469287395477296,13.979837417602539,1.229894757270813,2.0953891277313232,-1.1349876,-2.155438,3
-1.0557284355163574,15.030461311340332,1.3097872734069824,1.8192135095596316,-0.04337143,-2.0506747,3
-0.8265990614891052,15.45650863647461,1.1093469858169556,1.4905269145965576,0.60231316,-1.6490307,3
-0.33689507842063904,15.334885597229006,0.6094125509262085,1.2103499174118042,2.3499987,-1.2748758,3
0.16719771921634674,15.00090789794922,0.2363806366920471,0.990849494934082,4.123951399999998,-0.7165449,3
0.6996901631355286,14.464801788330078,0.4130841195583344,0.8262279629707336,4.400978599999998,-0.36285394,3
1.3638503551483154,13.545828819274902,0.6105524301528931,0.6426013708114624,5.255579,-0.27488935,3
2.129812479019165,12.166834831237793,0.916551411151886,0.5132915377616882,5.293147599999998,-0.07422013,3
3.088639974594116,10.28145980834961,1.2888705730438232,0.28583550453186035,3.0918944,0.03756821,3
4.027731418609618,8.183072090148926,1.3347076177597046,0.0098583260551095,1.3084733,0.267559,3
4.540181636810303,6.280874729156494,1.0152543783187866,-0.1831461191177368,0.9944886,0.6059783000000001,3
4.537608623504639,5.0656394958496085,0.21700014173984528,-0.28827694058418274,1.5326608,0.8549059000000001,3
3.9949157238006587,4.531021118164063,-1.2764852046966553,-0.1982838958501816,3.8035524,0.77304995,3
2.8314101696014404,4.4776954650878915,-2.714264154434204,-0.0320635661482811,4.3988404,-0.00030543262000000003,3
1.231287956237793,4.723214626312256,-3.082661390304565,0.0902743712067604,-2.9633074,-1.2956451999999998,3
-0.3895868062973023,4.577977180480957,-2.75499963760376,0.15377223491668698,-4.9370129999999985,-1.9895881,3
-1.2828574180603027,4.453649044036865,-1.4583828449249268,0.2952393293380737,-0.27947086,-1.2757921,3
-0.886155366897583,4.881586074829102,-0.003361794631928205,0.41514408588409424,0.71929383,-0.88208944,3
-0.00166364514734596,6.0138282775878915,1.0331474542617798,0.649025559425354,-0.15149458,-0.75747293,3
1.1230878829956057,8.075987815856934,1.6676987409591677,0.886384129524231,-0.46944994,0.54336464,3
1.8675711154937744,10.186976432800293,1.2925641536712646,0.9190014004707336,1.9895881,0.93492925,3
2.0960984230041504,11.49148178100586,0.6074599623680115,0.641903817653656,3.9645154,-0.043676864,3
2.211297512054444,12.054040908813475,0.3671362400054932,0.4144805371761322,4.022853,0.2883284,3
2.3767547607421875,12.608851432800293,0.6125601530075073,0.3224518895149231,3.6395352,0.6236934000000001,3
2.535248041152954,13.486919403076172,1.2243766784667969,0.14199912548065186,2.8124237,0.35063666,3
2.571552276611328,14.537543296813965,1.5458132028579712,-0.2610571086406708,2.5405886000000004,0.8542950999999999,3
2.2706761360168457,15.386113166809082,1.232132077217102,-0.9220204353332521,-0.1142318,0.8735373,3
1.8212074041366575,15.702506065368652,-0.14220327138900754,-1.2122135162353516,-2.03693,0.7318166,3
1.5437651872634888,15.557906150817873,-1.9074316024780276,-1.3365075588226318,1.4770721000000002,1.0198395,3
1.298255443572998,14.80123519897461,-3.28527569770813,-1.31573486328125,2.8680124,1.1749994,3
0.902655065059662,13.811308860778807,-3.964442729949951,-1.185352087020874,3.809661100000001,1.0458013000000002,3
0.3796540498733521,12.70633602142334,-3.361175060272217,-1.0734807252883911,1.7913623,0.8949176,3
-0.08983498811721803,10.885478019714355,-2.494602680206299,-1.060029149055481,0.33169982,0.6933321,3
-0.5985891819000244,8.765087127685549,-2.5208308696746826,-0.9535626173019408,0.9914343,0.28191432,3
-1.4577847719192505,7.297756671905518,-2.7041866779327397,-0.7073508501052856,0.26022860000000003,-0.1160644,3
-2.368705034255981,6.2571940422058105,-2.91476845741272,-0.43177399039268494,-0.8353582,-0.6270532,3
-2.7185661792755127,5.387153625488281,-3.406071186065674,-0.09178035706281662,0.4016439000000001,-0.8014551999999999,3
-2.2705419063568115,4.671918869018555,-3.819451093673706,0.32010573148727417,2.8102856,-0.64751714,3
-1.296944260597229,4.4196438789367685,-3.5295777320861816,0.7471538782119751,3.378085,-0.44776422,3
-0.24465066194534305,5.09011697769165,-2.7340903282165527,1.2097322940826416,2.474615,-0.90010995,3
0.4385104775428772,6.65595817565918,-2.060262441635132,1.6207906007766724,2.3545802000000005,-1.5867225,3
0.8081700801849365,8.798437118530273,-1.2880573272705078,1.835236430168152,1.8182404,-1.6511686999999995,3
0.8325661420822144,10.810535430908203,-0.3534001410007477,1.9092026948928835,-0.7663304,-1.4511104,3
0.5742987990379333,12.503130912780762,0.24136844277381894,1.9356592893600464,-1.6178766000000002,-1.6627752,3
0.2744903862476349,13.742384910583494,0.5224978327751161,1.8586255311965945,-0.9239337,-1.7232508999999998,3
-0.06102757528424262,14.594704627990724,0.7651126980781555,1.6281157732009888,-0.15302174,-1.8952094,3
-0.36944231390953053,15.416449546813965,0.6961300373077393,1.3633970022201538,0.058643065,-1.6511686999999995,3
-0.3093347549438477,16.039253234863278,0.09438949823379517,1.0915930271148682,1.7602082,-1.1578951000000002,3
0.14817270636558533,16.16546630859375,-0.524942934513092,0.8500342369079591,3.4037411,-0.73914695,3
0.8543944358825684,15.68271255493164,-0.8059340715408325,0.7146761417388916,4.6425757,-0.29749137,3
1.5480079650878906,14.503436088562012,-0.7017887830734253,0.6788969039916992,4.9733596,0.049480084,3
2.203102827072144,12.73062515258789,-0.3158053755760193,0.5902025103569031,3.235448,0.4456262,3
2.9009311199188232,10.408159255981444,0.2617279589176178,0.3188211619853973,1.0317514,0.4877759,3
3.3448777198791504,8.062436103820799,0.5329767465591431,0.022893199697136882,0.3549127,0.56382865,3
3.301218271255493,6.121443271636963,0.4320409893989563,-0.18668504059314728,-0.17012598,0.7089091,3
2.985339641571045,4.477811813354492,-0.08255749940872192,-0.26994112133979803,0.020158553,0.6197228,3
2.46266508102417,3.670116186141968,-1.0007451772689822,-0.28695714473724365,1.6924021,0.20861048,3
1.3687503337860107,3.832224130630493,-1.662556767463684,-0.2448047399520874,1.3976597,-0.7370089,3
-0.3071845769882202,4.2685298919677725,-1.4386515617370603,-0.11969748884439467,-3.4758232,-1.4404203000000002,3
-1.7772547006607056,4.466165065765381,-0.9721152782440186,0.04656492173671722,-4.907386,-1.5344934,3
-1.8629567623138428,4.5630879402160645,-0.5557385087013245,0.2090831696987152,1.3585643,-0.20861048,3
-1.373135328292847,5.0262627601623535,-0.056364588439464576,0.36612239480018616,3.021034,-0.80664754,3
-0.649057149887085,6.6154327392578125,0.3224758803844452,0.4458677470684052,3.809661100000001,-0.6930265999999999,3
0.2658960521221161,8.810169219970703,1.0585557222366333,0.5121753811836243,3.0589077,0.42149702,3
0.8346648812294006,10.746235847473145,1.1339635848999023,0.4744111001491546,4.564385,0.269697,3
1.3230432271957395,11.446459770202635,0.6209018230438232,0.057432889938354485,5.4944277,-0.40500367,3
2.45920991897583,12.007387161254885,0.3280390501022339,-0.3282738327980041,1.2327261,0.5476406999999999,3
3.2965402603149414,12.97285270690918,0.9101115465164183,-0.2708314061164856,-1.4883732,0.10476339,3
3.643464088439941,14.128819465637207,0.8637626171112059,-0.4909508526325226,1.4193454,0.6200281999999999,3
3.365093231201172,14.82123565673828,0.43486616015434265,-0.9308770298957824,2.000889,0.990518,3
2.4100966453552246,15.147000312805176,0.24668611586093905,-1.2296351194381714,-0.78954333,1.0986412,3
1.0043216943740845,15.180827140808105,0.015132911503314972,-1.442819118499756,-1.7605137,1.1969905,3
-0.330234169960022,14.59292984008789,-1.0511112213134766,-1.599724292755127,-0.3912592,1.1441506,3
-1.0712634325027466,13.343172073364258,-2.1520922183990483,-1.6856791973114014,1.5583171999999998,0.73364913,3
-1.0948286056518557,11.686603546142578,-2.5406742095947266,-1.7323468923568726,0.79351395,0.36957347,3
-0.8484805822372437,9.934747695922852,-2.959558248519897,-1.68277108669281,0.9492846,0.172264,3
-0.9740231037139891,8.319465637207031,-3.433762788772583,-1.5262351036071775,0.36041048,-0.16462818,3
-1.6965304613113403,7.045454978942871,-3.7325050830841056,-1.199394702911377,-1.1249083,-0.4831944,3
-2.412602424621582,6.056885242462157,-3.930465459823608,-0.8133034110069275,-1.0671816,-0.84513205,3
-2.7227649688720703,5.040711402893066,-4.184632301330566,-0.39211463928222656,-0.3707952000000001,-1.0375546,3
-2.265573501586914,4.358731269836427,-4.404755115509033,0.07844126224517822,1.2925909,-1.0137309,3
-1.2136178016662598,4.259838104248047,-4.1496872901916495,0.5241786241531372,1.5476271,-1.1050552,3
-0.2293449193239212,5.254579067230225,-3.524048328399658,0.9334598779678344,1.1612549,-1.3918563999999998,3
0.3614216446876526,7.209046840667725,-2.904811382293701,1.261762022972107,1.1624765,-1.627345,3
0.8924853205680847,9.347206115722656,-2.332888126373291,1.476473093032837,0.4810564000000001,-1.5864171,3
1.2911068201065063,11.277052879333494,-1.7127418518066406,1.5919324159622192,-0.9147707,-1.3090841999999998,3
1.4791077375411987,12.883697509765625,-0.9513258337974548,1.638705134391785,-2.3167064,-1.2296717,3
1.4315718412399292,14.188231468200685,-0.6186985373497009,1.597359538078308,-2.2806654,-1.235475,3
1.1012591123580933,15.225601196289062,-1.1054508686065674,1.560130000114441,0.13347405,-0.9850202,3
0.9846247434616088,16.061996459960938,-1.6308159828186035,1.5212347507476809,1.4544701999999998,-0.90102625,3
1.4279383420944214,16.58062744140625,-1.816843867301941,1.4839000701904297,1.3341297,-0.569021,3
2.1828076839447017,16.37771987915039,-1.870897889137268,1.3972657918930054,1.4569136,-0.6969972,3
2.768468141555786,15.234301567077635,-1.8406538963317869,1.2340525388717651,1.8481728,-0.7302894,3
3.040231466293335,13.334911346435547,-1.5433777570724487,0.9497495889663696,0.8695666999999999,-0.23273966,3
2.9580681324005127,10.837646484375,-1.0358959436416626,0.5215641856193542,-0.4025602,0.59040123,3
2.749521255493164,8.329535484313965,-0.5420323014259338,0.0852363258600235,-1.0778716999999998,0.99387777,3
2.460592269897461,6.195199966430664,-0.15069986879825592,-0.2934237420558929,-1.2880094,1.2977833,3
2.082552433013916,4.487787246704102,0.2061939239501953,-0.5463377237319946,-1.1258247,1.2547172,3
1.6756792068481443,3.192007303237915,0.4849741160869598,-0.7180646657943726,0.29749137,0.54092115,3
1.168476939201355,2.4594879150390625,0.4552203714847565,-0.9341903328895568,1.6221527,-0.59131753,3
0.2079545110464096,2.720211267471313,-0.05916966870427132,-1.0428578853607178,-1.4645494,-1.733941,3
-1.3497439622879028,4.005244255065918,-0.14189814031124115,-0.9088585376739502,-6.914384,-2.0005836,3
-2.1464247703552246,4.84674072265625,-0.2914227545261383,-0.8649596571922302,-7.492567500000002,-1.174083,3
-1.359262228012085,5.449073314666748,-0.5224161744117737,-0.9731391072273254,-2.939789,-0.46273044,3
0.5277319550514221,7.1160035133361825,-1.1360896825790403,-0.9266385436058044,3.0677652,0.13133603,3
2.304379463195801,9.236838340759276,-1.0542495250701904,-0.8249012231826782,3.448334200000001,1.4605788,3
2.8292102813720703,10.76282787322998,-0.6129493713378906,-0.5491665005683899,1.68385,1.0894781,3
3.069044351577759,11.53343677520752,-0.482127845287323,-0.18382656574249268,0.16707164,1.2394456,3
3.551042318344116,12.205520629882812,-0.2342890202999115,-0.03801945969462395,0.4813618,1.039998,3
4.014712333679198,13.27212142944336,0.249835804104805,0.02971904166042805,0.5726861999999999,1.4474452,3
4.137094974517821,14.280150413513185,0.5911533832550049,-0.008283236064016819,2.6416867,1.7910568999999998,3
3.7990124225616455,15.0997953414917,0.8191696405410767,-0.12733598053455353,4.1932845,1.9990565,3
2.9956285953521733,15.87580108642578,1.4182487726211548,-0.37687042355537415,3.1135802000000004,1.9526308,3
1.7893273830413818,16.392112731933597,1.9010883569717407,-1.161932349205017,-1.0995574,2.189952,3
0.4618449211120606,16.194541931152347,2.0386226177215576,-1.9632468223571775,-7.444004,1.8982637,3
-0.7997299432754517,15.080633163452148,0.6051312088966371,-2.1328680515289307,-8.312348,1.3652838,3
-1.5715429782867432,13.254179000854492,-2.3787264823913574,-2.312110185623169,-0.124311075,1.1172725,3
-2.1100389957427983,11.446866989135742,-3.71359133720398,-1.9152461290359497,1.2492194,1.135293,3
-2.8485748767852783,9.694096565246582,-3.432673215866089,-1.527514934539795,-0.08063421400000001,0.68416905,3
-3.6559300422668457,8.010787010192871,-2.620849132537842,-1.2828971147537231,-1.9468275,-0.26511553,3
-4.279645919799806,6.477168560028076,-2.0788648128509517,-1.0757836103439329,-2.4901922,-1.1685852,3
-4.696318626403809,5.216750144958496,-1.9743731021881104,-0.8221836090087891,-3.2812626000000003,-1.7440202,3
-4.492751598358153,4.387545585632323,-2.5950548648834233,-0.4760821759700775,-2.0045543,-1.8979583,3
-3.538063764572144,3.864743709564209,-3.5487346649169917,-0.15045107901096344,-0.9990701,-1.8716911,3
-2.272294521331787,3.741416931152344,-4.079051017761231,0.2700311541557312,-0.30818152,-2.3237314,3
-1.020474553108215,4.499914169311523,-4.027129650115967,0.5787680745124817,-0.15851954,-2.7351491,3
-0.05106977373361588,6.302896499633789,-3.7021105289459233,0.7636532187461853,0.4428773,-2.6068676,3
0.7817443013191223,8.587088584899902,-3.16239857673645,0.952337920665741,-0.9560041,-2.7598891,3
1.5971924066543581,10.66083812713623,-2.7152106761932373,1.1326266527175903,-0.6722571999999999,-2.1484132,3
1.976175665855408,12.392662048339846,-2.569821119308472,1.2683572769165041,0.21074851,-1.3203851999999998,3
1.8224098682403564,13.796059608459473,-2.270935297012329,1.3276827335357666,0.30818152,-1.2366967,3
1.625510573387146,14.846433639526367,-2.043066024780273,1.318565845489502,-0.0033597588,-0.9236283000000002,3
1.684897780418396,15.507010459899902,-2.219143867492676,1.1465835571289062,-0.32559118,-0.6609562,3
1.929587960243225,15.756235122680664,-2.708350658416748,0.8898462653160095,1.5183055,-0.20861048,3
2.1980552673339844,15.341293334960938,-3.0634608268737797,0.7380038499832153,3.3105843,0.36774087,3
2.5746092796325684,14.164765357971193,-2.50208592414856,0.5803589820861816,2.221717,0.786489,3
3.052254199981689,12.264968872070312,-1.585685968399048,0.3880539834499359,1.3521502,1.0424415,3
3.36343002319336,10.05372142791748,-0.68382328748703,0.179788276553154,0.37965274,1.1652255,3
3.18094253540039,7.919790744781494,-0.06395423412322998,-0.028242582455277443,0.048258353,1.0769554,3
2.638846635818481,5.9685115814208975,0.27167096734046936,-0.19009943306446075,-0.23365596,0.94897914,3
1.9955339431762693,4.2016143798828125,0.4305017292499542,-0.2758377194404602,-0.6792821,0.66889745,3
1.4478614330291748,2.7083444595336914,0.265009343624115,-0.2879189848899841,0.03848451,0.4728097,3
0.7025706768035889,1.646104097366333,-1.092030048370361,-0.3417271077632904,3.441004,-0.02076942,3
-0.36660662293434143,1.4651198387145996,-0.8770983815193176,-0.3693196177482605,-3.6508362,-1.883603,3
-0.8993192911148071,1.4651014804840088,-0.3645414710044861,-0.4456611275672913,-4.57141,-1.6319264999999998,3
-0.9910906553268432,1.6485501527786257,-0.3339754343032837,-0.5783061981201172,-2.944065,-1.1417072,3
-0.668337881565094,2.414673328399658,-0.2864784896373749,-0.5917680859565735,-1.4196508,-0.88239485,3
0.3128693997859955,4.722609519958496,0.2306976467370987,-0.32393598556518555,-0.8604037,-0.34574974,3
1.4743541479110718,7.37017822265625,0.8375514149665833,0.06323518604040146,0.5488624,0.42271876,3
1.889991879463196,9.697096824645996,0.7408456802368164,0.2404274046421051,2.0152445,0.43676865,3
1.7279881238937378,10.99081325531006,0.3297630548477173,-0.1752229630947113,2.6710083,0.41691554,3
2.049223661422729,11.437026977539062,-0.05076096579432488,-0.5674483776092529,-1.5439618999999998,-0.24465153,3
2.610610246658325,12.35112476348877,-0.6560112237930298,-0.2868625819683075,1.5079208999999998,0.80939645,3
3.0888559818267822,13.574651718139648,-0.7946532964706421,-0.1053246557712555,3.3157766000000004,1.6600263,3
3.161104917526245,14.69776725769043,-0.28742024302482605,-0.15030395984649658,3.1358767000000003,1.5427402,3
2.872361421585083,15.57932186126709,0.5287484526634216,-0.3361887335777283,2.420248,1.3982705,3
2.2425785064697266,16.143815994262695,1.1399177312850952,-0.799662172794342,1.9556851,1.6740761999999998,3
1.4435895681381226,15.967607498168945,1.5014417171478271,-1.529920220375061,-4.7522264000000005,1.9569068,3
0.5188034176826477,14.912574768066404,0.7634131908416748,-1.777579665184021,-5.176472,1.1551461,3
-0.00991741009056568,13.108341217041016,-1.6705495119094849,-1.8462450504302976,0.9621128,1.3319917,3
-0.4287096560001373,11.11935329437256,-2.5045092105865483,-1.6278687715530396,1.310306,1.4037683,3
-1.3230034112930298,9.216538429260254,-2.1502180099487305,-1.3747618198394775,-1.5845844999999998,0.7312057,3
-2.5566909313201904,7.533092021942139,-1.9066978693008425,-1.0916756391525269,-2.3625214,-0.27091873,3
-3.488102674484253,6.243075370788574,-2.0981173515319824,-0.8313204646110535,-2.0616703000000003,-0.91507614,3
-3.6202788352966313,5.1925692558288565,-2.692006349563598,-0.49721360206604,-0.89949906,-1.1090258,3
-3.0437099933624268,4.328766822814941,-3.325891256332397,-0.12443917989730835,-0.21410827,-1.174083,3
-2.0762596130371094,3.709279537200928,-3.4875311851501465,0.2746791541576385,-0.21960606,-1.3292428,3
-1.0591878890991209,3.9880068302154537,-3.1154406070709233,0.6811009645462036,0.21227567,-1.505172,3
-0.2819975018501282,5.232367038726807,-2.6367170810699463,0.9758149981498718,0.17287487,-1.8579466,3
0.3207346498966217,7.299288749694824,-2.266266345977783,1.0965923070907593,0.5143485,-1.9129245,3
0.8627865314483643,9.514870643615724,-1.8151807785034182,1.2023825645446775,-0.95478237,-1.9776763,3
1.2803913354873655,11.437694549560547,-1.5239229202270508,1.356091022491455,-1.183246,-1.922393,3
1.5795780420303345,13.01878547668457,-1.5987511873245241,1.4326159954071045,-0.23243423,-1.6530013,3
1.703664779663086,14.297971725463867,-1.5560537576675415,1.4362099170684814,-0.58093286,-1.2327261,3
1.6696151494979858,15.291911125183105,-1.2778509855270386,1.350857853889465,-1.2632693000000002,-0.97310835,3
1.5731686353683472,15.80103874206543,-1.4249887466430664,1.1882797479629517,-0.3277292,-0.627664,3
1.6739325523376465,15.882070541381836,-1.8349975347518919,1.0336015224456787,1.1047498,-0.14782938,3
1.9256536960601809,15.646796226501465,-2.021026372909546,0.8881821036338806,2.360994,0.14477506,3
2.1340482234954834,14.501731872558596,-1.7727593183517456,0.6812670826911926,2.0693061000000004,0.25717425,3
2.3968327045440674,12.659782409667967,-1.3583847284317017,0.4380106329917908,1.2177598,0.5665775,3
2.730118989944458,10.369972229003906,-0.9777058362960817,0.15715281665325165,0.74067414,1.0155635,3
2.700771808624268,8.134745597839355,-0.4967074692249298,-0.17894309759140015,-0.09590584,1.1725558,3
2.1232953071594243,6.294861316680907,-0.06943308562040329,-0.468772828578949,-0.34300083,1.1169671,3
1.3672175407409668,4.737543106079102,0.21484172344207764,-0.6128519773483276,-0.31826079999999995,1.033584,3
0.6737939119338989,3.506218433380127,0.18073433637619016,-0.6640395522117615,0.08307768,0.6026186,3
0.040737193077802665,3.04476261138916,-0.3207432925701141,-0.6738410592079163,0.68019843,-0.301462,3
-0.8205801248550415,3.3767168521881104,-0.5774003267288208,-0.6301358342170715,-2.0054705000000004,-1.3026701,3
-1.6411731243133545,3.823094129562378,0.005074636545032264,-0.592991828918457,-4.7064114,-1.7183639,3
-1.9976867437362669,4.0832366943359375,0.2934686243534088,-0.7172085642814636,-4.0005565,-1.5503759,3
-1.4988640546798706,4.473106384277344,0.0036922248546034093,-0.8625327944755554,-1.7730363999999998,-0.81214535,3
0.09525500982999803,5.368083953857422,-1.2114357948303225,-0.8152291774749756,-1.255328,-0.21563543,3
1.7371970415115356,7.209142208099365,-1.762997031211853,-0.5543421506881714,0.795652,0.27275133,3
2.660616636276245,9.39547348022461,-1.3872685432434082,0.010202079080045223,1.4850134,1.0797043,3
2.800700664520264,11.16310977935791,-0.8280688524246216,0.4888221919536591,1.9333885,1.1603385,3
2.619520664215088,11.885124206542967,-0.6187812685966492,0.6221567392349243,2.973081,0.64904433,3
2.5644264221191406,12.879769325256348,-0.4655305445194245,0.4441896080970764,3.8001926,0.9654725,3
2.5163443088531494,14.07236385345459,0.0691402480006218,0.17331787943840027,3.6065483,1.2281445,3
2.303821325302124,15.111262321472168,0.8374850749969482,-0.21643482148647308,2.516154,1.1786644,3
1.9651938676834104,15.847933769226074,1.4835747480392456,-0.7127400636672974,1.2742649,1.2247848999999995,3
1.5755171775817869,16.030662536621097,1.8824999332427976,-1.2531715631484983,-0.37873647,1.2180653,3
1.3319120407104492,15.765008926391602,1.6202527284622192,-1.8596521615982056,-7.907650500000001,2.1087067000000004,3
0.4931066036224365,14.632052421569824,-0.9187079668045044,-1.962293028831482,-1.416902,1.6087136,3
-0.4807400107383728,13.020323753356935,-3.2595243453979488,-1.8591707944869995,2.679255,1.7009543000000005,3
-1.3040411472320557,11.279595375061035,-3.4307143688201904,-1.613242268562317,1.2712106,1.3063353000000002,3
-2.0337984561920166,9.310487747192383,-2.773327589035034,-1.4138263463974,-1.4792101,0.38453966,3
-2.9380154609680176,7.590405464172362,-2.5629751682281494,-1.2018338441848757,-1.5070046,-0.39370266,3
-3.700474739074707,6.526230812072754,-2.675868511199951,-0.9751109480857848,-0.8005389,-0.9263771,3
-3.915014505386353,5.557364463806152,-3.0131232738494877,-0.6327629685401917,-1.033584,-1.162782,3
-3.024735927581787,4.692922115325928,-3.585029125213623,-0.22570718824863434,-1.1771374,-1.3509285,3
-1.740458607673645,4.155543327331543,-3.9900758266448975,0.19124720990657806,-0.77579886,-1.294118,3
-0.5348096489906311,4.244711399078368,-3.941815614700317,0.6250284910202026,0.09132435,-1.572978,3
0.2772565186023712,5.280020713806152,-3.450066566467285,0.9885485768318176,0.43035457,-2.1798725,3
0.6757051348686218,7.284440040588379,-2.9823851585388184,1.1890124082565308,0.9242391,-2.0027218,3
0.966410219669342,9.488883972167967,-2.423681259155273,1.382927417755127,-0.3454443,-2.1850650000000003,3
1.3610635995864868,11.412734031677244,-1.9265118837356567,1.5660637617111206,-0.8677341000000001,-2.1991148,3
1.8485426902771,12.998567581176758,-1.6130808591842651,1.6392335891723633,-1.07665,-1.6056591999999998,3
2.0344460010528564,14.281837463378904,-1.4160617589950562,1.5978279113769531,-1.9504927,-1.4682146,3
2.0797605514526367,15.30104160308838,-1.151808261871338,1.4509552717208862,-2.792876,-1.022283,3
1.8719695806503296,15.98331069946289,-1.4081573486328125,1.2009475231170654,-1.7024814,-0.83077675,3
1.6251827478408811,16.2178955078125,-2.1197402477264404,0.9913001060485841,1.3991868,-0.25076020000000004,3
1.401632308959961,15.84799861907959,-2.2869484424591064,0.8498893976211548,2.7146852000000004,0.1685988,3
1.4316236972808838,14.634307861328125,-1.830091118812561,0.6879135370254517,2.4541512,0.49449542,3
1.7716490030288696,12.848133087158205,-1.182087540626526,0.4847661852836609,2.0726657,0.7831292,3
2.2132549285888667,10.663211822509766,-0.4826851189136505,0.24444246292114255,1.4407257,0.90285885,3
2.428213596343994,8.484858512878418,0.1391034871339798,-0.02686607837677002,0.54458636,0.97310835,3
2.2350752353668213,6.526218891143799,0.5150805115699768,-0.2932960391044617,-0.24587326,1.0934488000000002,3
1.7845699787139893,4.756451606750488,0.5971433520317078,-0.44848883152008057,-0.4868596,1.0509937,3
1.3252487182617188,3.101032257080078,0.2549988031387329,-0.4715133309364319,0.7806858,0.8512407,3
0.7598590850830078,1.935505032539368,-1.1753367185592651,-0.3408998250961304,3.2323935,0.25076020000000004,3
-0.09917540848255156,1.92513906955719,-2.273249387741089,-0.08811023086309433,2.1594086,-0.46303585,3
-1.118954300880432,2.440342664718628,-1.1870386600494385,0.06181193143129349,-9.108001,-2.0564778,3
-1.7573798894882202,2.539362907409668,-0.24604760110378265,0.0208699069917202,-9.087842,-1.5005904,3
-1.507296800613403,2.5154237747192383,-0.7480465769767761,-0.15134376287460327,-3.7614028,-0.8237518,3
-0.4550180435180664,3.8798067569732666,-1.299039363861084,-0.26778438687324524,2.9248228,-1.1475104,3
0.9511574506759644,6.341691017150879,-0.6911181807518005,-0.13663168251514435,4.685642,0.7501425,3
1.488009333610535,8.747810363769531,0.10463643074035643,0.26285436749458313,4.8469105,1.6872098000000002,3
1.383823037147522,9.896954536437988,0.2608013451099396,0.1347665786743164,4.6303587,1.0396926,3
1.4608583450317385,10.253108024597168,0.223509281873703,-0.4938523173332214,3.9397755,0.26175576,3
1.9046313762664795,11.34040355682373,0.2992197275161743,-0.6689473390579224,0.86345804,0.816116,3
2.1731002330780034,12.757899284362793,0.4277158677577973,-0.4366801977157593,0.3817908,1.1817188,3
2.2140862941741943,14.023738861083984,0.8625198006629944,-0.3929586708545685,-0.38728857,1.1615603,3
1.991567611694336,14.858991622924805,1.5150803327560425,-0.8683314323425293,-0.66614854,0.6768387,3
1.5128382444381714,15.179524421691895,1.7642556428909302,-1.5310457944869995,-0.99082345,1.073901,3
0.9926012754440308,14.811579704284668,0.6988205313682556,-1.9969732761383057,-7.409489999999999,1.8912388,3
0.04459033533930778,13.702415466308596,-2.1772851943969727,-1.921245574951172,2.005776,1.68385,3
-0.8536360859870911,12.171466827392578,-3.5664970874786377,-1.7204177379608154,2.3420575,1.6731599999999998,3
-1.755372166633606,10.314531326293944,-2.995280504226685,-1.5313268899917605,-0.66156703,0.7012733,3
-2.6716387271881104,8.413505554199219,-2.791062593460083,-1.3324434757232666,-1.1548406999999998,-0.026267206,3
-3.5938241481781006,7.01222038269043,-2.8915295600891118,-1.108594536781311,-1.0622946000000002,-0.6160576,3
-4.144349098205566,5.807830333709718,-3.0249242782592773,-0.8155400156974792,-1.6279559,-1.0354166,3
-4.021140575408936,4.830331802368164,-3.4061596393585205,-0.4272045791149139,-1.067487,-1.2592987,3
-3.2075319290161133,4.151703834533691,-3.917661190032959,-0.0276093315333128,0.4615087000000001,-1.1945469,3
-2.0338785648345947,3.7127192020416264,-4.162521839141847,0.3657987415790558,0.79504114,-1.0946705,3
-0.9615630507469176,3.7114083766937256,-3.9170525074005127,0.7556223869323729,0.70249504,-1.3487904,3
-0.18989214301109314,4.509223937988281,-3.3635098934173584,1.0758037567138672,0.26542094,-1.7299703000000002,3
0.301355242729187,6.350112438201903,-2.838062286376953,1.280766487121582,0.2125811,-2.025629,3
0.6943814754486084,8.682997703552246,-2.2067158222198486,1.397914171218872,-0.7476991,-1.817935,3
0.7724977135658264,10.77502727508545,-1.6253894567489624,1.5657548904418943,-1.6978999,-1.6475036,3
0.6774819493293762,12.488358497619627,-1.5137897729873655,1.6512064933776855,-1.7079792,-1.7363845000000002,3
0.6436189413070679,13.873517036437988,-1.7015943527221682,1.5679640769958496,-1.8704693,-1.5418239,3
0.600659191608429,14.965359687805176,-2.1889939308166504,1.3961209058761597,-1.1447614,-1.3478742,3
0.6165780425071716,15.685346603393555,-2.5895941257476807,1.2010641098022459,0.39614612,-0.89369583,3
0.7753836512565613,15.92985725402832,-2.6869466304779053,1.0522871017456057,1.7534887,-0.3747658,3
0.9664583206176758,15.55618381500244,-2.566472291946411,0.9716221690177916,3.3832772000000007,0.09010262,3
1.173419713973999,14.472500801086426,-2.116262912750244,0.8165157437324524,2.0613647,0.23732115,3
1.5131075382232666,12.721050262451172,-1.621049165725708,0.5620333552360535,1.1038336000000002,0.6123924,3
2.0133814811706543,10.501057624816896,-1.0577127933502195,0.2395860850811005,0.35246924,1.0665708,3
2.285191297531128,8.200620651245117,-0.5796076655387878,-0.12833264470100406,-0.07788532,1.2864822,3
1.9289363622665403,6.2970643043518075,-0.21837198734283447,-0.46162548661232,0.021685716,1.3671165,3
1.1604448556900024,4.779898166656494,0.10953602194786073,-0.6587812304496765,0.28344148,1.3130548,3
0.3540358245372772,3.586531162261963,0.2494920045137405,-0.7301348447799683,0.5119051,0.5177083,3
-0.20728272199630735,3.030223608016968,-0.08961242437362671,-0.7435394525527954,1.4165965,-0.17256944,3
-0.838928759098053,3.221193552017212,-0.5295567512512207,-0.6432600617408752,-0.087659165,-0.9737192,3
-1.5531405210494995,3.5788869857788086,-0.08683694154024124,-0.4799128472805023,-5.90554,-1.7883080000000002,3
-1.9263663291931152,3.6709575653076167,0.06607059389352797,-0.43179139494895935,-7.5646496,-1.387275,3
-1.3739609718322754,3.6464650630950928,-1.2614831924438477,-0.6340113878250122,-0.54244834,-0.8747590000000001,3
-0.2972525060176849,4.690133094787598,-1.8391715288162231,-0.8312023878097534,2.0433443,-0.59956425,3
1.1826502084732056,6.995884418487549,-1.3628808259963991,-0.628838300704956,2.510656,1.0968086,3
2.1124229431152344,9.29163932800293,-0.4616223573684693,-0.1273253709077835,1.9300288,1.3979651000000002,3
2.4614698886871342,10.863492965698242,0.039347313344478614,0.20936255156993866,2.2650883,1.3332133999999998,3
2.6182544231414795,11.561792373657227,-0.05046793445944786,0.060955818742513664,3.1746666,0.82650065,3
2.831631183624268,12.615607261657715,-0.03572535887360573,-0.21793732047080994,2.8276951,1.4388931,3
2.9754624366760254,13.839056015014648,0.05562542378902435,-0.37958961725234985,2.7543914000000003,1.8216002,3
2.757065296173096,14.92576789855957,0.3987553417682648,-0.5084598660469055,1.3460416000000002,1.8332067,3
2.0621480941772456,15.678357124328613,0.8187153935432434,-0.97808039188385,-0.7272350999999999,1.9474384,3
1.1914299726486206,15.690485954284668,0.8579311370849609,-1.3825039863586426,-4.1178427000000015,1.6841555,3
0.2707827687263489,15.085975646972654,0.10478992760181427,-1.4834673404693604,-4.277278400000001,1.536937,3
-0.5327593088150024,13.835809707641602,-1.4914809465408323,-1.6323605775833132,-1.0204504,1.3310753,3
-1.108550190925598,12.367514610290527,-2.956552743911743,-1.55368971824646,0.8900306999999998,1.0965031,3
-1.5244687795639038,10.707834243774414,-3.523187160491944,-1.4034261703491209,0.48716503,0.72418076,3
-1.863452196121216,8.814103126525879,-3.4199535846710205,-1.2433967590332031,-1.484708,0.047036625,3
-2.4301326274871826,7.065941333770753,-2.9303507804870605,-1.0485447645187378,-2.47095,-0.6591236,3
-3.393544435501098,5.80482816696167,-2.5991103649139404,-0.791761577129364,-2.6349673,-1.2635747,3
-4.0951571464538565,5.136757373809815,-3.218407154083252,-0.5279990434646606,-0.57757306,-1.9850066,3
-3.28470778465271,4.799171447753906,-4.203080177307129,-0.06395336240530014,1.0366384,-1.9456058,3
-1.9842125177383425,4.643854141235352,-4.499592304229736,0.4473913908004761,2.2391264,-2.0457878000000003,3
-0.7531108260154724,5.253514766693115,-4.1155991554260245,0.9075538516044616,1.7229455000000002,-2.3634377,3
0.14447073638439178,6.921107769012451,-3.4983832836151123,1.250403642654419,0.7672467,-2.2479842,3
1.0253819227218628,9.09049129486084,-2.782557725906372,1.4775962829589844,-0.20738874,-2.4193318,3
2.004758358001709,11.064964294433594,-1.7948988676071167,1.547227144241333,-2.129171,-1.8371773,3
2.4882171154022217,12.710628509521484,-1.1304067373275757,1.6185705661773682,-2.4410176,-1.3750577,3
2.5028245449066158,14.02495288848877,-1.2335827350616455,1.5853633880615234,-2.2721133,-1.31672,3
2.2867848873138428,14.987676620483398,-1.7981514930725098,1.3973586559295654,-1.7757853,-1.1172725,3
1.8440667390823364,15.618393898010256,-2.3988916873931885,1.1946268081665041,0.20891592,-0.57360244,3
1.3411723375320437,15.718379020690918,-2.642848491668701,1.0977548360824585,1.9526308,-0.17073683,3
0.959725558757782,15.141135215759276,-2.3790037631988525,0.9681831598281859,2.4791965,0.29871312,3
1.056065797805786,13.64938259124756,-1.911917805671692,0.7338600754737854,1.9349157,0.5882632,3
1.6564111709594729,11.465811729431152,-1.2156686782836914,0.43785998225212097,0.84849185,0.9505063,3
2.348819732666016,9.068294525146484,-0.4746141731739044,0.14129187166690824,-0.20433442,1.3246613,3
2.5878303050994877,7.053454399108888,0.06242309510707855,-0.1685056984424591,-0.9560041,1.6349808,3
2.109122037887573,5.40151834487915,0.4218535721302033,-0.4606859087944031,-1.3472633,1.2034045,3
1.2089390754699707,3.9458997249603267,0.5343773365020752,-0.7329921722412109,-1.0720685,0.33444872,3
0.11892368644475936,2.9540657997131348,0.04588839784264565,-0.8742201924324036,-1.3536774,-0.7583892,3
-0.9606221914291382,3.0033020973205566,-1.4127140045166016,-0.7943875193595886,0.39736784,-1.2519683,3
-1.977812647819519,3.38360857963562,-1.141135573387146,-0.910344421863556,-2.2162192000000003,-1.7211128,3
-2.2446973323822017,3.55262303352356,-0.17104943096637726,-1.109521508216858,-3.275154,-1.3594806000000002,3
-1.8819513320922847,3.5359554290771484,0.2461025714874268,-1.1640831232070925,-3.3518176,-0.77763146,3
-1.1373653411865234,3.706754922866821,0.2413636595010757,-1.0785274505615234,-2.171015,-0.28099802,3
0.4366329610347748,5.831684589385986,0.19590872526168826,-0.8130647540092468,-1.135293,1.5299120000000002,3
1.765119194984436,8.315005302429201,-0.3450116217136383,-0.3646843135356903,1.2363913,2.0143282,3
2.1635634899139404,9.858022689819336,-1.073633074760437,-0.2219099849462509,4.561025,1.2534955,3
2.3101143836975098,10.791044235229492,-0.9579715132713318,-0.2431065589189529,3.3515122,0.4370741,3
2.5970284938812256,12.067307472229006,-0.4014720916748047,-0.08141571283340454,2.0744984,1.2562444,3
2.698280572891236,13.385608673095705,0.2979486882686615,-0.0035478519275784492,1.430341,1.4156802,3
2.6026315689086914,14.54692268371582,0.5483813285827637,-0.13528227806091309,2.627026,1.5109752,3
2.408264636993408,15.481691360473633,0.8180032968521118,-0.3829325437545776,2.10046,1.3292428,3
2.029010772705078,16.112398147583008,1.3239492177963257,-0.747005820274353,0.004886922,1.2733486,3
1.383517146110535,16.081457138061527,1.820187211036682,-1.3189997673034668,-4.861571,1.534799,3
0.5239808559417725,15.378283500671387,1.278674840927124,-1.6864724159240725,-8.552419,1.6279559,3
-0.5667814016342163,13.917044639587402,-1.029719591140747,-1.807015419006348,-4.219857,1.3161092,3
-1.6257055997848509,12.172675132751465,-3.0894482135772705,-1.71792733669281,0.94714653,1.5546521,3
-2.7082760334014893,10.426840782165527,-3.331822395324707,-1.424248218536377,-0.18845193,1.0012082,3
-3.682904958724976,8.779465675354004,-2.800099849700928,-1.2319483757019043,-1.2748758,0.2510656,3
-4.3330774307250985,7.231551647186278,-2.2272722721099854,-1.0847973823547363,-1.6801848,-0.6545420999999999,3
-4.854809761047363,5.7394328117370605,-1.9188085794448853,-0.8946699500083923,-2.228742,-1.491733,3
-5.099712371826172,4.726490497589111,-2.225297212600708,-0.6177641749382019,-2.3930645,-1.4856243,3
-4.502745151519775,4.073719024658203,-3.3291840553283687,-0.3005909919738769,-0.43249258,-1.5250251,3
-3.3524677753448486,3.839968919754028,-4.066911697387694,0.16574716567993164,0.31856623,-2.1077905,3
-2.1645681858062744,4.607844829559326,-4.213150024414063,0.5277277231216431,0.08368854,-2.7635543,3
-1.2072433233261108,6.540708065032959,-3.9588134288787837,0.7945750951766968,0.30482176,-2.6132815,3
-0.3393931984901428,8.824833869934082,-3.3939588069915767,1.0321671962738037,-0.29840767,-2.8680124,3
0.6015169024467468,10.884014129638672,-2.7637310028076167,1.2696681022644043,-0.88086766,-2.2101104,3
1.1260663270950315,12.573756217956545,-2.63409161567688,1.44626784324646,-0.269697,-1.4391985,3
1.1504641771316528,13.937220573425293,-2.6341838836669917,1.5429822206497192,0.2556471,-1.4431691,3
1.0723718404769895,14.919204711914062,-2.3895983695983887,1.4713190793991089,-1.1759156000000002,-0.99204516,3
1.0465774536132812,15.549933433532715,-2.309882164001465,1.315850019454956,0.81031275,-0.7855727,3
1.1204988956451416,15.60511589050293,-2.578836441040039,1.211009502410889,3.0518827,-0.40775254,3
1.18049955368042,14.93063735961914,-2.2858359813690186,1.0697838068008425,3.032335,0.20891592,3
1.5129342079162598,13.36518096923828,-1.6306920051574707,0.903432548046112,2.7259862,0.6921103,3
2.1053380966186523,11.078288078308104,-0.7547482848167419,0.7506834268569946,1.6557503,0.9789116,3
2.5196030139923096,8.563831329345701,0.14356407523155212,0.5678481459617615,0.602924,1.0818423,3
2.1642396450042725,6.093075752258301,0.656699538230896,0.3322160542011261,0.21777347,0.80848014,3
1.6430659294128418,3.978781461715698,0.9067857265472412,0.093870647251606,-0.49541172,0.49205196,3
1.2225478887557983,2.319534540176392,0.8519061207771301,-0.08852337300777435,-0.5925393,0.14477506,3
0.7658412456512451,1.4075833559036257,-0.10281699150800704,-0.2092004269361496,0.5381723,-0.23090707,3
-0.2957166135311127,1.588133454322815,-2.075122117996216,-0.25028419494628906,1.056186,-0.9007208,3
-1.4123409986495972,1.9830299615859983,-1.590796709060669,-0.1461491584777832,-7.5518217,-2.2467623,3
-1.6973391771316528,2.1438758373260502,-0.8677291274070741,-0.3558436334133148,-5.618128,-0.9966267,3
-1.2729685306549072,2.2218010425567627,-0.8501635193824768,-0.6988968253135681,-2.1948388,-0.6969972,3
-0.1907212883234024,3.039273738861084,-0.7397636175155641,-0.8141037225723267,1.2092078000000002,-1.2305881,3
1.7574888467788696,5.786497592926025,0.8367542028427124,-0.389837384223938,-1.0882565,1.6163495,3
2.447575092315674,8.339150428771973,1.07130229473114,0.12176305055618285,1.4364496,1.9578232,3
2.42563796043396,9.49601936340332,0.3873649537563324,0.3817650973796845,3.7336085,1.593442,3
2.323378086090088,10.269004821777344,-0.3844024240970612,-0.1933807879686356,6.1184263,0.6948592,3
2.5141127109527592,11.731236457824707,-0.44732046127319336,-0.8482013940811157,4.0011673,1.7366898999999998,3
2.6128559112548833,13.171682357788086,-0.2680242359638214,-0.9528408050537108,-0.2049453,1.9895881,3
2.3390734195709233,14.360146522521973,-0.07865364849567412,-0.7127848863601685,-0.16920967,2.0305161,3
1.7228333950042725,15.01308822631836,0.4198520183563232,-0.8534941077232361,-0.48380527,2.1374176,3
0.7954824566841125,15.165915489196776,0.6203767657279968,-1.432584524154663,0.7330383,1.6303993,3
-0.4004440009593964,14.659860610961914,0.5826612710952759,-1.9126732349395752,-6.4666195,2.0161607,3
-1.4071978330612185,13.359662055969238,-1.2725759744644165,-1.958150148391724,-1.6884315,0.9596693,3
-1.7914308309555054,11.68874740600586,-3.5239975452423096,-1.8644497394561768,1.7235563000000005,1.1774428,3
-2.2735912799835205,9.976858139038086,-3.9005863666534415,-1.6293392181396484,-0.88300574,0.6435465,3
-3.1092159748077397,8.31025505065918,-3.2514240741729736,-1.3579065799713137,-3.3105843,0.0067195175,3
-4.0210914611816415,6.9887142181396475,-3.1097328662872314,-1.1249805688858032,-3.3356297,-0.7110472,3
-4.518390655517578,5.9127516746521,-3.800549745559693,-0.8399390578269958,-1.1872166000000002,-1.0827587,3
-4.442978382110597,4.8194613456726065,-4.317261695861816,-0.4241829514503479,0.2321288,-1.1096367,3
-3.749875545501709,4.047781467437743,-4.451651573181152,0.03723743185400963,0.97097033,-1.3891076,3
