acc_x,acc_y,acc_z,gyro_x,gyro_y,gyro_z,label
0.0,0.0,0.0,0.0,0.31306845,0.03573562,1
0.0537586510181427,0.2895074188709259,0.014698120765388012,-0.002293893601745367,0.39645153,0.026572637000000003,1
0.1858765184879303,0.9756277203559875,0.05922072008252144,-0.0061214086599648,0.38056904,0.014049901000000002,1
0.3756271302700043,1.9181621074676516,0.13649427890777588,-0.010025872848927976,0.28496864,0.005497787,1
0.5969839692115784,2.964728832244873,0.24310000240802765,-0.012290838174521923,0.27152961,0.014966198,1
0.8271985650062561,3.994484901428223,0.37221217155456543,-0.011841893196105957,0.28160888,0.035124752999999995,1
1.0507888793945312,4.932648181915283,0.5168671011924744,-0.012442311272025108,0.29016098,0.051923547,1
1.2588982582092283,5.74507474899292,0.6703970432281494,-0.018442720174789432,0.32253686,0.07666359,1
1.4483022689819336,6.424238204956055,0.8288499116897583,-0.026549311354756355,0.3463606,0.070249505,1
1.6188362836837769,6.977801322937013,0.9895231127738952,-0.03280378505587578,0.33658674,0.051618114000000014,1
1.7718164920806885,7.420368671417236,1.1504451036453247,-0.03509195521473885,0.24923302,0.021380283,1
1.908500075340271,7.770897388458253,1.3003734350204468,-0.038037553429603584,0.129198,0.0036651916,1
2.0265522003173833,8.058161735534668,1.3877861499786377,-0.04376344010233879,0.023518313,-0.005192355,1
2.1285359859466557,8.295107841491701,1.416706919670105,-0.0504082590341568,-0.01160644,-0.0018325958,1
2.2173187732696533,8.49090576171875,1.3983677625656128,-0.056458320468664176,0.002443461,-0.0012217305,1
2.295372486114502,8.653291702270508,1.3417418003082275,-0.06461677700281143,-0.053145275,-0.023823744,1
2.3647243976593018,8.788637161254883,1.2543070316314695,-0.07005973905324936,-0.26847526,-0.06078109,1
2.427063226699829,8.902172088623047,1.1419682502746582,-0.05831785127520561,-0.5180137,-0.09437868,1
2.483726501464844,8.99811840057373,1.009735941886902,-0.02947618067264557,-0.7275404999999999,-0.11728613,1
2.5358755588531494,9.079947471618652,0.8611553907394409,0.002943575382232666,-0.72387534,-0.16554448,1
2.58437728881836,9.150412559509276,0.6995338797569275,0.03136128932237625,-0.77671516,-0.1881465,1
2.629366159439087,9.210978507995604,0.5347931385040283,0.0500609502196312,-0.8604037,-0.14508049,1
2.669010877609253,9.259576797485352,0.4068131744861603,0.056889049708843224,-0.8500190000000001,-0.12644911,1
2.7038636207580566,9.297868728637695,0.3150818645954132,0.06352799385786058,-0.6988298000000001,-0.10995574,1
2.7348837852478027,9.327873229980467,0.2525366544723511,0.06104822456836701,-0.4831944,-0.09193522,1
2.76282811164856,9.351218223571776,0.21345220506191254,0.04428653419017792,-0.4129449000000001,-0.10323623,1
2.7883074283599854,9.369214057922363,0.19323700666427607,0.02712262235581875,-0.3277292,-0.11789699,1
2.811788558959961,9.382915496826172,0.18811273574829104,0.01657199300825596,-0.15485434,-0.13347405,1
2.833677053451538,9.39316463470459,0.19515620172023773,0.014760308898985388,-0.11301007,-0.10354166,1
2.854289293289185,9.400640487670898,0.21198657155036926,0.005011830478906632,-0.01985312,-0.08521569999999999,1
2.87387490272522,9.405888557434082,0.23667295277118686,-0.009757685475051405,0.00030543262000000003,-0.05772676700000001,1
2.8866481781005864,9.410592079162598,0.2669180631637573,-0.02680819109082222,-0.064751714,-0.04184427,1
2.8612775802612305,9.42164707183838,0.2978346347808838,-0.045890554785728455,-0.204029,-0.010690141499999998,1
2.8002612590789795,9.4388427734375,0.32871735095977783,-0.061971977353096015,-0.33078352,0.028099801,1
2.7107067108154297,9.46095371246338,0.3595587015151977,-0.06781437247991562,-0.36346483,0.049785517,1
2.5981807708740234,9.487021446228027,0.3903738856315613,-0.07304112613201141,-0.32070425,0.04886922,1
2.46733021736145,9.516241073608398,0.4211490750312805,-0.07421298325061798,-0.12034045,0.0143553335,1
2.3217194080352783,9.54800033569336,0.4518981277942658,-0.08045072108507156,0.026572637000000003,-0.0070249503,1
2.1638903617858887,9.58187484741211,0.4826801121234894,-0.12448064237833024,0.028710667,-0.007941248,1
1.9967554807662964,9.617344856262207,0.5134127736091614,-0.19279515743255612,-0.034513887,0.08002335,1
1.821900486946106,9.654145240783693,0.5441423058509827,-0.25671496987342834,0.052839845,0.18295415,1
1.6479054689407349,9.689699172973633,0.5721837878227234,-0.2948101460933685,-0.0290161,0.20433442,1
1.5111812353134155,9.71235179901123,0.5843311548233032,-0.3426682949066162,-0.14569137,0.16493362,1
1.4094020128250122,9.723062515258787,0.5819236636161804,-0.4025503396987915,-0.022296581,0.11178834,1
1.335723876953125,9.724151611328123,0.5677787065505981,-0.4733529984951019,-0.026572637000000003,0.099571034,1
1.2846729755401611,9.71746063232422,0.5441228151321411,-0.536603569984436,0.041233405,0.112399206,1
1.2516990900039673,9.704612731933594,0.5129762291908264,-0.5838702917098999,0.29932398,0.15851954,1
1.2332923412322998,9.686775207519533,0.4757428467273712,-0.6074156761169434,0.029932396,0.13347405,1
1.2265913486480713,9.66492748260498,0.4336134493350983,-0.63137286901474,-0.090713486,0.14385876,1
1.229296088218689,9.639854431152344,0.3875465989112854,-0.664700448513031,-0.21868975,0.13683382,1
1.2395415306091309,9.612204551696776,0.33833935856819153,-0.6919011473655701,-0.4792238,0.070249505,1
1.2486214637756348,9.589629173278807,0.29297858476638794,-0.7131350636482239,-0.84329945,0.109650314,1
1.21467924118042,9.614726066589355,0.21984988451004028,-0.7338460683822632,-0.70432764,0.25717425,1
1.1138935089111328,9.65312385559082,0.1163511872291565,-0.734120786190033,-0.45662177,0.30665436,1
0.9221040606498718,9.774767875671387,0.032952189445495605,-0.7211893796920776,-0.355829,0.28893927,1
0.6234477758407593,9.93557834625244,0.02770526334643364,-0.6963101625442505,-0.4269948,0.3136793,3
0.4316595792770386,9.970677375793457,0.26241105794906616,-0.6287137269973755,-0.5864305999999999,0.2837469,3
0.5889342427253723,10.04322624206543,0.5756791830062866,-0.5693342685699463,-0.36163223,0.45265114,3
0.8974838256835938,10.304728507995604,0.8073329329490662,-0.5182723999023438,-0.40775254,0.5714644,3
1.1050965785980225,10.73978042602539,0.8402955532073975,-0.464938223361969,-0.5513059,0.5907066999999999,3
1.1258935928344729,11.279891967773438,0.6062294244766235,-0.3854379653930664,-0.63194007,0.5204572000000001,3
0.9330070614814758,11.827804565429688,0.1857290118932724,-0.2518828213214874,-0.70249504,0.40011674,3
0.5596686005592346,12.315155029296875,-0.35665541887283325,-0.05338941514492035,-0.8729264000000001,0.20616703,3
0.009766164235770702,12.683496475219727,-0.9468462467193604,0.26826614141464233,-0.9053023,0.011911872,3
-0.8460581302642822,12.715882301330565,-1.414375901222229,0.7164776921272278,-0.98563105,-0.49266282,3
-1.9457995891571045,12.381217956542967,-1.6321288347244265,1.1854482889175415,-1.3332133999999998,-1.0467176,3
-2.843531370162964,11.900586128234865,-1.7174192667007446,1.5953481197357178,0.22418754,-0.8747590000000001,3
-3.079860210418701,11.543753623962402,-1.1390095949172974,1.8299540281295776,3.2858440000000004,-0.68661255,3
-3.024160146713257,11.28201961517334,0.29213106632232666,1.9715890884399412,2.1841488,-0.9914343,3
-3.492713928222656,11.649890899658205,1.0222814083099363,1.9985857009887693,-0.005497787,-1.7330247,3
-3.602433681488037,12.77484893798828,0.6084519624710083,1.9727379083633425,0.4914411,-2.1242838,3
-3.045081377029419,13.98675537109375,0.21717871725559235,1.9916083812713623,1.6429220000000002,-2.4055874,3
-2.3513803482055664,14.993210792541506,0.3602310717105865,1.999509334564209,0.75747293,-2.6511552000000003,3
-2.061722040176392,15.850111961364744,0.3091835975646973,1.930733561515808,1.6355917,-2.9019153,3
-1.671642541885376,16.566474914550778,0.1665550023317337,1.7451015710830688,1.5564847,-2.7125470000000003,3
-0.932334303855896,17.00649070739746,-0.15515795350074768,1.6630220413208008,1.561677,-2.1719313,3
-0.23908090591430664,16.908761978149414,-0.4489754140377045,1.586131572723389,1.6777414000000002,-1.9000963,3
-0.12065985053777695,16.507247924804688,-0.8137723803520203,1.4824162721633911,4.160603,-1.8231273,3
-0.4013020694255829,15.85269832611084,-0.8634923696517944,1.5329608917236328,4.8068985999999985,-1.3051136,3
-0.5093502402305603,14.53884983062744,-0.5216873288154602,1.5859503746032717,6.0316834,-0.8002335,3
-0.09061724692583084,12.425582885742188,0.3686811029911041,1.547844409942627,4.5704937,-0.44440445,3
0.7057110667228699,9.791399002075195,1.3206501007080078,1.2784414291381836,2.3554964,-0.009162978,3
1.5302658081054688,7.215628623962402,2.210886240005493,0.7883045673370361,0.0693332,0.41447207,3
2.110156536102295,5.1602821350097665,2.8183393478393555,0.2087934911251068,-1.6001616,0.80909103,3
2.231484889984131,3.8364312648773193,2.526140689849853,-0.2996816635131836,-1.8521434,1.0812315,3
1.7522939443588257,3.237679481506348,0.9676252007484436,-0.5361036658287048,0.19517145,0.5925393,3
0.5831801891326904,3.4303324222564697,-0.3575335144996643,-0.4459700584411621,-0.14966199,-0.75686204,3
-0.7191344499588013,3.754770040512085,-0.21688435971736908,-0.4966729879379273,-3.5155294,-0.96883225,3
-1.1382030248641968,3.732535600662232,-0.16654807329177854,-0.533674418926239,-3.492011,-0.7861836,3
-0.6904618144035339,4.050196647644043,-1.4823390245437622,-0.3959338366985321,1.5228871000000002,-0.66156703,3
-0.0016525979153811932,5.2961106300354,-1.1587330102920532,-0.1941293478012085,0.42241332,-0.36896262,3
0.8087848424911499,7.144713401794434,0.8063316345214844,-0.21578527987003326,-2.4507914,0.7831292,3
1.6920987367630005,9.162896156311037,2.0508403778076167,-0.20886392891407013,-2.6624563,1.5974126,3
2.336110591888428,10.442214012145996,2.562872886657715,-0.30822980403900146,0.38973203,1.8680259,3
2.4108028411865234,10.978480339050293,2.9531867504119877,-0.484682708978653,1.9712621,1.8622227,3
2.199590921401977,11.716804504394533,3.1684086322784424,-0.6899800896644592,0.45142943,2.4013114,3
1.947501301765442,12.922368049621582,2.2909207344055176,-0.7636675834655762,1.6126842,2.8884764,3
1.296932578086853,14.173707008361815,0.9433552622795104,-0.777414858341217,6.327342,3.2571335,3
-0.08471046388149261,14.827298164367676,1.81644344329834,-0.9043025374412536,4.6331077,1.8839084,3
-1.274471879005432,15.072375297546387,3.658205270767212,-1.4406623840332031,-2.0054705000000004,1.0821478,3
-1.1128939390182495,15.653275489807127,2.631166934967041,-2.0781779289245605,-0.81489426,1.2849549999999998,3
-0.4389088153839111,16.320308685302734,0.3302988111972809,-2.4407713413238525,1.1142181999999998,1.4150693,3
-0.6863003373146057,16.48847770690918,-1.1783549785614014,-2.4468436241149902,1.6875153000000005,1.527774,3
-1.7298320531845093,15.663158416748047,-2.194297313690185,-2.289933681488037,0.65057147,0.9789116,3
-2.551117420196533,14.022042274475098,-3.3451192378997803,-1.9007259607315063,0.14935656,0.75961095,3
-3.2587032318115234,11.968008995056152,-4.314626693725587,-1.3362430334091189,0.30115658,-0.33292156,3
-3.861955404281616,9.978721618652344,-4.21688175201416,-0.7951568961143494,1.4425583,-1.4975362,3
-4.1191277503967285,8.011026382446289,-3.7045512199401855,-0.332691103219986,2.613587,-2.4828618,3
-4.061412334442139,6.267096996307372,-3.050334453582764,0.06775246560573578,0.81000733,-2.7354546,3
-3.9042935371398926,4.767049312591553,-2.5303730964660645,0.5429436564445496,-3.4587190000000003,-2.7580566,3
-3.5823087692260738,4.087177276611328,-3.1691203117370605,1.0808311700820925,0.21685717,-2.1334470000000003,3
-2.925603151321411,4.402900695800781,-3.643054008483887,1.5562983751296997,2.792265,-1.409877,3
-2.5897927284240723,5.862633228302003,-3.212762355804444,2.011269807815552,3.645033,-1.1826351000000002,3
-3.19885778427124,8.131010055541992,-2.1211209297180176,2.4738006591796875,2.386956,-3.163671,3
-3.527073621749878,10.279191970825195,-0.9284665584564208,2.595153570175171,0.32589662,-3.1300735,3
-2.694333791732788,12.076603889465332,-0.5337184667587279,2.72020959854126,-0.65576386,-2.6160305,3
-2.0734548568725586,13.538702964782715,-0.2567782700061798,2.8045663833618164,-0.77579886,-2.8066204,3
-2.494103193283081,14.715593338012695,-0.7955242991447449,2.551849842071533,-0.40133846,-4.1783185,3
-3.328071117401123,15.623945236206055,-1.387374997138977,2.185524702072144,1.7626517,-4.0204096,3
-4.354055404663087,16.155759811401367,-1.73189115524292,1.7264481782913208,3.86189,-3.1884112,3
-5.142862319946289,15.970346450805664,-1.562743067741394,1.3832684755325315,5.8300977,-2.121535,3
-5.180715560913086,14.745034217834473,-0.8535033464431763,1.1408759355545044,6.3047404,-1.4544701999999998,3
-4.102412223815918,12.67747688293457,0.4052287638187408,0.8804535865783691,4.084245,-0.82253003,3
-1.6897215843200684,9.923755645751953,1.80830991268158,0.4154292047023773,0.605062,-0.10476339,3
0.778328537940979,7.1305928230285645,3.1425974369049072,-0.16030718386173248,-2.7580566,0.7892378999999999,3
2.379340648651123,4.963929176330566,4.138411521911621,-0.7263038158416748,-4.9397616,1.3753631000000002,3
3.2216603755950928,3.500528573989868,4.3525733947753915,-1.125368595123291,-5.241224,1.3695598999999998,3
3.746108055114746,2.884845733642578,2.823859691619873,-1.3593670129776,-1.6749926,1.3860532,3
3.957985639572144,3.077958106994629,-0.3051079213619232,-1.3077071905136108,5.2684073,1.7424932,3
2.784062385559082,3.2803375720977783,-2.120444297790528,-1.1895451545715332,4.909524,-0.21838433,3
-0.12126875668764114,3.5903687477111816,-1.4883545637130735,-1.021112084388733,-3.5827246,-1.428203,3
-2.5161383152008057,3.8864259719848633,-0.2967139780521393,-0.8724480271339417,-7.330688499999999,-1.1716396,3
-3.538367748260498,3.491960048675537,0.3083506226539612,-0.7205818295478821,-6.9663070000000005,-1.1233811000000002,3
-3.2162702083587646,2.6421887874603267,0.2193623334169388,-0.6450073719024658,-2.7635543,-0.7910705,3
-1.5653870105743408,2.1980669498443604,-1.7419276237487793,-0.9363072514533995,6.055507,-1.0506883,3
-0.2955286502838135,3.4449591636657715,-0.20468781888484955,-1.1270275115966797,-1.3249667,-0.55833083,3
0.4907500147819519,5.989302635192871,2.538580179214477,-1.4222612380981443,-6.8838406,2.6853635,3
-0.06179128587245941,8.177332878112793,2.7139534950256348,-1.114760160446167,-2.473088,0.32589662,3
-0.07544723153114319,9.740412712097168,2.3052966594696045,-1.0202922821044922,-1.5161675,2.4862216,3
0.3899941742420197,11.278759956359865,2.1575777530670166,-1.0470557212829592,-1.4361442,3.5143077000000003,3
0.30107688903808594,12.796177864074707,2.2896475791931152,-1.1277390718460083,0.2406809,3.1282408,3
-0.5698851943016052,14.094670295715332,2.5757312774658203,-1.1739683151245115,4.6725082,2.1398609,3
-1.7885454893112185,15.158447265625,3.2256760597229004,-1.347604513168335,4.5915685,1.2082913999999998,3
-3.053755044937134,15.995597839355467,3.9578354358673096,-1.5587152242660522,-2.435825,1.2840388,3
-4.332794666290283,16.437498092651367,3.3352842330932617,-1.7584060430526731,-3.678936,1.5534303,3
-5.189115047454834,16.3138427734375,0.8508061170578003,-1.734515905380249,-0.52473325,1.3313808,3
-5.397392749786377,15.449546813964846,-0.9230293035507202,-1.5733929872512815,0.49296826,1.6209308999999998,3
-5.312952995300293,13.713470458984375,-2.09722638130188,-1.4260958433151243,0.9767735,1.269378,3
-5.3670172691345215,11.56205940246582,-2.9091091156005864,-1.1206430196762085,-0.8341365,0.5842925999999999,3
-5.62021017074585,9.31786060333252,-2.802585363388061,-0.6560894250869751,-0.96883225,-0.49113566,3
-5.304947853088379,7.223430633544923,-2.415348768234253,-0.3174659609794617,1.9294178,-0.6798930000000001,3
-4.9276227951049805,5.258296012878418,-1.965801477432251,-0.21190811693668365,1.4016303,-1.0998629,3
-4.7343950271606445,3.486255884170532,-1.95798933506012,0.11054377257823944,-2.2843306,-1.8451185,3
-4.468612194061278,2.252577781677246,-2.6509435176849365,0.5786349773406982,-0.57360244,-1.9327776,3
-3.7860629558563232,2.013135433197021,-3.5638022422790527,0.95380699634552,1.8634444,-1.3741413,3
-2.9342613220214844,2.337256908416748,-3.4487967491149902,1.3591140508651731,1.8723019,-1.2327261,3
-2.288076639175415,2.833204746246338,-2.673313617706299,1.7505377531051636,1.3234396000000002,-1.2855659,3
-2.3664708137512207,4.541173458099365,-2.038942813873291,1.989575147628784,0.91782504,-1.8142698,3
-3.685204029083252,7.067520618438722,-1.6771825551986694,1.9870517253875728,0.24007004,-3.3411274,3
-3.652168273925781,9.415538787841797,-1.413643479347229,2.1859500408172607,-2.1810944,-1.9339994,3
-2.7154948711395264,11.389777183532715,-1.48818838596344,2.358903408050537,-1.3423764,-2.044566,3
-2.549628257751465,12.961052894592285,-1.8475041389465328,2.186227560043335,0.14263703,-2.8096747000000004,3
-3.192614316940308,14.085989952087402,-2.338050842285156,1.9057596921920776,0.6933321,-2.615725,3
-4.602698802947998,14.71498966217041,-2.688964366912842,1.5630890130996704,3.7778962,-2.6829202000000003,3
-5.510082721710205,14.623065948486328,-2.2343990802764893,1.243911862373352,5.669746,-1.0919216,3
-5.021543502807617,13.349605560302734,-0.893462598323822,1.0651867389678955,5.1822753,-0.410196,3
-3.4031715393066406,11.196451187133787,0.8197125792503357,0.8685721158981323,1.9795089,0.2098322,3
-1.1905355453491209,8.544537544250487,2.436899423599243,0.484432727098465,-1.3295482,0.9254609,3
0.6135390996932983,5.968191623687744,3.6812560558319087,-0.10870664566755296,-3.7965274,1.1117748,3
1.548097848892212,4.1154160499572745,4.133810520172118,-0.645224392414093,-5.0793447,1.0042624,3
2.1295111179351807,3.2156779766082764,3.587224006652832,-0.9828400015830994,-4.238183,1.7699821,3
2.707869529724121,3.01842737197876,0.9459249377250672,-1.0190528631210327,5.5790324,3.1422908,3
2.301129102706909,2.807094097137451,-2.2919845581054688,-0.7269232869148254,8.156578,1.0589349,3
0.5970821380615234,2.5978024005889893,-3.037583827972412,-0.4735136330127716,-2.9223793,-2.4083362,3
-1.5932360887527466,2.822002410888672,-1.5875091552734375,-0.537411630153656,-7.0802336,-1.4318681,3
-2.4091105461120605,2.889469146728516,-1.591325044631958,-0.3096126019954681,-6.1236186,-0.7806858,3
-1.8887429237365725,3.714753389358521,-3.0667712688446045,-0.062379419803619385,0.84421575,-0.84207773,3
-1.1753205060958862,5.241811275482178,-1.4755417108535769,-0.14043690264225006,0.09468412,-0.21685717,3
-0.2965730130672455,7.59041166305542,1.2780427932739258,-0.08257250487804413,-3.1801646,1.6615535,3
0.33394020795822144,9.66104507446289,2.875684261322021,-0.10684789717197417,-1.8170186,2.1371121,3
0.7101093530654907,10.732488632202148,3.7285785675048833,-0.2373974919319153,-0.15057829,2.166739,3
0.7983964681625366,11.503155708312988,4.722325801849365,-0.6077068448066711,-1.9336939,2.2977695,3
0.6489749550819397,12.732015609741213,5.141500949859619,-0.9980135560035706,-2.0152445,2.6551259,3
-0.1013798639178276,13.98170566558838,4.578509330749512,-1.1931905746459959,0.5500841999999999,2.2641720000000003,3
-1.3146722316741943,14.991586685180664,3.615565061569214,-1.2290401458740234,1.720502,1.2250903,3
-2.6838748455047607,15.42949104309082,2.5922009944915767,-1.40004301071167,1.9062049,1.0656544,3
-4.0502142906188965,15.522601127624512,2.0617232322692867,-1.7624166011810305,0.73426,1.6887369,3
-5.124208927154541,15.214343070983887,1.5488368272781372,-1.7902480363845823,-1.8603901000000005,1.2657127,3
-5.830054759979247,14.444847106933596,-0.3177107870578766,-1.6956218481063845,-0.6603453,0.6640105,3
-6.015871047973633,13.23342227935791,-1.9377225637435915,-1.5404255390167236,-0.16187929,0.43554693,3
-5.662144184112549,11.428312301635742,-2.7658441066741943,-1.2785881757736206,0.49357912,0.2284636,3
-5.2447590827941895,9.406102180480957,-2.9387993812561035,-0.9532963037490844,-0.4364632000000001,-0.12797627,3
-4.794663429260254,7.41091251373291,-2.8089759349823,-0.6266192197799683,0.4636467000000001,-0.28955013,3
-4.317502498626709,5.509900569915772,-2.525426387786865,-0.4169824123382568,1.4480561,-0.4202753,3
-4.0076379776000985,3.770398139953613,-2.364853858947754,-0.17160269618034366,0.25503623,-0.9669997,3
-3.962939739227295,2.3889262676239014,-2.564641237258911,0.2393486499786377,-1.2647965,-1.7950275000000002,3
-3.692200183868408,2.0218398571014404,-3.149693250656128,0.6942026019096375,1.1200215,-1.6181821,3
-2.875490665435791,2.583644390106201,-3.0579490661621094,1.072651743888855,2.4037547000000004,-1.2235631,3
-2.20913314819336,3.364775419235229,-2.1864862442016597,1.4519792795181274,1.2541064,-1.2095132,3
-2.5340147018432617,5.1168365478515625,-1.7510075569152832,1.7598180770874023,0.13836098,-2.1804836,3
-3.564136743545532,7.56602668762207,-1.6882063150405884,1.8460217714309688,0.002443461,-3.2870660000000003,3
-3.615198850631714,9.81718921661377,-1.7773032188415527,1.9904230833053589,-1.1927143,-2.4651468,3
-2.611949920654297,11.703847885131836,-1.776755928993225,2.198090076446533,-1.5968018,-1.4871514,3
-1.5915021896362305,13.192439079284668,-1.6913739442825315,2.200807809829712,-1.707063,-1.8005253,3
-1.94752299785614,14.035569190979006,-1.9614245891571045,1.9830416440963743,-0.9950995,-2.2375994,3
-3.279926300048828,14.53487777709961,-2.1541051864624023,1.7299429178237915,0.9584476,-2.468812,3
-4.9265780448913565,14.889625549316404,-2.4137041568756104,1.3810676336288452,3.4837644,-1.8225164,3
-6.108189105987549,14.598992347717285,-2.431831359863281,1.0497287511825562,5.4021870000000005,-0.80878556,3
-5.936235427856445,13.285126686096193,-1.7580122947692869,0.7328622341156006,4.693278,0.032375857,3
-4.283012390136719,10.90462589263916,-0.5811219811439514,0.4096226394176483,2.8295279,0.58123827,3
-2.26406478881836,8.457561492919924,0.7566403746604919,0.02547686174511909,-0.07696902,1.142318,3
-0.6545719504356384,6.364311218261719,2.0546586513519287,-0.4560165405273438,-3.4223726,1.5570955,3
0.4718469083309174,5.093059539794922,2.6425368785858154,-0.8764519095420837,-5.5020633000000005,2.0042489,3
1.2248492240905762,4.697021961212158,1.2654430866241455,-1.0800375938415527,-2.118786,2.5653286,3
1.0861107110977173,4.455734729766847,-1.3484703302383425,-1.0037856101989746,3.6050212,1.3078625,3
-0.2605137825012207,4.109278678894043,-2.3424971103668213,-0.8225802183151245,1.8048013,-0.8854492,3
-1.790637731552124,3.7107412815094,-1.6548137664794922,-0.7416521906852722,-3.0497448,-1.2855659,3
-2.3277595043182373,3.0663325786590576,-0.993452250957489,-0.6028209328651428,-3.6120462,-0.75502944,3
-2.219188690185547,2.519861459732056,-1.7795621156692505,-0.3439319133758545,-2.0931299,-0.8020661,3
-1.2342514991760254,3.2630598545074463,-4.1724796295166025,-0.03410671651363373,2.3518312000000003,-0.11178834,3
-0.7537540793418884,4.55071496963501,-2.0804250240325928,0.22018112242221832,-3.4797937999999995,-0.408058,3
-0.39525198936462397,6.731858730316162,0.9532456398010254,0.23473092913627625,-6.384153,2.4788911,3
0.17279262840747833,8.738522529602049,2.5313849449157715,0.15185397863388062,-4.1383066,2.2922719,3
0.8006933331489563,9.585366249084473,3.119482517242432,-0.032016824930906296,-0.57726765,2.1465805,3
0.7828339338302612,10.236939430236816,3.4965133666992188,-0.5126991271972656,0.21624629,2.1282544,3
-0.03645159304141998,11.59488010406494,3.708951234817505,-0.8945062756538391,-0.5222898,2.417194,3
-1.4948400259017944,13.039047241210938,3.380455493927002,-0.9130972623825072,-0.24709499,1.7027868999999998,3
-3.1984293460845947,14.096700668334961,2.5739026069641118,-0.8347500562667847,2.0693061000000004,1.1166617,3
-4.626851558685303,14.326148986816404,1.4938372373580933,-1.1415889263153076,3.2840116000000004,1.4107933,3
-5.397420883178711,14.35816764831543,0.7579644918441772,-1.472841501235962,2.6832256,2.2091942,3
-5.528820037841797,14.032414436340332,1.2191003561019895,-1.5926802158355713,-1.3579534,1.4217888,3
-5.2312517166137695,13.507003784179688,0.5173965096473694,-1.548714518547058,-1.0729848,1.3518448,3
-4.993912696838379,12.691407203674315,-1.1740623712539673,-1.4234731197357178,0.07299839999999999,0.8539896,3
-5.093681335449219,11.435418128967285,-2.1481940746307373,-1.211419701576233,0.27122417,0.34116822,3
-4.980003356933594,9.805631637573242,-2.5052566528320312,-0.9167004823684692,-0.2773328,0.06414085,3
-4.724484443664551,7.970345973968506,-2.625235319137573,-0.5534788370132446,-0.473726,-0.40683624,3
-4.528261661529541,6.095975875854492,-2.4964470863342285,-0.2882792055606842,0.72173727,-0.84574294,3
-4.564209461212158,4.340466499328613,-2.6544458866119385,-0.07084289938211441,0.113926366,-1.5894713,3
-4.605706214904785,3.239189863204956,-2.954474687576294,0.3675888180732727,-0.081855945,-1.5882497,3
-4.376319885253906,3.025327444076538,-2.9527816772460938,0.7765016555786133,0.74189585,-1.2205088,3
-3.7096662521362314,3.45884108543396,-2.260040044784546,1.1619809865951538,0.8445212,-1.1917981000000002,3
-3.563564777374268,4.696662425994873,-2.097952127456665,1.424663543701172,1.1392636,-2.2507330000000003,3
-4.3742356300353995,6.968539714813232,-2.400197505950928,1.4608769416809082,2.8704557,-2.6752844,3
-5.352188587188722,9.268961906433104,-1.9586671590805051,1.663860321044922,1.0421360999999998,-2.4868324,3
-5.074545860290527,11.24683952331543,-1.1508474349975586,1.916673302650452,-1.4471397,-1.3747523,3
-4.005633354187012,12.83768367767334,-0.7093393802642822,2.0383501052856445,-1.9385809,-1.4559973,3
-3.6497101783752437,13.826316833496096,-0.9000329971313477,1.9014991521835327,-0.68019843,-1.9938642,3
-4.158043384552002,14.108756065368652,-1.2230546474456787,1.6795626878738403,0.19883664,-1.8997909,3
-5.13280200958252,14.050615310668945,-1.3840328454971311,1.3795058727264404,2.0738876,-1.9672915,3
-5.844496250152588,13.699666976928713,-1.2229698896408079,1.0882496833801272,3.8719695,-1.2534955,3
-5.398311138153076,12.724298477172852,-0.6058065891265869,0.787054181098938,3.8035524,-0.5671884,3
-3.990303754806519,11.094295501708984,0.17611993849277496,0.4252156317234039,2.2266037,0.0421497,3
-2.2397997379302983,9.177565574645996,0.9242611527442932,0.017980948090553284,0.18570304,0.6704246,3
-0.7395363450050354,7.174309730529785,1.7132363319396973,-0.43528097867965704,-1.6007724,1.2751812,3
0.3082736730575561,5.430304050445557,2.0193872451782227,-0.7999337315559387,-2.503631,1.851838,3
0.7429007887840271,4.138133049011231,0.9381195902824402,-0.9645741581916808,-0.344528,1.5882497,3
0.18133674561977384,3.423027515411377,-0.9100059866905212,-0.9522971510887146,2.631913,0.5757405,3
-1.311380386352539,2.9120981693267822,-2.1206424236297607,-0.757332444190979,1.3634512,-1.2208142,3
-2.3543002605438232,2.471541404724121,-1.940492033958435,-0.5631143450737,-2.1267273,-1.1972959,3
-2.538548707962036,1.94034481048584,-1.5280619859695437,-0.4281691908836365,-3.76293,-1.0115929,3
-1.860509276390076,1.5696661472320557,-2.779912233352661,-0.2444736063480377,-1.7421877,-0.46578476,3
-0.4563980996608734,2.247828722000122,-5.040548324584961,-0.1638094037771225,2.6404650000000003,-0.049480084,3
-1.0617640018463137,4.663222789764403,-2.8949403762817383,-0.1428648680448532,-3.1059444,-0.5644395000000001,3
-1.866684436798096,7.331952095031737,0.22150197625160215,-0.3151049017906189,-4.911356400000002,1.1322386999999998,3
-1.8828669786453247,9.340155601501463,1.2594037055969238,-0.19762690365314484,-1.625207,0.9111055,3
-1.0093637704849243,10.186726570129396,1.5132001638412476,-0.2343088984489441,-0.19608775,2.1310034,3
-0.08663168549537659,10.876385688781738,1.6566764116287231,-0.4814654886722565,0.0076358155,2.871372,3
0.31183338165283203,12.055354118347168,2.1752562522888184,-0.6144309639930725,-0.80573124,2.6166412999999995,3
0.030618358403444287,13.38076400756836,2.452185869216919,-0.6504510045051575,0.084910266,2.5265386000000003,3
-0.8930012583732605,14.528985977172852,2.235136747360229,-0.7606394290924072,1.6841555,2.1697934,3
-2.2173442840576167,14.898811340332033,1.6169509887695312,-1.0163357257843018,1.9819523,1.813659,3
-3.2578587532043457,14.760974884033205,1.0866533517837524,-1.2674988508224487,2.1468859,2.0668626,3
-3.9180300235748287,14.22171688079834,0.8891083598136902,-1.4601136445999146,0.75747293,1.5909985,3
-4.283947467803955,13.46639919281006,0.4938872158527374,-1.524618148803711,-0.75991637,1.2406673,3
-4.654791355133057,12.48839282989502,-0.6271962523460388,-1.530795335769653,-0.8426886,0.99112886,3
-4.968822479248047,11.368032455444336,-1.7293517589569092,-1.4477815628051758,-0.2761111,0.2968805,3
-4.989010810852051,10.037775039672852,-2.361880302429199,-1.235084056854248,-0.3622431,0.19608775,3
-4.6084632873535165,8.380878448486326,-2.663269281387329,-0.9507507085800172,-0.5030475000000001,0.050701816,3
-4.102325439453125,6.652641773223878,-2.818397760391236,-0.6647142171859741,-0.009162978,-0.13775012,3
-3.721409559249878,5.06580924987793,-2.8287155628204346,-0.4241938292980194,0.689056,-0.42332962,3
-3.632170200347901,3.7051999568939213,-2.8605520725250244,-0.17325332760810852,-0.1600467,-1.1096367,3
-3.611451625823975,2.9095766544342037,-3.1287992000579834,0.23774316906929016,-0.8717046999999999,-1.2296717,3
-3.267079591751098,2.827458143234253,-3.3644199371337886,0.6775513887405396,0.30695978,-0.9379836,3
-2.545306205749512,3.237760066986084,-2.671621084213257,1.04534649848938,0.10415252,-1.0308351999999998,3
-2.2464890480041504,4.324801445007323,-2.1205682754516597,1.3041219711303709,0.8170323,-1.9685133,3
-2.9139552116394043,6.494364738464356,-2.416384220123291,1.4037883281707764,2.4596488,-2.2870796,3
-3.3330612182617188,8.943217277526855,-1.9699699878692627,1.6556488275527954,-0.022296581,-2.1704042,3
-2.798006534576416,10.999517440795898,-1.4374741315841677,1.9149324893951416,-2.1762075000000003,-1.4376713,3
-2.0655038356781006,12.673213005065918,-1.1929363012313845,2.0293874740600586,-2.8243356,-1.806634,3
-2.0926318168640137,13.75071620941162,-1.409396767616272,1.9581183195114136,-0.7987063,-1.604743,3
-3.104200839996338,14.073488235473633,-1.670717716217041,1.790671944618225,0.4373795,-1.815186,3
-4.67946195602417,14.124879837036133,-1.96438729763031,1.5330846309661863,4.1560216,-1.5311338,3
-5.472845554351807,13.631879806518555,-1.4346930980682373,1.294281005859375,4.430911,-1.0512991000000005,3
-4.711842060089111,12.472677230834961,-0.4017005562782288,1.0310173034667969,3.5839465,-0.605062,3
-2.9251830577850337,10.76504611968994,0.7848703265190125,0.6650495529174805,1.462106,-0.27091873,3
-0.913278341293335,8.759634971618652,1.8848048448562624,0.22086526453495026,-1.0219775,0.25411993,3
0.7340192198753357,6.837377071380615,2.7259411811828613,-0.2828454673290253,-3.3597589,0.85062987,3
1.770733118057251,5.35567045211792,2.7988433837890625,-0.6859463453292847,-3.7659843,1.4456125,3
2.351705312728882,4.329759120941162,1.5028076171875,-0.907846987247467,-0.44073927,1.8026633,3
1.9134756326675413,3.69567608833313,-0.9227523803710938,-0.8858781456947327,2.6551259,1.1291844,3
-0.1602758914232254,3.1405038833618164,-1.8751974105834959,-0.791883647441864,-1.4428637,-0.7699956,3
-2.296588659286499,2.6791391372680664,-1.4285082817077637,-0.6761069893836975,-3.578143100000001,-0.6798930000000001,3
-2.5435161590576167,2.233508825302124,-0.9818915128707886,-0.5269309282302856,-3.5958583,-0.6020076999999999,3
-2.0520436763763428,1.9818778038024905,-2.65482497215271,-0.3025448024272919,0.52931476,-0.49327368,3
-1.68894624710083,2.6657960414886475,-2.9511489868164062,-0.2151809483766556,-0.08979719,-1.4059063,3
-1.8419411182403564,4.588420867919922,-0.08036995679140091,-0.2083229422569275,-2.5259278,0.10598512,3
-1.4132136106491089,7.178082942962647,2.254969596862793,-0.2983956933021545,-2.7021625,2.5244007,3
-0.8065384030342102,9.109761238098145,3.327049732208252,-0.3400335907936096,-1.5201381,2.3530529,3
-0.1333361119031906,9.94653606414795,3.677642822265625,-0.5047603845596313,-0.2003638,2.1633792,3
0.3800179064273834,10.842079162597656,3.7733986377716064,-0.794389545917511,-0.38545597,2.4514022,3
0.5995966196060181,12.25364875793457,3.6891388893127437,-0.9392675757408142,-0.92485,3.091589,3
-0.11986113339662552,13.610487937927244,3.2961316108703613,-1.0048058032989502,1.6988163,2.2333232999999995,3
-1.581696629524231,14.625435829162598,2.8244452476501465,-1.212613582611084,2.9104674,1.1508701,3
-3.0807459354400635,15.183958053588867,2.1675858497619633,-1.4683334827423096,2.5830436000000003,1.5155567,3
-4.272569179534912,15.312294006347654,1.7061163187026978,-1.6466332674026491,0.61453044,1.779756,3
-4.9155097007751465,14.761350631713867,1.6349859237670898,-1.6689926385879517,-1.8622227,1.1142181999999998,3
-5.139581203460693,13.764152526855467,0.021268423646688458,-1.570145845413208,-0.6310238,0.90377516,3
-5.23808479309082,12.343029975891113,-1.1561816930770874,-1.4041317701339722,0.02076942,0.72509706,3
-5.119397640228272,10.59868049621582,-1.9377700090408323,-1.2333555221557615,0.10140363,0.52381694,3
-5.127580642700195,8.716601371765138,-2.339306354522705,-0.924025535583496,-0.2666427,0.020158553,3
-5.04888391494751,6.852658748626709,-2.299101591110229,-0.6084048748016357,0.5045747,-0.52687126,3
-4.81268835067749,5.093870162963867,-2.1978321075439453,-0.4297466278076172,2.3383923,-0.7632760999999999,3
-4.811782360076903,3.4262259006500244,-2.1483597755432133,-0.26894432306289673,0.63071835,-1.6389513999999998,3
-4.659887790679932,2.3785107135772705,-2.6870574951171875,0.1976429522037506,-0.4251622000000001,-2.105958,3
-4.0652174949646005,2.387519121170044,-3.5695273876190186,0.6967076063156128,1.8686367,-1.7919732,3
-3.0220179557800293,2.9173176288604736,-3.5777602195739746,1.128128170967102,1.8829921000000005,-1.3026701,3
-1.999840497970581,3.6705133914947514,-2.5453007221221924,1.5662734508514404,0.7171558000000001,-1.0638218000000002,3
-1.8239262104034424,5.051610946655273,-1.7613215446472168,1.9683094024658203,0.47067168,-1.6471981,3
-3.254002094268799,7.555198669433594,-1.7219278812408447,2.101510763168335,1.6520851000000003,-2.8426614,3
-3.697221755981445,9.814933776855467,-1.4297192096710205,2.2698659896850586,-0.43860126,-2.2626447999999995,3
-2.575576066970825,11.70159912109375,-1.0736441612243652,2.562630414962769,-2.3145685,-1.0558805,3
-1.2107932567596436,13.233115196228027,-1.0843915939331057,2.5541112422943115,-1.632232,-1.2742649,3
-1.7226839065551758,14.194798469543455,-1.6286473274230957,2.2814083099365234,-0.3295618,-2.4825563,3
-3.64560341835022,14.652174949645994,-2.279231309890747,1.9210712909698489,1.4370605,-2.701246,3
-5.436094760894775,14.556008338928224,-2.47760272026062,1.5429171323776243,4.0274343,-1.3723087,3
-5.624814033508301,13.376870155334473,-1.6234153509140017,1.212363600730896,4.540561,0.005192355,3
-4.622575283050537,11.318739891052244,-0.30282458662986755,0.9422143697738647,3.109915,0.49296826,3
-2.7100729942321777,8.852814674377441,1.043543815612793,0.6123906970024109,0.22113322,1.1847731,3
-0.7611784338951111,6.489689350128174,2.208947896957397,0.1465819925069809,-2.7507262000000003,1.4596626,3
0.7149770855903625,4.898355007171631,2.8232924938201904,-0.3744101524353027,-4.3111815,1.7012596999999998,3
1.7805606126785278,4.006042957305908,2.213360071182251,-0.787584125995636,-2.4712553,2.3212879,3
2.1826376914978027,3.2781391143798833,0.01801365241408348,-0.9880147576332092,2.708271,1.9507982,3
0.9558022618293762,2.9753077030181885,-1.5102659463882446,-0.9995402097702026,2.4877486,-0.11484267,3
-1.324185848236084,2.9331283569335938,-1.1835885047912598,-0.985467493534088,-2.7742445,-1.2333368999999998,3
-2.729804277420044,2.6089930534362797,-0.573074996471405,-0.96048504114151,-3.976122,-0.7101309,3
-2.9526462554931636,2.1856160163879395,-0.1366196870803833,-0.8051838278770447,-3.5628714999999995,-0.47525316,3
-2.637167692184448,1.9332826137542725,-1.0964316129684448,-0.5803049802780151,0.09621128,-0.35735616,3
-2.1106293201446533,2.571006298065185,-3.5265703201293945,-0.4056425988674164,2.2449298,-0.514654,3
-1.6859085559844968,3.944045066833496,-1.8573980331420896,-0.3693943023681641,-2.6942213,-0.23609942,3
-1.0903279781341553,6.4567012786865225,1.2174241542816162,-0.431311160326004,-5.3517904000000005,2.554333,3
-0.30540382862091064,8.476600646972656,2.4862048625946045,-0.3579884171485901,-2.722321,2.0775528000000003,3
0.5104312896728516,9.165321350097656,2.97130823135376,-0.3606584072113037,-0.70646566,2.4605650000000003,3
0.8512849211692809,10.055611610412598,3.342718601226806,-0.6124988198280334,-0.23090707,2.4113905,3
0.5128651261329651,11.597895622253418,3.47908091545105,-0.8085451722145081,1.0622946000000002,2.77455,3
-0.6432932019233704,13.074020385742188,3.5227913856506348,-0.86384117603302,2.9843822,2.0995438,3
-2.083049297332764,14.026840209960938,3.5711553096771236,-0.9711851477622986,1.5485435,1.0247264,3
-3.2814054489135738,14.447837829589846,2.968735218048096,-1.2631069421768188,0.8604037,1.4877623,3
-4.075853824615479,14.798093795776367,2.5550992488861084,-1.5846943855285645,-1.0595458,1.7284433,3
-4.362569808959962,14.932135581970215,1.6230927705764768,-1.6278741359710691,-1.9465221,1.3267993,3
-4.495882511138916,14.579943656921387,-0.3542177975177765,-1.508084058761597,0.1554652,1.0769554,3
-4.680627346038818,13.592822074890135,-1.7717634439468384,-1.3802685737609863,0.13164146,1.0436633,3
-4.617298126220703,11.985495567321776,-2.760833978652954,-1.1593313217163086,0.040011674,0.61361414,3
-4.588825702667236,10.035663604736328,-3.107682466506958,-0.7536510825157166,-0.80664754,0.023823744,3
-4.641420841217041,7.977339744567871,-2.761541843414306,-0.3822987079620361,-0.14385876,-0.60903263,3
-4.5714192390441895,5.880730152130128,-2.331703424453736,-0.18234072625637052,1.2626585,-1.0650436,3
-4.747294425964356,3.922228574752808,-2.371298551559448,0.074888214468956,-1.2122620000000002,-2.0781636000000003,3
-4.848493576049805,2.702901601791382,-3.0437514781951904,0.5824321508407593,-1.1386528,-2.3893993,3
-4.445336818695068,2.6334550380706787,-3.507963895797729,0.986674427986145,2.1111503,-1.5457945,3
-3.659914255142212,3.0957555770874023,-2.8665127754211426,1.3379342555999756,2.155438,-1.2986995,3
-3.2438983917236333,4.0914626121521005,-2.3686277866363525,1.6266100406646729,1.1224649,-2.0610592,3
-3.972905158996582,6.303189277648926,-2.5312986373901367,1.7141141891479492,2.2815816000000004,-2.9926288,3
-4.3350510597228995,8.755180358886719,-2.0002403259277344,1.9399306774139404,0.13775012,-3.1987958,3
-3.3247551918029785,10.845237731933594,-1.43523371219635,2.19846510887146,-2.0552561000000003,-1.6798794,3
-2.0411102771759038,12.547335624694824,-0.9953219890594482,2.3478257656097408,-2.0622811000000003,-1.3909402,3
-2.254417181015014,13.85740566253662,-1.157719969749451,2.17591404914856,-0.24465153,-2.4437664,3
-3.767533302307129,14.466727256774902,-1.574676752090454,1.886768102645874,0.39950588,-2.9358184,3
-5.753578186035156,14.64182186126709,-2.0523135662078857,1.5560224056243896,2.853657,-2.6349673,3
-7.011858940124513,14.524251937866213,-2.1245572566986084,1.2121264934539795,5.5066447,-1.3955216,3
-6.764504432678223,13.538582801818848,-1.2184981107711792,0.9250662922859192,5.278792,-0.5534439,3
-5.066634654998778,11.409049034118652,0.0013640670804306865,0.6095181107521057,3.4999523,0.01985312,3
-2.775090456008911,8.902321815490723,0.7626192569732666,0.18613703548908234,2.0485365,0.6426301999999999,3
-0.8990549445152283,6.746267318725586,1.7723687887191772,-0.34366104006767273,-0.43157628,1.047023,3
0.3821222484111786,5.092033863067627,2.65205717086792,-0.9385563731193542,-3.3567045,1.7941113000000002,3
1.2291531562805176,3.8109591007232666,1.8935946226119995,-1.2989968061447144,-1.8191566000000003,2.1810944,3
1.1177210807800293,3.159945249557495,-0.17376624047756195,-1.2438656091690063,1.5864171,0.5421429,3
-0.4099506437778473,3.06118106842041,-1.4120677709579468,-1.083858847618103,0.03604105,-1.743104,3
-1.6602823734283447,2.9245615005493164,-2.1758468151092534,-0.8641201853752136,-1.4740178999999998,-1.4914275,3
-2.0438523292541504,2.3406777381896973,-2.1124742031097408,-0.6037470698356628,-4.783075,-1.1502593,3
-1.7009619474411009,1.755115032196045,-2.1880567073822017,-0.29892197251319885,-3.616933,-0.3866777,3
-0.039207447320222855,1.999244213104248,-4.397809028625488,-0.2214217334985733,2.3112087000000003,0.5393939999999999,3
0.3894731402397156,4.0166730880737305,-2.32497501373291,-0.26107314229011536,-5.734192,0.04550946,3
0.3995068371295929,6.842968463897705,0.4865285456180573,-0.4399115741252899,-6.707911500000002,3.4266486000000005,3
0.39953938126564026,8.833223342895508,1.4220249652862549,-0.4692780077457428,-2.251344,1.9682078,3
0.5633099675178528,9.51154327392578,1.834439992904663,-0.6351169943809509,-1.4596626,2.1615467,3
0.4955134689807892,10.350646018981934,2.200643301010132,-0.8194242119789124,-1.5063937,3.0283644,3
0.06780213862657547,11.78079319000244,2.533292293548584,-0.9525195360183716,-0.70616025,3.118467,3
-0.9434779286384584,13.208176612854006,2.5279135704040527,-1.0070499181747437,3.288593,2.7989845,3
-2.286487102508545,14.108019828796387,2.66357684135437,-1.0449219942092896,3.4187074,1.8277088,3
-3.3944664001464844,14.402456283569336,2.6277759075164795,-1.2533568143844604,2.078469,1.754405,3
-4.0783467292785645,14.519364356994627,2.488612651824951,-1.5825505256652832,-0.49663344,1.7290541,3
-4.383040904998778,14.51065158843994,2.282111644744873,-1.71150803565979,-1.8112154,1.2745703000000002,3
-4.7243475914001465,13.989493370056152,0.9705337882041932,-1.7041808366775513,-0.26206118,0.9560041,3
-4.895214080810547,12.970108032226562,-0.4339276850223541,-1.7211955785751345,0.9315695,1.3927728,3
-4.804191112518311,11.394482612609865,-2.24393630027771,-1.6555159091949463,0.7870999,0.93676186,3
-4.610419750213623,9.77715015411377,-3.5908000469207764,-1.2429924011230469,-1.2382239,0.36713,3
-4.817354679107666,8.125387191772461,-3.46804141998291,-0.6854133009910583,-1.4602734,-0.38789943,3
-4.6895623207092285,6.4770164489746085,-2.9486398696899414,-0.20945566892623899,0.33658674,-0.96669424,3
-4.262564182281493,4.957561016082764,-2.4340052604675293,0.04929966107010842,1.9660698,-0.9822713,3
-4.068448543548584,3.5078999996185303,-2.0000333786010738,0.2662021219730377,-2.1966715,-1.5109752,3
-4.246997833251953,2.2511909008026123,-2.7342634201049805,0.7368993759155273,-2.2696697999999995,-2.406809,3
-3.9158937931060787,1.9782414436340328,-3.483710289001465,1.0593023300170898,3.2296445,-1.8020525,3
-3.4344255924224854,2.294775485992432,-2.9324772357940674,1.325400710105896,3.6447275,-1.6667458,3
-3.781895637512207,3.88013768196106,-1.7017483711242676,1.7012891769409182,0.070249505,-2.4443772,3
-5.266180038452148,6.481494426727295,-0.9007528424263,1.7805416584014893,-0.8875871999999999,-3.0369165,3
-5.517496109008789,8.928877830505371,-1.152485489845276,1.941544890403748,-0.3753767,-1.7941113000000002,3
-4.105097770690918,10.985419273376463,-1.3728326559066772,2.1591019630432133,-0.72601336,-0.5216789000000001,3
-2.568661689758301,12.6493558883667,-1.2904808521270752,2.2855849266052246,0.63804877,-0.97066486,3
-2.0803542137146,13.795736312866213,-1.0227417945861816,1.966874957084656,-0.14049901,-2.4877486,3
-3.01103949546814,14.530278205871582,-1.2570374011993408,1.7071696519851685,1.4440855,-2.6273315,3
-4.691792964935303,14.789183616638185,-1.30988872051239,1.3624509572982788,4.197560299999999,-2.1022928,3
-4.980329036712647,13.81633758544922,-0.5156286954879761,1.0684056282043457,5.093089,-1.0180069,3
-3.7715036869049072,11.910677909851074,0.8217016458511353,0.7981277704238892,3.6383133,-0.39858958,3
-1.453522562980652,9.554243087768556,2.316605806350708,0.4318701922893524,0.39584067,0.15821409,3
0.7248838543891907,7.180130958557129,3.533292293548584,-0.14853107929229736,-2.7061331,0.6450737,3
2.1272230148315434,5.362441062927246,3.786232948303223,-0.7143446803092957,-4.04179,1.2803736,3
3.011457920074463,4.2800822257995605,2.7463810443878174,-0.9851350188255309,-2.866485,1.8429805,3
3.2586145401000977,3.6017966270446777,0.3435244858264923,-0.9796409010887146,1.9795089,1.1936307,3
2.336904525756836,2.995567798614502,-1.4175370931625366,-0.8613392114639282,1.7504343999999998,-0.3145956,3
0.4554786682128906,2.3229458332061768,-1.5012277364730835,-0.7713767886161804,-2.787378,-0.98807454,3
-1.040888428688049,1.9179332256317136,-1.0798354148864746,-0.6760908961296082,-4.2024474000000005,-0.50488013,3
-1.635643720626831,1.664858102798462,-0.8994119167327881,-0.545654296875,-4.318817,-0.52442783,3
-1.696092963218689,1.7563236951828003,-2.3039464950561523,-0.20756834745407104,0.41813725,-0.78038037,3
-1.5248684883117676,3.0568420886993413,-2.867408275604248,-0.042870573699474335,-0.6227771,-1.7101171999999998,3
-1.3884087800979614,5.475771427154541,0.3548028171062469,-0.22015124559402466,-3.302032,1.2519683,3
-0.8574387431144714,7.954908847808838,2.913916110992432,-0.3694805800914765,-4.0833287,2.1820107,3
0.018117016181349758,9.168912887573242,3.901845216751098,-0.4834856688976288,-1.7327193,2.2815816000000004,3
0.8635985851287842,10.083048820495604,4.219841480255127,-0.7871413230895996,-1.3833044,2.8053987,3
1.2900184392929075,11.38756275177002,4.190897941589356,-0.953815758228302,-1.6432275,3.3545666,3
0.7916582822799683,12.83281421661377,3.797282457351685,-1.0496592521667478,1.5632042,3.5057557,3
-0.6414387822151184,14.114553451538086,3.403589963912964,-1.1840585470199585,5.070792,1.9168952,3
-2.2216615676879883,15.171621322631836,3.4482343196868896,-1.4728530645370483,4.3105707,1.464244,3
-3.6618518829345694,15.971409797668455,3.449354410171509,-1.7568061351776123,-0.24587326,2.1010711,3
-4.897339344024658,15.888041496276855,3.0764646530151367,-1.9007887840271,-3.050661,0.7993172,3
-5.249106407165527,15.296281814575195,1.008945107460022,-1.7894412279129028,-0.8885035,0.6899723000000001,3
-4.535830020904541,14.210135459899902,-1.181873083114624,-1.558063268661499,0.7089091,1.0922271,3
-3.9733400344848633,12.551124572753904,-2.596090316772461,-1.3062254190444946,-0.41783184,1.1078042,3
-4.22415828704834,10.693713188171387,-3.3329589366912837,-0.8249433636665344,-1.1374311,0.3930918,3
-4.714407444000244,8.689440727233888,-3.101177215576172,-0.3075600564479828,-0.110872045,-0.6087272,3
-4.64829158782959,6.71449089050293,-2.577223539352417,0.0325128510594368,1.2070698,-0.90133166,3
-4.412328720092773,4.785810947418213,-2.1394762992858887,0.22016632556915286,-1.0424415,-1.349096,3
-4.410541534423828,3.1134521961212163,-2.496035575866699,0.5908551812171936,-2.1972822999999995,-2.3918428,3
-4.318204879760741,2.2903971672058105,-3.6088266372680655,0.9944030642509459,1.3429873,-2.3270912,3
-4.040609836578368,2.359959840774536,-3.9096386432647705,1.304471135139465,3.0228667,-2.1481075,3
-3.707062244415283,2.8239998817443848,-3.2092320919036865,1.6265294551849363,3.623958,-2.0433443,3
-4.2753891944885245,4.275158882141113,-1.7756109237670898,1.991876006126404,0.36713,-2.6502388,3
-5.95012092590332,6.739364147186278,-1.2431936264038086,2.1211493015289307,-0.8790351000000001,-3.288593,3
-6.060220718383789,9.123116493225098,-2.0128114223480225,2.2726869583129883,1.4859296999999998,-2.0421226000000003,3
-4.6346702575683585,11.138589859008787,-2.055583000183105,2.533086061477661,0.43310347,-1.0149527,3
-3.0445055961608887,12.783778190612793,-1.6353884935379028,2.67859411239624,-0.4896085,-1.7046194,3
-2.08172345161438,14.098020553588867,-1.6839169263839722,2.5410268306732178,-0.25076020000000004,-2.147802,3
-2.76011323928833,14.900311470031738,-1.8957123756408687,2.246215343475342,1.2464706,-2.4483478,3
-4.386758327484132,15.027914047241213,-2.075403213500977,1.8135346174240112,3.890906,-2.0091357,3
-5.483866214752197,14.40182399749756,-1.8341470956802368,1.409351825714111,4.791627,-1.0021244,3
-5.020456790924072,12.446972846984865,-1.0635571479797363,1.0345578193664549,4.3747115,0.050701816,3
-3.400343418121338,9.722393989562988,0.13018587231636047,0.5883336067199707,2.0210476,0.56779927,3
-1.6124601364135742,6.89871883392334,1.8504319190979004,0.05691473931074144,-1.8295414,1.2760975,3
-0.3195419907569885,5.0794029235839835,3.342900514602661,-0.5866349339485168,-5.407379,1.711339,3
0.6953831315040588,4.350800514221191,3.272765636444092,-1.0640509128570557,-5.658139,2.3945918,3
1.5012971162796018,4.097977638244629,0.7342655658721924,-1.141157865524292,-0.14477506,2.0060816000000004,3
1.1806247234344482,4.036654472351073,-2.1753778457641597,-0.8724820017814636,5.021923,0.7247916,3
-0.600417971611023,3.8404417037963863,-2.6987595558166504,-0.5729989409446716,2.1264220000000003,-1.5549575,3
-2.4734764099121094,3.5697515010833736,-1.3954578638076782,-0.5554146766662598,-3.9965858,-1.246776,3
-3.1437287330627437,2.928219079971313,-0.38018763065338135,-0.4285140931606293,-5.1682253,-1.0778716999999998,3
-3.0080814361572266,2.755536794662476,-1.1113570928573608,-0.07482867687940598,-0.6957755,-0.9761627,3
-1.9089491367340088,3.9536099433898926,-2.2591474056243896,0.21917572617530826,-0.16982053,-0.9059132,3
-0.9786210060119628,5.31001091003418,0.1646483838558197,0.14978483319282532,-4.4816127,0.5549710999999999,3
-0.0731186717748642,7.482687950134277,3.140820026397705,0.04515935108065605,-6.437908599999999,3.6053267,3
0.7697654962539673,9.50873851776123,5.044598579406738,-0.2494503110647201,-2.819143,3.5259142,3
1.100403070449829,10.471979141235352,5.073277950286865,-0.6286842823028564,-0.2678644,2.9135218,3
0.8004328608512878,11.773216247558596,5.076049327850342,-0.9902308583259584,-1.1044444,3.6468656,3
-0.6436411738395691,13.176321983337402,4.542254447937012,-1.292206645011902,-0.09865474,3.364035,3
-2.854363203048706,14.376590728759766,3.787980794906616,-1.2146602869033811,2.2794437000000003,1.2709051000000002,3
-4.811540603637695,15.099344253540039,3.0142548084259038,-1.207898736000061,2.0317378,1.0213667,3
-5.930107593536378,15.571227073669435,2.1317896842956543,-1.6382416486740112,0.6597345,2.2385156000000004,3
-6.322422504425049,15.211614608764648,1.6612852811813354,-1.7137131690979004,-1.815186,1.1685852,3
-6.382827758789063,14.362489700317385,0.2484776973724365,-1.5955553054809568,-0.06597344599999999,0.7101309,3
-6.111446857452393,13.119319915771484,-1.0790486335754397,-1.4967676401138306,0.8891144,0.9398162,3
-5.602932929992676,11.303922653198242,-2.3649230003356934,-1.3305400609970093,0.1695151,0.71837753,3
-5.387996196746826,9.39196491241455,-3.071798086166382,-0.8735190033912659,-0.6927211999999999,-0.1994475,3
-5.30651330947876,7.390122413635254,-2.754965782165528,-0.4123876392841339,1.7831156000000004,-0.40317106,3
-5.015404224395752,5.4304680824279785,-2.236462116241455,-0.2373172789812088,1.59558,-0.9245446,3
-4.898916721343994,3.6671874523162837,-1.9427430629730225,0.029830984771251682,-1.7922786,-1.7669277,3
-4.739876747131348,2.525059938430786,-2.8521687984466557,0.5131060481071472,-1.649947,-2.0622811000000003,3
-4.337196350097656,2.2624337673187256,-3.927005052566528,0.864846408367157,2.9071076,-1.5641204,3
-3.7539682388305664,2.467780351638794,-3.748987913131714,1.1620734930038452,3.4208453000000003,-1.5060883,3
-3.3324053287506104,2.9646921157836914,-2.67519211769104,1.5143024921417236,3.5613443999999994,-1.4349225,3
-4.173325538635254,4.614846706390381,-1.203197360038757,1.9480382204055784,0.28619036,-2.536618,3
-6.385833740234375,7.1076412200927725,-0.3916642367839813,2.0038630962371826,-0.24037547,-4.1071525,3
-6.414750576019287,9.44045639038086,-1.3057676553726196,2.0322365760803223,0.6780604,-1.3243558000000002,3
-4.641470909118652,11.397902488708494,-1.8104294538497925,2.346905469894409,0.12522738,-0.19364429,3
-2.867584228515625,12.831144332885742,-1.5239403247833252,2.3261032104492188,1.1456778,-1.8203784,3
-2.360442876815796,13.642274856567385,-1.5656499862670898,2.0172245502471924,0.4999932,-2.903748,3
-3.0146303176879883,14.055685997009276,-1.7502729892730713,1.7024092674255369,2.5399778,-2.3328943,3
-4.248675346374512,13.790687561035154,-1.42918598651886,1.3053246736526491,4.9776354000000005,-1.4379768,3
-4.256879806518556,12.519135475158693,-0.6126458644866943,1.0332132577896118,4.8475213,-0.46181414,3
-3.1756742000579834,10.62456226348877,0.3268708288669586,0.7388131618499756,2.6511552000000003,0.226631,3
-1.4458311796188354,8.493688583374022,1.4147459268569946,0.3478072285652161,-0.66767573,0.8240572,3
0.2448381632566452,6.308024883270264,2.7466299533843994,-0.1897045224905014,-4.240932,0.93401295,3
1.2191487550735474,4.775616645812988,3.5863077640533447,-0.7574836611747742,-5.95166,1.4480561,3
1.8237971067428589,4.000302791595459,3.347400188446045,-1.053742289543152,-5.102863,2.4019222,3
2.3800597190856934,3.689589023590088,0.956969678401947,-1.0505715608596802,4.1431937,2.9278772,3
2.0049548149108887,3.19011664390564,-1.6635295152664185,-0.8744062185287476,7.024645,0.8347474,3
-0.13009999692440033,2.7273178100585938,-1.8366178274154663,-0.8158581852912903,-1.2311989,-1.6963727,3
-2.6700356006622314,2.571453094482422,-0.7640559673309326,-0.6412491798400879,-3.987423,-1.0076222,3
-3.513500690460205,2.246560573577881,-0.01926364004611969,-0.3849312961101532,-4.9397616,-1.1759156000000002,3
-2.962265968322754,2.9368040561676025,-0.6762993931770325,0.1169114112854004,2.0308216,-0.44348818,3
-1.7363715171813965,4.8697853088378915,0.8173915147781372,0.3167474567890167,-1.2730431999999998,-0.6731735,3
-0.4581461250782013,7.271316051483153,3.604297161102295,0.3499829173088074,-5.9803705,1.6551393,3
0.5507196187973022,9.278030395507812,5.352245807647705,0.16655220091342926,-3.9477167,3.126103,3
1.2461591958999634,10.193389892578123,6.024413108825684,-0.1600540727376938,-0.95905846,2.3380868,3
1.241466760635376,10.850502967834473,6.078427791595459,-0.6087809205055237,0.18875736,2.4874432,3
0.5772259831428528,12.082043647766113,5.991189956665039,-0.968525230884552,-2.175291,2.716823,3
-0.8640403747558594,13.432575225830078,5.3272671699523935,-0.97767573595047,-1.452943,1.7366898999999998,3
-2.7424640655517583,14.572211265563965,4.225478649139403,-0.96353679895401,2.1841488,0.8179486,3
-4.502695083618164,15.08968448638916,2.865370750427246,-1.2706886529922483,2.5738807,1.1178834,3
-5.682083606719972,15.025522232055664,1.4867724180221558,-1.5662984848022459,2.756224,2.2146919,3
-6.0060973167419425,14.17613410949707,1.4392719268798828,-1.603614091873169,-1.1142181999999998,1.3011429,3
-5.804645538330077,13.181199073791506,0.19206592440605166,-1.4888384342193604,-0.39522982,0.82344633,3
-5.242677211761475,12.09416675567627,-1.165089130401611,-1.3695653676986694,0.99296147,0.7886270000000001,3
-4.4737162590026855,10.692673683166504,-2.306691169738769,-1.2842241525650024,0.5170974,1.040609,3
-4.311607837677002,9.10505485534668,-2.8765075206756587,-0.9132439494132996,-0.35124752,0.49021935,3
-4.381515502929688,7.2435622215271,-2.5705151557922363,-0.4955617189407349,0.01985312,0.04520403,3
-4.376270294189453,5.20290470123291,-2.294792890548706,-0.2555617094039917,0.34574974,-0.43982297,3
-4.511579990386963,3.331503629684448,-2.560698270797729,0.06739255040884018,0.17073683,-1.1768318000000002,3
-4.343114376068115,2.3304598331451416,-2.6715188026428223,0.5207168459892273,1.001819,-0.98654735,3
-4.019450664520264,1.887183666229248,-2.623984813690185,0.9054142832756042,1.1676688999999998,-1.1597277,3
-3.626225233078003,1.9263429641723635,-2.4233646392822266,1.26180100440979,2.2745566000000004,-1.3729197,3
-3.35535216331482,2.5369369983673096,-1.7077977657318115,1.61400306224823,2.3087652000000003,-1.8240436,3
-4.654522895812988,5.065847396850586,-1.5326875448226929,1.6945486068725586,0.24373524,-3.587917,3
-5.193467140197754,7.797179698944093,-2.1227264404296875,1.774277925491333,1.1768318000000002,-2.977968,3
-4.336665630340576,10.07833480834961,-2.0564661026000977,2.0326473712921143,0.5751295999999999,-1.3988813999999998,3
-2.90594744682312,11.932479858398438,-1.4238966703414917,2.269368886947632,-0.35643986,-0.5558874,3
-2.0851235389709477,13.158671379089355,-1.256259560585022,2.081982374191284,0.59956425,-1.7974709,3
-2.771623134613037,13.844552040100098,-1.6883774995803833,1.6589014530181885,0.99204516,-2.4672847,3
-4.234668254852295,13.95568561553955,-2.107741117477417,1.2380077838897705,2.2815816000000004,-2.350915,3
-5.686877727508545,13.572395324707033,-2.2397143840789795,0.8337374925613403,4.252233,-1.3487904,3
-6.024325370788574,12.413330078125,-1.6233634948730469,0.5076510310173035,3.7543778,-0.5131268,3
-4.820876598358153,10.515345573425293,-0.20444141328334808,0.2048194855451584,2.065641,-0.047647487,3
-2.6929733753204346,8.461931228637695,1.3811028003692627,-0.16532044112682345,-0.36254853,0.42119157,3
-0.7673068046569824,6.6904826164245605,2.5047452449798584,-0.658090353012085,-2.348166,0.9465357,3
0.7765721678733826,5.434180736541748,2.1905324459075928,-1.0026270151138306,-1.4138476,1.636508,3
1.7889872789382937,4.608251571655273,0.7187864780426025,-1.061665654182434,1.7690657,1.8506162,3
1.8632925748825075,3.739470481872559,-0.727713942527771,-1.0568798780441284,2.7953193,0.9257663,3
0.6677084565162659,3.0042474269866943,-1.7914814949035645,-1.0165706872940063,0.09865474,-0.019547688,3
-1.218146562576294,2.7474365234375,-1.9239006042480469,-0.7564941048622131,-3.6355646,-0.43676865,3
-2.201786756515503,2.589609146118164,-1.6656183004379272,-0.5775233507156372,-2.8771753,-0.3717115,3
-2.2591352462768555,2.260913372039795,-1.3590298891067505,-0.4368700981140137,-2.2696697999999995,-0.3304781,3
-1.7410600185394287,2.0229291915893555,-2.1113138198852544,-0.27323657274246216,1.4294246000000002,-0.28588495,3
-0.642048180103302,3.408918857574463,-3.429750919342041,0.001683934242464602,-0.6227771,-0.64812803,3
-0.8409775495529175,6.059763908386231,-1.0105209350585938,-0.04398491606116295,-3.8203511,0.3472769,3
-0.9787128567695618,8.118143081665039,0.5735204815864563,-0.1089199036359787,-1.7018706,-0.20861048,3
-0.3444875776767731,9.026936531066896,1.6820329427719116,-0.10130250453948976,-1.1988231000000005,1.6548339,3
0.2785424590110779,9.895833969116213,2.776317834854126,-0.2778007090091705,-1.6875153000000005,2.7995954,3
0.13583171367645264,11.271949768066404,3.2621216773986816,-0.666904628276825,-2.4181101000000003,2.6923885,3
-0.6632357239723206,12.7616605758667,2.741133213043213,-0.8619160652160645,-0.657291,2.8130345,3
-2.1547996997833248,14.04702854156494,1.858614206314087,-0.812953531742096,4.074166,2.0015,3
-3.748772382736206,14.762124061584473,1.109221339225769,-0.9193885326385498,4.0124683,1.9474384,3
-5.041091442108153,14.900367736816404,0.4064546227455139,-1.1968979835510254,4.6163087,2.2449298,3
-5.81331205368042,14.917652130126953,-0.1351975053548813,-1.4258990287780762,3.6920695,2.0292943,3
-5.9210453033447275,14.606471061706545,-0.1959971934556961,-1.4194142818450928,0.41233405,1.2159272,3
-5.468447685241699,13.869104385375975,-1.0042185783386228,-1.244051218032837,-0.02565634,0.97249746,3
-4.650283336639403,12.430778503417967,-1.955115914344788,-1.0005286931991575,0.24495697,1.0818423,3
-4.148608684539795,10.218240737915039,-2.1303534507751465,-0.8053337931632996,0.4605924,1.0629056,3
-3.903753757476807,8.017027854919434,-2.018033266067505,-0.560012698173523,0.32009340000000003,0.7654141999999999,3
-3.622060537338257,6.056346893310548,-1.9691106081008911,-0.3353940844535828,1.8909334,0.52595496,3
-3.557743549346924,4.335159778594972,-2.1603939533233643,-0.1701681911945343,0.9242391,-0.13500121,3
-3.8383791446685787,3.1096909046173096,-2.656987428665161,0.2214883416891098,0.4288274,-0.91965765,3
-3.7149927616119385,2.7847471237182617,-2.9938068389892583,0.6758584976196289,1.4272866000000002,-0.32803464,3
-3.1898403167724614,2.8309435844421387,-3.256049633026123,1.0637680292129517,1.325883,-0.35460728,3
-2.524367570877075,3.016076803207397,-3.070340394973755,1.4000101089477541,1.9715676,-0.37293324,3
-2.345078468322754,3.3300321102142334,-2.19624137878418,1.7192294597625732,2.3270912,-0.7828238000000001,3
-2.936241865158081,3.990894317626953,-1.083215594291687,2.0453429222106934,2.108096,-1.3787229,3
-4.5039896965026855,5.472486972808838,-0.03393888846039772,2.312990665435791,1.8396207,-2.7537806,3
-6.918911457061768,7.74515438079834,1.0203938484191897,2.400646924972534,1.5042557,-3.9214494,3
-8.001435279846191,9.953356742858887,1.0946888923645022,2.3624229431152344,2.091908,-2.7296515,3
-6.8649492263793945,11.822940826416016,0.9039770364761353,2.1608841419219966,3.8728857,-2.2773056,3
-6.118821620941162,13.336283683776855,0.90246319770813,1.6404471397399902,3.2113185,-3.8374555,3
-5.9972686767578125,14.55551528930664,0.40078336000442505,1.2145650386810305,3.0524936,-3.2549953,3
-6.3579769134521475,15.496234893798828,-0.1714073121547699,0.8360884189605713,4.2830815000000015,-2.701246,3
-6.72421407699585,15.897903442382812,-0.4064402580261231,0.497687041759491,5.120578,-1.9431623,3
-6.034993648529053,15.34490203857422,-0.02980158664286137,0.18973180651664734,4.4232755,-1.3435981,3
-4.389271259307861,14.187007904052734,0.8838035464286804,-0.10095442086458206,2.7113254,-0.5131268,3
-1.8382227420806885,12.341790199279785,2.224860191345215,-0.3503289520740509,-0.54641896,0.21044308,3
0.563254177570343,10.005287170410156,3.6287915706634517,-0.6844927072525024,-3.3869424,0.92087936,3
2.049505710601806,7.837892055511475,4.198023796081543,-1.017900466918945,-3.8234055,1.4367551,3
2.892092227935791,6.322277069091798,2.0982906818389893,-1.0839347839355469,2.1374176,2.3958135,3
3.3101606369018555,5.06708574295044,-0.6270960569381714,-0.8841834068298341,4.779715,1.9162843,3
2.286997079849243,3.9601743221282963,-2.1882886886596684,-0.7285680174827576,4.0591993,0.33078352,3
-0.6758282780647278,3.437547445297241,-1.075656175613403,-0.5262964367866516,-3.5692856,-2.1084013,3
-2.4445040225982666,3.0806446075439453,0.048925872892141335,-0.5055615305900574,-5.5790324,-1.4456125,3
-2.9121215343475337,2.631200790405273,0.4432437419891357,-0.4489305019378662,-5.37256,-1.2443326,3
-2.2550723552703857,2.572373867034912,-0.9701664447784424,-0.3961786031723023,0.49021935,-0.8561276,3
-1.4550597667694092,3.6467983722686768,-0.9187345504760742,-0.32852956652641296,-0.5824600000000001,-1.0201449,3
-0.5046286582946777,5.955321311950684,0.05658539384603501,-0.30271977186203003,-2.1826215,1.210124,3
0.1831478178501129,8.419519424438478,0.7841343879699707,-0.2510836124420166,-1.3069462,2.2941043,3
0.38736647367477417,10.17947769165039,1.5880796909332275,-0.30342042446136475,1.1230757,1.8127426,3
0.20273037254810333,10.673255920410156,2.3287510871887207,-0.3398822546005249,2.022575,1.7989981,3
-0.14105501770973206,11.27899169921875,3.272862434387207,-0.4945558607578278,0.2947425,2.2696697999999995,3
-0.4937878549098969,12.520756721496582,3.6766536235809326,-0.6202985048294067,0.93431836,2.921463,3
-1.218329668045044,13.808045387268065,3.289780855178833,-0.8549957871437073,3.320358,2.6804767000000003,3
-2.3014633655548096,14.693208694458008,2.6803829669952397,-1.3371942043304443,5.4983983,1.6902641,3
-3.504004955291748,14.745657920837402,3.9160475730896,-1.8570760488510127,0.8042041,0.9407325,3
-4.4013776779174805,15.338221549987793,3.557569742202759,-2.372221708297729,-2.5259278,0.77518797,3
-4.382192611694337,15.953268051147461,0.5791893601417542,-2.619454860687256,1.4795157,1.3283265,3
-3.821329355239868,15.529869079589846,-1.7763341665267944,-2.601961374282837,1.8182404,1.1337659,3
-3.090198040008545,14.063803672790527,-3.3507609367370605,-2.42604660987854,0.9379836,1.3084733,3
-3.0123169422149663,12.186830520629885,-4.283634662628174,-1.8851211071014404,0.46914452,0.9407325,3
-3.533929347991944,10.221463203430176,-4.532404899597168,-1.244206786155701,-0.3368922,-0.08704830000000001,3
-3.9042797088623047,8.339176177978517,-4.013178825378418,-0.626167356967926,-0.26358834,-1.1603385,3
-3.743449687957764,6.577029705047607,-3.3044860363006587,-0.17476175725460052,1.462106,-1.5008959,3
-3.4409217834472656,5.014556884765625,-2.5636425018310547,-0.005318550858646631,1.8762726000000003,-1.5344934,3
-3.501436710357666,3.5577545166015625,-1.922761082649231,0.3178738355636597,-2.269059,-2.2162192000000003,3
-3.74776291847229,2.318127393722534,-1.8406360149383545,0.8395340442657471,-0.93279123,-3.3396003,3
-3.625477552413941,1.923603892326355,-2.27722430229187,1.157768964767456,2.4437664,-2.9914072,3
-3.808304786682129,2.430800676345825,-2.6647090911865234,1.4488782882690432,2.6716192000000003,-3.6987891,3
-4.990839958190918,4.370413303375243,-2.6424875259399414,1.570368409156799,2.28036,-3.814548,3
-6.351412296295166,6.991685390472412,-1.9786293506622317,1.8292607069015503,0.5558874,-3.0427197999999995,3
-5.791230201721191,9.406055450439453,-1.7613056898117063,1.9856382608413696,0.5122104999999999,-1.5552629,3
-4.7924461364746085,11.387516975402832,-1.4027060270309448,2.1652586460113525,-0.7128797,-1.1410962,3
-4.073996067047118,12.983057975769045,-1.2656419277191162,2.124427795410156,-0.43860126,-2.2180517,3
-4.622229099273682,14.03338623046875,-1.5884099006652832,1.7926654815673828,0.6392705,-2.7217102000000004,3
-6.350614070892334,14.324097633361815,-1.843251585960388,1.4824421405792236,1.6487253000000002,-2.680782,3
-7.779975414276122,14.067959785461426,-2.004997968673706,1.1083828210830688,3.8948767,-1.7611245,3
-7.89747428894043,13.13569450378418,-1.5370597839355469,0.7688148021697998,5.218011,-1.0195341,3
-6.7865891456604,11.602367401123047,-0.3919135630130768,0.4626412093639374,3.907094,-0.34574974,3
-4.4625587463378915,9.6243896484375,0.8873293399810791,0.15067629516124725,1.2257011,0.27947086,3
-1.7542457580566406,7.343018054962157,2.147796154022217,-0.25398957729339605,-2.1908681,0.7648033000000001,3
0.349566787481308,5.458566188812256,3.252094268798828,-0.7580187916755676,-4.788573,1.3753631000000002,3
1.4263551235198977,4.418354034423828,2.79122257232666,-1.1474820375442505,-5.1040845,1.853976,3
2.169485569000244,4.032637596130371,0.23024646937847135,-1.1813409328460691,0.043982297,2.336865,3
2.0033769607543945,3.783457756042481,-1.956163763999939,-1.0154989957809448,3.2724051,1.3497068,3
0.3965753018856049,3.38289737701416,-2.1775493621826167,-0.8903850317001343,1.1704178,-0.054367006,3
-2.2756175994873047,2.884227752685547,-0.9825355410575868,-0.8617954850196838,-3.382361,-1.2647965,3
-3.618619203567505,2.580270290374756,-0.057993005961179726,-0.7303684949874878,-4.1584654,-0.8741482,3
-3.758782625198364,2.2748043537139893,0.07779903709888457,-0.5202284455299377,-3.5799758,-1.1023063999999998,3
-3.253931999206543,3.047284841537476,-1.5796865224838257,-0.1730821430683136,1.5830573,-1.1548406999999998,3
-2.8252227306365967,4.901374340057373,0.22122107446193692,-0.21450605988502505,-3.1514537,-0.83077675,3
-2.0924367904663086,7.379403591156006,2.0798258781433105,-0.3490775525569916,-4.195117,2.0305161,3
-1.5830880403518677,9.586984634399414,3.2392795085906982,-0.3987721800804138,-2.0873265,2.261423,3
-0.8591789603233337,10.43124008178711,3.840830326080322,-0.4707739949226379,0.13072516,2.3640485,3
-0.479455441236496,10.648024559020996,4.12325382232666,-0.6906992197036743,-0.8426886,2.490803,3
-0.6615179777145386,11.636683464050293,4.241157531738281,-0.7579730153083801,-1.6187929,3.3139439,3
-1.89976966381073,13.071027755737305,3.9425051212310787,-0.7789443731307983,0.27855456,3.2821789,3
-3.4182889461517334,14.080854415893555,3.297914266586304,-0.9663468003273009,3.6389244,2.5644124,3
-4.638358116149902,14.218456268310547,2.9010512828826904,-1.147480010986328,4.5588875,1.9633209,3
-5.42106819152832,14.370502471923828,3.4269187450408936,-1.365964651107788,0.2751948,1.6038266,3
-5.6621599197387695,14.466846466064453,3.344258546829224,-1.6044408082962036,-2.7256808,1.4395038999999998,3
-5.402991771697998,14.304339408874512,1.111129879951477,-1.5797510147094729,0.42424592,1.3762794,3
-5.15891170501709,13.633259773254395,-0.6011193990707397,-1.571514368057251,0.43493605,1.2718215,3
-5.0329012870788565,12.33319091796875,-2.1507828235626216,-1.460058093070984,-0.21502456,1.0390818000000002,3
-5.294631481170653,10.494193077087402,-2.777137994766236,-1.0682146549224854,-1.0097603000000002,0.4578435,3
-5.686237335205077,8.446558952331543,-2.420340061187744,-0.6221294999122621,-0.6969972,-0.61300325,3
-5.624247550964356,6.422666549682617,-2.0379092693328857,-0.3267266750335693,1.9666806,-1.2098186000000002,3
-5.486191749572754,4.476080417633057,-1.5562763214111328,-0.24921385943889615,2.3441954,-1.7739526999999995,3
-5.520078182220459,2.729500770568848,-1.3026961088180542,-0.024288037791848183,-2.6572638,-2.6917777000000003,3
-5.803127765655518,1.3995177745819092,-2.1993966102600098,0.3933170437812805,-0.54305923,-3.538437,3
-5.558490753173828,1.3758001327514648,-3.0048654079437256,0.7626256942749023,2.5857925,-2.515543,3
-5.058084011077881,2.3934094905853267,-2.961347818374634,1.159463882446289,2.2696697999999995,-2.5164595000000003,3
-5.5219831466674805,4.6412696838378915,-3.0279695987701416,1.3554631471633911,1.319469,-3.551876,3
-6.397974967956543,7.294727802276611,-2.705975294113159,1.6050208806991575,1.0549643,-3.4886515,3
-6.1074934005737305,9.634232521057127,-2.186513185501098,1.947497844696045,-0.023518313,-2.3115141,3
-5.048555850982666,11.565007209777832,-1.8748096227645876,2.191546440124512,-0.63285637,-0.79412484,3
-4.258981227874757,13.1287202835083,-1.6173946857452393,2.238969326019287,-0.98868537,-2.2904391,3
-4.484777450561523,14.30858325958252,-1.9971660375595093,2.17852783203125,0.046120327,-2.7354546,3
-5.735243797302246,14.694572448730467,-2.185264587402344,1.9897141456604004,2.1777346,-2.4336872000000005,3
-7.362208366394043,14.551260948181152,-2.1414048671722408,1.6777694225311282,4.3389760000000015,-1.8799378,3
-7.9662413597106925,13.804187774658205,-1.592109203338623,1.301088809967041,5.806274,-1.0231993,3
-7.192476272583008,12.228914260864258,-0.4207646250724793,0.9339644312858582,5.321858,-0.31031954,3
-4.995330810546875,9.949801445007324,1.0409793853759766,0.5235601663589478,2.273335,0.29718593,3
-2.2173068523406982,7.326748371124268,2.284090995788574,0.012363300658762457,-1.7644843,1.2263118999999998,3
-0.018985556438565254,5.132772922515869,3.393242359161377,-0.5620325207710266,-4.9302936,1.7767016,3
1.1245994567871094,3.899078845977783,3.2882268428802486,-1.0305780172348022,-5.9195895,2.4083362,3
1.8317161798477173,3.4740958213806152,1.305008053779602,-1.1226179599761963,-1.7913623,2.4770586,3
1.6106343269348145,3.377110004425049,-1.343429446220398,-0.88201504945755,2.9956832,1.1930199,3
0.06743066012859343,3.1269047260284424,-1.9729598760604856,-0.6759737133979797,0.97005403,-0.65026605,3
-2.1993749141693115,2.791633129119873,-0.9626970887184144,-0.6488069891929626,-3.2708778,-0.9822713,3
-3.349829912185669,2.3433403968811035,-0.0667002871632576,-0.5340175628662109,-3.8686097,-0.7883216,3
-3.189173698425293,2.2960405349731445,-0.5595908761024475,-0.256087988615036,-0.74220127,-0.63194007,3
-2.3240985870361333,3.796332597732544,-1.4460270404815674,0.15656529366970062,-2.2449298,-1.318858,3
-2.050748109817505,5.907679557800293,1.2091056108474731,-0.04137006029486656,-5.3224687999999984,0.82650065,3
-1.7021405696868896,8.320171356201174,3.666351795196533,-0.2479122430086136,-5.351179599999999,3.1215215,3
-1.286929488182068,10.078747749328613,4.553169250488281,-0.2978535890579224,-1.5968018,2.597399,3
-0.8229485750198364,10.699161529541016,4.643778800964356,-0.4992026686668396,-0.01038471,3.1841352,3
-1.0278308391571045,11.769165992736815,4.740772247314453,-0.7748687267303467,-1.4199562,3.3890803,3
-2.09332013130188,13.119174003601074,4.3136091232299805,-0.919629454612732,0.016798794,3.2501085,3
-3.718365669250488,14.14924430847168,3.687433004379273,-0.90300452709198,4.1954226,2.012801,3
-5.028885364532472,14.298626899719238,3.231263875961304,-0.9905099272727966,3.6355646,1.1630874,3
-5.533193588256836,14.280911445617676,3.1676328182220463,-1.2905128002166748,-1.1004738,1.6065756000000002,3
-5.432082653045653,14.294892311096193,2.5173661708831787,-1.4537674188613892,-2.1664336,1.4651603000000002,3
-5.247476577758789,14.16427230834961,0.5566510558128357,-1.3696333169937134,0.26267207,1.3283265,3
-5.508482456207275,13.460592269897461,-0.8770959973335266,-1.2672215700149536,0.9266826,0.8228354999999999,3
-5.689760684967041,12.208990097045898,-1.7582387924194336,-1.205880641937256,-0.26328292,0.9691377,3
-5.562203407287598,10.186017036437988,-2.311829090118408,-1.0199081897735596,-0.95630956,0.34574974,3
-5.3092041015625,7.983640193939209,-2.2960915565490723,-0.7379251718521118,-0.027183503,-0.09437868,3
-5.211362838745117,5.816640853881836,-2.1459276676177983,-0.5691773891448975,2.3066273,-0.34025195,3
-5.578292369842528,3.681546926498413,-2.225347757339477,-0.393702894449234,-0.3652974,-1.6545285,3
-5.555922508239746,2.2703800201416016,-2.556464195251465,-0.03464817628264427,-0.062002823,-1.9532416,3
-5.166903495788574,1.8160617351531985,-3.304967403411865,0.3222809433937073,1.0500773,-1.3970488,3
-4.434075355529785,2.0181748867034908,-3.581518173217773,0.7118354439735413,1.9135354,-1.2819008,3
-3.534855842590332,2.4814436435699463,-2.8059353828430176,1.0691741704940796,2.1007655,-1.1649200000000002,3
-3.256183862686157,3.3883695602416988,-1.747771143913269,1.4012871980667114,0.979217,-1.6762142,3
-4.5038018226623535,5.691581726074219,-1.4034156799316406,1.551061511039734,0.4364632000000001,-2.764776,3
-5.837791442871094,8.196431159973145,-1.8707221746444704,1.7867186069488523,0.66737026,-3.036611,3
-5.197121620178223,10.371394157409668,-1.833202242851257,2.171653509140014,-0.51343226,-1.1942415000000002,3
-4.082779884338379,12.160340309143065,-1.611613154411316,2.3591294288635254,-0.49632803,-1.1194105,3
-3.2603375911712646,13.5712308883667,-1.0783424377441406,2.3005402088165283,-1.5906931,-2.4055874,3
-3.446860074996948,14.483113288879395,-1.2960848808288574,2.1043963432312007,-0.07727446,-2.0179935,3
-4.635373115539551,14.822612762451172,-1.5043818950653076,1.8250552415847776,2.1939225,-2.0925188,3
-6.252981185913086,14.779922485351562,-1.496761679649353,1.4712071418762207,4.5625525,-1.2232577,3
-6.246058464050293,13.511026382446287,-0.7084358930587769,1.0855047702789309,5.6834903,-0.4465425,3
-4.690953731536865,11.354218482971193,0.6623762249946594,0.7337713241577148,3.5295794000000003,0.05681047,3
-2.2647862434387207,8.761294364929201,2.077342748641968,0.3020171225070953,0.27488935,0.62858033,3
-0.28679829835891724,6.41030740737915,3.4733397960662837,-0.28303155303001404,-3.634953700000001,1.3640621000000002,3
0.9610031843185424,4.797900199890137,3.742575883865357,-0.8134011030197144,-4.9767194,2.0821342,3
1.9806261062622068,3.953358173370361,1.7797423601150513,-0.9904604554176332,-1.475545,2.7281241,3
1.9543548822402956,3.456117391586304,-0.9224215149879456,-0.8382924795150757,3.6089919,1.2721269,3
0.327288031578064,3.0130383968353267,-1.9903016090393064,-0.6543696522712708,1.3732251,-1.0204504,3
-1.823587775230408,2.5999035835266118,-1.2251063585281372,-0.5948411822319031,-4.3218718,-1.4773777,3
-2.814583778381348,2.189718246459961,-0.3477199971675873,-0.4892558157444,-4.8209486,-0.7504479000000001,3
-2.7655925750732417,1.8267076015472408,-0.03792073950171471,-0.31778115034103394,-4.2684207,-0.5174029,3
-2.000298023223877,2.135302782058716,-1.900519609451294,-0.01023581065237522,5.551543,0.1600467,3
-0.9834885597229004,3.4023838043212886,-2.3244314193725586,0.12638522684574127,-3.2128458,-0.8558222,3
-0.8534092307090759,5.364895820617676,0.5922726988792419,0.13947875797748566,-4.6902230000000005,1.7785342,3
-0.6717520356178284,7.841230869293213,3.436440706253052,0.0031217660289257765,-4.8197269999999985,3.4724634,3
-0.4879999756813049,9.477230072021484,4.454918384552002,-0.10051288455724716,-1.1313223999999995,2.7388144,3
-0.7019970417022705,10.203322410583496,4.52345085144043,-0.4916890859603882,0.87781334,2.8615983,3
-1.5241692066192627,11.45259952545166,4.607542037963867,-0.949764847755432,0.018325957,2.8689287,3
-2.9695229530334477,12.891937255859375,4.154055118560791,-1.1152831315994265,1.2278391000000002,2.275473,3
-4.568413257598877,14.04239273071289,3.4576525688171387,-1.0514194965362549,2.31915,1.3182472,3
-5.4250593185424805,14.635891914367676,2.621511936187744,-1.4270319938659668,2.9404,1.9666806,3
-5.384052276611328,14.90139389038086,2.906657218933105,-1.7423828840255735,-1.7880026000000002,1.7638733,3
-4.8272576332092285,15.111191749572756,1.5647610425949097,-1.8059074878692627,-1.2840388,2.172237,3
-4.618466377258301,14.677704811096193,-0.19537287950515747,-1.6980663537979126,0.6817255999999999,1.4089607,3
-4.988357067108153,13.646475791931152,-1.1527241468429563,-1.636584758758545,0.84757555,1.3170254,3
-5.340351581573486,11.958229064941404,-2.2788689136505127,-1.5133055448532104,0.10873401,0.7654141999999999,3
-5.573490619659424,10.008874893188477,-3.0472469329833984,-1.2134028673171997,-0.79351395,0.18784106,3
-5.702725887298584,8.092128753662111,-3.0394809246063232,-0.7701573371887207,-0.1863139,-0.6542366999999999,3
-5.415188789367676,6.280117511749268,-2.8627142906188965,-0.444793164730072,2.4514022,-0.86376345,3
-5.213204860687256,4.499387264251709,-2.6332221031188965,-0.2353086471557617,0.33505958,-1.568091,3
-5.249497890472412,2.88213324546814,-2.94509506225586,0.2215697020292282,-1.3338243,-2.5164595000000003,3
-4.96449089050293,2.2371175289154053,-3.59866714477539,0.6636265516281128,1.568091,-2.0916026000000003,3
-4.27183198928833,2.4949724674224854,-3.27349591255188,0.9573646187782288,3.1465669,-1.7235563000000005,3
-4.079816818237306,3.34220027923584,-2.3053967952728267,1.2548273801803589,2.5708263,-1.8802432,3
-5.422811508178711,5.596446990966797,-1.2001432180404663,1.5456626415252686,0.44959682,-2.8393016,3
-6.7001543045043945,8.105636596679688,-1.1194508075714111,1.759480118751526,1.1242975,-3.3680055,3
-5.7738189697265625,10.29497241973877,-1.283779859542847,2.0204107761383057,1.3607023,-1.0048733,3
-4.271230697631837,12.098837852478027,-1.278717279434204,2.276059627532959,0.11209377,-0.3136793,3
-2.8722076416015625,13.556092262268065,-0.9281643033027648,2.4130001068115234,0.23579398,-1.6762142,3
-2.435694694519043,14.709310531616213,-0.8334113359451294,2.211044311523437,0.25076020000000004,-2.5042422,3
-3.325592517852783,15.255419731140135,-1.0207343101501465,1.980807304382324,1.8747455,-2.4288,3
-5.192442417144775,15.020313262939453,-1.0149991512298584,1.6220769882202148,4.1508293,-1.8845193,3
-5.988137722015381,14.104727745056152,-0.4738943874835968,1.2922992706298828,4.5759916,-0.8393288000000001,3
-5.306637763977051,12.237606048583984,0.4273032546043396,0.9414618611335754,3.1059444,-0.112399206,3
-3.370723009109497,9.83065414428711,1.349570870399475,0.5495635271072388,1.0326678,0.36835176,3
-0.948464035987854,7.325684070587157,2.2258124351501465,0.017808901146054268,-2.1050417,0.9300423,3
0.8791183233261108,5.336113929748535,3.226231336593628,-0.6848500967025757,-5.1004195,1.4257594,3
2.0648467540740967,4.341300964355469,3.0356156826019287,-1.1435996294021606,-5.6505036,2.4770586,3
3.009354829788208,3.994324207305908,0.2243514060974121,-1.2147789001464844,1.1392636,2.2666154,3
2.250469446182251,3.739626407623291,-2.0506603717803955,-1.018910527229309,5.150816000000002,0.5314528000000001,3
-0.3580007553100586,3.127082109451294,-2.6310551166534424,-0.7859778404235841,1.3121386,-1.7760907,3
-2.934763669967652,2.618100166320801,-1.5700020790100098,-0.5235191583633423,-5.6908207000000015,-1.3658947,3
-3.9928579330444336,2.056539297103882,-0.7051602005958557,-0.2803951501846313,-7.6483383,-1.3869696000000002,3
-3.44013786315918,1.506123661994934,-1.4085440635681152,-0.11073028296232224,0.6704246,-1.0216721,3
-1.769243597984314,1.9834009408950808,-2.777552366256714,-0.1341259628534317,4.9226575,-0.5653558000000001,3
-1.0281257629394531,4.099993705749512,-0.09841574728488922,-0.2788847684860229,-4.7268753,0.5357288,3
-0.7272309660911559,6.77571439743042,2.9250965118408203,-0.564852237701416,-5.7803125,2.5265386000000003,3
-0.9005030989646912,8.16702938079834,3.8356080055236816,-0.6243200302124023,-1.4114041000000002,0.44135013,3
-0.5362200736999512,8.926339149475098,4.034536838531493,-0.8714870810508728,-2.3558018,2.2198844,3
-0.15353822708129886,10.537424087524414,3.907511949539185,-1.0193091630935671,-3.4122932,3.5011742,3
-0.3410375118255615,12.178666114807127,3.5197317600250244,-1.02200186252594,-2.1551325,3.4437528,3
-1.4741618633270264,13.58697509765625,2.6155247688293457,-1.0747634172439575,3.5763106,2.1539109,3
-3.013627290725708,14.421476364135742,2.382999420166016,-1.1101471185684204,3.49476,0.7828238000000001,3
-4.422255039215088,14.723505973815918,2.3644587993621826,-1.2586020231246948,1.0363328,0.97249746,3
-5.597166061401367,14.755617141723633,2.0936896800994877,-1.4141523838043213,-0.8387180000000001,1.7996091,3
-6.596643924713135,14.184466361999512,1.45884907245636,-1.4143266677856443,-2.1820107,0.8970556000000001,3
-7.0184326171875,13.304169654846193,0.06956309825181961,-1.3269624710083008,-1.6722436,0.6478225999999999,3
-6.660830020904541,11.888229370117188,-1.392637848854065,-1.2469412088394165,-0.27030787,0.68875057,3
-5.618131160736084,10.008668899536133,-2.580420970916748,-1.1156858205795288,-0.121256754,0.97066486,3
-5.102954387664795,8.146223068237305,-3.1135773658752437,-0.7448620796203613,-0.56016344,0.5876524000000001,3
-4.990108013153076,6.413391590118407,-2.8381011486053467,-0.3540985584259033,0.5824600000000001,0.17745635,3
-4.871228218078613,4.701596736907959,-2.364896535873413,-0.1817905753850937,1.5457945,-0.40561453,3
-5.2584228515625,2.9484565258026123,-2.2121167182922363,0.07292483001947403,-2.3258693,-2.1878138,3
-5.395602226257324,2.0746502876281743,-3.1873958110809326,0.6105310320854187,-1.056186,-2.629164,3
-5.11570405960083,2.237604141235352,-3.612823486328125,0.997187316417694,2.2913556,-2.047315,3
-4.636664390563965,2.896689891815185,-3.0758731365203857,1.3008099794387815,3.2018502,-1.8341229,3
-4.886622428894043,4.3834519386291495,-2.466846466064453,1.579692840576172,1.1279627,-2.8561006,3
-6.047666072845459,6.847946166992188,-2.6356124877929688,1.7000064849853516,1.7928895,-3.3991597,3
-6.362254619598389,9.213541984558104,-2.368767499923706,1.993192195892334,1.1215485,-2.2406538,3
-5.3134613037109375,11.212298393249512,-2.031677007675171,2.239426612854004,-0.37751472,-0.8249735,3
-4.212782382965088,12.841815948486328,-1.7489441633224487,2.402671813964844,-0.14294247,-1.6261233,3
-3.363041400909424,14.1289644241333,-1.5591596364974976,2.306239366531372,-0.7510588,-2.1432207,3
-3.806105375289917,14.68090534210205,-1.950548768043518,2.114784479141236,1.2275337,-2.2696697999999995,3
-5.378743171691895,14.455950736999512,-2.14567232131958,1.7851614952087402,3.189633,-1.851838,3
-6.830056667327881,13.831015586853027,-1.8133753538131716,1.438679337501526,4.4354925000000005,-1.4199562,3
-6.929068565368652,12.727728843688965,-0.9665254950523376,1.1003538370132446,3.9788709,-0.30909783,3
-5.536437034606934,10.98056411743164,0.17006558179855347,0.7513149380683899,2.270586,0.16310102,3
-3.0132393836975098,8.793508529663086,1.4168440103530884,0.2959467172622681,0.34819320000000004,0.76144356,3
-0.769946813583374,6.598594665527344,2.958937644958496,-0.244730681180954,-2.8732047,1.1047498,3
0.8655263781547546,5.093531131744385,3.645100116729736,-0.7844004034996033,-5.084537,1.8371773,3
2.0776963233947754,4.472707748413086,1.966989278793335,-1.0364429950714111,-2.076331,2.828917,3
2.4011998176574707,4.1594977378845215,-0.7619907855987549,-0.8447632193565369,4.0320163,2.1190915,3
0.939646065235138,3.705142736434937,-1.8872087001800537,-0.6623984575271606,0.31612277,-0.57726765,3
-1.5684024095535278,3.196255922317505,-1.4924145936965942,-0.4957319498062134,-5.669135,-2.2507330000000003,3
-2.520916223526001,2.936186552047729,-1.337604284286499,-0.2698934376239777,-5.213124,-1.071763,3
-2.3316471576690674,3.43120551109314,-3.148366689682007,0.12976926565170288,-0.19456059,-0.17470746,3
-2.1268107891082764,4.959816932678223,-1.8407552242279053,0.08738668262958528,-3.3802227999999994,-1.2342533000000002,3
-1.6970921754837036,7.231929302215576,0.5537459254264832,-0.0013650358887389302,-3.4868188,0.97402465,3
-1.1840816736221311,9.471982955932617,2.298229217529297,0.02688925340771675,-2.0320432,1.9272798,3
-0.4979110658168793,10.586553573608398,3.5557072162628174,-0.08842871338129044,-0.6826419,2.6126707,3
-0.3269700109958649,10.792369842529297,4.5193142890930185,-0.4302690625190735,-1.8716911,2.6624563,3
-1.0296646356582642,11.927539825439453,4.597072124481201,-0.7712842226028442,-2.1108449,3.2794302,3
-2.4146385192871094,13.284258842468262,3.7360589504241934,-0.9062528014183044,1.7577647,3.4428365,3
-4.188713073730469,14.211874008178713,2.9869635105133057,-0.8769751191139221,5.4495287,2.515543,3
-5.513387203216553,14.253729820251465,2.572174310684204,-1.0253239870071411,5.7629027000000015,1.7846428,3
-5.86920166015625,14.388002395629885,2.7811899185180664,-1.3483842611312866,1.9504927,2.3176227000000003,3
-5.303040504455566,14.319565773010256,3.1939074993133545,-1.4764184951782229,-2.5030203,1.6417004000000002,3
-4.291978359222412,14.088284492492676,1.3057408332824707,-1.4487277269363403,0.8491027,1.749518,3
-3.8890202045440674,13.329707145690918,-0.27452969551086426,-1.407768726348877,1.0836749,1.1749994,3
-3.7834722995758057,11.90806484222412,-1.4294874668121338,-1.3581538200378418,-0.1255328,0.9737192,3
-3.971651554107666,10.089648246765137,-2.1840896606445312,-1.0921175479888916,-0.82619524,0.47647488,3
-4.219058036804198,8.140632629394531,-2.3975841999053955,-0.73068767786026,-0.6252206,-0.05955936,3
-4.3435330390930185,6.084351539611816,-2.3526990413665767,-0.3955913484096527,0.22999077,-0.464563,3
-4.610984325408936,4.108098030090332,-2.4751343727111816,-0.1703956574201584,0.48349985,-1.1129965,3
-4.814992427825928,2.6904971599578857,-2.6105074882507324,0.11372313648462296,1.1212431,-1.8545868000000003,3
-4.859533309936523,2.1410846710205083,-2.8596105575561523,0.4480304419994354,0.36651915,-1.8979583,3
-4.611791133880615,2.1801464557647705,-3.0160627365112305,0.7227854132652283,1.754405,-1.4575243999999998,3
-4.114541530609132,2.4869213104248047,-2.2238361835479736,0.9827086329460144,2.3099868,-1.5696182,3
-4.353536605834962,3.58686900138855,-1.0248067378997805,1.3118915557861328,2.438574,-2.1007655,3
-6.0643510818481445,6.0023746490478525,-0.3926315009593964,1.4929823875427246,0.42730024,-3.4535267,3
-6.90504264831543,8.480945587158201,-1.2494782209396362,1.4879310131072998,2.8170052000000005,-3.1337388,3
-5.6287994384765625,10.609336853027344,-1.5417578220367432,1.7414357662200928,1.5766432,-0.5589417,3
-3.906702756881714,12.354342460632324,-1.3759942054748535,1.9977539777755735,0.8454375,0.5510005,3
-2.390470266342163,13.66620922088623,-0.7936388254165649,1.9948878288269043,0.7867944,-0.7086037,3
-1.6568998098373413,14.51274871826172,-0.535722553730011,1.769339680671692,-1.0363328,-2.2137756,3
-2.2988224029541016,14.934052467346193,-0.9151809215545654,1.4741731882095337,1.3487904,-2.1108449,3
-3.66530966758728,14.734855651855467,-1.1095751523971558,1.1801280975341797,3.3851097,-1.4480561,3
-4.499982833862305,13.7849702835083,-0.8436998128890991,0.90847909450531,3.6209037,-0.50640726,3
-4.065317630767821,11.756016731262207,-0.1903601586818695,0.591566801071167,2.4636195,0.051923547,3
-2.4616527557373047,9.087166786193848,0.905791699886322,0.1883023977279663,-1.0790935,0.40744713,3
-0.9133689403533936,6.860042095184326,1.999839305877685,-0.36565834283828735,-3.677714,0.9257663,3
0.16017059981822968,5.345702648162842,2.4032633304595947,-0.8883763551712036,-3.7775908,1.59558,3
1.0668885707855225,4.367899417877196,1.2771997451782229,-1.0365720987319946,-0.09865474,1.9028453,3
1.3094675540924072,3.6416943073272714,-0.007683976553380489,-1.0547491312026978,1.2721269,0.5525276,3
0.16409137845039368,3.146581649780273,-0.7994887232780457,-1.0280866622924805,0.7095199999999999,-0.9605856,3
-1.4687566757202148,2.828965663909912,-0.981506645679474,-0.9497864246368408,-1.9285016,-1.2232577,3
-2.1843905448913574,2.486559629440308,-1.01997172832489,-0.8083288073539734,-3.6034942,-1.0167851,3
-2.056378126144409,2.3573951721191406,-2.246436595916748,-0.5330824851989746,-3.4315355000000003,-1.244027,3
-1.4543777704238892,3.4285144805908203,-3.5624845027923584,0.07052019983530045,1.6148223,-1.0253373,3
-1.0542463064193726,5.335154533386231,-0.9805701375007628,-0.09825026988983154,-2.0158553,-0.7883216,3
-0.27297481894493103,7.774666786193848,1.8539499044418333,-0.2495005875825882,-3.8179078,1.8081611,3
0.579391598701477,9.842418670654297,4.041407108306885,-0.32100534439086914,-4.713436,2.499355,3
1.469060301780701,10.786518096923828,4.865559101104736,-0.4015697836875916,-2.0418172,2.784629,3
2.0103199481964107,11.222172737121582,5.134594917297363,-0.7222406268119812,-1.917506,2.6209173,3
2.0064051151275635,12.276565551757812,5.332868099212647,-0.9470080137252808,-2.2849414,3.1236594,3
1.1025573015213013,13.557406425476074,4.951910972595215,-1.0858310461044312,2.02624,2.3405302000000003,3
-0.6708375811576843,14.67518424987793,4.602156639099121,-1.1543753147125244,2.9089403,0.77396625,3
-2.669231653213501,15.296185493469238,4.463577747344972,-1.1411336660385132,-0.5882632,-0.30573806,3
-4.49105978012085,15.444183349609375,3.628571748733521,-1.2685781717300415,-1.4651603000000002,0.2666427,3
-5.7894859313964835,14.922698974609375,1.8134154081344604,-1.317949891090393,-0.5009095,1.820073,3
-6.838289737701416,13.781216621398926,0.5344562530517578,-1.165713906288147,-0.80664754,0.6789767,3
-7.14687967300415,12.397595405578613,-0.7753607034683228,-1.084073185920715,-0.092240654,0.63224554,3
-6.644402503967285,10.49122428894043,-1.9325149059295652,-0.9558569192886353,0.086132,0.5552765000000001,3
-5.9879560470581055,8.469914436340332,-2.316477537155152,-0.6888014674186707,0.07696902,0.28619036,3
-5.505141258239746,6.469379425048827,-2.205485582351685,-0.3812897205352783,1.2165382,-0.11453723,3
-5.186980724334717,4.554736137390137,-1.8636291027069087,-0.2454434782266617,1.2275337,-0.6908886,3
-5.175851821899414,2.843029499053955,-1.9501278400421145,-0.05314955860376358,-0.23548855,-1.8707749,3
-5.0883755683898935,1.831696391105652,-2.634852647781372,0.3613409101963043,-0.6160576,-2.208278,3
-4.869683265686035,1.7635008096694946,-3.693487882614136,0.6859197020530701,1.2776246,-1.856114,3
-4.256804943084717,2.1446390151977544,-3.792778730392456,0.9431179165840148,2.5815165,-1.5665639999999998,3
-3.5545449256896973,2.63285231590271,-2.7963171005249023,1.227856993675232,2.2412646,-1.4223998,3
-3.573875188827514,3.709238767623901,-1.5102850198745728,1.5662491321563718,0.57726765,-2.459038,3
-5.055753707885742,6.004823207855225,-0.5393590927124023,1.6333796977996826,-0.6395759,-3.6960402,3
-6.169731616973878,8.473563194274902,-1.2777875661849976,1.806670308113098,2.0546453,-2.4016168,3
-5.101410388946533,10.622238159179688,-1.6651896238327026,2.137096881866455,1.1688906,0.003970624,3
-3.567692518234253,12.307353019714355,-1.454743504524231,2.3533852100372314,0.40866885,0.25320363,3
-2.7756726741790767,13.218793869018555,-1.4543761014938354,2.228148460388184,-0.0888809,-1.9352211,3
-3.5061511993408203,13.666515350341795,-1.5270215272903442,2.0526783466339107,0.3903429,-1.9669861,3
-4.960307121276856,13.709826469421387,-1.6055964231491089,1.7500227689743042,2.3909266,-1.6187929,3
-6.130555152893066,13.263360977172852,-1.3615940809249878,1.377221941947937,4.4642034000000015,-0.87598073,3
-6.0074520111083975,11.968235969543455,-0.5054000020027161,0.9814711213111876,4.203364,0.30024028,3
-4.5858120918273935,9.913960456848145,0.5498484969139099,0.5776683688163757,2.0027218,0.4978552,3
-2.4210729598999023,7.66287899017334,1.7306991815567017,0.12994414567947388,-0.6603453,0.80481493,3
-0.4066393673419952,5.63834285736084,3.166470050811768,-0.4142548143863678,-4.5249844,1.2327261,3
0.8487222194671631,4.4117584228515625,3.828465700149536,-0.9596512913703918,-5.9736514000000005,2.1248949,3
1.64443039894104,3.8700962066650386,2.235402584075928,-1.1771390438079834,-0.9272934000000002,2.6823094,3
1.5571695566177368,3.541962146759033,-0.5712406635284424,-0.975369155406952,3.370449,0.7968736999999999,3
-0.07585456967353821,3.3313775062561035,-2.0797572135925293,-0.7226334810256958,1.0198395,-1.5528195,3
-2.209051609039306,3.025357961654663,-1.821721434593201,-0.5942625403404236,-3.9791763,-1.6548339,3
-2.80668306350708,2.473577976226806,-0.9223668575286864,-0.5004507899284363,-5.8716370000000015,-0.8530733,3
-2.468368530273437,2.0907700061798096,-1.5423460006713867,-0.33351051807403564,-3.998113,-0.29565877,3
-1.450924515724182,2.6255412101745605,-3.4038147926330566,-0.15010489523410794,6.2280765,0.6789767,3
-1.0306689739227295,3.925400972366333,-1.141892671585083,-0.0865330845117569,-3.6654968,-0.91232723,3
-0.8102493286132812,6.323008060455322,2.3309271335601807,-0.4303365051746368,-6.439436,2.3961189,3
-0.5770427584648132,8.484923362731934,4.353623390197754,-0.504827082157135,-4.154189,1.8069394,3
0.034467581659555435,9.448108673095703,4.633069038391113,-0.52325439453125,-1.8417587,2.2947154,3
0.43010663986206055,10.321663856506348,4.36677885055542,-0.7310180068016052,-1.8887954,2.8744264,3
0.2340863347053528,11.744766235351562,3.828684568405152,-0.7708587050437927,-0.36254853,3.0558534,3
-0.7530711889266968,13.17831325531006,3.3936240673065186,-0.7116535902023315,2.2763894,2.3188446,3
-2.318912506103516,14.312786102294922,3.199284553527832,-0.6985960602760315,2.6933048,0.9483683,3
-3.9085597991943364,14.847394943237305,2.966695070266724,-0.8769098520278931,0.6053675000000001,0.83077675,3
-5.32098388671875,15.096861839294435,2.2394895553588867,-1.241910099983215,0.02687807,1.8741345,3
-6.411136150360107,14.854520797729492,1.6515426635742188,-1.2952460050582886,-1.7159204,1.1976013,3
-7.059419631958008,14.349656105041506,0.339991956949234,-1.203373908996582,-0.8338310999999999,0.6747006999999999,3
-7.1631269454956055,13.362252235412598,-1.1959898471832275,-1.109019160270691,0.204029,0.7733554,3
-6.636698722839356,11.638726234436035,-2.406249523162842,-1.00906503200531,0.29626966,0.54611355,3
-5.995866298675537,9.579401016235352,-2.7479679584503174,-0.6767073273658752,0.004581489,0.1255328,3
-5.4117159843444815,7.458012104034424,-2.4668805599212646,-0.35253575444221497,0.8857546000000001,-0.112704635,3
-5.1519432067871085,5.368449687957764,-2.1226625442504883,-0.2332238405942917,1.3075571,-0.65148777,3
-5.248458385467528,3.4584217071533203,-2.2855055332183842,0.01836793124675751,-0.30695978,-1.9712621,3
-5.162781715393066,2.2158443927764893,-2.7601149082183842,0.5104444622993469,-0.34269542,-2.434298,3
-4.8114895820617685,1.9713373184204104,-3.3778042793273926,0.8866339325904846,1.2220358999999998,-2.019826,3
-4.206430435180663,2.4264090061187744,-3.269139528274536,1.2287079095840454,2.503631,-1.8264871,3
-3.7341585159301762,3.2642297744750977,-2.6234123706817627,1.5767579078674316,2.5998425,-1.824349,3
-4.414168357849121,5.276818752288818,-2.05039644241333,1.8122633695602417,0.6588182,-2.9239066000000005,3
-5.797792911529541,7.7743754386901855,-1.9693516492843628,1.9076275825500488,0.96486163,-3.4370334,3
-6.076144695281982,10.010527610778807,-1.80564558506012,2.1124193668365483,-0.035124752999999995,-1.6545285,3
-5.072446823120117,11.866007804870605,-1.5763335227966309,2.314183235168457,0.045814894,-0.82894415,3
-4.149094581604004,13.331741333007812,-1.191440224647522,2.1990010738372803,0.36682457,-2.322204,3
-4.496136665344238,14.311772346496582,-1.392579436302185,1.9867510795593264,0.26450464,-2.4813347,3
-5.856169700622559,14.553274154663086,-1.6784642934799194,1.6593569517135618,1.7785342,-2.1832323,3
-7.341386318206787,14.235002517700195,-1.842301607131958,1.2412978410720823,4.0146065,-1.4581354,3
-7.4966068267822275,13.08723258972168,-1.3969677686691284,0.8523986935615541,4.9858823,-0.7147123000000001,3
-6.067516326904298,11.290050506591795,-0.3387567698955536,0.4801487326622009,3.4257324,-0.002443461,3
-3.5520322322845463,8.950888633728027,0.8005286455154419,0.08046781271696091,1.0351112,0.752586,3
-1.0771493911743164,6.5293235778808585,2.3329954147338867,-0.42448535561561584,-3.306308,1.2122620000000002,3
0.4965965747833252,4.841285228729248,3.5322601795196533,-0.9838688373565674,-6.006027,2.0387628,3
1.4583483934402466,4.185119152069092,2.9498119354248047,-1.314168930053711,-5.100114,2.9513955000000003,3
1.5761449337005615,4.000458717346191,0.3673610091209412,-1.1337172985076904,5.4400606,1.1450669,3
-0.5409824848175049,3.5073466300964355,-0.8031548857688904,-0.9151142835617064,-0.39858958,-1.9281962,3
-2.757662296295166,3.1842687129974365,-0.41297709941864014,-0.7984399199485779,-3.8347065,-1.1258247,3
-3.7221641540527344,2.594878911972046,0.3371446430683136,-0.6019505858421326,-4.653266,-0.7281514,3
-3.568489551544189,2.1704890727996826,-0.3184671401977539,-0.2985486388206482,-3.2213979,-0.73426,3
-2.3852481842041016,2.858808279037476,-2.2072136402130127,0.0102101918309927,1.2983941,-0.9630291,3
-1.7607011795043943,4.432692050933838,0.029384495690464973,-0.11108696460723876,-2.9898798,0.27122417,3
-1.1546493768692017,6.8514838218688965,3.1061437129974365,-0.3143907785415649,-5.0032916,2.430022,3
-0.6690793633460999,8.538238525390625,4.543334484100342,-0.5096547603607178,-1.6920967,1.5201381,3
-0.13619494438171387,9.44210720062256,5.156517028808594,-0.8163481950759888,-1.5906931,2.0305161,3
0.1072581708431244,10.532757759094238,5.004989147186278,-1.0703632831573486,-2.9611692,2.809064,3
-0.061097197234630585,12.013168334960938,4.220073223114014,-0.9413395524024964,-1.9040669,3.2449162,3
-0.8862859010696411,13.4164400100708,3.3307683467864986,-0.8628602623939514,1.0968086,3.0332513,3
-2.177083969116211,14.519729614257812,2.5206987857818604,-0.9234719276428224,4.0372086000000005,2.2333232999999995,3
-3.471003770828247,14.934118270874025,2.0684823989868164,-1.1009947061538696,3.9538252,2.0201313,3
-4.541627883911133,15.227970123291016,2.0270888805389404,-1.3885371685028076,1.3087788,2.1539109,3
-5.226295471191406,14.99228572845459,1.9392026662826536,-1.4427294731140137,-1.525636,1.0925325,3
-5.534099578857422,14.310166358947756,0.23380954563617706,-1.36732816696167,-0.16523905,0.9117164,3
-5.562811851501465,13.108152389526367,-1.4716273546218872,-1.3108766078948977,0.17989981,1.1808025,3
-5.290273666381836,11.100991249084473,-2.4253251552581787,-1.2017940282821655,-0.52320606,0.86254174,3
-4.8236961364746085,8.936450004577637,-2.7921838760375977,-0.8852534890174866,-0.21135938,0.49846604,3
-4.541492938995361,6.886344909667969,-2.627697229385376,-0.50706547498703,-0.18325958,-0.008246681,3
-4.2206997871398935,5.041005611419678,-2.264127016067505,-0.2718321979045868,1.1194105,-0.2443461,3
-4.188001155853272,3.3154311180114746,-2.0007212162017822,-0.15577346086502075,-0.10873401,-1.2315043,3
-4.638966083526611,1.7766678333282468,-2.3692333698272705,0.20720896124839785,-1.9074267,-2.7940977000000005,3
-4.78800106048584,1.294646382331848,-3.1425485610961914,0.6303436160087585,1.5057828000000002,-2.3503041,3
-4.3785929679870605,1.8036627769470213,-3.0759487152099614,0.9773032665252686,2.7779098,-1.9486601000000003,3
-3.96169114112854,2.747200965881348,-2.305605888366699,1.3226821422576904,1.207986,-2.3399193,3
-4.658793449401856,5.058829784393311,-2.2148573398590092,1.4463515281677246,1.5894713,-3.0430253,3
-5.326821327209473,7.755356788635254,-2.0421488285064697,1.7001619338989258,1.5659530000000002,-3.1994066,3
-4.5508694648742685,10.036981582641602,-1.51394522190094,1.9716453552246092,-0.16310102,-1.3900238,3
-3.2744264602661133,11.897710800170898,-1.1821645498275757,2.2379159927368164,-1.0082331,-0.691194,3
-2.0891764163970947,13.345717430114744,-0.7883625626564026,2.3111560344696045,0.20158553,-1.5436565,3
-2.0863754749298096,14.348219871520994,-0.7717344760894775,1.9881839752197263,0.12003502,-2.3906212000000004,3
-3.1508901119232178,14.920280456542967,-1.1542315483093262,1.7449973821640017,0.9978484,-2.080607,3
-4.4039459228515625,14.882080078125,-1.3483436107635498,1.4244035482406616,3.3967160000000005,-1.5192219,3
-5.010789394378662,14.12534236907959,-1.0277035236358645,1.1287940740585327,4.065919,-0.5992588000000001,3
-4.380272388458252,12.522254943847654,-0.20938293635845184,0.8502381443977356,3.2391129000000003,-0.0571159,3
-2.5664408206939697,9.986369132995604,0.9526942372322084,0.5172579288482666,1.0751228000000002,0.52442783,3
-0.5486381053924559,7.332398891448975,2.312321186065674,0.012407167814671992,-1.8964312,1.350623,3
0.7549604177474976,5.3610877990722665,3.2133486270904537,-0.6113653779029846,-4.6535715999999985,1.9291124,3
1.6239925622940063,4.352595329284668,2.816697120666504,-0.993563950061798,-4.9614477,2.5375342,3
2.20855975151062,3.857161521911621,-0.06908901780843735,-0.9368113279342652,2.3671029,2.7101038,3
1.1520525217056274,3.610585451126098,-2.4523396492004395,-0.6107435822486877,5.482821,0.4007276,3
-1.6224508285522459,3.5162758827209477,-2.299127578735352,-0.4510146379470825,-1.6016886,-2.9883528,3
-3.669180154800415,3.4405183792114262,-1.38115394115448,-0.5190335512161255,-3.112053,-1.4068227,3
-4.269943237304688,2.796975612640381,-0.5029888153076172,-0.35374510288238525,-3.9522982,-1.1743883999999998,3
-3.601667642593384,2.835343360900879,-1.7592709064483645,0.060238752514123924,0.9776898,-0.72265357,3
-2.2779004573822017,4.330803871154785,-1.8224785327911377,0.16236361861228946,-0.88239485,-1.346347,3
-1.5212340354919434,6.5234551429748535,0.8533657789230347,0.06896442919969559,-4.154189,1.8145752,3
-0.9067863821983336,8.603748321533201,2.9178888797760014,-0.04089244082570076,-2.2928827000000003,1.8897116000000005,3
-0.3077646493911743,9.339832305908203,3.840929746627808,-0.233071967959404,-0.08155051,1.9682078,3
-0.09739500284194946,10.378318786621094,4.447573184967041,-0.5909284949302673,-1.1771374,2.7220156,3
-0.3408064544200897,11.918057441711426,4.656360626220703,-0.8892812728881836,-2.7479773,3.186884,3
-1.2345640659332275,13.348907470703125,3.9995315074920654,-1.0644869804382324,-0.37965274,2.7366762,3
-2.425342798233032,14.365429878234865,3.07489013671875,-1.1037192344665527,3.1783319,1.8035797,3
-3.4885070323944087,14.77263069152832,2.3474349975585938,-1.31986665725708,3.0592132000000003,1.953547,3
-4.2100491523742685,14.79617404937744,1.892557144165039,-1.6336300373077393,1.2922854,2.0857995,3
-4.588934898376465,14.484464645385742,1.7383069992065432,-1.7182471752166748,-1.2009611,1.50731,3
-4.9294257164001465,13.8641996383667,0.6518377065658569,-1.6801314353942869,-0.61086524,1.1908818,3
-5.3045806884765625,12.862397193908693,-0.8127651214599609,-1.6079761981964111,0.05589417,0.8695666999999999,3
-5.298764228820801,11.48736572265625,-2.05003023147583,-1.4885118007659912,-0.16340645,0.8188649,3
-4.975741386413574,9.853275299072266,-3.0384249687194824,-1.204249143600464,-0.43676865,0.3903429,3
-4.889092445373535,8.078632354736326,-3.1597871780395512,-0.7798054218292236,-0.35094208,-0.29840767,3
-4.781721591949463,6.2554359436035165,-2.8304405212402344,-0.5237430334091187,1.4251486,-0.7797695,3
-4.926190376281738,4.344848155975342,-2.614570617675781,-0.2918318808078766,-1.1157454,-1.988061,3
-4.931969165802002,2.904507875442505,-2.8833587169647217,0.23154307901859286,-2.10046,-2.4034493,3
-4.658472061157227,2.422069549560547,-3.9435863494873047,0.6806920170783997,0.10293079,-1.7886133999999998,3
-3.9547297954559326,2.6176927089691158,-4.289764404296875,1.04587721824646,2.477975,-1.3481796,3
-3.09119200706482,3.0740168094635014,-3.299031972885132,1.4036036729812622,2.123673,-1.0888673,3
-2.855626583099365,4.082535743713379,-2.2490127086639404,1.7099294662475586,0.623388,-2.0867157,3
-4.062650680541991,6.319416999816895,-1.833873987197876,1.7596532106399536,1.1902708999999998,-3.062573,3
-5.178311824798584,8.798531532287598,-1.3420463800430298,1.9004558324813845,-0.9957104,-3.0396655,3
-4.619343280792236,10.882071495056152,-0.9339336156845092,2.1187481880187993,-2.1618521,-1.8829921000000005,3
-3.8375864028930655,12.542634963989258,-0.7900803685188293,2.0330090522766118,-1.5793921,-2.0949624,3
-4.149801731109618,13.84323787689209,-1.4050561189651491,1.6733092069625854,-0.5849035,-3.1465669,3
-5.260763168334961,14.658543586730955,-2.0285229682922363,1.3908896446228027,1.3497068,-2.8835895,3
-6.743759632110597,14.897735595703125,-2.3536312580108643,1.155219554901123,4.4638977,-1.8506162,3
-7.0155272483825675,14.648488998413086,-1.7869995832443235,1.0595167875289917,6.4901376,-0.6795876000000001,3
-5.466863632202148,13.478708267211914,-0.16435658931732178,0.9339199662208556,4.302324,0.17318029999999998,3
-2.744938373565674,11.282369613647461,1.305228590965271,0.6261505484580994,1.4379768,0.8051204000000001,3
-0.0530146025121212,8.424715042114258,2.2955946922302246,0.14186668395996094,-1.1835514,1.2956451999999998,3
1.7693389654159546,6.0473079681396475,2.8775818347930913,-0.3937089741230011,-3.2592716,1.6438384,3
2.673462152481079,4.6445159912109375,2.7790002822875977,-0.8060218095779419,-3.6877935,2.164601,3
2.8777616024017334,3.7613308429718018,1.4806793928146362,-0.9137890338897704,-0.50610185,1.9981402,3
1.4372676610946655,3.303436756134033,0.09022177755832672,-0.8812604546546936,1.180497,0.70402217,3
-1.0928263664245603,2.9631557464599614,0.10855377465486526,-0.8566238284111023,-1.212873,-1.102001,3
-2.504279375076294,2.594616651535034,0.5949025154113771,-0.770304799079895,-3.3310483,-0.77304995,3
-2.744276762008667,2.233274221420288,0.5116032958030701,-0.5987340807914734,-3.8014145,-0.88789266,3
-2.301694631576538,2.9324252605438232,-1.7184666395187378,-0.2912783622741699,1.2538009,-0.6386596,3
-2.0957064628601074,4.402039051055908,-0.6034020185470581,-0.2354606837034225,-0.75808376,-0.81336707,3
-1.4894475936889648,6.698198795318604,1.9944021701812744,-0.2688523232936859,-3.5976908,1.8542814,3
-0.8066598176956177,9.021989822387695,3.9193596839904794,-0.23908092081546786,-3.3869424,3.3438764,3
-0.2000335156917572,10.145312309265137,4.655694007873535,-0.20728763937950132,-0.72021013,2.409558,3
0.3568837642669678,10.476685523986816,5.11664342880249,-0.555237352848053,0.032070424,2.7516425,3
0.3156193494796753,11.43804168701172,5.1404218673706055,-0.8986780047416687,0.46975538,2.86282,3
-0.4408568739891052,12.819494247436525,4.731038570404053,-1.0963170528411863,2.1551325,2.761111,3
-1.949461579322815,14.071491241455078,4.091949462890625,-1.237933874130249,2.356718,1.3292428,3
-3.272371530532837,14.749868392944336,2.916870594024658,-1.3920018672943115,0.50518554,1.9837849,3
-3.91510272026062,14.493416786193848,1.9940487146377563,-1.5757949352264404,-1.7159204,1.4535538,3
-4.072756767272948,13.683507919311525,0.7016803026199341,-1.4959670305252075,-0.39736784,1.2977833,3
-4.459510803222656,12.473727226257324,-0.4456486701965332,-1.3781616687774658,0.61850107,0.6976081000000001,3
-4.646029472351074,10.78105926513672,-1.3913778066635132,-1.2976653575897217,0.37934732,0.7367035,3
-4.664357662200928,9.023238182067873,-2.347653865814209,-1.0904532670974731,-0.09865474,0.25473082,3
-4.746939659118652,7.333478927612305,-2.5490593910217285,-0.7067364454269409,-0.0571159,-0.45662177,3
-4.6301045417785645,5.654139518737793,-2.435009479522705,-0.3989564776420593,1.3487904,-0.80481493,3
-4.60220193862915,3.95941686630249,-2.3339552879333496,-0.2312011420726776,-0.05375614,-1.6050483999999998,3
-4.473440170288086,2.6512529850006104,-2.6025464534759517,0.16445788741111755,0.06719518,-1.6927075,3
-4.060049057006837,2.2707016468048096,-2.971633195877075,0.5608346462249756,0.86406887,-1.5735888,3
-3.5350835323333736,2.460738182067871,-2.7670743465423584,0.8937649726867676,2.221717,-1.5671748,3
-3.2855446338653564,3.317067623138428,-2.035591125488281,1.217862844467163,2.091908,-1.7256943,3
-4.132111072540283,5.480851650238037,-1.5570334196090698,1.4876796007156372,0.040011674,-2.7898216,3
-5.435745716094972,7.952158451080322,-1.922199010848999,1.587471842765808,1.5106697,-3.2476652,3
-5.120210647583008,10.15629768371582,-1.5867834091186523,1.872749090194702,-0.45265114,-1.5580118,3
-3.848112344741821,11.983942985534668,-1.4342666864395142,2.138669729232788,-0.062308256,-0.9728029,3
-2.7003114223480225,13.465421676635742,-1.0962276458740234,2.200627088546753,0.94714653,-1.772731,3
-2.305720090866089,14.603398323059082,-0.9071472883224488,2.0364429950714107,-0.48838675,-2.107485,3
-2.9272551536560063,15.173141479492188,-1.0094079971313477,1.834229111671448,1.2974777,-2.207056,3
-4.568521499633789,15.205249786376953,-1.0328553915023804,1.4723564386367798,3.3029485,-1.8390098,3
-4.933802127838135,14.308049201965332,-0.6572617888450623,1.1689833402633667,3.966348,-0.73914695,3
-3.937233686447144,12.46082878112793,0.30180811882019043,0.8685906529426575,3.198185,-0.06047566,3
-2.122328519821167,10.05093765258789,1.540778636932373,0.485934317111969,0.59956425,0.5879578000000001,3
-0.12726448476314545,7.423552513122559,2.9289298057556152,-0.02857675217092037,-2.4471262,0.9935723,3
1.2671103477478027,5.368063449859619,3.6507902145385738,-0.6177409291267395,-4.2745295,1.5809193,3
2.2653262615203857,4.0755348205566415,2.598663568496704,-0.9496646523475648,-2.0851886000000004,2.5305092,3
2.6878736019134517,3.2487611770629883,-0.1892712265253067,-0.8801144361495972,3.0842586,1.883603,3
1.6592323780059814,2.711523056030273,-2.5337159633636475,-0.6692124009132385,4.039346,-0.29749137,3
-0.7437251806259155,2.636486291885376,-2.7525289058685303,-0.430789053440094,-2.1416936,-1.9074267,3
-2.594937324523926,2.488504409790039,-1.636174559593201,-0.38223668932914734,-5.151427,-1.1691961000000002,3
-3.1956899166107178,2.095466136932373,-0.5396227836608887,-0.29954010248184204,-5.450444999999998,-0.7852673000000001,3
-2.5453426837921143,2.0814216136932373,-1.463876485824585,-0.2120230197906494,-1.4205671999999998,-0.20952678,3
-1.492763876914978,3.305403470993042,-2.0964927673339844,0.04995530098676682,2.7241535,-0.21838433,3
-1.0026321411132812,5.672722816467285,0.8865567445755005,-0.18313243985176086,-3.8811324,0.5390885999999999,3
-0.48791357874870295,8.154541015625,3.6748862266540527,-0.4119517505168915,-5.629123,2.8680124,3
-0.08980851620435715,9.538076400756836,4.609054565429688,-0.5066910982131958,-3.2965343000000003,1.4672983,3
0.24355535209178925,10.038639068603516,4.553297996520996,-0.7252103090286255,-1.9016235,2.3518312000000003,3
0.27461478114128113,11.05675220489502,4.416651248931885,-0.8992720246315002,-2.8286116000000003,3.0650162999999995,3
-0.154624804854393,12.499822616577148,3.903141498565674,-0.9557921886444092,0.31856623,2.946203,3
-1.2710950374603271,13.8238525390625,3.399035215377808,-0.9790084362030028,4.660596400000001,1.921782,3
-2.753906726837158,14.647851943969727,3.4263761043548584,-1.0475697517395022,3.769344,0.9645562,3
-4.057313919067384,15.05348300933838,3.5139100551605225,-1.1425939798355105,0.21013765,0.95325524,3
-5.006271839141847,15.107222557067873,2.8208532333374023,-1.341125249862671,-0.7742717,1.8304577,3
-5.591704368591309,14.623976707458494,1.64584219455719,-1.3288992643356323,-0.6960809,1.2565498,3
-5.9399824142456055,13.709766387939453,0.20794439315795896,-1.2319101095199585,0.034513887,0.59956425,3
-5.947046756744385,12.479007720947266,-0.8786236643791199,-1.1933965682983398,-0.1151481,0.4905248,3
-5.367833137512207,10.726683616638184,-1.770883083343506,-1.1087603569030762,-0.5299255999999999,0.37934732,3
-4.702336311340332,8.75703239440918,-2.383593797683716,-0.8498134613037109,-0.5015204000000001,0.122783914,3
-4.253758907318115,6.817766189575195,-2.420766592025757,-0.5341553688049316,0.94714653,-0.12339478,3
-4.115862846374512,4.9241943359375,-2.1844253540039062,-0.3810898363590241,1.7290541,-0.57910025,3
-4.488292217254639,3.109269142150879,-2.1861295700073238,-0.15561166405677795,-1.5949692,-1.9734001,3
-4.84696102142334,2.0017788410186768,-2.9895994663238525,0.3560372292995453,-2.1975877,-2.8722885,3
-4.764304161071777,2.0505926609039307,-4.185012340545653,0.7772892713546753,1.8655825,-2.1132884,3
-4.154159069061278,2.738675594329834,-4.10302734375,1.1323033571243286,3.068987,-1.6050483999999998,3
-3.6291894912719727,3.639259815216065,-3.078324317932129,1.5120059251785278,2.3903158,-1.7397442,3
-4.231781482696533,5.52897310256958,-2.0978574752807617,1.763450264930725,0.77579886,-3.0030136,3
-5.492027759552002,7.963977813720702,-2.0270740985870357,1.9160970449447632,0.8032878000000001,-3.0109549,3
-5.095366477966309,10.160330772399902,-2.259936809539795,2.2406411170959477,-0.09987647,-0.52595496,3
-3.430431842803955,11.972362518310547,-2.194103240966797,2.540663719177246,0.11362094,0.016493361,3
-2.5405468940734863,13.09648323059082,-2.0510272979736333,2.453267812728882,0.10995574,-1.9080375,3
-2.9615073204040527,13.66085720062256,-1.9961156845092771,2.303213119506836,-0.569021,-1.883603,3
-4.451029300689697,13.771716117858887,-1.933001518249512,2.0117261409759517,1.8750509,-1.8509218,3
-5.873513698577881,13.486893653869627,-1.846250057220459,1.6310139894485474,4.4556513,-1.0015136,3
-6.058430194854736,12.395306587219238,-1.264052152633667,1.2658474445343018,4.9422054000000015,-0.31948254,3
-5.11067008972168,10.520951271057127,-0.2638076841831207,0.9016300439834596,2.951701,0.24770586,3
-3.297103881835937,8.347478866577147,0.9188870191574096,0.4541961252689362,0.14080444,0.7455609999999999,3
-1.3424270153045654,6.257029056549072,2.2391552925109863,-0.12253133207559586,-3.218038,1.0436633,3
0.056638505309820175,4.822220325469972,3.2955048084259038,-0.7527886033058167,-5.73297,1.8536706000000005,3
0.9985632300376892,4.0367093086242685,3.1335752010345463,-1.1000962257385254,-4.8246136,2.6245825000000003,3
1.6086523532867432,3.768633127212525,0.6520536541938782,-1.074705719947815,3.0066787999999995,1.971873,3
0.9651488661766052,3.7283976078033447,-1.8304576873779297,-0.8390926718711853,3.7858374,-0.029626964,3
-1.1119909286499023,3.7209744453430176,-2.352900743484497,-0.6397221088409424,-1.8011361,-1.8845193,3
-2.8246288299560547,3.5208656787872314,-1.5265998840332031,-0.5227609276771545,-4.3026295,-0.7770206000000001,3
-3.094717264175415,3.5557615756988525,-2.0954995155334477,-0.18124818801879886,-5.4098225,-1.0430524,3
-2.409831285476685,4.678299903869629,-3.3793828487396236,0.34882214665412903,2.0491474,-0.97097033,3
-2.0079317092895512,6.2235541343688965,-0.9088053107261658,0.2685235142707825,-2.1820107,-0.8445212,3
-1.545748949050903,8.329923629760742,1.4478976726531982,0.21529008448123926,-3.3814445,0.63438356,3
-0.7707584500312805,10.28371524810791,3.1974391937255864,0.17589029669761658,-2.651766,1.9343048,3
0.2130979895591736,11.23052215576172,4.311415195465088,-0.055655281990766525,-1.001819,2.6633725,3
0.658752977848053,11.570199966430664,4.6589789390563965,-0.551895022392273,-0.41447207,2.4853053,3
0.439058005809784,12.559680938720705,4.786789417266847,-0.9671738147735596,-1.3203851999999998,3.1771102000000004,3
-0.3801499605178833,13.782816886901855,4.471825122833252,-1.2128798961639404,-0.56107974,3.3185256,3
-1.8194561004638672,14.858453750610352,3.646522045135498,-1.2619553804397583,2.6151142000000003,1.9990565,3
-3.26171875,15.365474700927734,2.8134608268737797,-1.3413593769073486,2.8273897,1.5079208999999998,3
-4.13277006149292,15.371122360229492,1.6459877490997314,-1.574967622756958,2.690556,2.3924537,3
-4.52700662612915,14.95305633544922,0.8119891881942749,-1.7007479667663574,1.7116444,1.5928311000000002,3
-4.496140003204347,14.219401359558105,0.8214132785797119,-1.6557499170303345,-1.2635747,1.0644327,3
-4.513565540313722,13.205570220947266,-0.28589490056037903,-1.4968079328536987,0.17318029999999998,0.7840455,3
-4.4855146408081055,11.651199340820312,-1.2668137550354004,-1.296534538269043,0.25717425,0.59773165,3
-4.1380558013916025,9.705818176269533,-1.917746663093567,-1.0388816595077517,-0.9056077,0.46120325,3
-3.8332533836364746,7.710501670837402,-2.300992727279663,-0.676392138004303,-1.1123856,0.13897185,3
-3.6809585094451904,5.9174156188964835,-2.2835521697998047,-0.3174194395542145,0.40286562,-0.13744467,3
-3.606490612030029,4.3498125076293945,-2.257981300354004,-0.10527104139328004,1.3622295,-0.51159966,3
-3.65185284614563,3.102205514907837,-2.359772205352783,0.18219685554504395,0.6627888000000001,-0.9987647,3
-3.521467685699463,2.4574837684631348,-2.663682460784912,0.5925768613815308,-0.21044308,-0.93951076,3
-3.131080150604248,2.3313002586364746,-3.0346105098724365,0.9820479154586792,1.1472049,-0.895223,3
-2.4003729820251465,2.768437623977661,-1.972789287567139,1.3658411502838137,1.7608191000000002,-0.8707884,3
-2.3431410789489746,3.83289647102356,-0.5297276973724365,1.7306087017059326,0.9300423,-1.3753631000000002,3
-3.795173168182373,6.04536771774292,-0.1199079155921936,1.824631094932556,0.8371908000000001,-2.8069258,3
-4.650253772735597,8.475358009338379,-0.680383026599884,1.7090287208557131,1.7250835,-2.794403,3
-3.8617587089538574,10.591382026672363,-0.84348064661026,1.8900303840637207,0.15943582,-1.7146988,3
-2.768035411834717,12.33473300933838,-0.8909468650817871,2.1025545597076416,-1.4700472,-1.2153164,3
-1.7824199199676514,13.74777126312256,-0.8207868337631226,2.1904854774475098,-1.1459832,-1.3790283,3
-1.354119896888733,14.72326946258545,-0.654100239276886,1.8683594465255735,0.58032197,-1.0714576,3
-2.571676731109619,15.090591430664062,-0.8508846759796143,1.3858915567398071,0.5290093000000001,-1.6673566999999998,3
-4.186339855194092,15.116701126098633,-1.442774534225464,1.0725271701812744,2.4507914,-1.8399261,3
-5.1861305236816415,14.679854393005373,-1.5043253898620603,0.7593715190887451,3.2433891,-1.3329079,3
-5.088088035583496,13.393243789672852,-0.8507350087165833,0.4697058796882629,2.6450465,-0.79504114,3
-3.9476511478424072,11.462008476257324,0.30996420979499817,0.18721671402454376,0.97494096,0.002443461,3
-2.1404256820678706,9.194803237915039,1.6031213998794556,-0.12317760288715365,-0.8564331000000001,0.4578435,3
-0.6087149381637573,7.316523551940918,2.035560607910156,-0.43378716707229614,-1.9590448,0.97310835,3
0.5649403929710388,6.0673346519470215,0.9973663091659546,-0.6136482357978821,-0.2779437,1.4999796,3
1.397653341293335,5.150359153747559,-1.061899185180664,-0.5338672995567322,4.2369614,2.1658227,3
1.4595284461975098,4.136657238006592,-2.812525987625122,-0.43202391266822815,5.4070735,0.90285885,3
0.3891125619411469,3.3780713081359863,-3.3802590370178223,-0.3993358016014099,0.86284715,-0.25717425,3
-1.4175177812576294,3.0266029834747314,-2.194776058197021,-0.3655674755573273,-4.9980993,-0.70066243,3
-2.4296741485595703,2.5998661518096924,-1.1632050275802612,-0.2554553151130676,-4.8536296,-0.40286562,3
-2.423817873001098,2.0435106754302983,-0.9457446336746216,-0.11941951513290405,-2.6288586,-0.36377025,3
-1.4162713289260864,2.211019515991211,-2.8000967502593994,-0.004066324792802335,3.7543778,-0.14874569,3
-0.9718968272209167,4.1709375381469735,-1.7556600570678709,0.13372227549552915,-0.89552844,-0.5519168000000001,3
-1.232882380485535,6.889693737030028,0.5155804157257079,0.08829041570425034,-3.029586,0.95264435,3
-1.2374837398529053,9.188763618469238,1.6156141757965088,0.15491224825382233,-1.2681563,1.1447614,3
-0.6472817063331604,10.680084228515623,2.2932043075561523,0.07619450986385345,0.73731434,2.078469,3
-0.2954356074333191,11.710062026977539,2.7814767360687256,-0.1739296168088913,0.93828905,1.990199,3
-0.23525649309158325,12.828706741333008,2.9920439720153813,-0.3609187304973602,1.1896601,2.0201313,3
-0.5221567153930664,14.040848731994627,2.95243239402771,-0.4511213004589081,1.8909334,2.1569653,3
-1.0181537866592407,14.890606880187988,2.689396858215332,-0.7352086305618286,2.234545,2.019215,3
-1.4617947340011597,15.077285766601562,2.386492252349853,-1.0962039232254028,2.519819,1.7556267,3
-1.8716771602630613,14.863057136535645,2.656311511993408,-1.4455665349960327,-1.0922271,1.205848,3
-2.349858283996582,14.779149055480955,2.382201910018921,-1.75205397605896,-2.9483411,1.183246,3
-2.8234753608703613,14.558711051940918,0.5923471450805664,-1.8754383325576784,-0.6899723000000001,1.0812315,3
-3.510730743408203,13.79385471343994,-1.1600333452224731,-1.8450855016708372,0.10293079,0.52748215,3
-4.2067298889160165,12.478194236755373,-2.389613151550293,-1.7635931968688965,0.07544186,0.19028452,3
-4.54514741897583,10.811981201171877,-3.337110996246338,-1.59760844707489,-0.8374963,0.08063421400000001,3
-4.684168338775635,9.181529998779297,-4.130420684814453,-1.2960647344589231,-0.32436943,-0.15821409,3
-4.750563144683838,7.533714771270753,-4.334703445434569,-0.8331072330474854,1.074512,-0.5757405,3
