acc_x,acc_y,acc_z,gyro_x,gyro_y,gyro_z,label
0.0,0.0,0.0,0.0,0.027183503,0.023518313,8
0.0913439765572548,0.07607244700193405,0.26691892743110657,-0.001331562758423388,0.02443461,0.018325957,8
0.3092200756072998,0.25717753171920776,0.901258945465088,-0.0038812803104519844,0.025961773,0.021991149,8
0.6108495593070984,0.5073482394218445,1.7757242918014526,-0.007684903219342231,0.019547688,0.032070424,8
0.9487770795822144,0.7869400978088379,2.7508161067962646,-0.011905107647180556,0.021380283,0.025961773,8
1.2847765684127808,1.064138889312744,3.714972972869873,-0.016307370737195015,0.015271631,0.022907447,8
1.594794988632202,1.3190312385559082,4.5987067222595215,-0.019910218194127083,0.017715093,0.02107485,8
1.867348909378052,1.5421983003616333,5.369433879852295,-0.02458234876394272,0.015882496,0.021991149,8
2.0995464324951167,1.73136568069458,6.0196075439453125,-0.02809722349047661,0.019242255,0.018020526,8
2.2933590412139893,1.8882703781127932,6.55562686920166,-0.030894633382558826,0.022296581,0.022602014,8
2.4530010223388667,2.0165331363677983,6.990556716918945,-0.033488091081380844,0.05497787,0.03634648,8
2.583380699157715,2.1202871799468994,7.339042663574219,-0.03438955172896385,0.060170225999999986,0.042760565999999986,8
2.689283847808838,2.2035574913024902,7.61533784866333,-0.034899778664112084,0.043676864,0.04886922,8
2.7750120162963867,2.2699551582336426,7.832203388214111,-0.0393080934882164,0.02321288,0.050396383,8
2.844264030456543,2.322582244873047,8.000593185424805,-0.04468942806124687,0.003970624,0.03481932,8
2.900139808654785,2.364033937454224,8.129656791687013,-0.05021781846880913,-0.03390302,0.052839845,8
2.945198535919189,2.3964412212371826,8.226870536804201,-0.05476794391870499,0.00580322,0.016493361,8
2.9815278053283687,2.42156982421875,8.298519134521483,-0.057403042912483215,-0.0018325958,0.05772676700000001,8
3.0108258724212646,2.4408276081085205,8.349518775939941,-0.055802464485168464,-0.008857545999999999,0.055283304000000005,8
3.0344665050506587,2.455355167388916,8.383859634399414,-0.053785029798746116,-0.007330383,0.042760565999999986,8
3.0537919998168945,2.4661974906921387,8.405637741088867,-0.052901837974786765,-0.004276057,0.043066,8
3.07313871383667,2.4755725860595703,8.427783012390138,-0.05360804498195648,-0.013439035,0.05100725,8
3.093577146530152,2.48423433303833,8.453483581542969,-0.059473998844623566,-0.03940081,0.07971791,8
3.1149041652679443,2.4923250675201416,8.482057571411133,-0.06797261536121367,-0.036957346,0.058948494,8
3.1369249820709233,2.499952793121338,8.512908935546875,-0.0763135701417923,-0.089186326,0.106595986,8
3.1595137119293213,2.507210731506348,8.545605659484862,-0.08127560466527939,-0.03970624,0.04886922,8
3.1825671195983887,2.5141732692718506,8.579797744750978,-0.08443986624479294,-0.0571159,0.0842994,8
3.205970048904419,2.5208935737609863,8.615155220031737,-0.08046400547027588,0.00061086525,0.099265605,8
3.229668378829956,2.5274224281311035,8.651471138000487,-0.07386999577283859,-0.02443461,0.14905111,8
3.253603219985962,2.5337975025177,8.688555717468263,-0.07026422768831253,-0.03176499,0.1966986,8
3.2791156768798833,2.5416159629821777,8.727682113647461,-0.06885301321744919,-0.04795292,0.25442538,8
3.3116729259490967,2.571791648864746,8.787349700927733,-0.06956209242343903,-0.07880162,0.35277468,8
3.2594449520111084,2.566148042678833,8.82361888885498,-0.06531403958797455,-0.053145275,0.34697145,8
3.2554893493652344,2.606112003326416,8.854011535644531,-0.05114845186471939,-0.17440203,0.5329799,8
3.2601864337921143,2.669143915176392,8.869659423828125,-0.031651671975851066,-0.19242255,0.57635134,8
3.2911713123321533,2.6924214363098145,8.853142738342285,-0.006316007114946842,-0.25320363,0.72265357,8
3.3298215866088867,2.6388623714447017,8.811605453491211,0.035578303039073944,-0.18203785,0.7079928000000001,8
3.396313190460205,2.5608751773834233,8.825352668762207,0.08635350316762924,-0.29443705,0.6420194,8
3.486835479736328,2.519871473312378,8.828519821166992,0.10923254489898683,-0.17104226,0.5839871999999999,8
3.6055006980896,2.54365611076355,8.817826271057129,0.10524845868349077,-0.14538592,0.61727935,8
3.813626766204834,2.576643943786621,8.742863655090332,0.09512680023908617,-0.13775012,0.71959925,8
4.017791748046875,2.552398204803467,8.574241638183594,0.11138661205768584,0.012217305,0.818254,8
4.23264741897583,2.5125954151153564,8.426128387451174,0.1648794561624527,0.18692477,0.9663888,8
4.449596405029297,2.53336763381958,8.372782707214355,0.22005653381347656,0.38820487,1.1123856,8
4.640566349029541,2.544396162033081,8.328147888183594,0.2676879167556763,0.5329799,1.2110404,8
4.8433265686035165,2.4988741874694824,8.356989860534668,0.3238901793956757,0.5537493,1.3402383,8
4.940842628479004,2.35929012298584,8.449856758117676,0.3866323828697205,0.65240407,1.4046847,8
4.911983013153076,2.1084644794464107,8.508193969726562,0.4374413192272186,0.8069529999999999,1.2721269,8
4.949646949768066,1.8506631851196291,8.590573310852049,0.4869682490825653,0.7874053000000001,1.3017538999999998,8
4.919097423553467,1.5983208417892456,8.721996307373049,0.5397679209709167,0.7593055000000001,1.1942415000000002,8
4.872986316680908,1.3974604606628418,8.872367858886719,0.5883790254592896,0.6627888000000001,1.0464121,8
4.953425407409668,1.29512357711792,9.005090713500977,0.6148439049720764,0.71929383,0.98807454,8
5.057939052581787,1.2215206623077393,8.958171844482422,0.6297558546066284,0.72082096,0.84849185,8
5.034437656402588,1.1681029796600342,8.788815498352049,0.6315789818763733,0.7367035,0.66859204,8
4.899771213531494,1.2217645645141602,8.649789810180664,0.6225787401199341,0.8081746999999999,0.54336464,16
4.69150447845459,1.4071043729782104,8.61270809173584,0.5977662801742554,0.88453287,0.54336464,16
4.5013861656188965,1.6333922147750854,8.716733932495117,0.5811736583709717,0.73914695,0.63499445,16
4.228658199310304,1.6893154382705688,8.766131401062013,0.5598118901252747,0.5439755000000001,0.6261369000000001,16
3.9290375709533687,1.7585816383361816,8.714469909667969,0.5440583825111389,0.5723807,0.5766568,16
3.772239446640015,1.8301539421081543,8.629728317260742,0.5208899974822998,0.61300325,0.57848936,16
3.70721173286438,1.8532153367996216,8.47597599029541,0.4867176711559296,0.464563,0.44104472,16
3.5296413898468018,1.951184868812561,8.178989410400389,0.4320906400680542,0.5742133,0.36346483,16
3.157179594039917,2.24767541885376,7.851362705230713,0.35664892196655273,0.84879726,0.41172317,16
2.715066432952881,2.734318256378174,7.659404277801514,0.3148133754730225,0.86193085,0.473726,16
2.312891721725464,3.2518846988677983,7.493258953094482,0.28086337447166443,0.79473567,0.6007859999999999,16
1.8449382781982424,3.6836881637573238,7.369971752166747,0.2485167533159256,0.75655663,0.72143185,16
1.2813652753829956,3.982390880584717,7.2678656578063965,0.2321125864982605,0.63316184,0.7629706999999999,16
0.6918594241142273,4.152843952178955,7.18089485168457,0.231281578540802,0.46211955,0.6936375,16
0.1706647127866745,4.33528470993042,7.150646686553955,0.2133515626192093,0.3811799,0.6765333,16
-0.15827837586402893,4.50781774520874,7.300946235656737,0.1809888780117035,0.27091873,0.6068946,16
-0.2677671015262604,4.681007385253906,7.680575370788574,0.12396601587533952,0.34330627,0.6230826,16
-0.21805377304553986,4.789450168609619,8.25083065032959,0.07477743178606032,0.22510384,0.5522222,16
-0.0752321407198906,4.875062465667725,8.788315773010254,-0.015422669239342213,0.03756821,0.31826079999999995,16
0.06397394835948944,4.8303985595703125,9.293235778808594,-0.1472538709640503,-0.29962940000000005,0.19700404,16
0.12137949466705322,4.422881126403809,9.469372749328613,-0.29343849420547485,-0.18234327,-0.10842858,16
0.25950655341148376,3.3561837673187256,9.487061500549316,-0.4041352570056915,-0.090713486,-0.52534413,16
0.6499381065368652,2.492539167404175,9.616609573364258,-0.44143977761268616,-0.28924468,-0.8741482,16
1.2587215900421145,2.1932659149169917,9.72499179840088,-0.4655137360095978,-0.31490102,-0.9309586,16
1.8010617494583132,2.3688344955444336,9.718671798706056,-0.4670033752918243,-0.20738874,-0.7849618,16
2.1246140003204346,2.5489745140075684,9.58616542816162,-0.4476657211780548,0.054061573,-0.66859204,16
2.3871846199035645,2.494405031204224,9.38692569732666,-0.3879065811634064,0.28130344,-0.6966918000000001,16
2.63254451751709,2.31235933303833,9.092041015625,-0.27659735083580017,0.45814893,-0.75869465,16
2.7646055221557617,2.1193790435791016,8.849928855895996,-0.1185254082083702,0.65148777,-0.82741696,16
2.7195448875427246,1.9381877183914185,8.729955673217772,0.048941973596811295,0.7874053000000001,-1.0598511999999998,16
2.5231680870056152,1.8325344324111936,8.797865867614746,0.19312956929206848,0.7593055000000001,-1.4150693,16
2.2383978366851807,1.8454034328460691,8.946219444274902,0.28497982025146484,0.72295904,-1.7324138999999998,16
2.05005407333374,2.0064735412597656,9.14441204071045,0.35037761926651,0.6404922,-1.7400496,16
2.2153472900390625,2.3271801471710205,9.59147834777832,0.3967593014240265,0.54641896,-1.4165965,16
2.642117500305176,2.9041593074798584,10.23498821258545,0.3577815592288971,0.31184670000000003,-0.91782504,16
3.0366978645324707,3.3998076915740967,10.334601402282717,0.2751490473747253,0.7150178,-0.43035457,16
3.0581755638122563,3.309375286102295,9.992599487304688,0.3159341812133789,0.6411031,-0.6169739000000001,16
2.6159989833831787,2.899796485900879,9.793298721313477,0.3412996232509613,0.7825184000000001,-1.1301007,16
2.586737871170044,2.9561798572540283,9.62822151184082,0.37116894125938416,0.7144069000000001,-0.5821546,16
2.66162371635437,3.3931541442871094,9.844613075256348,0.44976839423179626,0.81092364,-0.028099801,16
2.380673408508301,3.657855033874512,10.142069816589355,0.5110121369361877,1.1695015,-0.10323623,16
1.9192599058151243,3.7223110198974614,10.228443145751953,0.5712957382202148,1.3271046999999998,-0.35308012,16
1.7095291614532468,3.820591926574707,9.96140956878662,0.6592487692832947,1.4703526000000002,-0.1142318,16
1.6268252134323118,4.08096981048584,9.771995544433594,0.7847356796264648,1.4871514,0.15974127,16
1.4143203496932983,4.3274497985839835,9.665460586547852,0.8616222143173218,1.4682146,0.14844026,16
0.9814275503158568,4.591075420379639,9.460199356079102,0.8694921731948853,1.459357,-0.014049901000000002,16
0.5240675806999207,4.789850234985352,9.254638671875,0.8589500784873962,1.4010195,-0.08277224,16
0.10277386009693146,4.994706153869629,9.114094734191896,0.8483433723449707,1.3869696000000002,-0.087659165,16
-0.2400077134370804,5.145534038543701,8.9930419921875,0.8369140028953552,1.38025,-0.17562376,16
-0.5576621890068054,5.116014003753662,8.875072479248047,0.8051838278770447,1.3655893,-0.3924809,16
-0.909495174884796,4.959304332733153,8.621586799621582,0.773935079574585,1.1725558,-0.6291912,16
-1.3904587030410769,5.13791036605835,8.400080680847168,0.8692298531532288,1.1365148,-0.9297369,16
-1.8114715814590452,5.146914005279541,8.117997169494629,0.8762625455856323,1.7104226000000002,-0.6768387,16
-2.1773107051849365,5.069884777069092,7.8202576637268075,0.8113000392913818,1.9468275,-0.66798115,16
-2.39786434173584,5.268160820007324,7.49932336807251,0.8133894205093384,1.681712,-0.59559363,16
-2.5847411155700684,5.632516384124756,7.220108985900879,0.8524954319000244,1.7947221000000002,-0.44806966,16
-2.8201334476470947,5.9303483963012695,6.985605716705322,0.8664875030517578,1.9715676,-0.4025602,16
-3.1067299842834477,6.129485130310059,6.744187355041504,0.8376350998878479,2.0824397,-0.40622538,16
-3.4736528396606445,6.2567219734191895,6.483718395233153,0.8278431892395021,1.8509218,-0.31123585,16
-3.893394470214844,6.361490249633789,6.183701992034912,0.815639078617096,1.8732183,-0.30176744,16
-4.263901710510254,6.507711410522461,5.872966289520264,0.8139124512672424,1.9046779,-0.33505958,16
-4.485529899597168,6.751585960388184,5.4984893798828125,0.8046222925186157,1.9214766,-0.19456059,16
-4.597980499267578,7.025839328765869,5.096211910247803,0.7919100522994995,2.0909917,-0.035430185,16
-4.7317962646484375,7.361685276031494,4.8441243171691895,0.7278380990028381,2.1801782000000003,0.21288654,16
-4.9657721519470215,7.802064418792725,4.766530513763428,0.6354658007621765,1.9034561,0.47555858,16
-5.187291145324707,8.152713775634767,4.64037561416626,0.5058019161224365,1.4700472,0.7852673000000001,16
-5.3421359062194815,8.22831916809082,4.179436206817627,0.35035914182662964,1.4996742,1.2391402,16
-5.408374786376953,8.044073104858397,3.560441255569458,0.17041973769664764,1.6679676,1.4694363,16
-5.312903881072998,7.824615955352782,3.14953875541687,0.036531254649162286,1.2483031999999998,1.6707164,16
-5.138638496398926,7.651519298553468,2.8200464248657227,-0.07955942302942276,0.91721416,1.7082846,16
-5.07425594329834,7.511477947235107,2.428175449371338,-0.2440051734447479,0.9120218,1.6163495,16
-5.15611743927002,7.4245662689208975,2.0904335975646973,-0.4486490786075592,0.999681,1.5815301000000002,16
-5.389249801635742,7.330291271209718,1.8935730457305908,-0.6568300127983093,1.0091494,1.520749,16
-5.738636493682861,7.168193340301514,1.8869420289993288,-0.8761346340179443,0.68752885,1.4107933,16
-6.0656089782714835,7.060895442962647,1.9684827327728271,-1.073493719100952,0.36346483,1.3610078,16
-6.246594429016112,7.197957515716553,1.9767777919769287,-1.2306125164031982,0.055283304000000005,1.5818355,16
-6.285897731781006,7.636679649353027,1.8680588006973269,-1.33395254611969,-0.06658431,2.0738876,16
-6.196779251098633,8.119014739990233,1.7116507291793823,-1.3677934408187866,-0.051618114000000014,2.4883597,16
-6.019898891448975,8.407183647155763,1.664742946624756,-1.398809790611267,0.16340645,2.7003298,16
-5.885396480560303,8.44748592376709,1.8592851161956787,-1.4601082801818848,0.29229903,2.7684412,16
-5.85595178604126,8.295080184936522,2.268494844436645,-1.5437771081924438,0.44959682,2.5247061,16
-5.8297929763793945,7.888690948486327,2.686509370803833,-1.633797526359558,0.3903429,2.204002,16
-5.64808464050293,7.2561893463134775,3.0212278366088867,-1.5967671871185305,0.1695151,1.7837266,16
-5.273087501525879,6.697617530822754,3.29617977142334,-1.4819358587265017,0.1255328,1.4330899,16
-4.770668983459473,6.259829044342041,3.4989473819732666,-1.3138227462768557,0.13011430000000002,1.210124,16
-4.234939098358153,6.053056240081787,3.53139877319336,-1.103121995925903,0.23609942,1.0919216,16
-3.804340362548828,5.958678245544434,3.5157992839813232,-0.8573413491249084,0.43066,0.9941832,16
-3.4856555461883545,5.869035243988037,3.529242515563965,-0.6058657765388489,0.6630941999999999,0.8371908000000001,16
-3.1778359413146973,5.707106113433838,3.625218391418457,-0.3610157072544098,0.72387534,0.6704246,16
-2.8453574180603027,5.42457389831543,3.773409366607666,-0.1355431228876114,0.6420194,0.48197266,16
-2.459588050842285,5.0004401206970215,3.8993434906005864,0.09732870012521744,0.5888741,0.23884831,16
-2.0564954280853267,4.584421634674072,3.9150214195251465,0.3863892555236816,0.51893,0.070554934,16
-1.6665726900100708,4.3474459648132315,3.712268352508545,0.7266064882278442,0.7449501999999999,-0.116980694,16
-1.3242847919464111,4.329782962799071,3.3937685489654537,1.1523573398590088,0.7715228,-0.36713,16
-1.2627081871032717,4.551021099090576,3.0724523067474365,1.5667258501052856,0.926988,-0.7761043000000001,16
-1.6159578561782837,5.352937698364258,2.7444303035736084,1.9359066486358645,0.9236283000000002,-1.0051788,16
-2.1694130897521973,6.705372333526611,2.4173452854156494,2.2241663932800293,0.44868052,-0.9691377,16
-2.862384796142578,8.076745986938478,1.943470358848572,2.3703179359436035,0.6392705,-1.0998629,16
-3.772654056549072,9.131420135498047,1.511630654335022,2.367482662200928,0.8558222,-1.2403619,16
-5.111059188842773,10.204143524169922,1.6075661182403564,2.2594473361968994,0.93126404,-1.4782939,16
-6.254638195037843,11.705096244812012,2.0389983654022217,2.0258893966674805,-1.003957,-1.3680327,16
-6.081436634063722,12.416288375854492,1.8585234880447388,1.5577003955841064,-1.6447546000000002,0.10873401,16
-5.343297481536865,11.603410720825195,1.5618013143539429,1.284212589263916,-0.9095783000000002,-0.24831672,16
-4.542882919311523,9.915901184082033,1.4962894916534424,0.9838507175445556,-0.038789943,-0.9211848,16
-3.654311418533325,8.796904563903809,0.7904002666473389,0.6674991846084595,1.5021176,-0.9935723,16
-2.8954575061798096,9.516200065612793,-0.3417629301548004,0.5079578161239624,2.5537221000000003,-0.56291234,16
-2.7158939838409424,10.668153762817383,-0.7535144686698914,0.4308176040649414,1.8924606,-0.0842994,16
-3.2069766521453857,10.76845645904541,-0.6430811882019043,0.3597872257232666,1.7024814,-0.18142697,16
-3.808346509933472,10.168231010437012,-0.4691294431686402,0.2013154923915863,1.7345519,-0.44012842,16
-4.166679859161377,9.494817733764648,-0.3749326467514038,0.05606737360358238,1.3805555,-0.5030475000000001,16
-4.341855049133302,9.083257675170898,-0.4999814331531525,-0.006038746796548367,1.0454959,-0.39645153,16
-4.45773983001709,8.961675643920898,-0.7626637816429138,-0.00549235800281167,0.8585710999999999,-0.23640485,16
-4.501945018768311,8.980710983276367,-0.9356265664100648,0.001086643896996975,0.8069529999999999,-0.10598512,16
-4.4415855407714835,9.001290321350098,-0.8707371950149536,0.00331465364433825,0.691194,-0.13133603,16
-4.32973051071167,9.073339462280273,-0.7595775127410889,-0.011663908138871193,0.62949663,-0.09773844,16
-4.235671520233153,9.182147026062012,-0.7864047884941101,-0.04026113823056221,0.70738196,-0.04917465,16
-4.1848230361938485,9.218957901000977,-0.9262421131134032,-0.06669635325670242,0.795652,-0.006414085,16
-4.221955299377441,9.128092765808104,-1.1385791301727295,-0.08256398141384125,0.80878556,0.02107485,16
-4.3680405616760245,8.954263687133789,-1.2620364427566528,-0.07323059439659119,0.65087694,-0.00061086525,16
-4.538261413574219,8.775317192077638,-1.293010711669922,-0.05465545132756233,0.41416663,0.007941248,16
-4.679726123809815,8.63377857208252,-1.3258910179138184,-0.030758008360862725,0.14385876,-0.05925392700000001,16
-4.738597393035889,8.541958808898926,-1.4288337230682373,-0.008550094440579414,-0.14019357,-0.12583824,16
-4.756533622741699,8.510017395019531,-1.624376893043518,0.02988534606993198,-0.2556471,-0.1160644,16
-4.807623386383057,8.518233299255371,-1.780247926712036,0.07875849306583405,-0.22937989,-0.099265605,16
-4.878376007080078,8.570072174072267,-1.8162575960159304,0.12728065252304074,-0.33414328,-0.18295415,16
-4.9087867736816415,8.720943450927733,-1.756963133811951,0.15945497155189514,-0.59864795,-0.1685988,1
-4.901619911193848,8.894960403442383,-1.694868087768555,0.1798553615808487,-0.8170323,-0.15699236,1
-4.857396602630615,9.023491859436037,-1.6851413249969482,0.16984981298446655,-0.9605856,-0.14141529999999994,1
-4.814469337463379,9.143535614013672,-1.7554036378860474,0.13392972946166992,-0.98440933,-0.11484267,1
-4.806051254272461,9.252135276794434,-1.861080765724182,0.10520566999912262,-0.9798279,-0.13347405,1
-4.843252658843994,9.369349479675293,-1.983825206756592,0.0885859876871109,-0.895223,-0.070554934,1
-5.008972644805908,9.515966415405273,-2.0743055343627934,0.0761619359254837,-0.8295549999999999,-0.011911872,1
-5.344197750091553,9.589531898498537,-2.0370771884918213,0.058928400278091424,-0.7696901999999999,-0.09987647,1
-5.715522289276122,9.462028503417967,-1.804682374000549,0.0338735394179821,-0.77488256,-0.17165314,1
-5.911354064941406,9.214519500732422,-1.5058870315551758,0.0007110709557309747,-1.0186177,-0.2284636,1
-5.9464430809021,8.910489082336426,-1.2303515672683716,-0.05618346109986305,-1.2321151,-0.2134974,1
-5.91989278793335,8.595837593078612,-0.9896389245986938,-0.14245934784412384,-1.3594806000000002,-0.15363261,1
-5.865220546722412,8.290206909179688,-0.8201936483383179,-0.23977945744991305,-1.3209959999999998,-0.03268129,1
-5.805569648742676,7.972622871398926,-0.6886332035064697,-0.3317190110683441,-1.3457361,0.020463986,1
-5.772468090057372,7.655538082122803,-0.5615441799163818,-0.3897334635257721,-1.432479,-0.00061086525,1
-5.833889961242676,7.402621269226074,-0.4669137299060822,-0.3868224322795868,-1.3509285,-0.020463986,1
-5.913613319396973,7.268796920776367,-0.3148850500583649,-0.3488755226135254,-1.1866057,0.070554934,1
-5.8836846351623535,7.2340965270996085,-0.03292044624686241,-0.3081921637058258,-1.2461652,0.23945917,1
-5.777290344238281,7.29645299911499,0.308784544467926,-0.2540389597415924,-1.4156802,0.35094208,1
-5.6964049339294425,7.443512439727782,0.6436269283294678,-0.17780011892318726,-1.4129313,0.43554693,1
-5.645811557769775,7.627013206481934,0.9760702252388,-0.07533547282218933,-1.3237450000000002,0.45081854,1
-5.605524063110352,7.774684429168701,1.253088355064392,0.021589770913124084,-1.2928963,0.35735616,1
-5.559235095977783,7.734850883483888,1.3332152366638184,0.08198679983615875,-1.1398746000000002,0.12614368,1
-5.518861770629883,7.555419921875,1.34154212474823,0.13146133720874786,-1.0045679,-0.052839845,1
-5.518150329589844,7.3930206298828125,1.3869297504425049,0.18958450853824613,-0.99173975,-0.18203785,1
-5.493163585662842,7.244728565216064,1.4697022438049316,0.2397051155567169,-0.9147707,-0.2669481,1
-5.378756523132324,7.2093262672424325,1.585158109664917,0.3047350645065308,-0.8744536,-0.23457226,1
-5.133983135223389,7.346486568450928,1.6102317571640017,0.3655451238155365,-0.9456194,-0.028099801,1
-4.7824058532714835,7.507659912109375,1.4889063835144043,0.4697043299674988,-1.1695015,0.25534168,1
-4.433683395385742,7.6512980461120605,1.220747709274292,0.6453291773796082,-0.82558435,0.5317582,1
-4.167032241821288,7.862422466278076,0.9764369130134584,0.8786283135414124,-0.55924714,0.62980205,1
-4.00116491317749,8.119996070861816,0.8409202098846436,1.0963013172149658,-0.31581733,0.5369505,1
-3.983989715576172,8.299759864807129,0.8317393660545349,1.271440505981445,-0.13103059,0.28741209999999995,1
-4.077804088592528,8.273978233337402,0.9132179021835328,1.382856369018555,-0.07849618,0.01160644,1
-4.217661380767821,8.117661476135254,1.038286209106445,1.4081499576568604,-0.23304509,-0.4908302,1
-4.422045707702637,8.041519165039062,1.1624382734298706,1.372351884841919,-0.31795537,-0.870483,1
-4.790160655975342,8.50103759765625,1.1907163858413696,1.2607340812683103,0.10567969,-0.98868537,1
-5.109986305236816,9.035943984985352,1.2121422290802002,1.0574485063552856,-0.2003638,-0.8191703,1
-5.2434959411621085,9.219768524169922,1.2198059558868408,0.843403697013855,-0.4578435,-0.56016344,1
-5.123359203338623,9.147010803222656,1.191997528076172,0.6716559529304504,-0.6469063,-0.31795537,1
-4.818929195404053,9.01223850250244,1.0051275491714478,0.5694677233695984,-0.7654141999999999,-0.058948494,1
-4.499631881713867,8.858777046203613,0.6637750864028931,0.5455666184425354,-0.54244834,0.1001819,1
-4.277348041534424,8.744686126708983,0.3419649302959442,0.5563893914222717,-0.1853976,0.10934488,1
-4.174095153808594,8.69160270690918,0.1687251180410385,0.5582221746444702,0.14141529999999994,0.046731193,1
-4.220219135284424,8.684452056884767,0.14898712933063507,0.5328620076179504,0.172264,-0.08552113,1
-4.3824100494384775,8.704833984375,0.1974477618932724,0.4657935202121735,0.07849618,-0.16584991,1
-4.524914741516113,8.765102386474611,0.24120271205902102,0.3874281942844391,-0.041233405,-0.14752395,1
-4.6270294189453125,8.807275772094727,0.28688517212867737,0.3147612810134888,-0.21166481,-0.07574729,1
-4.720954895019531,8.78547477722168,0.23498094081878665,0.2538720965385437,-0.2180789,-0.040011674,1
-4.790661334991455,8.739145278930664,-0.010801106691360474,0.20938819646835327,-0.036957346,0.005192355,1
-4.804280281066895,8.695011138916017,-0.1988523155450821,0.1861235648393631,0.08643743400000001,0.03390302,1
-4.801518440246582,8.649114608764647,-0.2606722712516785,0.16634269058704376,0.1151481,0.012217305,1
-4.814899921417236,8.624645233154299,-0.21096482872962952,0.13213041424751282,0.071776666,0.005192355,1
-4.846140861511231,8.621837615966799,-0.1561763435602188,0.08362070471048355,0.01740966,-0.010079277,1
-4.89288854598999,8.611228942871094,-0.1713852882385254,0.028902938589453694,0.04734206,-0.008552114,1
-4.931036472320557,8.594017028808594,-0.2761678397655487,-0.01540324091911316,0.12370021,-0.006414085,1
-4.943670272827148,8.581624031066895,-0.3811537325382233,-0.04071740061044693,0.14599679999999998,0.022907447,1
-4.938143253326416,8.57689380645752,-0.42752277851104736,-0.05294283106923103,0.1423316,0.03573562,1
-4.926184177398682,8.567104339599611,-0.4356767237186432,-0.05911729857325554,0.13011430000000002,0.04642576,1
-4.918882369995117,8.542484283447267,-0.4274764955043793,-0.06412534415721892,0.13622294,0.03268129,1
-4.933018207550049,8.507871627807617,-0.4463628232479096,-0.07272300124168396,0.1853976,0.01038471,1
-4.949839115142822,8.461960792541504,-0.4857296049594879,-0.08242031931877136,0.2171626,-0.016798794,1
-4.958606243133545,8.443460464477539,-0.523580014705658,-0.09437768906354904,0.20799962,-0.03359759,1
-4.957098007202148,8.453812599182129,-0.551996111869812,-0.10466276854276656,0.19181168,-0.018936822,1
-4.951140403747559,8.480771064758299,-0.5655187368392944,-0.10849791765213013,0.14538592,-0.003970624,1
-4.952740669250488,8.507140159606934,-0.5727747678756714,-0.10633400827646257,0.12614368,0.02687807,1
-4.96701192855835,8.523303031921388,-0.5766947865486145,-0.10298261046409607,0.13775012,0.031154128,1
-4.991555213928223,8.516265869140625,-0.5780590772628784,-0.1006551757454872,0.15668693,0.02107485,1
-5.014061450958252,8.505690574645996,-0.5584701299667358,-0.10340364277362823,0.12644911,-0.0036651916,1
-5.02258825302124,8.499117851257324,-0.5493938922882079,-0.11295151710510255,0.11759156,-0.018936822,1
-5.0105719566345215,8.487364768981934,-0.568713366985321,-0.1184687241911888,0.12614368,-0.004276057,1
-4.9944114685058585,8.472712516784668,-0.6002558469772339,-0.11733491718769072,0.118202426,-0.004886922,1
-4.980978488922119,8.466959953308105,-0.618447482585907,-0.11001010239124298,0.12370021,-0.0030543262,1
-4.979412078857422,8.461767196655272,-0.6237363219261169,-0.101876899600029,0.13041973,0.004581489,1
-4.9874267578125,8.458605766296388,-0.6294137835502625,-0.09498554468154907,0.13561209,-0.0012217305,1
-4.99557638168335,8.455540657043457,-0.6410049796104431,-0.09258703142404556,0.12308934,0.0021380284,1
-5.012478828430176,8.441336631774902,-0.6589061617851257,-0.09097405523061752,0.1337795,0.004581489,1
-5.033388614654541,8.418181419372559,-0.6796140670776367,-0.08829820901155473,0.12858713,0.0009162979,1
-5.066772937774658,8.398868560791017,-0.6821174621582031,-0.08615895360708238,0.12797627,-0.013133603,1
-5.09890604019165,8.406313896179201,-0.6717443466186523,-0.08786792308092117,0.12492194,-0.019547688,1
-5.1109395027160645,8.441921234130861,-0.6375396847724915,-0.08891186118125917,0.09101892,0.004581489,1
-5.107133865356445,8.468127250671388,-0.606795608997345,-0.08865851163864136,0.061391957,0.02107485,1
-5.09711217880249,8.473674774169924,-0.5944153666496277,-0.08641793578863144,0.040317107000000005,0.032070424,1
-5.0935397148132315,8.461348533630371,-0.6158602833747864,-0.08410003781318665,0.052839845,0.03145956,1
-5.093181610107422,8.446516990661621,-0.6350310444831848,-0.08185858279466629,0.076358154,0.02565634,1
-5.093303680419922,8.438237190246582,-0.6367563009262085,-0.07946711033582687,0.053145275,0.02687807,1
-5.090502262115479,8.433403015136719,-0.6305120587348938,-0.07678239047527312,0.05497787,0.027794369,1
-5.083181381225586,8.434041976928711,-0.6362015604972839,-0.07495879381895065,0.03940081,0.02687807,1
-5.083127021789551,8.430413246154785,-0.6549280881881714,-0.0713907778263092,0.03573562,0.02565634,1
-5.08494758605957,8.423784255981445,-0.6632643342018127,-0.06767027825117111,0.03573562,0.025350908,1
-5.084355354309082,8.41253662109375,-0.6627342104911804,-0.06273593008518219,0.023518313,0.022296581,1
-5.085459232330322,8.40718936920166,-0.6643613576889038,-0.05669563263654709,0.032070424,0.026267206,1
-5.082123279571533,8.414822578430176,-0.6647612452507019,-0.051903072744607925,0.015882496,0.025045475,1
-5.074932098388672,8.424870491027832,-0.6615442633628845,-0.04946136474609375,-0.005497787,0.028710667,1
-5.072830677032472,8.430828094482424,-0.6652540564537048,-0.04671088233590126,-0.003970624,0.026572637000000003,1
-5.071161270141602,8.427780151367188,-0.6767117381095886,-0.0423172265291214,0.010995574,0.022907447,1
-5.058861255645752,8.42276668548584,-0.6817876696586609,-0.04025431349873543,-0.0018325958,0.026267206,1
-5.0423760414123535,8.42915153503418,-0.6866856217384338,-0.03894808888435364,0.0070249503,0.032070424,1
-5.0310587882995605,8.439183235168457,-0.6900951862335205,-0.03631061688065529,0.008246681,0.03268129,1
-5.020997524261475,8.44443416595459,-0.6975297331809998,-0.03428453579545021,0.008246681,0.027794369,1
-5.01008939743042,8.446807861328125,-0.6979985237121582,-0.03131042793393135,-0.00580322,0.021380283,1
-5.004114151000977,8.447408676147461,-0.6907228231430054,-0.02756806649267673,-0.006414085,0.031154128,1
