acc_x,acc_y,acc_z,gyro_x,gyro_y,gyro_z,label
0.0,0.0,0.0,0.0,0.003970624,0.021685716,8
0.2077328860759735,0.024589791893959045,0.186017781496048,0.00023134845832828432,0.02107485,0.021991149,8
0.7021052837371826,0.0831821858882904,0.6308082342147827,0.0007679177215322852,0.021380283,0.021991149,8
1.3847037553787231,0.16378459334373474,1.2508724927902222,0.0013783014146611097,0.018936822,0.015271631,8
2.1471309661865234,0.2534309923648834,1.9510464668273928,0.0015958673320710661,0.01740966,0.014049901000000002,8
2.9025161266326904,0.3418034017086029,2.653610944747925,0.0017446407582610846,0.008246681,0.004886922,8
3.5965998172760014,0.4225241541862488,3.3086960315704346,0.0018739032093435528,0.012217305,0.016493361,8
4.203715801239014,0.4926151931285858,3.8919410705566406,0.001408732612617314,0.0012217305,0.015577064,8
4.717748165130615,0.551425039768219,4.3963823318481445,0.002229552948847413,-0.014049901000000002,0.014660766,8
5.143535137176514,0.5995875597000122,4.825175285339356,0.002843879396095872,-0.028405234,0.006414085,8
5.490931034088135,0.6383177638053894,5.186249732971191,0.0027274563908576965,-0.024129177,0.008552114,8
5.77130937576294,0.6690031290054321,5.4890546798706055,0.002947870641946793,-0.028405234,0.023823744,8
6.008546352386475,0.7000278234481812,5.7301344871521,0.0016168059082701802,-0.04917465,0.028099801,8
6.2203736305236825,0.7368873953819275,5.910125255584718,-0.0003629013954196125,-0.047036625,0.043066,16
6.411312580108643,0.7784305810928345,6.040331840515138,-0.0014932703925296664,-0.04153884,0.07971791,16
6.585212707519531,0.8237275481224059,6.130184650421143,0.002809099620208144,-0.10842858,0.10720685,16
6.745261669158936,0.8720194101333618,6.187453746795653,0.020147567614912987,-0.1872302,0.14538592,16
6.894131183624268,0.9227247834205629,6.218437194824219,0.05383137613534928,-0.25076020000000004,0.19211712,16
7.0340752601623535,0.9754211902618408,6.228187084197997,0.1033340021967888,-0.32253686,0.23060162,16
7.166516780853272,1.029531955718994,6.22108793258667,0.17329706251621246,-0.45081854,0.33505958,16
7.293141841888428,1.0849076509475708,6.200276374816895,0.24712683260440824,-0.6017023,0.42271876,16
7.415011405944824,1.1412533521652222,6.168501853942871,0.30889174342155457,-0.5546656,0.6020076999999999,16
7.525181293487549,1.1958426237106323,6.1365928649902335,0.3742750883102417,-0.48533243,0.7119634,16
7.6194748878479,1.2467931509017944,6.111519813537598,0.4259983003139496,-0.36835176,0.67103547,16
7.701066970825195,1.2948871850967407,6.0919437408447275,0.4552753567695618,-0.16401732,0.72295904,16
7.77246618270874,1.3406990766525269,6.076784610748291,0.4886749088764191,-0.41355577,0.8295549999999999,16
7.835659980773926,1.3846583366394043,6.0651726722717285,0.4812666475772858,-0.4098906,0.5839871999999999,16
7.892280578613281,1.4271501302719116,6.056411743164063,0.4128291010856629,-0.17715092,0.35460728,16
7.943599224090576,1.4684377908706665,6.049939155578612,0.3052528500556946,-0.50640726,0.24556783,16
7.990675449371338,1.5087779760360718,6.04530668258667,0.16556446254253387,-0.70616025,0.13591751,16
8.034337997436522,1.5483503341674805,6.0421509742736825,0.011829868890345095,-0.7489208,0.09101892,16
8.075249671936035,1.5872939825057983,6.040181636810303,-0.1453700065612793,-0.8371908000000001,0.17043139999999998,16
8.099513053894043,1.562350153923035,6.02020788192749,-0.30185601115226746,-0.6542366999999999,0.38056904,16
8.099435806274414,1.4380782842636108,5.971425533294678,-0.4611559212207794,-0.28038713,0.52778757,16
8.079586982727049,1.2328553199768066,5.899137020111084,-0.6293483972549438,0.20708331,0.78954333,16
8.044204711914062,0.9644574522972108,5.808546543121338,-0.8013750314712524,0.45448375,1.0531317,16
7.996208190917969,0.6445885896682739,5.703028202056885,-0.9818938970565796,0.8747590000000001,1.0454959,16
7.938048839569093,0.2832119464874268,5.585467338562012,-1.1511107683181765,1.1114693000000002,0.8029824000000001,16
7.871570110321045,-0.11233913898468018,5.457971572875977,-1.3366832733154297,1.5125023000000002,0.8436049000000001,16
7.798801898956299,-0.5332430601119995,5.323154926300049,-1.5331667661666868,1.8454239,0.6933321,16
7.720779418945312,-0.9755924344062804,5.182117938995361,-1.7140110731124878,2.0137172,0.25778514,16
7.638396739959718,-1.435905694961548,5.035852432250977,-1.8491843938827517,1.815186,-0.14752395,16
7.408774375915527,-1.8212052583694456,4.832779407501222,-1.9102717638015747,1.9434677,-0.3100141,16
7.107697010040282,-2.3772964477539062,4.640735626220703,-1.881551742553711,1.4712689,-0.6389651,16
6.900989055633545,-2.8751070499420166,4.506980419158936,-1.7558157444000244,1.2745703000000002,-0.6246096999999999,16
6.577864170074463,-3.358031749725342,4.440088272094727,-1.5584311485290527,1.2140946,-0.73945236,16
6.278148174285889,-3.8020153045654297,4.417290210723877,-1.3128399848937988,1.138042,-0.8268061,16
6.04879093170166,-4.179874897003174,4.419890403747559,-1.0197875499725342,1.0250319,-0.9440921999999998,16
5.832103729248048,-4.496291160583496,4.455156326293945,-0.6856594085693359,0.64934975,-1.0277808000000002,16
5.46920108795166,-4.669722080230713,4.527134895324707,-0.3316852152347565,0.36957347,-1.0772609,16
4.980422496795653,-4.754832744598389,4.592283248901367,0.0029770699329674244,0.29352075,-1.3994923,16
4.694211006164551,-4.6032447814941415,4.577110767364502,0.2962951064109802,0.28527406,-1.563815,16
4.464539051055908,-4.173034191131592,4.5397047996521,0.5722663402557373,0.1966986,-1.6166549,16
4.181173324584962,-3.622294187545776,4.617536544799805,0.7768154740333557,0.22999077,-1.8258762,16
3.7450780868530273,-2.926703691482544,4.7856926918029785,0.8939635753631592,0.26939157,-2.0809124,16
3.2563741207122803,-2.0950977802276607,5.003714561462402,0.9437295794487,0.35124752,-2.042428,16
2.96148681640625,-1.1345421075820925,5.408821105957031,0.9612377882003784,0.05467244,-2.0088303,16
2.9204697608947754,-0.2379034608602524,5.802876949310303,0.9525709748268129,-0.21563543,-1.858863,16
3.274008750915528,0.2768763601779938,6.201042652130128,0.9283568263053894,-0.4147775,-1.7821994,16
3.976499795913696,0.5503315925598145,6.709545135498048,0.8741471767425537,-0.20861048,-1.5769486,16
5.149903297424316,0.7900182604789734,7.323474884033202,0.7910329103469849,-0.17745635,-1.3206906,16
6.377860069274902,1.040278077125549,7.624924659729004,0.674099862575531,-0.094989546,-0.90194255,16
7.157371044158936,1.1691796779632568,7.400590896606445,0.601416826248169,0.19822577,-0.7296785,16
7.634209632873535,1.263702630996704,7.175224304199219,0.6058849692344666,0.35399640000000004,-0.5742133,16
7.852293014526367,1.4228531122207642,7.104574203491211,0.6310870051383972,0.44318274,-0.44806966,16
7.92229700088501,1.4475347995758057,7.130814075469972,0.6728236079216003,0.39675698,-0.3640757,16
7.906261444091798,1.384044170379639,7.195334434509277,0.7505811452865601,0.4550946,-0.32559118,16
7.706729412078857,1.3312623500823977,7.482330799102782,0.8325722813606262,0.5012149,-0.2556471,16
7.279234409332275,1.3452069759368896,7.880502223968506,0.8730399012565613,0.27916542,-0.24373524,16
6.7207088470458975,1.3064743280410769,8.121920585632324,0.9082313776016236,0.04795292,-0.47067168,16
6.348574638366699,1.3491053581237793,8.100123405456543,0.9579920172691344,-0.12186762,-0.7098253999999999,16
6.316044330596924,1.656763792037964,8.121713638305664,0.9867081046104432,-0.10445796,-0.7855727,16
6.593780517578125,2.3845386505126958,8.245627403259277,0.98061341047287,-0.54305923,-0.55924714,16
6.661941051483153,3.18410587310791,8.364140510559082,0.8845165371894836,-0.66889745,-0.6218608,16
6.290206432342528,3.645173311233521,8.841256141662598,0.7235169410705566,-1.0210613000000002,-1.2644911,16
6.08976936340332,4.2117886543273935,8.999931335449219,0.5480455160140991,-1.039998,-1.2675453,16
6.20587158203125,4.852326393127441,8.65144157409668,0.5033827424049377,-0.4334089,-1.1572843000000002,16
6.4546146392822275,5.301630973815918,8.411396980285645,0.4916459321975708,-0.21533,-1.1707232,16
6.512555599212647,5.734274387359619,8.295962333679201,0.4756292104721069,-0.09621128,-1.0320568,16
6.378389835357666,5.954663276672362,8.209020614624022,0.4532096982002258,0.19608775,-1.0842858999999998,16
6.145415782928468,5.863039970397949,8.169195175170897,0.3994361758232117,0.15882497,-1.4388931,16
5.903098583221436,5.877619743347168,8.073665618896483,0.3214327096939087,0.2415972,-1.6554449,16
5.6292829513549805,6.028317928314209,8.006487846374513,0.2581365704536438,0.3390302,-1.740966,16
5.305210590362549,6.222949028015138,7.96412992477417,0.21011659502983093,0.15913039999999998,-1.7977765,16
4.94097375869751,6.3558430671691895,7.866940498352051,0.1932487040758133,-0.046731193,-1.829236,16
4.556384563446045,6.382672786712647,7.711819171905518,0.20595502853393555,-0.056199603,-1.87444,16
4.188411235809326,6.319760322570801,7.515373706817628,0.23039957880973816,-0.019242255,-1.890628,16
3.8491501808166495,6.2425031661987305,7.379053592681885,0.2633536458015442,0.13469578,-1.9596558,16
3.599653482437134,6.165287971496582,7.179446220397949,0.3150347173213959,0.016187929,-1.8524488,16
3.353318452835083,6.057335376739503,6.931292533874513,0.3844576179981232,0.34788775,-1.8307631,16
3.1852083206176762,5.9096312522888175,6.723274230957031,0.4625470638275146,0.3915646,-1.7684548999999998,16
3.301893472671509,5.887612819671631,6.653574466705322,0.5439684391021729,0.52839845,-1.5961909,16
3.2304108142852783,5.7645606994628915,6.49092435836792,0.625169038772583,0.73945236,-1.3771957,16
3.0014913082122803,5.560397148132324,6.374321460723878,0.6959204077720642,0.66737026,-1.2614367,16
2.738285779953003,5.355517864227295,6.3425374031066895,0.7515280246734619,0.7510588,-1.1389582,16
2.669762372970581,5.375904560089111,6.573792457580566,0.7775343656539917,0.38026363,-0.7611380999999999,16
2.5422136783599854,5.532458305358887,6.644856452941895,0.7723231911659241,0.64660084,-0.5186246,16
2.370920896530152,5.716626167297362,6.546238899230957,0.7867178916931152,0.6753115,-0.24923302,16
2.1304473876953125,5.858778476715088,6.370067119598389,0.7993021011352539,0.5665775,-0.089186326,16
1.8261886835098269,6.052412986755371,6.226805686950684,0.7978596687316895,0.54244834,-0.030543262,16
1.4783668518066406,6.306868553161621,6.049696445465088,0.8068727254867554,0.3268129,-0.024740042,16
1.069630146026611,6.615838050842285,5.88925313949585,0.8235211372375488,0.109650314,-0.07788532,16
0.6426588892936707,6.869626998901367,5.652916431427003,0.8216876983642578,-0.38637227,-0.19394971,16
0.17584294080734253,7.062294960021973,5.345049381256104,0.8256820440292358,-0.9288206,-0.37507126,16
-0.34231072664260864,7.182922840118407,4.988482475280762,0.881056547164917,-1.3106114,-0.5531385,16
-0.8276914954185486,7.3823585510253915,4.461813926696777,0.976745903491974,-1.7278323,-0.6398814,16
-1.128196358680725,7.649877071380615,3.9696657657623287,1.1078349351882937,-1.9291124,-0.5531385,16
-1.117445468902588,7.800937175750732,3.598604917526245,1.257777214050293,-2.221717,-0.48533243,16
-0.8856464624404907,7.83354902267456,3.215785264968872,1.3909070491790771,-2.526844,-0.41599923,16
-0.5562695264816284,7.857203483581543,2.787564992904663,1.4900350570678709,-2.5818220000000003,-0.35399640000000004,16
-0.23751796782016754,7.868052959442139,2.372687578201294,1.5465058088302612,-2.5952610000000003,-0.18112154,16
-0.07615449279546738,7.7953362464904785,1.9572248458862305,1.569649338722229,-2.2516494,-0.23915374,16
-0.010653811506927012,7.6220035552978525,1.6987872123718262,1.5608373880386353,-2.0357084,-0.3567453,16
0.0360235758125782,7.3275203704833975,1.429684042930603,1.4908771514892578,-1.6905695,-0.81489426,16
0.08225490152835846,7.0975494384765625,1.143989324569702,1.425673246383667,-1.2846496,-1.1383473999999998,16
0.15681561827659607,6.9684224128723145,1.0986219644546509,1.328180909156799,-1.8545868000000003,-1.310306,16
0.16319529712200165,7.030151844024657,0.8329921960830688,1.112263798713684,-1.3848315,-1.3671165,16
0.07371316105127335,7.628617763519287,0.3396986424922943,0.9050620794296264,-0.25228736,-1.6074919,16
-0.05973604321479796,9.427940368652344,0.3797893524169922,0.7535766363143921,-0.0143553335,-1.099252,16
-0.3109699785709381,11.155369758605957,0.4745525419712066,0.720264732837677,-0.27000242,-0.68783426,16
-0.2825693488121033,11.649381637573242,0.3167308568954468,0.6851640343666077,0.17989981,-0.53786683,16
0.04421570152044296,11.372325897216795,0.044199362397193916,0.6217762231826782,0.5329799,-0.32070425,16
0.2769245505332947,10.947474479675293,-0.045726858079433434,0.5886128544807434,0.040317107000000005,-0.1826487,16
0.19084271788597107,10.686904907226562,-0.002719687763601541,0.5550770163536072,-0.43310347,-0.19730948,16
-0.11383956670761107,10.646791458129883,0.15734343230724335,0.5225612521171571,-0.552833,-0.12980886,16
-0.42367446422576893,10.573614120483398,0.3381337821483612,0.5078940987586975,-0.20738874,-0.16371189,16
-0.6437214016914368,10.3367338180542,0.4633406400680542,0.4730950891971588,-0.21319197,-0.21746802,16
-0.7649210691452026,10.095804214477539,0.5109336376190186,0.423462063074112,-0.44409904,-0.2724459,16
-0.8232250213623047,9.9603271484375,0.5133050680160522,0.3633382022380829,-0.7119634,-0.33536503,16
-0.932924509048462,9.88975715637207,0.4465791285037993,0.30328598618507385,-0.8781188,-0.41355577,16
-1.0779426097869873,9.857344627380373,0.2577652037143707,0.2681155204772949,-0.74189585,-0.462425,16
-1.1288055181503296,9.833213806152344,-0.025775942951440808,0.2377977669239044,-0.3585779000000001,-0.43585235,16
-1.0303065776824951,9.788671493530273,-0.2085752934217453,0.2117866426706314,-0.29840767,-0.35063666,16
-0.8814868927001953,9.75239372253418,-0.19354237616062164,0.17038367688655853,-0.5448918,-0.3472769,16
-0.8194714188575745,9.735421180725098,-0.12276189029216765,0.1307130753993988,-0.7987063,-0.4196644000000001,16
-0.8601173758506775,9.658522605895996,-0.05160852521657944,0.11264786124229433,-0.7867944,-0.5732970000000001,16
-0.9703134298324584,9.456620216369627,0.10757309943437576,0.12691029906272888,-1.0635164,-0.6545420999999999,16
-1.161278247833252,9.210540771484377,0.14396661520004272,0.16266055405139926,-1.1551461,-0.7147123000000001,16
-1.3988087177276611,9.094338417053224,0.009026235900819302,0.23787330090999606,-1.0589349,-0.9416488000000002,16
-1.6251026391983032,9.269112586975098,-0.2238993346691132,0.2921053171157837,-0.8738427,-1.1258247,16
-1.7724542617797852,9.750371932983398,-0.6345342993736267,0.2366601079702377,-0.30482176,-0.95722586,16
-1.7540651559829712,10.218650817871094,-1.0420851707458496,0.1243610978126526,0.102319926,-0.22327125,16
-1.5913996696472168,10.268945693969727,-1.3426108360290527,0.060546226799488075,0.46609017,-0.15851954,16
-1.4840776920318604,10.170970916748047,-1.4639934301376345,0.07428501546382904,0.75533485,0.03604105,16
-1.5778673887252808,10.096972465515137,-1.3759392499923706,0.13350041210651398,0.7275404999999999,0.13439035,16
-1.8807395696640012,10.016928672790527,-1.0488677024841309,0.18317709863185885,-0.076358154,0.13316862,16
-2.3457248210906982,9.930535316467283,-0.6691477298736572,0.16845054924488068,-1.0729848,0.1863139,16
-2.837982654571533,9.841082572937012,-0.5435335636138916,0.13206124305725098,-1.1371256,0.24984388,16
-3.2966396808624268,9.656475067138672,-0.6519022583961487,0.13092076778411865,-1.0158689,0.09773844,16
-3.6857175827026367,9.39489459991455,-0.8124046921730042,0.16876095533370972,-0.9101892,-0.10781772,16
-3.90519642829895,9.123048782348633,-0.9776853322982788,0.2087809145450592,-0.5448918,-0.33750305,16
-3.82504940032959,9.050240516662598,-0.9040220379829408,0.2129589021205902,-0.44868052,-0.48288897,16
-3.4646356105804443,9.21444606781006,-0.40732979774475103,0.18382461369037628,-1.3808608999999998,-0.46089783,16
-2.968268632888794,9.450547218322754,-0.11770816892385486,0.1464281529188156,-1.4489723,-0.3463606,16
-2.4736766815185547,9.649978637695312,0.14864453673362732,0.17639105021953586,-0.8524625,-0.07086037,16
-2.290825843811035,9.652310371398926,0.4870832860469818,0.1758173704147339,-0.5928446999999999,-0.076358154,16
-2.4521641731262207,9.48111343383789,0.6585595607757568,0.08181677758693695,-0.004886922,-0.22937989,16
-2.780930519104004,9.299294471740724,0.8288421034812927,-0.05465637892484665,-0.09773844,-0.39370266,16
-3.126823902130127,9.204731941223145,0.9763892889022828,-0.1983856707811356,-0.14446963,-0.46486846,16
-3.3917853832244877,9.173089981079102,1.1057850122451782,-0.306675523519516,-0.24129178,-0.39370266,16
-3.5463454723358154,9.253883361816406,1.2023934125900269,-0.34762242436409,-0.24404067,-0.3555236,16
-3.4564695358276367,9.37551498413086,1.0279361009597778,-0.3637984395027161,0.32406402,-0.35338554,16
-3.060279130935669,9.48475456237793,0.6823432445526123,-0.3570902943611145,0.49968776,-0.18692477,16
-2.618348836898804,9.49417209625244,0.4281493723392487,-0.282155305147171,0.17684549,0.06414085,16
-2.454601526260376,9.45640754699707,0.4931492209434509,-0.13039392232894895,-0.29993483,0.2510656,16
-2.730193853378296,9.384270668029783,0.977320671081543,0.01878082379698753,-1.0299188,0.15913039999999998,16
-3.233094453811645,9.252833366394043,1.3271911144256592,0.05051389709115029,0.029626964,0.03023783,16
-3.574448347091675,9.15778350830078,1.4481866359710691,0.008356194011867045,0.39858958,-0.056505036,16
-3.6393017768859854,9.153703689575195,1.3359527587890625,-0.04978874698281288,0.2666427,-0.08674286,16
-3.5612130165100098,9.210453033447266,1.1398184299468994,-0.09197603166103364,-0.12034045,-0.043982297,16
-3.4245662689208984,9.27652072906494,1.0059148073196411,-0.08399691432714462,-0.31398472,0.014966198,16
-3.3084070682525635,9.31739330291748,1.0333675146102903,-0.05101453512907028,-0.35216382,0.0580322,16
-3.244994163513184,9.30471897125244,1.0641711950302124,-0.04076763242483139,-0.16798794,0.058948494,16
-3.184199333190918,9.275437355041504,1.0036348104476929,-0.044086918234825134,0.06078109,0.05589417,16
-3.130774736404419,9.25157356262207,0.8858432769775391,-0.03661122173070908,0.09743301,0.052839845,16
-3.090498924255371,9.24982738494873,0.8029828071594238,-0.010863499715924265,0.070249505,0.041233405,16
-3.0818030834198,9.265414237976074,0.8095227479934692,0.011743835173547268,0.04520403,0.0009162979,16
-3.098705053329468,9.29134750366211,0.8747718930244446,0.018981901928782463,0.16218472,-0.027183503,1
-3.0750465393066406,9.320229530334473,0.9331410527229308,0.00965071748942137,0.22602014,-0.03481932,1
-2.9873371124267583,9.365100860595703,0.9399520754814148,-0.002572437282651663,0.15607607,0.0125227375,1
-2.884455919265747,9.408047676086426,0.9245610237121582,-0.0075764753855764875,0.11759156,0.05100725,1
-2.83764910697937,9.429850578308104,0.8813400864601135,-0.0096235740929842,0.1853976,0.064751714,1
-2.8276262283325195,9.429903984069824,0.8154246211051941,-0.024452801793813702,0.24098633,0.05681047,1
-2.819588422775269,9.41879940032959,0.741936981678009,-0.035844046622514725,0.32498032,0.0580322,1
-2.8218178749084477,9.400223731994627,0.7109497189521791,-0.04252351075410843,0.29718593,0.05772676700000001,1
-2.83634877204895,9.379825592041016,0.6980690956115723,-0.050982799381017685,0.3359759,0.061391957,1
-2.856647729873657,9.361233711242676,0.6753507852554321,-0.06391110271215439,0.32986724,0.064751714,1
-2.8701064586639404,9.34145736694336,0.6580056548118591,-0.07996898889541626,0.26542094,0.057421334,1
-2.8873190879821777,9.33395290374756,0.6588221192359924,-0.09554965794086456,0.20433442,0.05497787,1
-2.8985576629638667,9.345067977905273,0.657758355140686,-0.11084260046482086,0.17287487,0.074830994,1
-2.9151825904846187,9.373244285583496,0.646838366985321,-0.12085174024105072,0.17837265,0.070249505,1
-2.93714451789856,9.39494514465332,0.6661236882209778,-0.12428005039691925,0.16340645,0.06994407,1
-2.956315279006958,9.414910316467283,0.685228705406189,-0.1277908980846405,0.18570304,0.07360926,1
-2.9702756404876713,9.43870735168457,0.6928214430809021,-0.1322614848613739,0.20922135,0.0571159,1
-2.991306781768799,9.44561004638672,0.698334276676178,-0.133869931101799,0.25045475,0.055283304000000005,1
-3.022167682647705,9.430642127990724,0.6996919512748718,-0.1363128274679184,0.2302962,0.04734206,1
-3.05064058303833,9.403369903564453,0.7034478783607483,-0.13655142486095428,0.16890424,0.050396383,1
-3.0628850460052486,9.388713836669922,0.6811269521713257,-0.12811478972434998,0.15149458,0.06658431,1
-3.0925371646881104,9.387580871582033,0.6463878750801086,-0.10975304245948793,0.10903945,0.08002335,1
-3.1543292999267583,9.37801742553711,0.6294848322868347,-0.08817363530397415,0.023518313,0.076052725,1
-3.2275910377502437,9.358636856079102,0.6360381841659546,-0.06934674829244614,-0.021685716,0.06688975,1
-3.2834243774414062,9.352227210998537,0.679675281047821,-0.05574455484747887,-0.08216137400000001,0.036957346,1
-3.314544200897217,9.34623908996582,0.7187599539756775,-0.049999333918094635,-0.105374254,0.014966198,1
-3.3211247920989986,9.329934120178224,0.7290959358215332,-0.045899063348770135,-0.093767814,0.0018325958,1
-3.3035333156585693,9.315567016601562,0.716821551322937,-0.03911510109901428,-0.10751228,0.0015271631,1
-3.263106107711792,9.318055152893066,0.7005804777145386,-0.028093192726373672,-0.129198,0.016187929,1
-3.2084903717041016,9.33255100250244,0.7019438147544861,-0.013117306865751743,-0.12705997,0.022602014,1
-3.1665222644805913,9.352025985717773,0.7279117703437805,-0.0043254424817860135,-0.16126843,0.018325957,1
-3.1254796981811523,9.37353229522705,0.7711750864982605,-0.002898648614063859,-0.17501289,-0.00061086525,1
-3.0844740867614746,9.387837409973145,0.8094657659530641,-0.003806547960266471,-0.14385876,-0.0070249503,1
-3.0468904972076416,9.401474952697754,0.8431005477905273,-0.007757749408483504,-0.13316862,-0.009773844,1
-3.0233476161956787,9.404929161071776,0.8840592503547668,-0.014643979258835316,-0.1255328,-0.020158553,1
-3.0150904655456543,9.3983736038208,0.9195361733436584,-0.02517211064696312,-0.098043874,-0.03726278,1
-3.0079126358032227,9.38647747039795,0.9222251176834106,-0.04001509770751,-0.04153884,-0.06047566,1
-2.9652841091156006,9.364730834960938,0.9058806300163268,-0.05081820115447045,0.011301007,-0.06688975,1
-2.9018423557281494,9.372529029846193,0.8986062407493591,-0.05360313504934311,0.0018325958,-0.0421497,1
-2.8338019847869877,9.40078353881836,0.922822117805481,-0.04834744334220886,-0.03359759,-0.03756821,1
-2.7816331386566158,9.41617202758789,0.953047215938568,-0.0428517647087574,-0.047647487,-0.011301007,1
-2.763958692550659,9.415996551513672,0.9686751961708068,-0.03784268349409104,-0.04062254,0.002443461,1
-2.762949228286743,9.40081024169922,0.9995899200439452,-0.03493372350931168,-0.029932396,0.0021380284,1
-2.7556827068328857,9.379981994628906,1.0311669111251829,-0.037166427820920944,0.008246681,0.00030543262000000003,1
-2.754863977432251,9.35565185546875,1.040302038192749,-0.04106561467051506,0.027183503,0.00061086525,1
-2.757697105407715,9.335319519042967,1.0313557386398315,-0.04602976515889168,0.028710667,-0.00030543262000000003,1
-2.7641372680664062,9.327362060546877,1.0361351966857908,-0.05263715982437134,0.03604105,0.003970624,1
-2.7621424198150635,9.323199272155762,1.0561223030090332,-0.0529080405831337,0.02565634,0.011301007,1
-2.742338895797729,9.337712287902832,1.0443819761276243,-0.05020174384117127,0.041233405,0.03726278,1
-2.735398530960083,9.363781929016113,1.0486612319946291,-0.04157831147313118,0.021380283,0.03756821,1
-2.7543981075286865,9.385316848754883,1.0768767595291138,-0.034770507365465164,0.042760565999999986,0.027794369,1
-2.7964351177215576,9.388813018798828,1.111782431602478,-0.03356659039855004,0.06963864,0.012217305,1
-2.8408989906311035,9.380973815917967,1.1352299451828003,-0.034176383167505264,0.07788532,-0.0067195175,1
-2.8564150333404537,9.38077449798584,1.1421375274658203,-0.0330229327082634,0.07452556,-0.0070249503,1
-2.8530433177948,9.378461837768556,1.1461058855056765,-0.028885362669825557,0.07452556,-0.015271631,1
-2.8462831974029537,9.369994163513184,1.1367769241333008,-0.02507206238806248,0.09560041,-0.006414085,1
-2.84889817237854,9.360946655273438,1.1279252767562866,-0.02136519737541676,0.071776666,-0.00580322,1
-2.8575398921966557,9.356873512268066,1.1325807571411133,-0.017505403608083725,0.035430185,0.003970624,1
-2.8696134090423584,9.357215881347656,1.1349759101867676,-0.013096150010824205,0.028710667,0.011911872,1
-2.894728899002075,9.351409912109377,1.1333436965942385,-0.007909889332950115,0.016187929,0.005497787,1
-2.9289588928222656,9.343291282653807,1.1335055828094482,-0.003743365872651338,-0.0033597588,-0.002443461,1
-2.955583333969116,9.332182884216307,1.1266744136810305,-0.00048104135203175247,-0.012217305,-0.027794369,1
-2.9570620059967037,9.330265045166016,1.1220403909683228,0.0008127908804453909,-0.0012217305,-0.029932396,1
-2.936861276626587,9.33931827545166,1.1160447597503662,0.003301037009805441,-0.0009162979,-0.025961773,1
-2.903609275817871,9.34760284423828,1.10298752784729,0.006519386079162359,0.004276057,-0.025045475,1
-2.883940935134888,9.355951309204102,1.0860172510147097,0.009857933968305588,-0.0033597588,-0.017715093,1
-2.886260509490967,9.359553337097168,1.0795115232467651,0.016562219709157944,0.018020526,-0.028099801,1
-2.8826689720153813,9.354114532470703,1.0779749155044556,0.022750066593289372,0.0061086523,-0.02443461,1
-2.8817014694213867,9.352530479431152,1.0490542650222778,0.02785517834126949,0.010079277,-0.03023783,1
-2.918686628341675,9.355719566345217,1.0320097208023071,0.03835505619645119,0.027488936,-0.03970624,1
-2.9586820602416988,9.361387252807617,1.026224970817566,0.04164866730570793,0.034513887,-0.039095376,1
-2.9831948280334477,9.370041847229004,0.9975922107696532,0.04300488904118538,0.03359759,-0.03756821,1
-3.0022311210632324,9.370138168334961,0.972350001335144,0.05021168291568756,-0.008857545999999999,-0.02443461,1
-3.019371509552002,9.359817504882812,0.9692373871803284,0.05938062816858292,-0.048563786,-0.019242255,1
-3.040163516998291,9.345389366149902,0.9593581557273864,0.06158110871911049,-0.010995574,-0.019547688,1
-3.0564758777618413,9.33341121673584,0.940127730369568,0.06190333142876625,0.01740966,-0.027183503,1
-3.047249317169189,9.334814071655273,0.9216432571411132,0.06027454510331154,0.024740042,-0.013439035,1
-3.03617787361145,9.343976974487305,0.9021971821784972,0.06166976690292359,0.015882496,-0.0076358155,1
-3.0453667640686035,9.344606399536133,0.9007211923599244,0.06288981437683105,-0.023823744,-0.0021380284,1
-3.0672976970672607,9.351390838623047,0.91214120388031,0.059556350111961365,-0.022907447,-0.010995574,1
-3.082514524459839,9.359001159667967,0.9201737046241759,0.04878835007548332,-0.004276057,-0.026572637000000003,1
-3.090075254440308,9.349541664123537,0.8821858167648315,0.034556325525045395,0.06261369,-0.043066,1
-3.084901094436645,9.331585884094238,0.8346248269081116,0.0244914423674345,0.08521569999999999,-0.032986723,1
-3.0690491199493413,9.318069458007812,0.7925379276275635,0.022484146058559414,0.08827003,-0.017104227,1
-3.0625898838043213,9.308324813842773,0.7486952543258667,0.024427378550171845,0.112704635,-0.016493361,1
-3.0761644840240483,9.31176471710205,0.7382533550262451,0.02936061099171638,0.08277224,-0.012217305,1
-3.1027405261993413,9.314635276794434,0.7592234015464783,0.029870433732867237,0.064751714,-0.0030543262,1
-3.144459724426269,9.317861557006836,0.7717669606208801,0.028561405837535855,0.04184427,-0.010079277,1
-3.1787800788879395,9.32487964630127,0.7809642553329468,0.027736267074942592,0.012217305,-0.004581489,1
-3.2089474201202397,9.315166473388672,0.7827877998352051,0.02413753420114517,0.0018325958,-0.010690141499999998,1
-3.232201337814331,9.305014610290527,0.7823395729064941,0.019182555377483368,-0.0012217305,-0.021380283,1
-3.2433629035949707,9.290575981140137,0.7713347673416138,0.014010673388838768,0.00030543262000000003,-0.023518313,1
-3.232940673828125,9.285733222961426,0.7492956519126892,0.01078786049038172,-0.0036651916,-0.019242255,1
-3.2111835479736333,9.289233207702637,0.7296826243400574,0.010180053301155569,-0.009773844,0.0015271631,1
-3.1828999519348145,9.302329063415527,0.7323379516601562,0.014292302541434763,-0.015271631,0.013133603,1
-3.180126667022705,9.302024841308594,0.7431216835975647,0.01597251184284687,0.020158553,0.0018325958,1
-3.1930689811706543,9.293654441833496,0.7680698037147522,0.012866394594311714,0.029932396,-0.00030543262000000003,1
-3.1995441913604736,9.294474601745604,0.7859602570533752,0.00601923791691661,0.03023783,-0.0018325958,1
-3.205482006072998,9.300745964050293,0.7947995066642761,-0.0006819234113208951,0.03604105,0.008857545999999999,1
-3.214160442352295,9.297937393188477,0.8064974546432495,-0.0021640588529407982,0.0125227375,-0.005497787,1
-3.221205472946167,9.295743942260742,0.7923958897590637,-0.0027876407839357853,-0.019547688,-0.0015271631,1
-3.232297658920288,9.294058799743652,0.766250491142273,-0.0009740344830788672,0.00030543262000000003,0.008246681,1
-3.247013568878174,9.290184020996094,0.7638089656829834,7.7083950600354e-06,-0.0076358155,-0.005497787,1
-3.257734537124634,9.28521728515625,0.7651737332344055,-0.003173518925905228,0.0143553335,0.0061086523,1
-3.2596509456634517,9.283538818359377,0.7481180429458618,-0.003650756552815437,0.004276057,0.014049901000000002,1
-3.269138813018799,9.277379035949707,0.7337594032287598,-0.0016739389393478632,-0.03634648,0.0027488936,1
-3.280235290527344,9.275148391723633,0.7420153021812439,0.000817586958874017,-0.010995574,-0.0027488936,1
-3.2749483585357666,9.277705192565918,0.7716162204742432,0.0013460877817124126,-0.043676864,-0.007330383,1
