acc_x,acc_y,acc_z,gyro_x,gyro_y,gyro_z,label
0.0,0.0,0.0,0.0,-0.0033597588,0.010690141499999998,8
0.21244828402996066,-0.11004261672496796,0.15144693851470947,-0.00044066319242119784,0.0009162979,0.0018325958,8
0.7196220159530641,-0.37254467606544495,0.5127571225166321,-0.0018813550705090165,-0.0125227375,-0.002443461,8
1.4223786592483518,-0.7359804511070251,1.0129399299621582,-0.0039957230910658845,-0.0021380284,0.0061086523,8
2.209101438522339,-1.1429071426391602,1.5705910921096802,-0.006212494801729918,-0.003970624,0.003970624,8
2.9901411533355717,-1.547131061553955,2.1209933757781982,-0.008639285340905191,-0.002443461,0.0067195175,8
3.70947265625,-1.9196796417236328,2.6243555545806885,-0.010452133603394032,0.0015271631,0.011301007,8
4.3404741287231445,-2.246760845184326,3.062106847763061,-0.01277883443981409,0.0036651916,0.011301007,8
4.876616954803467,-2.524956464767456,3.430182695388794,-0.014535927213728428,-0.0030543262,0.009773844,8
5.322653770446777,-2.7566921710968018,3.73238754272461,-0.015804864466190338,-0.008246681,0.009162978,8
5.688559055328369,-2.947096347808838,3.9762213230133057,-0.015665357932448387,-0.004886922,0.005192355,8
5.985886573791504,-3.102118968963623,4.170220851898193,-0.015827715396881104,-0.0143553335,0.0076358155,8
6.225879669189452,-3.227555751800537,4.322632789611816,-0.015671877190470695,-0.0018325958,0.006414085,8
6.41866397857666,-3.328658103942871,4.441389560699463,-0.016808589920401573,-0.0009162979,0.011301007,8
6.573440074920653,-3.4106922149658203,4.542306423187256,-0.01670847274363041,-0.002443461,0.0070249503,8
6.697547912597656,-3.4775207042694087,4.632038593292236,-0.017405666410923004,0.0012217305,0.0067195175,8
6.796854496002197,-3.532049655914306,4.712705612182617,-0.01826377771794796,0.003970624,0.0070249503,8
6.8761534690856925,-3.5766520500183105,4.786020278930664,-0.018931970000267032,0.0033597588,0.0143553335,8
6.93933629989624,-3.6132581233978267,4.853409767150879,-0.01943620666861534,-0.00030543262000000003,0.008246681,8
6.98954963684082,-3.643428087234497,4.916019916534424,-0.019248586148023602,-0.0030543262,0.013439035,8
7.029327392578125,-3.6684300899505615,4.974874496459961,-0.01987068168818951,-0.0018325958,0.009162978,8
7.060727119445801,-3.689263343811035,5.0305519104003915,-0.020637499168515202,-0.009468411,0.0125227375,8
7.085389137268066,-3.706751346588135,5.08373498916626,-0.02062925510108471,0.0021380284,0.003970624,8
7.104745388031006,-3.7212615013122563,5.134606838226318,-0.019683461636304852,0.00030543262000000003,0.006414085,8
7.121323108673097,-3.7288317680358887,5.1771016120910645,-0.01879450306296349,-0.0030543262,0.01740966,8
7.132150650024414,-3.727204561233521,5.20012903213501,-0.018617385998368263,-0.0018325958,0.013744468,8
7.135926723480225,-3.7302124500274663,5.203642845153809,-0.017746364697813988,-0.008246681,0.0061086523,8
7.143063068389893,-3.736728429794312,5.20111608505249,-0.017377296462655067,-0.008246681,0.0027488936,8
7.161750316619872,-3.750054836273194,5.188599586486816,-0.018449632450938225,-0.01038471,0.0027488936,8
7.1761112213134775,-3.7571346759796143,5.159290313720703,-0.019481083378195763,-0.0036651916,0.004581489,8
7.179758071899414,-3.7556886672973633,5.123824119567871,-0.019389240071177486,-0.0033597588,0.0070249503,8
7.17741060256958,-3.756401062011719,5.100797653198242,-0.018435854464769363,-0.003970624,0.005497787,8
7.173497676849365,-3.7595560550689697,5.102560520172119,-0.017560996115207672,-0.0027488936,0.008246681,8
7.179909706115723,-3.762903928756714,5.114874362945557,-0.018381675705313686,-0.0030543262,0.006414085,8
7.192915916442871,-3.7602245807647705,5.126399517059326,-0.01936076022684574,-0.010690141499999998,0.0125227375,8
7.199733257293701,-3.757137298583984,5.140854835510254,-0.019828302785754204,-0.005192355,0.009468411,8
7.197239875793457,-3.7529735565185542,5.161853790283203,-0.01988513395190239,0.0067195175,0.01038471,8
7.197147846221924,-3.7567412853240967,5.185345649719238,-0.019725240767002102,0.0076358155,0.013744468,8
7.203732490539551,-3.7634856700897217,5.2086358070373535,-0.020197628065943718,-0.0061086523,0.01160644,8
7.208697319030763,-3.769475936889648,5.213825702667236,-0.02044119313359261,0.00030543262000000003,0.00580322,8
7.2120361328125,-3.771134614944458,5.210905075073242,-0.02006126567721367,0.0033597588,0.0076358155,8
7.210782051086426,-3.7724580764770512,5.196958541870117,-0.0201119352132082,0.005497787,0.0067195175,8
7.2106895446777335,-3.7753994464874263,5.176377296447754,-0.01995467767119408,-0.003970624,0.009162978,8
7.213193416595459,-3.7747857570648193,5.157664299011231,-0.018410533666610718,-0.007941248,0.01160644,8
7.218035697937013,-3.770253896713257,5.141380786895752,-0.017529470846056938,-0.013133603,0.018325957,8
7.2229366302490225,-3.767584562301636,5.127954959869385,-0.016842098906636238,-0.009773844,0.010690141499999998,8
7.222581386566162,-3.763118267059326,5.122519016265869,-0.01649579592049122,0.004581489,0.017715093,8
7.21766471862793,-3.7583980560302734,5.121499061584473,-0.016731664538383484,0.010079277,0.018020526,8
7.216339588165282,-3.7537860870361333,5.126745223999023,-0.016340967267751694,-0.00061086525,0.018325957,8
7.2193922996521,-3.7503507137298575,5.13444185256958,-0.01710343360900879,0.010079277,0.027488936,8
7.218859672546388,-3.7481768131256095,5.142270088195801,-0.017609057947993282,0.0027488936,0.021380283,8
7.217147350311278,-3.749009370803833,5.142223834991455,-0.01710181124508381,-0.0018325958,0.021991149,8
7.220871925354004,-3.7557742595672607,5.139577388763428,-0.017037797719240192,-0.01985312,0.018325957,8
7.24668025970459,-3.764054298400879,5.145721912384033,-0.01886795647442341,-0.10476339,0.032070424,16
7.3129334449768075,-3.7595136165618896,5.14284610748291,-0.02273429557681084,-0.17623462,0.06414085,16
7.37740421295166,-3.7365429401397705,5.103851795196533,-0.0242523904889822,-0.23579398,0.09682214,16
7.42423152923584,-3.720027685165405,5.099440574645996,-0.01927761919796467,-0.32650748,0.16920967,16
7.474617958068848,-3.669080972671509,5.157167434692383,-0.028729701414704326,-0.31826079999999995,0.23793201,16
7.507643222808838,-3.5424098968505864,5.256894588470459,-0.059001702815294266,-0.29443705,0.30207285,16
7.542830944061278,-3.4166793823242188,5.297421455383301,-0.11699235439300534,-0.17531833,0.39614612,16
7.664988994598389,-3.3371248245239262,5.325259208679199,-0.18400733172893524,-0.14782938,0.48380527,16
7.871365547180176,-3.2790312767028813,5.434210300445557,-0.26497507095336914,-0.34025195,0.59895337,16
8.096004486083983,-3.2373056411743164,5.568321704864502,-0.3809088468551636,-0.3622431,0.6924158,16
8.266880989074707,-3.214369058609009,5.632133483886719,-0.5179980993270874,-0.2003638,0.75594574,16
8.35300350189209,-3.2781970500946045,5.630035400390625,-0.6536129713058472,0.00580322,0.8393288000000001,16
8.395813941955566,-3.3790299892425537,5.602997779846191,-0.7909532189369202,0.096516706,0.96761054,16
8.355441093444824,-3.4882524013519287,5.543808937072754,-0.9291504621505736,0.11881329,1.1184943,16
8.204839706420897,-3.631144762039185,5.430327892303467,-1.0596040487289429,0.28008172,1.2577715,16
7.958798885345459,-3.818131685256958,5.29576301574707,-1.1745357513427734,0.43371433,1.3335188999999998,16
7.690411567687987,-4.080255031585693,5.151542663574219,-1.274705410003662,0.552833,1.3387111,16
7.385563850402832,-4.3601322174072275,4.929220676422119,-1.362605333328247,0.68783426,1.3921618,16
7.002084255218506,-4.5595784187316895,4.5869483947753915,-1.4199507236480713,0.97097033,1.3435981,16
6.574880599975586,-4.718526840209961,4.161235332489014,-1.4404158592224119,1.2263118999999998,1.2495248,16
6.1839332580566415,-4.908570289611816,3.6697866916656494,-1.4191185235977173,1.5033393999999998,1.1459832,16
5.860326290130615,-5.220759868621826,3.2251250743865967,-1.34837007522583,1.4795157,0.9660834,16
5.5522727966308585,-5.678852558135986,2.8759286403656006,-1.2344613075256348,1.3884968,0.7431175999999999,16
5.251158237457275,-6.247207164764403,2.5823988914489746,-1.108776569366455,1.294118,0.47647488,16
4.8876824378967285,-6.9228835105896,2.3054893016815186,-0.9765602946281432,1.3277156,0.19364429,16
4.411304473876953,-7.543968200683594,2.0764484405517583,-0.8375101089477539,1.3747523,-0.06597344599999999,16
3.906373023986816,-7.952446460723878,1.9707779884338381,-0.6901078224182129,1.205848,-0.31826079999999995,16
3.4154608249664307,-8.072042465209961,1.993544697761536,-0.5412929654121399,0.8597928,-0.48075095,16
2.9356393814086914,-8.022007942199707,2.1229066848754883,-0.4102599620819092,0.47616947,-0.65087694,16
2.5091042518615723,-8.003339767456055,2.3005099296569824,-0.3149418234825134,0.18784106,-0.8781188,16
2.22955060005188,-7.971622943878174,2.488312005996704,-0.248078927397728,-0.011911872,-1.1502593,16
2.1764533519744877,-7.881543636322021,2.6761159896850586,-0.1949426680803299,0.016187929,-1.3707817,16
2.3399639129638667,-7.828091144561768,2.796304941177368,-0.15661835670471191,0.15088372,-1.5916093999999998,16
2.7435193061828613,-7.83376407623291,2.866687774658203,-0.1062697172164917,0.24617869,-1.7146988,16
3.2921760082244877,-7.816667079925537,2.8883118629455566,-0.022798052057623863,0.3811799,-1.7183639,16
3.8866851329803462,-7.72645092010498,2.9421732425689697,0.07335174083709718,0.50426924,-1.6710218,16
4.477428913116455,-7.521605968475343,3.0358550548553467,0.16652017831802368,0.6096435,-1.4963144,16
4.927692890167236,-7.370145797729492,3.1880037784576416,0.24762873351573944,0.58276546,-1.5213598999999998,16
5.229714870452881,-7.206345081329347,3.3787782192230225,0.33670759201049805,0.47067168,-1.2819008,16
5.481919288635254,-7.128219604492188,3.4837982654571533,0.4062195122241974,0.36346483,-1.1924089,16
5.798605918884277,-7.1326332092285165,3.49814510345459,0.4686093628406525,0.2706133,-1.1261301,16
6.137521743774414,-7.148607730865479,3.506941795349121,0.5511165857315063,0.13225232,-1.0070114,16
6.381556987762451,-7.100321292877197,3.5676746368408203,0.6521121859550476,0.20372356,-0.8897252,16
6.504629135131836,-6.881119728088379,3.6837234497070312,0.7454198002815247,0.3924809,-0.8613200000000001,16
6.618907928466798,-6.653993129730225,3.8514866828918457,0.818618655204773,0.50976706,-0.9914343,16
6.738697052001952,-6.3595542907714835,4.001680850982666,0.8921477794647217,0.5137377000000001,-0.90102625,16
6.804194927215576,-5.977021217346191,4.183019161224365,0.9745469093322754,0.51007247,-0.8151997,16
6.752295970916747,-5.505224704742432,4.481793403625488,1.0573451519012451,0.3662137,-0.9053023,16
6.5215582847595215,-4.87026834487915,4.803642272949219,1.10749089717865,0.41325033,-0.8735373,16
6.263369083404541,-4.273118495941162,5.021200180053711,1.1244120597839355,0.36682457,-0.9841039,16
6.030509471893311,-3.740861177444458,5.27003812789917,1.126731514930725,0.23273966,-1.0088439,16
5.761681079864503,-3.227370500564575,5.636120796203612,1.1111229658126829,0.09193522,-1.01312,16
5.583577632904053,-2.8079676628112797,6.045640468597412,1.0611237287521362,-0.19883664,-1.0784826,16
5.487858295440674,-2.563688039779663,6.254546642303468,0.9826858639717102,-0.29749137,-1.1417072,16
5.450691223144531,-2.380337715148926,6.389636039733888,0.9155004024505616,-0.35094208,-1.1319333,16
5.502674579620361,-2.27390718460083,6.5395588874816895,0.8523348569869995,-0.5833763000000001,-1.1545353,16
5.729921817779541,-2.2130744457244877,6.691975593566895,0.7831365466117859,-0.6945538,-1.0219775,16
6.095959663391112,-2.07836651802063,6.793295860290527,0.7221087813377379,-0.8405505999999999,-0.904386,16
6.4426207542419425,-1.8639895915985107,6.80980396270752,0.6785280704498291,-1.1236867,-0.90469146,16
6.687098503112793,-1.612635374069214,6.779747009277344,0.6288721561431885,-1.1542298999999998,-0.86345804,16
6.872418880462647,-1.4172645807266235,6.668383598327638,0.570436954498291,-1.0830641,-0.75228053,16
7.286409378051758,-1.0800992250442505,6.581944465637207,0.4913731515407562,-1.1068878,-0.6630941999999999,16
7.803058624267577,-0.7654168605804443,6.5616092681884775,0.4088146984577179,-0.990518,-0.57940567,16
8.0604248046875,-0.4541054368019104,6.47769021987915,0.3355261981487274,-0.7965683000000001,-0.67011917,16
8.053005218505861,-0.17167003452777865,6.209767818450928,0.2775660455226898,-0.6783658,-0.7724390999999999,16
8.047901153564451,0.02452162466943264,5.8258376121521,0.2379966527223587,-0.7629706999999999,-0.799928,16
8.228813171386719,0.12022048234939575,5.576249122619629,0.21187131106853485,-0.7870999,-0.7886270000000001,16
8.435665130615233,0.16514216363430026,5.4953269958496085,0.19110077619552607,-0.67103547,-0.8338310999999999,16
8.5496826171875,0.22461065649986267,5.464798450469972,0.1659289300441742,-0.52320606,-0.9776898,16
8.672344207763674,0.3847931027412415,5.439786434173584,0.14315928518772125,-0.20738874,-1.0262536,16
9.167964935302734,0.6572945713996887,5.5005226135253915,0.07772154361009598,-0.21930063,-0.79717916,16
9.83165454864502,0.8861698508262634,5.537749290466309,-5.114495070301928e-05,-0.310625,-0.6582073,16
10.408493995666504,1.074021577835083,5.585099220275879,-0.03695221617817879,-0.06047566,-0.59498274,16
10.74634075164795,1.0888667106628418,5.611271858215332,-0.009687930345535278,0.029626964,-0.7348709,16
10.43465518951416,1.0293411016464231,5.714610576629639,0.05125429853796959,0.17959438,-1.1230757,16
9.791272163391113,1.059944748878479,5.692399501800537,0.10476891696453093,0.56169057,-1.4141531,16
9.388347625732422,1.1455671787261963,5.700572967529298,0.12881068885326385,0.5671884,-1.4669929,16
9.386003494262695,1.1967618465423584,5.819356918334961,0.12382841855287552,0.08246681,-1.2950343,16
9.484991073608398,1.36103355884552,5.924958229064941,0.10730089992284776,0.022296581,-1.2996159,16
9.36031436920166,1.6496760845184326,5.886081218719482,0.1052652671933174,0.26145032,-1.2198979,16
9.072151184082033,1.8490760326385496,5.78666353225708,0.12620480358600614,0.19150625,-1.2428053999999995,16
8.777214050292969,2.0949842929840092,5.6149187088012695,0.13789410889148712,0.13041973,-1.3545936,16
8.536408424377441,2.4513380527496342,5.419412612915039,0.14324553310871124,0.03970624,-1.4062119,16
8.317723274230957,2.860262393951416,5.321199417114258,0.16143856942653656,-0.06750060599999999,-1.5241088,16
8.134930610656737,3.332770347595215,5.277538299560547,0.19531123340129847,-0.10598512,-1.6465873,16
7.977396011352539,3.916469097137451,5.205615043640137,0.21409747004508967,0.071776666,-1.7406605,16
7.848024368286133,4.579748630523682,5.138760566711426,0.22437357902526853,-0.07788532,-1.8270979,16
7.66920804977417,5.096775531768799,5.092435836791992,0.2485613226890564,-0.39614612,-1.8545868000000003,16
7.3605899810791025,5.244040489196777,5.013519287109375,0.26528346538543696,-0.75686204,-1.7748689999999998,16
6.973928451538086,4.973662853240967,4.807311058044434,0.2866753339767456,-1.0781771999999998,-1.5940529,16
6.591437816619872,4.4234795570373535,4.544112205505371,0.31142547726631165,-0.90469146,-1.4532484,16
6.240821361541747,3.7709364891052246,4.414916038513184,0.3302134275436401,-0.8295549999999999,-1.3686435,16
5.964449405670166,3.094862461090088,4.363086700439453,0.3835806548595429,-0.8732319,-1.2443326,16
5.86724853515625,2.512920379638672,4.398016929626465,0.4657358825206757,-0.86254174,-1.131017,16
5.979721546173097,2.1081669330596924,4.381057262420653,0.5440725684165955,-1.0366384,-1.0500773,16
6.046414375305176,2.072745084762573,4.129100322723389,0.632720410823822,-0.77488256,-0.9639453,16
5.982935428619385,2.559334278106689,3.8528668880462646,0.7333045005798341,-0.0027488936,-0.84757555,16
5.987135887145996,3.6133511066436768,3.6488921642303462,0.8045738339424133,0.80756384,-0.61453044,16
6.13408899307251,4.905466556549072,3.528853178024292,0.8611302971839905,0.8014551999999999,-0.5506949999999999,16
6.244813442230225,6.173933982849121,3.5223844051361084,0.9330727458000184,0.35308012,-0.6444628000000001,16
6.108002185821532,7.2434306144714355,3.5991518497467037,0.9684225916862488,-0.27122417,-0.6230826,16
5.669046401977539,7.923907279968263,3.667901754379273,0.9076489806175232,-0.9049969,-0.52564955,16
5.016258239746094,8.238733291625978,3.6109137535095215,0.7619910836219788,-1.3445143999999998,-0.46120325,16
4.357666015625,8.289389610290527,3.227068424224853,0.585130512714386,-1.459357,-0.43676865,16
3.913983821868897,8.201055526733397,2.6926429271698,0.4157624542713165,-1.5314392,-0.4541782999999999,16
3.726439952850342,8.094270706176758,2.1521949768066406,0.2704274654388428,-1.7324138999999998,-0.453262,16
3.770514488220215,8.072320938110353,1.6248265504837036,0.14852452278137207,-1.8664987,-0.42760566,16
4.001401901245116,8.173782348632812,1.1001782417297363,0.05440742149949074,-1.9840903000000003,-0.35460728,16
4.293078899383545,8.345138549804688,0.6541045308113098,-0.0076915398240089425,-2.0851886000000004,-0.32406402,16
4.568284511566162,8.502394676208496,0.2856053411960602,-0.043335650116205215,-2.20278,-0.30268374,16
4.812310218811035,8.583582878112793,-0.004995244089514017,-0.04996225610375405,-2.0857995,-0.28313604,16
4.9991183280944815,8.616509437561035,-0.14864632487297058,-0.0387350432574749,-1.9126191000000003,-0.15057829,16
5.1058616638183585,8.660898208618164,-0.08226130902767181,-0.030959257856011387,-1.8909334,-0.008552114,16
5.168349266052246,8.768730163574219,0.13714170455932614,-0.04611734300851822,-1.8545868000000003,0.08674286,16
5.1893181800842285,8.885419845581055,0.3565041720867157,-0.09908588230609894,-1.7550159,0.03176499,16
5.136314392089844,8.919294357299805,0.4335795044898987,-0.1919555068016052,-1.7296648999999995,-0.2302962,16
5.006707668304443,8.890824317932129,0.4013831615447998,-0.3204261660575867,-1.9465221,-0.4382958,16
4.926000118255615,8.775074005126951,0.13553060591220856,-0.4474075734615326,-1.8973475,-0.52564955,16
5.043737888336182,8.615627288818361,-0.2719577550888061,-0.5401271581649779,-1.5066991000000003,-0.5665775,16
5.3707804679870605,8.441596031188965,-0.641595184803009,-0.5936424136161804,-0.9272934000000002,-0.5500841999999999,16
5.77848482131958,8.230895042419434,-0.8724208474159241,-0.6061725020408629,-0.59895337,-0.44440445,16
6.160598278045653,8.016903877258299,-1.0485268831253052,-0.5776999592781067,-0.58093286,-0.24801129,16
6.559751987457275,7.798548221588135,-1.1854547262191772,-0.4974929392337799,-0.7296785,0.046120327,16
6.945861339569093,7.589248180389403,-1.3169946670532229,-0.3970196545124054,-0.6899723000000001,0.28160888,16
7.110929012298584,7.391068458557129,-1.4334323406219482,-0.2944148182868957,-0.41325033,0.33078352,16
7.126189231872559,7.271033763885497,-1.4713468551635742,-0.1966185569763184,-0.009468411,0.29932398,16
7.08171272277832,7.220317363739014,-1.432244062423706,-0.11111921817064284,0.25503623,0.22693644,16
6.9582557678222665,7.2392144203186035,-1.3963215351104736,-0.040924493223428726,0.39278635,0.14660765,16
6.741907596588135,7.375051021575928,-1.3623075485229492,0.012892055325210094,0.45875978,0.11209377,16
6.447836875915527,7.559151649475098,-1.3621596097946167,0.05766180530190468,0.46395215,0.027794369,16
6.166599750518799,7.717031955718994,-1.402979850769043,0.09643811732530594,0.45173484,-0.0711658,16
5.975251197814941,7.807908535003662,-1.4372860193252563,0.12249036878347395,0.4166101,-0.12858713,16
5.889931678771973,7.898141860961914,-1.3940385580062866,0.14045129716396332,0.27916542,-0.10445796,16
5.844025611877441,7.962536811828612,-1.2618322372436523,0.15043391287326813,0.009773844,-0.07360926,16
5.795140743255615,8.022746086120605,-1.0319478511810305,0.15514729917049408,-0.18692477,-0.06688975,16
5.7207374572753915,8.121818542480469,-0.7296306490898132,0.1527830958366394,-0.35399640000000004,-0.111177474,16
5.664535999298097,8.259590148925781,-0.5053732991218567,0.12463261932134627,-0.32895094,-0.12339478,16
5.6012916564941415,8.371555328369139,-0.4075574576854706,0.061893932521343224,-0.23732115,-0.1337795,16
5.517090320587158,8.42919921875,-0.4049885869026184,-0.028528952971100807,-0.25717425,-0.1133155,16
5.412867069244385,8.448929786682129,-0.44104933738708496,-0.1301119327545166,-0.4352415,-0.09896017,16
5.3099942207336435,8.43343448638916,-0.4884786605834961,-0.23461179435253146,-0.57971114,-0.1255328,16
5.230528354644775,8.368308067321777,-0.5965365171432495,-0.33660128712654114,-0.5723807,-0.16584991,16
5.162158966064453,8.275647163391112,-0.7915148138999939,-0.42923066020011896,-0.59650993,-0.14569137,16
5.158888816833496,8.217358589172362,-1.0888909101486206,-0.4939882755279541,-0.49602258,-0.07574729,16
5.221007347106934,8.212955474853517,-1.3920772075653076,-0.4991067349910736,-0.419359,0.007941248,16
5.297897338867188,8.262386322021483,-1.6356337070465088,-0.4438616633415222,-0.12950343,0.016493361,16
5.322839260101318,8.403108596801758,-1.695493221282959,-0.3536547124385834,0.08582657,-0.034513887,16
5.0946316719055185,8.710152626037598,-1.583608865737915,-0.2615232765674591,0.07696902,-0.12858713,16
4.6521339416503915,9.120059967041016,-1.3494751453399658,-0.1809348464012146,-0.27702740000000003,-0.26633725,16
4.2323760986328125,9.38686752319336,-1.1180557012557983,-0.13023926317691806,-0.22174409,-0.40194935,16
3.9477939605712886,9.45441436767578,-0.805864155292511,-0.1315246969461441,-0.1142318,-0.57848936,16
3.864469289779663,9.38741397857666,-0.4666838347911834,-0.16508819162845612,0.017104227,-0.6630941999999999,16
3.931321859359741,9.225863456726074,-0.13648900389671326,-0.2295224219560623,0.09865474,-0.66828656,16
4.033570289611816,9.01125431060791,0.19145779311656952,-0.3259759545326233,0.15241088,-0.64721173,16
4.116520404815674,8.921198844909668,0.5373393893241882,-0.4399513006210327,0.10629055,-0.68416905,16
4.1145100593566895,9.070584297180176,0.8233919143676758,-0.5535821914672852,-0.042455133,-0.77213365,16
3.949927568435669,9.37682819366455,0.9312003850936891,-0.6357461810112,-0.056199603,-0.88300574,16
3.6058218479156494,9.632356643676758,0.9091336727142334,-0.6864846348762512,-0.27702740000000003,-1.001819,16
3.3251636028289795,9.614779472351074,0.8892645239830017,-0.7376832365989685,-0.54183745,-0.9633345,16
3.2765216827392583,9.22974967956543,0.9430539608001708,-0.7843016982078552,-0.9111055,-0.8454375,16
3.5136070251464844,8.70590877532959,0.9890266060829164,-0.8012652397155762,-1.180497,-0.6078109,16
3.925755023956299,8.270991325378418,1.0696033239364624,-0.7795409560203552,-1.3652838,-0.2959642,16
4.394019603729248,8.060543060302733,1.1772475242614746,-0.7044020891189575,-1.3839152,-0.029321533,16
4.675040245056152,8.044340133666992,1.129344820976257,-0.5997921824455261,-1.1236867,0.045814894,16
4.704296588897705,8.220471382141112,0.8573737740516663,-0.455897331237793,-0.5723807,-0.08643743400000001,16
4.658403396606445,8.485360145568848,0.5546721816062927,-0.28776100277900696,-0.076358154,-0.13316862,16
4.685004711151123,8.646989822387695,0.31598302721977234,-0.10284004360437393,0.2733622000000001,-0.047036625,16
4.733221054077148,8.647208213806152,0.10663334280252457,0.09594669938087463,0.3753767,0.069027774,16
4.775434970855713,8.595536231994629,-0.027361424639821053,0.28809747099876404,0.2406809,0.2666427,16
4.8248677253723145,8.594088554382324,-0.05281325057148933,0.4548681676387787,0.09132435,0.47555858,16
4.899666786193848,8.746866226196289,0.03173159435391426,0.582781970500946,0.070554934,0.8170323,16
4.878222942352295,9.010530471801758,0.13204751908779144,0.6692006587982178,0.08674286,0.8176431,16
4.712695121765137,9.301119804382324,0.2744019031524658,0.6945730447769165,0.08216137400000001,0.516792,16
4.421860694885254,9.458895683288574,0.4166355729103088,0.6269844770431519,-0.13530666,0.26847526,16
4.091107368469238,9.43152141571045,0.4092545211315155,0.4845627844333649,-0.03390302,0.102319926,16
3.8729443550109854,9.33537769317627,0.29926368594169617,0.334928959608078,0.038789943,-0.02443461,16
3.7094936370849614,9.227819442749023,0.12739786505699158,0.2031146138906479,0.12370021,-0.13133603,16
3.6430754661560063,9.208560943603516,-0.05939036980271339,0.0951513722538948,0.14355333,-0.22082779,16
3.746350526809693,9.233014106750488,-0.2981469035148621,0.02458127960562706,0.07147124,-0.19975294,16
3.942748546600342,9.218706130981444,-0.5448939204216003,-0.009122274816036223,0.13622294,-0.18051068,16
4.137545108795166,9.162543296813963,-0.7035366296768188,-0.02846994437277317,0.34391713,-0.17195857,16
4.261429309844972,9.08859920501709,-0.7478195428848267,-0.04216565564274788,0.4343252,-0.14874569,16
4.324796199798584,9.011238098144533,-0.7002472281455994,-0.054043225944042206,0.33475417,-0.11362094,16
4.388730049133302,8.949766159057617,-0.6645408868789673,-0.05561396852135658,0.1966986,-0.07422013,16
4.474852561950684,8.888784408569336,-0.6855432391166687,-0.02706860564649105,0.20311269,-0.0027488936,1
4.5587029457092285,8.819855690002441,-0.7233030796051025,0.030910057947039608,0.24251351,0.052534413,1
4.5951457023620605,8.789676666259767,-0.7517315149307251,0.09324005991220474,0.24037547,0.08093964,1
4.608952522277832,8.790196418762207,-0.7536464929580688,0.15475091338157654,0.22937989,0.118202426,1
4.610276699066162,8.81230354309082,-0.7349279522895813,0.2097042053937912,0.24740042,0.16218472,1
4.593030452728272,8.847362518310547,-0.72202467918396,0.2538759112358093,0.28619036,0.19822577,1
4.556066989898682,8.890177726745605,-0.7178508043289185,0.28858792781829834,0.31764993,0.24862215,1
4.47301721572876,8.953218460083008,-0.7047877311706543,0.3115957677364349,0.2947425,0.22937989,1
4.320645809173584,9.029983520507812,-0.6635814905166626,0.31988346576690674,0.26878070000000004,0.21166481,1
4.160149574279785,9.118789672851562,-0.6194729208946228,0.3116304278373718,0.2678644,0.17592919,1
3.9811348915100098,9.22006607055664,-0.5869079232215881,0.28128281235694885,0.24801129,0.09010262,1
3.81079626083374,9.31574249267578,-0.5672149062156677,0.23676605522632602,0.14599679999999998,0.0125227375,1
3.6887807846069336,9.379481315612793,-0.5783054232597351,0.1851601749658585,0.08155051,-0.016798794,1
3.610820055007935,9.397907257080078,-0.6123895645141602,0.12899231910705564,0.022907447,-0.03390302,1
3.5739517211914062,9.37549114227295,-0.6536030769348145,0.07477173209190369,-0.05009095,-0.027794369,1
3.5670871734619136,9.343698501586914,-0.6968156695365906,0.02663563191890717,-0.096516706,-0.015882496,1
3.5891361236572266,9.314497947692873,-0.7196080088615417,-0.013594179414212705,-0.13255776,-0.010690141499999998,1
3.642730236053467,9.306649208068848,-0.7181240320205688,-0.04784341901540756,-0.18448131,-0.003970624,1
3.703253746032715,9.298979759216307,-0.7001981139183044,-0.07723437249660492,-0.23396139,0.0018325958,1
3.777247667312622,9.270303726196287,-0.6820579767227173,-0.10349015146493913,-0.25045475,0.01740966,1
3.856491088867188,9.22173023223877,-0.6825129389762878,-0.1273101568222046,-0.2519819,0.027488936,1
3.937071084976196,9.159505844116213,-0.688873291015625,-0.14463944733142853,-0.23793201,0.03390302,1
4.019325256347656,9.107871055603027,-0.6899540424346924,-0.15383829176425934,-0.20341812,0.03176499,1
4.0982394218444815,9.069334030151367,-0.678648829460144,-0.1580139547586441,-0.18509217,0.028710667,1
4.1709980964660645,9.026304244995117,-0.6471996307373047,-0.15835922956466675,-0.17134771,0.023518313,1
4.234294414520264,8.976566314697266,-0.608522891998291,-0.15733273327350614,-0.15332718,0.023823744,1
4.289755344390868,8.93847370147705,-0.5788267254829407,-0.15821731090545654,-0.12736541,0.04184427,1
4.3328208923339835,8.918992042541504,-0.5545976161956787,-0.1582903265953064,-0.10354166,0.029626964,1
4.370696067810059,8.917557716369629,-0.5340591073036194,-0.15662062168121338,-0.049480084,0.016493361,1
4.404463291168213,8.919652938842773,-0.5149613618850708,-0.1540430337190628,-0.041233405,0.0018325958,1
4.42479133605957,8.908029556274414,-0.4933957457542419,-0.14930103719234467,-0.0580322,-0.0036651916,1
4.425710201263428,8.885135650634766,-0.4712368845939636,-0.14383092522621155,-0.045814894,0.011911872,1
4.423118114471436,8.855782508850098,-0.4515097737312317,-0.13783007860183716,-0.043676864,0.020463986,1
4.421072959899902,8.847368240356445,-0.4401942491531372,-0.1298508495092392,-0.03756821,0.02687807,1
4.416621685028076,8.853926658630371,-0.42637237906456,-0.11993288993835448,-0.0070249503,0.010995574,1
4.4126548767089835,8.866338729858398,-0.4030377268791199,-0.10813909024000168,-0.00030543262000000003,0.01282817,1
4.4099321365356445,8.888686180114746,-0.3795384466648102,-0.09597717225551604,-0.014660766,0.0018325958,1
4.3989787101745605,8.917612075805664,-0.36020833253860474,-0.08680301159620285,-0.0061086523,-0.014049901000000002,1
4.387399196624757,8.92967700958252,-0.3338726162910461,-0.08174750953912735,-0.01740966,-0.02107485,1
4.36925220489502,8.918017387390137,-0.30850353837013245,-0.07929950952529907,-0.015882496,-0.013439035,1
4.354113578796387,8.910828590393066,-0.28851795196533203,-0.07929699867963791,-0.0061086523,-0.005497787,1
4.345675468444823,8.909818649291992,-0.2673644721508026,-0.07878931611776352,0.017715093,-0.022907447,1
4.353111743927002,8.89930248260498,-0.25095853209495544,-0.07853579521179199,0.024129177,-0.018325957,1
4.368871212005615,8.88430404663086,-0.2328964322805405,-0.0775834321975708,0.005497787,-0.01282817,1
4.386575222015382,8.875261306762695,-0.21721325814723969,-0.07486332952976227,0.0067195175,-0.009468411,1
4.40142822265625,8.888548851013184,-0.2101954817771912,-0.07343965023756027,0.039095376,-0.004581489,1
4.4077415466308585,8.916001319885254,-0.2107756584882736,-0.07150006294250487,0.030543262,-0.0125227375,1
4.412160873413086,8.91286563873291,-0.21026048064231875,-0.06727597117424011,0.017104227,-0.022602014,1
