acc_x,acc_y,acc_z,gyro_x,gyro_y,gyro_z,label
0.0,0.0,0.0,0.0,0.1160644,-0.10751228,8
0.13489259779453278,-0.0921294242143631,0.2247679978609085,0.001432092976756394,0.08979719,-0.14630222,8
0.4534724056720734,-0.3061751425266266,0.7604936957359314,0.00872278306633234,0.05925392700000001,-0.049785517,8
0.8894949555397034,-0.5934657454490662,1.5015265941619873,0.010877933353185655,-0.057421334,0.041233405,8
1.371572971343994,-0.9037819504737854,2.3309345245361333,-0.008662854321300983,-0.12461651,0.0888809,8
1.8436105251312256,-1.1992100477218628,3.154696226119995,-0.021999100223183632,-0.004276057,0.03176499,8
2.276418924331665,-1.4645844697952268,3.915036916732788,-0.008372298441827297,0.07452556,0.010690141499999998,8
2.665038108825684,-1.7052485942840576,4.586456775665283,0.016472922638058662,0.054061573,0.0143553335,8
3.0048093795776367,-1.9183144569396973,5.161595344543457,0.02505255490541458,-0.03481932,0.03573562,8
3.297249555587769,-2.1043272018432617,5.644838809967041,0.017217941582202908,-0.06383542,0.081855945,8
3.547181367874145,-2.265910387039185,6.0461487770080575,0.006083799060434103,-0.01740966,0.07391469,8
3.7604062557220463,-2.406291961669922,6.3771820068359375,-0.001606954843737185,0.012217305,0.052534413,8
3.94272780418396,-2.528755187988281,6.64935827255249,-0.0029649145435541873,-0.0033597588,0.021685716,8
4.099509716033936,-2.63638687133789,6.872997760772705,-0.004185914061963558,-0.007941248,0.027794369,8
4.235370635986328,-2.731846570968628,7.056976795196532,-0.011727717705070972,-0.03634648,0.021380283,8
4.354179382324219,-2.8173627853393555,7.208732604980469,-0.02192915789783001,-0.025045475,0.014660766,8
4.453274726867676,-2.899608612060547,7.32927131652832,-0.029310945421457287,-0.011301007,0.0021380284,8
4.52211856842041,-2.987957000732422,7.386976718902588,-0.03213005140423775,-0.00580322,0.003970624,8
4.5743136405944815,-3.0591728687286377,7.392611503601074,-0.03489755466580391,0.005497787,-0.008857545999999999,8
4.630202770233153,-3.1169252395629883,7.3673133850097665,-0.036835428327322006,0.005192355,-0.010079277,8
4.689856052398682,-3.1496295928955083,7.3099122047424325,-0.03846142813563347,0.0061086523,-0.019242255,8
4.750046730041504,-3.1470181941986084,7.272870540618896,-0.0394306555390358,-0.0012217305,-0.026572637000000003,8
4.806931972503662,-3.1198463439941406,7.277656078338622,-0.043684221804142,-0.023823744,-0.015271631,8
4.843406677246094,-3.0806484222412114,7.302082061767577,-0.05156611651182175,-0.020463986,-0.022602014,8
4.878034114837647,-3.0573863983154297,7.393868446350098,-0.0694570243358612,-0.04153884,-0.021380283,8
4.929147720336914,-3.0433948040008545,7.5079407691955575,-0.1053859293460846,-0.17715092,-0.016798794,8
4.961270809173584,-3.0479695796966557,7.5626091957092285,-0.14744411408901215,-0.077579886,-0.0061086523,8
4.983664035797119,-3.0607280731201167,7.555910110473633,-0.14971935749053955,-0.09040806,0.002443461,8
4.995106220245361,-3.0848729610443115,7.559354305267334,-0.13000471889972687,-0.05925392700000001,-0.010079277,8
5.005321502685547,-3.115762948989868,7.550790786743164,-0.11295200884342195,-0.05100725,-0.0027488936,8
5.003383159637451,-3.151955366134644,7.523233890533447,-0.10295294225215912,-0.012217305,0.022602014,16
4.993372917175293,-3.184755563735962,7.446638107299805,-0.09650550037622453,0.0030543262,0.01282817,16
4.980841636657715,-3.22310471534729,7.383805751800537,-0.09124499559402466,-0.01863139,-0.01282817,16
4.98392915725708,-3.2620861530303955,7.397539615631103,-0.09342118352651596,-0.14935656,-0.050701816,16
5.019201278686523,-3.265918254852295,7.515432834625244,-0.12247523665428163,-0.4016439000000001,-0.0580322,16
5.099027633666992,-3.1865928173065186,7.634694576263428,-0.19968928396701813,-0.5186246,0.012217305,16
5.154920101165772,-3.0020899772644043,7.647666931152344,-0.3035293221473694,-0.29504790000000003,0.12370021,16
5.1076931953430185,-2.746456861495972,7.655755043029785,-0.3756741583347321,-0.03481932,0.13408493,16
5.0278892517089835,-2.4919350147247314,7.725350856781006,-0.4916113018989563,0.20433442,-0.024129177,16
5.186049461364746,-2.2177882194519043,7.7090206146240225,-0.6268234252929688,0.29565877,0.12492194,16
5.486924648284912,-2.0402426719665527,7.578844547271728,-0.7094843983650208,0.30482176,0.5897904,16
5.5171170234680185,-2.3363404273986816,7.450068950653076,-0.7468858361244202,0.5543602,0.5290093000000001,16
5.358760356903076,-2.660933017730713,7.422089099884032,-0.8237659931182861,0.99112886,0.41996986,16
5.269256114959717,-2.7848711013793945,7.45398473739624,-0.9670941829681396,1.0821478,0.40744713,16
5.373682975769043,-2.7447888851165767,7.427640914916992,-1.0950987339019775,1.1533136,0.71593404,16
5.444084167480469,-2.8058223724365234,7.310653209686278,-1.1535378694534302,1.2812898,0.79229224,16
5.2664794921875,-3.182197570800781,7.175417900085449,-1.1837087869644165,1.2764030000000002,0.5824600000000001,16
4.926016330718994,-3.69047474861145,7.00205659866333,-1.208819031715393,1.289842,0.4538729,16
4.560448169708252,-4.174314498901366,6.752810001373291,-1.237051010131836,1.3008375,0.30298916,16
4.235863208770752,-4.69342851638794,6.403707504272461,-1.2472989559173584,1.1630874,0.13408493,16
3.930189609527588,-5.205949306488037,6.048575401306152,-1.2285726070404053,1.01312,-0.19150625,16
3.638254404067993,-5.729815483093263,5.7413411140441895,-1.1762953996658323,0.99173975,-0.5180137,16
3.3957097530364986,-6.255288600921631,5.584331035614014,-1.0857881307601929,0.7965683000000001,-0.7452555999999999,16
3.138535499572754,-6.843019485473633,5.472514629364014,-0.9670261740684508,0.53786683,-0.93034774,16
2.8628935813903813,-7.299752712249756,5.4373459815979,-0.8414356112480164,0.42363504,-1.1099422,16
2.616063117980957,-7.513546943664551,5.384184837341309,-0.7214349508285522,0.45265114,-1.2098186000000002,16
2.447128772735596,-7.687132835388184,5.390524387359619,-0.5874647498130798,0.28955013,-1.2986995,16
2.273057222366333,-7.761868953704834,5.402731895446777,-0.46036496758461,0.13316862,-1.3768903,16
2.1287496089935303,-7.694994926452638,5.454445838928223,-0.32038378715515137,-0.04153884,-1.4401149,16
2.050652027130127,-7.421163558959961,5.578264236450195,-0.17916929721832275,-0.11056661,-1.5540411,16
2.1868271827697754,-7.051201343536378,5.772819519042969,-0.062071040272712714,-0.31581733,-1.7153096,16
2.398642539978028,-6.781231880187987,5.916242599487305,0.06572816520929338,-0.50976706,-1.8139644,16
2.66370177268982,-6.619643211364746,6.002104759216309,0.2156463861465454,-0.6609562,-1.8350391,16
3.108112573623657,-6.382260322570801,6.060033321380615,0.3615803122520447,-0.72082096,-1.8866574,16
3.513570547103882,-5.9187092781066895,6.198282241821289,0.4759786427021026,-0.83260936,-2.0027218,16
3.8502895832061768,-5.413469314575195,6.3132972717285165,0.553655207157135,-0.8155051,-2.1087067000000004,16
4.355800151824951,-4.9774746894836435,6.444068908691406,0.6015766263008118,-0.8338310999999999,-2.0231857,16
4.81001615524292,-4.727423667907715,6.4735493659973145,0.6206032037734985,-0.7669413,-1.9272798,16
5.2590603828430185,-4.629164695739746,6.507405281066895,0.6347796320915222,-0.63071835,-1.7537941000000004,16
5.602975368499756,-4.46149492263794,6.444051742553711,0.6473129391670227,-0.51007247,-1.743104,16
5.942409038543701,-4.209166526794434,6.323861598968506,0.691128671169281,-0.5158757,-1.6514741999999998,16
6.300576210021973,-3.9743773937225337,6.3029441833496085,0.7551160454750061,-0.47158796,-1.6358972,16
6.74478006362915,-3.81044340133667,6.203376293182372,0.8239081501960754,-0.5861251999999999,-1.6132951000000002,16
7.197789669036865,-3.6076974868774414,6.253743648529053,0.9261299371719359,-0.4550946,-1.3982705,16
7.4158406257629395,-3.3517305850982666,6.402158260345459,1.0336673259735107,-0.4550946,-1.3182472,16
7.521030902862549,-3.093505382537842,6.557299137115479,1.1220437288284302,-0.4896085,-1.3377948999999998,16
7.625483989715576,-2.697284698486328,6.715288639068604,1.2063751220703125,-0.5458081,-1.29198,16
7.745882034301758,-2.12286114692688,7.039283752441406,1.2979401350021362,-0.2941316,-0.77518797,16
7.950294971466064,-1.86204195022583,7.2959675788879395,1.356573462486267,-0.6423248,-1.1768318000000002,16
8.144659042358397,-1.403305172920227,7.335064888000487,1.3755658864974976,-0.44684792,-0.9966267,16
8.090319633483888,-0.8602986931800842,7.278937339782715,1.367442011833191,-0.43218717,-0.88300574,16
7.8373703956604,-0.44292864203453053,7.1893486976623535,1.3154566287994385,-0.5164866,-1.4810427,16
7.611629962921143,0.2109450399875641,7.128121376037598,1.1600570678710938,-0.66798115,-1.720502,16
7.604990005493164,0.927062451839447,7.174614906311035,0.929350197315216,-0.8958339,-1.6255124,16
7.767374515533447,1.5291931629180908,7.203000068664551,0.6754749417304993,-0.8854492,-1.4834863,16
7.938546180725098,1.976178765296936,7.110731601715088,0.4706490635871887,-0.5842925999999999,-1.4596626,16
8.014070510864258,2.3575780391693115,6.998413562774657,0.31881654262542725,-0.39645153,-1.4498886999999998,16
8.131204605102539,2.7689356803894043,7.053051948547362,0.153761625289917,-0.17592919,-1.0852021,16
8.478518486022951,2.9174022674560547,7.128713130950928,-0.02036441117525101,0.14385876,-0.65484756,16
8.58018684387207,2.8373591899871826,7.288319587707519,-0.14505739510059354,0.3912592,-0.8399397,16
8.109455108642576,2.8226118087768555,7.367725849151611,-0.14757682383060455,0.115453534,-1.4193454,16
7.462830543518066,2.9846675395965576,7.507626056671143,-0.10941656678915024,-0.43982297,-1.715615,16
6.936846733093263,3.1138253211975098,7.67507791519165,-0.10084523260593414,-1.3213016000000002,-1.815186,16
6.519176006317139,3.11041259765625,7.592784881591798,-0.14538414776325226,-1.6496416,-1.8435913,16
6.241024971008301,3.0631260871887207,7.156308174133301,-0.1854231208562851,-1.2281445,-1.8216002,16
6.057405471801758,3.1991288661956787,6.7042808532714835,-0.1751958578824997,-1.0861185,-1.6132951000000002,16
5.97694730758667,3.5151681900024414,6.5490479469299325,-0.11368055641651155,-0.8558222,-1.5204436,16
5.877992153167725,3.6735219955444336,6.432616710662843,-0.046708904206752784,-1.0393872,-1.6856827,16
5.706367492675781,3.6907784938812256,6.228127479553223,-0.022705361247062683,-1.1679744,-1.7531831999999998,16
5.493657112121582,3.712988376617432,5.936172962188722,-0.044023532420396805,-1.5546521,-1.6432275,16
5.2743988037109375,3.8378887176513667,5.566034317016602,-0.1096162125468254,-1.9511036,-1.5980235,16
5.088943004608153,4.142228603363037,5.0448808670043945,-0.1852419674396515,-2.2440135,-1.5137241,16
4.976706981658936,4.538251876831055,4.4294772148132315,-0.2626066207885742,-2.4397957000000003,-1.5204436,16
5.03338098526001,4.928221225738525,3.6656012535095215,-0.33588725328445435,-2.5344799,-1.5335772,16
5.187013149261475,5.228038787841797,2.8974001407623287,-0.39711374044418335,-2.489276,-1.4569136,16
5.297870635986328,5.513189315795898,2.2551820278167725,-0.4381462335586548,-2.3979516,-1.4306464,16
5.313285827636719,6.011336326599121,1.852391481399536,-0.4558480679988861,-2.2727242000000003,-1.3148874,16
5.242613315582275,6.6287293434143075,1.6720818281173706,-0.4449340999126434,-2.0482311,-1.171945,16
5.142029285430908,7.070627212524414,1.5607177019119265,-0.4185091257095337,-1.9123137,-1.1801916,16
5.074044704437256,7.175934791564941,1.4445499181747437,-0.3823723495006561,-1.706452,-1.2977833,16
5.0985374450683585,6.994441032409668,1.3205287456512451,-0.3560624718666077,-1.4605788,-1.3698653,16
5.281027793884277,6.800965309143066,1.1473251581192017,-0.3247860074043274,-1.0668761999999998,-1.010982,16
5.477207660675049,6.902393817901611,1.034692883491516,-0.2758890390396118,-0.65057147,-0.6059783000000001,16
5.570042610168457,7.208450794219972,1.0120928287506104,-0.21973849833011627,-0.43188173,-0.34177909999999995,16
5.556859493255615,7.504721641540527,1.1433267593383791,-0.1783149093389511,-0.5503895999999999,-0.44959682,16
5.5291361808776855,7.667268753051758,1.3590348958969116,-0.17911207675933838,-0.9428705,-0.60139686,16
5.587726593017578,7.65260124206543,1.4331091642379759,-0.21399541199207306,-1.0961976999999998,-0.70646566,16
5.8121604919433585,7.608811378479004,1.3291611671447754,-0.2560292184352875,-0.9306532,-0.6591236,16
6.12099027633667,7.5633721351623535,1.161880373954773,-0.26842305064201355,-0.72387534,-0.5152648,16
6.381553649902344,7.424370288848878,0.9027742743492126,-0.23209333419799805,-0.5516113,-0.28893927,16
6.559130668640138,7.151981830596924,0.6382386684417725,-0.1607988178730011,-0.1994475,-0.19792034,16
6.685116767883301,6.862910747528076,0.4449251592159271,-0.06666121631860733,0.13988814,-0.13225232,16
6.684741973876952,6.781201362609862,0.3828084468841553,0.0661735013127327,0.4147775,-0.064446285,16
6.529254913330077,6.9865684509277335,0.536328136920929,0.190143883228302,0.3894266,-0.007941248,16
6.234983921051025,7.4158220291137695,0.764466404914856,0.2506099343299866,0.11362094,-0.13041973,16
5.790709018707275,7.820712566375732,0.9390264749526978,0.2352349907159805,-0.28588495,-0.29352075,16
5.296835899353027,8.109200477600098,1.0502636432647705,0.15897493064403534,-0.75625116,-0.47678033,16
4.899584770202637,8.259317398071289,1.0825648307800293,0.0541045106947422,-1.0485502,-0.5925393,16
4.714138984680176,8.337854385375978,1.0341210365295408,-0.05932727456092835,-1.1270463,-0.52412236,16
4.733808994293213,8.367457389831543,0.9395586848258972,-0.16296210885047913,-1.1749994,-0.40866885,16
4.8956565856933585,8.269159317016603,0.7558245658874512,-0.2633352279663086,-0.94897914,-0.42577308,16
5.231313705444336,8.20130443572998,0.4539484679698944,-0.3292964696884155,-0.52656585,-0.3866777,16
5.664090633392334,8.109710693359375,0.0432625412940979,-0.3182669878005981,0.057421334,-0.41386122,16
5.980604648590088,7.994682788848878,-0.3917430639266968,-0.20878729224205014,0.7629706999999999,-0.34788775,16
6.04062032699585,8.010377883911133,-0.7137020826339722,-0.0006269878358580173,1.3713925,-0.084910266,16
5.839261054992676,8.198237419128418,-0.7967135906219482,0.23883752524852755,1.6215417,0.0290161,16
5.488508701324463,8.540407180786133,-0.7299359440803528,0.4212645590305328,1.5903877,0.011911872,16
5.065723896026611,8.892498016357422,-0.6267183423042297,0.5066315531730652,1.3884968,-0.057421334,16
4.58693790435791,9.152546882629396,-0.5051792860031128,0.4894497692584992,1.2559389,-0.089186326,16
4.171692371368408,9.393808364868164,-0.3672994077205658,0.414709210395813,1.0073168,-0.089491755,16
3.8239223957061768,9.559966087341307,-0.2188863605260849,0.3376304805278778,0.6719518,-0.19883664,16
3.5470621585845947,9.606185913085938,-0.04943113774061203,0.2524562180042267,0.047647487,-0.24740042,16
3.3543660640716557,9.60250186920166,0.13412414491176605,0.1456664502620697,-0.30543262,-0.18509217,16
3.2902824878692627,9.562209129333496,0.3105211853981018,0.028514731675386432,-0.39767328,-0.14874569,16
3.4116251468658447,9.48598575592041,0.4521993398666382,-0.08247526735067368,-0.33658674,-0.109650314,16
3.6379804611206055,9.357382774353027,0.5450692772865295,-0.17478883266448975,-0.2519819,-0.079107046,16
3.908643960952759,9.200053215026855,0.6379621624946594,-0.226995512843132,-0.19456059,-0.010079277,16
4.2064528465271005,9.092621803283693,0.7395758032798767,-0.23660705983638766,-0.10476339,0.017715093,16
4.410479545593262,8.978655815124512,0.8488660454750061,-0.2239910215139389,0.01985312,0.002443461,16
4.456447124481201,8.779557228088379,0.9742580056190492,-0.19638875126838684,0.07452556,-0.009468411,16
4.442708492279053,8.569882392883299,1.0663410425186155,-0.1667160987854004,0.14019357,-0.003970624,16
4.42810583114624,8.413850784301758,1.1323180198669434,-0.14034301042556765,0.08460484,-0.013744468,16
4.390012264251709,8.317841529846191,1.1971020698547363,-0.11186961829662324,-0.0036651916,0.007941248,16
4.336618900299071,8.302240371704103,1.2456461191177368,-0.07792458683252335,-0.048563786,-0.028710667,16
4.3218255043029785,8.356966972351074,1.246241807937622,-0.04445389658212662,0.01740966,-0.07696902,16
4.354236602783203,8.460062980651855,1.245360255241394,-0.01948169060051441,0.054061573,-0.10567969,16
4.420805931091309,8.547421455383299,1.2509868144989014,0.00036496753455139697,0.038179077,-0.10445796,16
4.477674007415772,8.58595085144043,1.2660460472106934,0.02911372482776642,-0.015271631,-0.09162979,16
4.488480091094972,8.563529968261719,1.2377004623413086,0.06940905004739761,0.038179077,-0.108123146,16
4.476907253265381,8.601475715637207,1.200933575630188,0.10447505861520767,0.09254608,-0.089186326,16
4.449799060821533,8.741460800170897,1.1943665742874146,0.13527624309062958,0.040927973,-0.09285152,16
4.414133548736572,8.863937377929688,1.2059645652770996,0.14192913472652435,-0.02443461,-0.10873401,16
4.385942459106444,8.91675090789795,1.205891489982605,0.12706924974918365,-0.07086037,-0.050396383,16
4.378363132476807,8.915053367614746,1.1535875797271729,0.10525105893611908,-0.05772676700000001,-0.0290161,16
4.39111852645874,8.89733600616455,1.0687576532363892,0.09386829286813736,-0.03604105,-0.02687807,16
4.4148359298706055,8.882259368896484,0.9845175743103028,0.09236404299736024,-0.004276057,-0.035430185,1
4.4456820487976065,8.870522499084473,0.9290472865104676,0.08875719457864761,0.0009162979,-0.009468411,1
4.465592861175537,8.863749504089355,0.8996209502220154,0.08018852025270462,0.008857545999999999,0.022296581,1
4.486335277557373,8.86467170715332,0.892184853553772,0.0661109909415245,0.008246681,0.07269296,1
4.4956088066101065,8.861002922058105,0.8720039129257202,0.05567002296447754,0.040317107000000005,0.09040806,1
4.493430614471436,8.843560218811035,0.8358377814292908,0.059240631759166724,0.03390302,0.06780604,1
4.482470512390137,8.83278751373291,0.7919723391532898,0.06991034746170044,0.0036651916,0.04337143,1
4.455071449279785,8.851005554199219,0.7592633366584778,0.07413186877965927,0.0143553335,0.025961773,1
4.42848539352417,8.858820915222168,0.7518877983093262,0.06665484607219696,0.0125227375,0.009162978,1
4.429343223571777,8.855447769165039,0.7568721771240234,0.049523644149303436,0.0070249503,0.015577064,1
4.428508281707764,8.852684020996094,0.7428109049797058,0.03476444631814957,0.016798794,0.010690141499999998,1
4.419917583465576,8.839078903198242,0.7092797160148621,0.029909303411841393,0.040317107000000005,0.006414085,1
4.4204630851745605,8.825247764587402,0.6759700775146484,0.03281300887465477,0.021991149,0.0012217305,1
4.419869899749756,8.824174880981445,0.6595453023910522,0.035387296229600906,-0.002443461,0.01282817,1
4.430898666381836,8.849045753479004,0.6608580350875854,0.0320218987762928,-0.016187929,0.00580322,1
4.433869361877441,8.874628067016602,0.6671107411384583,0.02421523816883564,0.010690141499999998,0.017104227,1
4.427643775939941,8.886518478393555,0.6715088486671448,0.013004769571125507,0.015882496,0.01985312,1
4.419842720031738,8.888398170471191,0.6736279726028442,0.007570945657789706,0.04550946,0.010690141499999998,1
4.414099216461182,8.884162902832031,0.6732411384582521,0.006689174100756645,0.061391957,0.022602014,1
4.410010814666748,8.874979019165039,0.6708282828330994,0.010196710005402563,0.03634648,0.028710667,1
4.407784938812256,8.863422393798828,0.6665218472480774,0.013074823655188084,0.032375857,0.032070424,1
4.406096935272217,8.860651016235352,0.666448175907135,0.01249287649989128,0.025961773,0.044898596,1
4.410540580749512,8.864611625671387,0.6594367027282715,0.010530035942792892,0.032070424,0.041233405,1
4.415843486785889,8.861763954162598,0.6573392152786255,0.010739894583821295,0.051618114000000014,0.042760565999999986,1
4.431751728057861,8.866792678833008,0.6645984649658203,0.011791802942752838,0.05009095,0.026267206,1
4.443013668060303,8.868294715881348,0.658144474029541,0.014475914649665356,0.074830994,0.024129177,1
4.456408500671387,8.861554145812988,0.6513466238975525,0.01258794032037258,0.09590584,0.018936822,1
4.461528301239014,8.86181926727295,0.6419755816459656,0.0130373053252697,0.09712757,0.024740042,1
4.462394237518311,8.861791610717773,0.6381743550300598,0.01333492062985897,0.07849618,0.02076942,1
4.445146083831787,8.859329223632812,0.6470045447349548,0.01339242048561573,0.07666359,0.021685716,1
4.409892082214356,8.852294921875,0.6686959266662598,0.012645692564547062,0.035124752999999995,0.031154128,1
4.391838550567627,8.845480918884277,0.6800957918167114,0.007904595695435999,0.015882496,0.03145956,1
4.396451473236084,8.845930099487305,0.6934117078781128,0.003525756997987628,0.0027488936,0.027794369,1
4.411924362182617,8.847604751586914,0.7160627841949463,-0.001922877156175673,-0.017104227,0.021991149,1
4.434532165527344,8.846898078918457,0.7450659275054932,-0.008791553787887095,-0.020463986,0.016493361,1
4.457939147949219,8.834060668945312,0.7511398792266846,-0.01165550108999014,0.0021380284,-0.004581489,1
4.48337459564209,8.823443412780762,0.7567195892333984,-0.012684611603617668,0.013133603,-0.02076942,1
4.490673542022705,8.820043563842773,0.7660346627235413,-0.009851131588220595,0.00061086525,-0.032986723,1
4.479171276092528,8.813949584960938,0.7802942991256714,-0.007835826836526394,-0.021685716,-0.045814894,1
4.471707344055176,8.815380096435547,0.7839586138725281,-0.010104691609740256,-0.05925392700000001,-0.052839845,1
4.471648693084717,8.824974060058594,0.7763229608535767,-0.013079950585961342,-0.05772676700000001,-0.03848451,1
4.462274074554443,8.831549644470215,0.7639804482460022,-0.01393924467265606,-0.050396383,-0.032375857,1
4.458326816558838,8.82653522491455,0.7621877193450928,-0.015442123636603355,-0.05681047,-0.014966198,1
4.466242790222168,8.82530689239502,0.7481695413589478,-0.023238513618707657,-0.030848695,0.007941248,1
4.483348846435547,8.837907791137695,0.7420355081558228,-0.03350237011909485,0.005497787,0.030848695,1
4.511376857757568,8.838296890258789,0.7378555536270142,-0.04078327491879463,0.008857545999999999,0.03359759,1
4.529001235961914,8.816166877746582,0.7460494637489319,-0.04519782960414887,0.015577064,0.051618114000000014,1
4.53590726852417,8.792372703552246,0.7529904246330261,-0.045969299972057336,0.024129177,0.058337633,1
4.533132076263428,8.781325340270996,0.745132327079773,-0.04217218607664108,0.04886922,0.05131268,1
4.514942169189453,8.773242950439451,0.7547426819801331,-0.04032837972044945,0.047647487,0.047036625,1
4.492198467254639,8.782155990600586,0.7762671113014221,-0.038250632584095,0.04062254,0.043676864,1
4.4734625816345215,8.78643798828125,0.7891062498092651,-0.03941097855567932,0.023518313,0.048563786,1
4.456160545349121,8.795304298400879,0.795691192150116,-0.0382525622844696,0.0061086523,0.042760565999999986,1
4.444277286529541,8.809427261352539,0.7952345609664917,-0.03430253639817238,0.007941248,0.03970624,1
4.4420342445373535,8.827816009521484,0.7987323999404907,-0.03302934765815735,0.014966198,0.040927973,1
4.439781665802002,8.836060523986816,0.8074344396591187,-0.033798567950725555,0.0061086523,0.0290161,1
4.433097839355469,8.839533805847168,0.8156505823135376,-0.03956728428602218,-0.011911872,0.022296581,1
4.422693729400635,8.844747543334961,0.8115869164466858,-0.04466152191162109,-0.022602014,-0.00061086525,1
4.406013011932373,8.850339889526367,0.8095718622207642,-0.04810917004942894,-0.0290161,-0.0021380284,1
4.3948583602905265,8.85793399810791,0.8079964518547058,-0.051224742084741585,-0.064446285,-0.012217305,1
4.383508205413818,8.857830047607422,0.8138899803161621,-0.05751040205359459,-0.08002335,-0.018936822,1
4.380176067352295,8.85184097290039,0.8312620520591736,-0.0659131109714508,-0.1001819,-0.026267206,1
4.3853845596313485,8.837342262268066,0.8601986765861511,-0.07325103878974915,-0.10140363,-0.026267206,1
4.4029316902160645,8.832650184631348,0.8681547045707703,-0.07725074887275696,-0.093767814,-0.022602014,1
4.431675434112549,8.818609237670898,0.8609453439712524,-0.08036137372255325,-0.08002335,-0.016493361,1
4.463457584381104,8.800615310668945,0.8551045060157776,-0.0808933824300766,-0.07666359,-0.006414085,1
4.4843926429748535,8.794869422912598,0.8555959463119507,-0.07651090621948242,-0.062002823,-0.009162978,1
4.487987518310547,8.788113594055176,0.8592427968978882,-0.07190892845392227,-0.036957346,-0.015271631,1
4.483641147613525,8.787571907043457,0.871791422367096,-0.07018496841192245,-0.030543262,-0.013439035,1
4.485022068023682,8.783492088317871,0.8811187148094177,-0.06731604784727098,-0.030848695,-0.005497787,1
4.486902236938477,8.772153854370117,0.8867969512939453,-0.06385410577058792,-0.027488936,0.00580322,1
4.493044376373291,8.757368087768555,0.9029220938682556,-0.058933649212121964,-0.03573562,0.013133603,1
4.506131649017334,8.748071670532228,0.9189733266830444,-0.05061591044068337,-0.0125227375,0.002443461,1
4.52343225479126,8.746175765991211,0.928324818611145,-0.040344152599573135,0.004276057,0.004581489,1
4.531683921813965,8.747306823730469,0.927056849002838,-0.029821835458278656,0.0125227375,-0.0061086523,1
4.532058238983153,8.746928215026855,0.9184025526046752,-0.017490128055214882,0.025961773,-0.016493361,1
4.526258945465088,8.752799987792969,0.9052596688270568,-0.009159491397440435,0.03390302,-0.01985312,1
4.513103008270264,8.762570381164549,0.9032894372940063,-0.0017789913108572364,0.016493361,-0.022296581,1
4.494126319885254,8.772603988647461,0.9082695245742798,0.0031041128095239397,0.022602014,-0.02443461,1
4.4869256019592285,8.787333488464355,0.9108477234840392,0.004178614355623722,0.019242255,-0.015577064,1
4.483077049255371,8.79678726196289,0.90492844581604,0.005325110163539648,0.025045475,-0.0033597588,1
4.468176364898682,8.795539855957031,0.8927701711654663,0.006155974697321653,0.013744468,0.006414085,1
4.459877967834473,8.797162055969238,0.8812109231948853,0.005536929238587618,0.017104227,0.014049901000000002,1
4.455864429473877,8.797433853149414,0.8684470057487488,0.004978124983608723,0.00580322,0.022907447,1
4.462209224700928,8.802647590637207,0.861485481262207,0.0029247778002172713,0.010690141499999998,0.030848695,1
4.477025032043457,8.796601295471191,0.8619105219841003,1.6971931472653523e-05,0.033292156,0.03145956,1
4.491199493408203,8.790290832519531,0.8584220409393309,-0.0034094331786036487,0.044593163,0.035124752999999995,1
4.500220775604248,8.786711692810059,0.848097026348114,-0.004116979893296957,0.03634648,0.02687807,1
4.500162124633789,8.786677360534668,0.8476977348327637,-0.0006602652720175682,0.04886922,0.02443461,1
4.502899169921875,8.782050132751465,0.8468732833862305,0.002819934394210577,0.049785517,0.021685716,1
4.4953951835632315,8.777472496032715,0.8508902788162231,0.006382119841873646,0.0290161,0.01863139,1
4.484367847442627,8.787190437316895,0.8616700172424316,0.007084851153194904,0.034208454,0.013439035,1
4.467590808868408,8.796208381652832,0.8605012893676758,0.005061936564743519,0.029932396,0.013133603,1
4.452769756317139,8.8003568649292,0.8600164651870728,0.0055161798372864715,0.0070249503,0.010079277,1
4.445558547973633,8.7988920211792,0.8705153465270996,0.009684106335043907,-0.013133603,0.005192355,1
4.439572811126709,8.79808235168457,0.8718696236610413,0.013247753493487837,-0.0030543262,-0.00061086525,1
4.4379539489746085,8.788481712341309,0.8703997731208801,0.011893549002707005,-0.0018325958,0.003970624,1
4.439458847045898,8.781540870666504,0.8698619604110718,0.0076997061260044575,-0.010079277,-0.00061086525,1
4.43626594543457,8.782439231872559,0.8660705685615541,0.0028828962240368128,-0.009162978,0.004276057,1
4.444997310638428,8.789311408996582,0.8612560033798218,-0.00016665789007674905,-0.010690141499999998,0.004886922,1
4.45952033996582,8.793484687805176,0.861802339553833,-0.00097987602930516,-0.009162978,0.019547688,1
4.464058876037598,8.78555965423584,0.8708170652389526,-0.0014032927574589849,-0.01160644,0.027183503,1
4.463463306427002,8.777486801147461,0.8667453527450562,-0.0019389428198337555,0.018020526,0.01863139,1
4.467038154602051,8.778872489929201,0.8577845692634583,-0.003846256295219064,0.031154128,0.008552114,1
4.4762349128723145,8.781306266784668,0.8394345045089722,-0.004890743643045425,0.03970624,0.0076358155,1
4.486926555633545,8.779797554016112,0.8286809325218201,-0.0013233080971986055,0.03848451,0.01282817,1
4.496535301208496,8.772038459777832,0.8276104927062988,0.002463348209857941,0.005497787,0.016493361,1
4.501914024353027,8.764805793762207,0.8368948698043823,0.006618021987378597,0.01863139,0.014966198,1
4.495738506317139,8.765239715576174,0.851881206035614,0.00978204980492592,0.04337143,0.020158553,1
4.479873180389403,8.774158477783201,0.8614184856414795,0.01363895833492279,0.038789943,0.010995574,1
4.4584078788757315,8.792442321777344,0.8659179806709291,0.017359914258122444,0.047036625,0.013744468,1
4.436182498931885,8.809523582458496,0.8657461404800415,0.0201741773635149,0.03970624,0.018020526,1
4.416635036468506,8.81994342803955,0.860310971736908,0.023059194907546043,0.036651913,0.019547688,1
4.40658712387085,8.837112426757812,0.8429276347160339,0.022371873259544373,0.03359759,0.022296581,1
4.39845609664917,8.847861289978027,0.8195444345474243,0.019089294597506527,0.01740966,0.018020526,1
4.385849952697754,8.852091789245605,0.8106673955917358,0.012663744390010834,0.0030543262,0.004581489,1
4.3739261627197275,8.853134155273438,0.8061324954032898,0.007272685877978802,-0.0125227375,0.00030543262000000003,1
4.367918014526366,8.856583595275879,0.8047346472740173,0.0042528389021754265,-0.0125227375,0.0036651916,1
4.373642444610597,8.869329452514648,0.7963770627975464,0.0007093795575201511,-0.014660766,0.011911872,1
4.376861095428467,8.882088661193848,0.7862821817398071,-0.0034185675904154773,-0.014049901000000002,0.02321288,1
4.381301403045653,8.882678031921387,0.7746407389640808,-0.008964893408119678,-0.02107485,0.019547688,1
