acc_x,acc_y,acc_z,gyro_x,gyro_y,gyro_z,label
0.0,0.0,0.0,0.0,0.7507534,0.03176499,8
0.03791755437850952,-0.051226966083049774,0.2765522599220276,-0.034326788038015366,0.74067414,0.030848695,8
0.13125839829444885,-0.17326761782169342,0.9327307343482972,-0.11745916306972505,0.72234815,0.03634648,8
0.26491132378578186,-0.3419952392578125,1.8358502388000488,-0.2349393516778946,0.73884153,0.054367006,8
0.420320987701416,-0.5307387113571167,2.8408737182617188,-0.3703330159187317,0.63804877,0.07849618,8
0.5814393162727356,-0.7180694937705994,3.8322834968566895,-0.4714475870132446,0.37995818,0.06291912,8
0.7373655438423157,-0.8905454874038696,4.738353729248047,-0.4632674157619476,-0.058337633,-0.01863139,8
0.8820337653160095,-1.041791915893555,5.525865077972412,-0.3756402432918549,-0.048258353,-0.018020526,8
1.01316237449646,-1.170242190361023,6.187355041503906,-0.30599188804626465,-0.06536258,-0.04337143,8
1.1307580471038818,-1.277043342590332,6.729762077331543,-0.2516325116157532,-0.018325957,-0.056199603,8
1.235736608505249,-1.3646016120910645,7.1668434143066415,-0.2099755704402924,0.018936822,-0.040317107000000005,8
1.3245666027069092,-1.4381078481674194,7.521406173706055,-0.17731797695159912,0.004886922,-0.007941248,8
1.39665687084198,-1.5013052225112915,7.811577320098878,-0.14909595251083374,-0.05222898,0.013133603,8
1.4549498558044434,-1.555958867073059,8.048643112182617,-0.12470358610153197,-0.09315695,0.015882496,8
1.5019757747650146,-1.6036119461059568,8.242326736450195,-0.10342478007078172,-0.10567969,0.01740966,8
1.539854884147644,-1.64556086063385,8.400774955749513,-0.0859551802277565,-0.06994407,0.007330383,8
1.5703363418579102,-1.682891845703125,8.530725479125978,-0.07021944224834442,0.010079277,0.014966198,8
1.5948493480682373,-1.7164905071258545,8.637679100036621,-0.05372235178947449,0.025350908,0.010690141499999998,8
1.614554524421692,-1.747077703475952,8.726104736328125,-0.03851071372628212,0.018020526,0.008552114,8
1.6303908824920654,-1.775237798690796,8.799615859985352,-0.027476511895656586,0.013439035,0.024129177,8
1.643115758895874,-1.8014403581619265,8.861130714416504,-0.022315820679068562,0.035430185,0.020463986,8
1.6498373746871948,-1.824897527694702,8.913114547729492,-0.020462974905967712,0.08857546,0.02107485,8
1.6495789289474487,-1.8454400300979612,8.95751667022705,-0.018338147550821304,0.06627888,0.0290161,8
1.6437712907791138,-1.863622546195984,8.995800971984863,-0.014660139568150043,0.04795292,0.018020526,8
1.6334573030471802,-1.8799234628677368,9.02919101715088,-0.011333455331623554,0.025045475,0.020463986,8
1.6195350885391235,-1.8947091102600095,9.05864429473877,-0.008992318995296955,0.021991149,0.021380283,8
1.6026781797409058,-1.9082882404327397,9.08495044708252,-0.007674194872379303,0.026267206,0.015577064,8
1.5835504531860352,-1.9208722114562988,9.108689308166504,-0.0073446594178676605,0.06078109,0.026267206,8
1.5625476837158203,-1.9326720237731931,9.130388259887695,-0.007877266965806484,0.030848695,0.014966198,8
1.540058732032776,-1.9438358545303345,9.15044116973877,-0.008316410705447197,-0.0076358155,0.014660766,8
1.516356348991394,-1.9544947147369385,9.169180870056152,-0.006733107380568981,-0.021991149,0.006414085,8
1.489230394363403,-1.9584276676177976,9.188420295715332,-0.004765407182276249,-0.030543262,0.008552114,8
1.457654595375061,-1.9525537490844729,9.209145545959473,-0.0028657340444624424,-0.010079277,0.009468411,8
1.4225221872329712,-1.9388182163238523,9.231053352355957,-0.0033800476230680947,0.020463986,0.009468411,8
1.3845198154449463,-1.9187560081481931,9.253917694091797,-0.0037401311565190562,0.005497787,0.008552114,8
1.3441925048828125,-1.8935933113098145,9.27756118774414,-0.005541092716157436,-0.01038471,0.014966198,16
1.302035212516785,-1.8643684387207031,9.30181121826172,-0.009305264800786972,-0.025045475,0.034513887,16
1.2583655118942259,-1.8318413496017456,9.326570510864258,-0.011618516407907007,-0.02076942,0.05222898,16
1.2135138511657717,-1.79669189453125,9.35172176361084,-0.015114429406821728,-0.044593163,0.073303826,16
1.167713642120361,-1.759436845779419,9.37718677520752,-0.026042643934488297,-0.12003502,0.08368854,16
1.1211345195770264,-1.7204749584197998,9.402913093566896,-0.04390458762645722,-0.19700404,0.1386664,16
1.0967025756835938,-1.697845220565796,9.445658683776855,-0.05894785374403,-0.24037547,0.18661933,16
1.1073064804077148,-1.7017216682434082,9.514976501464844,-0.07163499295711517,-0.26939157,0.2489276,16
1.145361065864563,-1.7263844013214111,9.604840278625488,-0.08590738475322722,-0.3998113,0.28191432,16
1.2057344913482666,-1.7679396867752075,9.711515426635742,-0.0997634008526802,-0.49205196,0.22479841,16
1.28422212600708,-1.8232005834579468,9.831912994384766,-0.13241836428642273,-0.39584067,0.13713925,16
1.3769948482513428,-1.8892767429351809,9.96302318572998,-0.186812236905098,-0.31520647,0.094989546,16
1.4813621044158936,-1.964127898216248,10.10287857055664,-0.2472376078367233,-0.17440203,0.15271631,16
1.5949925184249878,-2.0459914207458496,10.249701499938963,-0.3412463366985321,0.19181168,0.18295415,16
1.7161601781845093,-2.1335577964782715,10.402231216430664,-0.4410178959369659,-0.025350908,0.20463985,16
1.843369007110596,-2.2256951332092285,10.559329986572266,-0.5231624841690063,-0.55833083,0.18753563,16
1.9210492372512815,-2.391407966613769,10.526653289794922,-0.6021897196769714,-0.763887,0.07238753,16
1.973278880119324,-2.5556576251983643,10.217740058898926,-0.7068439722061157,-0.21746802,0.02443461,16
2.0142054557800293,-2.6257362365722656,9.948419570922852,-0.8161482214927673,-0.010079277,-0.046120327,16
2.0928308963775635,-2.6720786094665527,9.769139289855957,-0.9093736410140992,0.27152961,-0.1600467,16
2.3321692943573,-2.877428770065308,9.568907737731934,-0.9871582388877868,0.81000733,-0.17104226,16
2.473337173461914,-3.2015624046325684,9.39564037322998,-1.0376641750335691,1.4031575,-0.23487769,16
2.473024606704712,-3.446520566940308,9.292299270629883,-1.0827652215957642,1.5925257,-0.44532076,16
2.324594259262085,-3.4835352897644043,9.26405143737793,-1.140394687652588,1.4761559,-0.59803706,16
2.0075268745422363,-3.4292702674865723,9.174726486206056,-1.1948868036270142,1.6019941999999998,-0.77457714,16
1.5752415657043457,-3.5127854347229004,9.117308616638184,-1.236505389213562,1.6539177,-1.0622946000000002,16
1.2125262022018433,-3.7060370445251465,9.13550090789795,-1.2919700145721436,1.344209,-1.3139712,16
0.9835567474365234,-3.9180150032043457,9.100005149841307,-1.3392846584320068,1.0464121,-1.4737124,16
0.908771276473999,-4.057384967803955,8.914244651794434,-1.3756535053253174,1.0461067,-1.5335772,16
0.9434626698493958,-4.1405625343322745,8.717628479003906,-1.4023884534835815,1.0732902,-1.5131133,16
1.0315607786178589,-4.229787349700929,8.519426345825195,-1.4163312911987305,0.98929626,-1.3878858,16
1.1054250001907349,-4.43174409866333,8.199792861938478,-1.4259812831878662,1.2406673,-1.3301591,16
1.1770890951156616,-4.6510958671569815,7.818864822387695,-1.4107098579406738,1.4193454,-1.2434162,16
1.2989604473114014,-4.77617883682251,7.420310020446777,-1.3770127296447754,1.3106114,-1.0778716999999998,16
1.4415642023086548,-5.025914669036865,7.021677494049072,-1.3206263780593872,1.2730431999999998,-0.98349303,16
1.6015679836273191,-5.337533950805664,6.5988593101501465,-1.2416033744812012,1.2486086,-0.8381071,16
1.7795641422271729,-5.7038679122924805,6.027101993560791,-1.1173914670944214,1.3087788,-0.6762278,16
1.907123327255249,-6.0520687103271475,5.435286998748778,-0.9444525241851808,1.3518448,-0.44501534,16
1.918149828910828,-6.394131660461426,4.992600440979004,-0.741058349609375,1.1236867,-0.22785273,16
1.8490490913391116,-6.735885143280028,4.708474636077881,-0.5125084519386292,0.6808093000000001,-0.08155051,16
1.8286761045455933,-6.989663124084473,4.332202911376953,-0.27940529584884644,0.67011917,0.010079277,16
1.9137163162231443,-7.201632022857666,4.026416301727295,-0.0454607680439949,0.81000733,0.15118915,16
2.033203363418579,-7.467735290527344,3.9076349735260014,0.20758305490016934,0.55680364,0.45875978,16
1.97421395778656,-7.752337455749513,3.7917537689208975,0.4949855506420136,0.41325033,0.59712076,16
1.8225306272506716,-7.838282585144043,3.81504225730896,0.7977669835090637,0.44165558,0.6960809,16
1.752511739730835,-7.735926628112793,4.003123283386231,1.0875418186187744,0.57696223,0.68203104,16
1.851695418357849,-7.499203681945801,4.191412925720215,1.3598530292510986,0.6383542,0.77182823,16
1.8711581230163572,-7.227071762084961,4.365232467651366,1.669545292854309,0.23396139,1.0354166,16
1.4870058298110962,-6.894031524658202,4.521915912628174,1.9998600482940676,0.06750060599999999,0.95630956,16
0.7872927188873291,-6.253518581390381,4.7760281562805185,2.2409534454345703,0.08643743400000001,0.7257079000000001,16
0.2026077508926392,-5.090394973754883,5.137739181518555,2.3429958820343018,0.3903429,0.65057147,16
-0.2383663654327393,-4.1801180839538565,6.050605773925781,2.4619240760803223,0.50335294,0.54061574,16
-0.9701222777366638,-3.6429712772369385,7.437637805938722,2.5928189754486084,-1.1517864,0.14049901,16
-1.7977868318557741,-3.095947742462158,7.9928340911865225,2.539259433746338,-1.3045027,-0.46303585,16
-2.3905487060546875,-2.346768856048584,8.088752746582031,2.4095346927642822,0.15790866,-0.8188649,16
-2.223710298538208,-1.5526989698410034,9.016071319580078,2.2905864715576167,0.071776666,-0.8356636999999999,16
-1.5768030881881714,-1.0202559232711792,10.218523025512695,2.17803955078125,-0.8219192,-0.34788775,16
-1.331906795501709,-0.8047228455543518,10.652669906616213,2.0578844547271733,-0.6560693,-0.25992316,16
-1.27092182636261,-0.5187408924102783,10.582587242126463,1.9022083282470703,-0.46822822,-0.44012842,16
-1.0777637958526611,-0.15795643627643585,10.617136001586914,1.76020348072052,-0.36896262,-0.49480084,16
-0.7431368231773376,0.13801689445972445,10.920631408691406,1.6391099691390991,-0.6365215999999999,-0.53878313,16
-0.5178490281105042,0.3288155496120453,10.839922904968262,1.5781067609786987,-1.0659598,-0.5861251999999999,16
-0.6307488083839417,0.4204503893852234,10.088850021362305,1.5757534503936768,-0.31948254,-0.73731434,16
-0.7799850702285767,0.6888038516044617,10.145191192626953,1.570416808128357,-0.2855795,-1.1081096,16
-0.7164844274520874,1.1964452266693115,11.133200645446776,1.4338642358779907,0.34269542,-1.402852,16
-0.5453889369964601,1.5414071083068848,11.948044776916506,1.1297509670257568,-1.2479976000000002,-1.6636915,16
-0.6807626485824585,1.4810241460800169,10.874884605407717,0.9769924879074096,-1.0149527,-1.5457945,16
-0.7587417364120483,1.2013121843338013,9.718295097351074,0.9474445581436156,1.0748174,-1.1542298999999998,16
-0.3644852936267853,1.3268003463745115,10.496319770812988,0.9695066213607788,0.09560041,-1.0048733,16
0.4196805655956268,1.8981660604476929,11.116923332214355,0.9931004643440248,-0.05222898,-0.50793445,16
0.8377906680107117,1.8852416276931765,10.580963134765623,1.1028369665145874,1.6658295,-0.49113566,16
0.5689654350280762,1.5996739864349363,10.336322784423828,1.2828558683395386,2.10046,-0.7623598,16
-0.04236523061990738,1.7911617755889893,10.665200233459473,1.4457379579544067,0.54336464,-0.40378192,16
-0.7106659412384033,2.2861814498901367,10.544464111328123,1.611284852027893,0.29443705,-0.1600467,16
-1.4267045259475708,2.9298589229583736,9.884112358093262,1.7460216283798218,0.48808134,-0.15882497,16
-2.0871548652648926,3.5654611587524414,9.430234909057617,1.8350151777267456,0.01282817,-0.48258355,16
-2.4948513507843018,4.094438076019287,9.22001838684082,1.886120080947876,-0.49846604,-0.7076874,16
-2.563620090484619,4.354197978973389,8.735225677490233,1.9321564435958865,-0.2415972,-0.5983425,16
-2.4278464317321777,4.270455837249757,8.190896034240723,2.008452892303467,-0.2125811,-0.44226643,16
-2.2827308177948,3.9424250125885014,7.773205280303955,2.095868825912476,-0.3726278,-0.4804455,16
-2.324412107467652,3.836751699447632,7.572643756866455,2.110585927963257,-0.115453534,-0.5439755000000001,16
-2.322002410888672,4.0862717628478995,7.839577674865723,2.0899105072021484,0.19486602,-0.22571471,16
-2.0548772811889653,4.4401283264160165,8.233030319213867,2.1278831958770748,-1.2586879,0.12736541,16
-1.7746237516403198,4.735620021820068,8.174408912658691,2.120358228683472,-1.7809776000000002,0.089491755,16
-1.851705551147461,5.010268211364746,7.6980791091918945,2.05056381225586,-1.7040086,-0.21624629,16
-2.2138476371765137,5.449097633361816,7.197612762451173,1.9645857810974119,-1.7821994,-0.39064834,16
-2.450692176818848,6.001166820526122,6.720425128936768,1.8809568881988523,-2.1682662999999995,-0.2510656,16
-2.393064022064209,6.3981122970581055,6.276040554046631,1.8210505247116089,-2.4911084,-0.05681047,16
-2.0555877685546875,6.585832595825195,5.875316619873048,1.7777985334396362,-2.7809641,0.008857545999999999,16
-1.5331944227218628,6.600666999816895,5.343636989593506,1.726122260093689,-3.143818,-0.15393804,16
-1.0734078884124756,6.557362079620361,4.682950973510742,1.6511974334716797,-3.0787609,-0.51923543,16
-0.8153859376907349,6.573652267456055,3.9291105270385738,1.5969885587692259,-2.7113254,-1.0296134,16
-0.7480757236480713,6.824138164520264,3.275381326675415,1.6000418663024902,-2.3435845,-1.3518448,16
-0.8661581873893738,7.420327663421631,2.7583909034729004,1.61592698097229,-1.9730947,-1.4379768,16
-0.9488571882247924,8.061120986938478,2.3968524932861333,1.6300897598266602,-1.7238616999999998,-1.3933836000000002,16
-0.8670745491981506,8.563637733459473,2.2596771717071533,1.6702333688735962,-2.2284365000000004,-1.153619,16
-0.6477586627006531,8.848320960998535,2.262357473373413,1.7097586393356323,-3.1801646,-0.6597345,16
-0.3635271489620209,8.897342681884766,2.287799596786499,1.7524260282516482,-3.685961,-0.1328632,16
-0.1317029446363449,8.796464920043945,2.208695888519287,1.7975226640701294,-3.9629884,0.17928895,16
0.030336759984493256,8.600981712341309,1.9605144262313845,1.8185356855392456,-4.032627,0.22266038,16
0.16713212430477142,8.480013847351074,1.649273157119751,1.777300477027893,-4.1685443,-0.37598756,16
0.3856931924819946,8.715702056884767,1.1261162757873535,1.684855341911316,-2.8368583,-2.2531765,16
0.8035686016082764,9.711613655090332,0.4133683741092682,1.682905912399292,-1.2932017,-2.7769935,16
1.2763867378234863,10.85500717163086,0.031061541289091114,1.74161696434021,-1.0888673,-0.98349303,16
1.5207109451293943,11.150298118591307,0.3641866147518158,1.7122113704681396,-2.600148,0.19425514,16
1.5509412288665771,10.809030532836914,0.7451965808868408,1.5329715013504028,-3.3551774,0.4392121,16
1.4004274606704712,10.491793632507324,0.7653810977935791,1.279973387718201,-3.1456506,0.4868596,16
1.1402337551116943,10.366894721984863,0.528658390045166,1.0224336385726929,-2.7522533,0.4111123,16
0.8688783645629883,10.36894702911377,0.2615325152873993,0.7930746078491211,-2.4083362,0.3005457,16
0.6620258688926697,10.465411186218262,0.006148230750113726,0.610257625579834,-2.0091357,0.204029,16
0.5475602149963379,10.407831192016602,-0.15305064618587494,0.5052347183227539,-1.9248364,0.12339478,16
0.4939975738525391,10.161516189575195,-0.23004676401615146,0.4827942848205566,-2.062892,0.17470746,16
0.4790757894515991,9.770559310913086,-0.2666544914245605,0.500504195690155,-2.179567,0.2134974,16
0.464553713798523,9.34224796295166,-0.3252260088920593,0.5226138830184937,-2.0839667,0.19242255,16
0.4252281486988068,9.012218475341797,-0.40428519248962397,0.5565087199211121,-1.7476854,-0.021991149,16
0.3407566547393799,9.019351959228516,-0.5022051334381104,0.6056481599807739,-1.4236214,-0.267559,16
0.24733828008174896,9.351356506347656,-0.660883367061615,0.6948811411857605,-0.5748241999999999,-0.45112398,16
0.21800222992897034,9.722162246704102,-0.7701697349548341,0.8465279936790466,0.11728613,-0.78984874,16
0.36089563369750977,9.8447904586792,-0.6940348148345947,0.9927201867103576,0.66981375,-1.1023063999999998,16
0.6077923178672789,9.834522247314453,-0.5062347650527954,1.13306725025177,1.0534371,-0.9120218,16
0.9281626343727112,9.751665115356444,-0.04612309485673904,1.2610111236572266,0.2275473,-0.56169057,16
1.2436308860778809,9.714917182922363,0.5580082535743713,1.3467916250228882,-0.7144069000000001,-0.22082779,16
1.523233413696289,9.801908493041992,1.0108779668807983,1.2381619215011597,-0.73426,0.22968534,16
1.74437153339386,10.347569465637207,1.615414261817932,0.8610516190528871,-2.1679606,1.1972959,16
1.6483427286148071,11.25048828125,2.0929732322692867,0.36459729075431824,-4.569883,2.157576,16
1.3154181241989136,12.209654808044435,1.872826337814331,-0.17509736120700836,-4.5475864,2.3096814,16
0.9108454585075378,13.161378860473633,0.8947562575340271,-0.6283183693885803,-2.6438248,1.6151277,16
0.5546247959136963,13.697616577148438,0.01650005578994751,-0.9713988304138184,-0.5439755000000001,0.59589905,16
0.441518634557724,13.688433647155762,-0.3072768151760101,-1.3283798694610596,0.25686884,-0.23762658,16
0.42409414052963257,13.350546836853027,-0.6489517688751221,-1.7505404949188232,1.0888673,-0.04886922,16
0.13350962102413175,12.935564041137695,-1.0066022872924805,-2.0780763626098637,0.419359,0.44868052,16
-0.32718098163604736,12.448930740356445,-1.5189939737319946,-2.2342028617858887,0.093767814,0.7733554,16
-0.8787399530410767,11.814516067504885,-2.159616708755493,-2.2032217979431152,0.9660834,0.7657196,16
-1.358769774436951,10.906065940856934,-2.5487041473388667,-2.0542371273040767,1.5900823,0.5525276,16
-1.6917433738708496,10.000849723815918,-2.707781791687012,-1.874758005142212,1.9101756,0.33536503,16
-1.8730508089065552,9.282291412353516,-2.632710695266724,-1.659209966659546,1.5885551000000002,0.08735373,16
-1.9051660299301147,8.831868171691895,-2.361400604248047,-1.377005934715271,0.7257079000000001,-0.08277224,16
-1.7954124212265017,8.610076904296875,-1.9807082414627075,-1.0558028221130369,-0.18234327,-0.10323623,16
-1.4631564617156982,8.577510833740233,-1.5821233987808228,-0.7213552594184875,-0.61819565,-0.16615535,16
-0.8244349956512451,8.63715934753418,-1.2789205312728882,-0.380587100982666,-0.1600467,-0.06780604,16
-0.2987344563007355,8.793401718139647,-1.1120694875717163,-0.08266434073448181,0.5375614000000001,0.36682457,16
0.0006506062345579268,8.950836181640625,-1.07808518409729,0.18943415582180026,1.7287487,0.41416663,16
0.07496841996908188,9.024560928344727,-0.9059470891952516,0.4419081211090088,2.1618521,0.22510384,16
0.06603199243545532,9.091934204101562,-0.5088987946510315,0.6552864909172058,2.035403,0.12644911,16
0.05987183004617691,9.18387222290039,0.03915438055992127,0.8352497816085815,1.2730431999999998,0.34300083,16
-0.009543874301016329,9.252426147460938,0.6671221852302551,0.9921740889549256,0.25870144,0.4804455,16
-0.32623910903930664,9.387106895446776,1.174688696861267,1.1128849983215332,0.07299839999999999,0.453262,16
-0.7311145663261414,9.654221534729004,1.6602051258087158,1.1855159997940063,0.5824600000000001,0.30726522,16
-0.869357705116272,9.8995943069458,2.0281014442443848,1.1094900369644165,0.112399206,-0.34391713,16
-0.603718638420105,10.036543846130373,1.858499526977539,0.8324790000915527,-0.39767328,-0.6426301999999999,16
-0.10836224257946014,10.256662368774414,1.27515709400177,0.5658187866210938,-0.48502702,-0.014660766,16
0.2612776756286621,10.427443504333496,0.4780753552913666,0.4543331563472748,0.04734206,0.3817908,16
0.4415467977523804,10.361104965209961,-0.12403225153684615,0.4354027211666107,0.37201694,0.116675265,16
0.5452442169189453,10.111658096313477,-0.4512310326099396,0.4951783716678619,0.25534168,-0.14752395,16
0.6749781966209412,9.78860855102539,-0.6846071481704712,0.6650003790855408,0.23793201,-0.5326744999999999,16
0.8984020352363586,9.5720853805542,-0.8399600982666016,0.8379930853843689,0.60048056,-0.627664,16
1.1710442304611206,9.48252773284912,-0.8238795399665833,0.9276092052459716,0.5119051,-0.4718934,16
1.454560160636902,9.511828422546387,-0.7025954127311707,0.9664521217346193,0.16829337,-0.34788775,16
1.7267364263534546,9.671080589294434,-0.6418833136558533,0.9651054739952089,0.09560041,-0.20250183,16
1.9056646823883057,9.898396492004396,-0.5727576017379761,0.9363493323326112,-0.13744467,0.17104226,16
1.9939830303192136,10.094950675964355,-0.6045816540718079,0.8392831087112427,0.21533,0.49418998,16
1.9910337924957275,10.2332181930542,-0.7216107249259949,0.6822550892829895,0.49632803,0.73761976,16
1.7559504508972168,10.329235076904297,-0.7843118906021118,0.5657274723052979,0.36743546,0.93554014,16
1.431947112083435,10.29113483428955,-0.8272467851638794,0.5117131471633911,0.2125811,0.7147123000000001,16
1.173763632774353,10.190314292907717,-0.9214776158332824,0.433245450258255,0.44440445,0.42455134,16
1.0511608123779297,10.065692901611328,-1.1215113401412964,0.283218652009964,0.8356636999999999,0.2284636,16
1.001785159111023,9.922388076782227,-1.363603949546814,0.12074219435453415,0.8268061,0.028710667,16
0.9880818724632264,9.836838722229004,-1.5378286838531494,0.004914846271276474,0.63224554,-0.054367006,16
1.011204719543457,9.777724266052246,-1.6502811908721924,-0.05336083471775055,0.5751295999999999,-0.17623462,16
1.0821791887283323,9.723642349243164,-1.6874444484710691,-0.07302068918943405,0.19303341,-0.2919936,16
1.1843751668930054,9.743163108825684,-1.743508219718933,-0.05299827083945274,-0.0693332,-0.17745635,16
1.2566320896148682,9.772577285766602,-1.8600913286209104,-0.033648423850536346,0.08124508,-0.05009095,16
1.2677274942398071,9.773843765258787,-1.938013792037964,-0.025526510551571846,0.1432479,-0.025961773,16
1.2491216659545898,9.770719528198242,-1.8744361400604248,-0.01039963401854038,-0.060170225999999986,-0.00030543262000000003,16
1.2451738119125366,9.77639865875244,-1.720538854598999,0.0022533568553626537,-0.3023783,0.029932396,16
1.3107242584228516,9.762879371643066,-1.5514783859252932,0.015046178363263609,-0.46914452,-0.0012217305,16
1.411020278930664,9.777854919433594,-1.4714380502700806,0.018297182396054268,-0.37293324,0.08460484,16
1.4400644302368164,9.779653549194336,-1.5448658466339111,0.0040543582290411,0.005192355,0.09590584,16
1.4125027656555176,9.730805397033693,-1.6588056087493896,-0.015597011893987656,0.3585779000000001,0.028099801,16
1.4254071712493896,9.692021369934082,-1.6270096302032468,-0.037549372762441635,0.35094208,-0.07544186,16
1.4900789260864258,9.737588882446287,-1.505180835723877,-0.061988849192857735,0.09773844,-0.010690141499999998,16
1.5705633163452148,9.821083068847656,-1.414734125137329,-0.07296540588140488,0.076358154,0.08979719,16
1.6383616924285889,9.854851722717283,-1.3958834409713743,-0.07505861669778824,0.21135938,0.20341812,16
1.5909936428070068,9.861141204833984,-1.4279075860977173,-0.07408048957586287,0.36377025,0.23732115,16
1.3927003145217896,9.817602157592773,-1.4655959606170654,-0.07839363068342209,0.5183192,0.13194689,16
1.1714857816696167,9.756256103515623,-1.43455970287323,-0.08220834285020827,0.43768495,-0.020158553,16
1.0674388408660889,9.736775398254396,-1.288896083831787,-0.07551854848861694,0.16340645,-0.0580322,16
1.0444467067718506,9.73756504058838,-1.1260571479797363,-0.0646558403968811,-0.096516706,-0.09743301,1
1.065491795539856,9.760856628417967,-1.019755244255066,-0.0651283711194992,-0.05100725,-0.05925392700000001,1
1.1368857622146606,9.83543300628662,-0.9641619920730592,-0.09596220403909683,-0.036651913,0.09865474,1
1.193047285079956,9.89849853515625,-1.0033426284790041,-0.15130692720413208,0.05467244,0.22113322,1
1.1329634189605713,9.892176628112793,-1.124847412109375,-0.1979854553937912,-0.08002335,0.22052236,1
1.0119980573654177,9.816554069519043,-1.2215598821640017,-0.19770872592926025,-0.344528,0.030543262,1
0.944931983947754,9.721057891845703,-1.2778264284133911,-0.1595631241798401,-0.29718593,-0.17928895,1
1.0042216777801514,9.652789115905762,-1.2735556364059448,-0.12008322030305862,0.053145275,-0.26236662,1
1.1306973695755005,9.63071060180664,-1.2005064487457275,-0.09583012759685516,0.23793201,-0.27397305,1
1.2919697761535645,9.65131378173828,-1.0811271667480469,-0.07654590904712677,0.3387248,-0.24220806,1
1.4808613061904907,9.73561191558838,-0.94186532497406,-0.05515659973025322,0.28710666,-0.13439035,1
1.6346627473831177,9.828606605529783,-0.8258303999900818,-0.04466881603002548,0.23457226,0.0067195175,1
1.7147516012191772,9.9622163772583,-0.7468628883361816,-0.039775434881448746,0.24953845,0.269697,1
1.681307315826416,9.981201171875,-0.6990300416946411,-0.05190029740333557,0.31031954,0.22907446,1
1.5261565446853638,9.921516418457033,-0.6833667159080505,-0.06568664312362671,0.37812558,0.15149458,1
1.323630690574646,9.78644561767578,-0.7066517472267151,-0.07102206349372864,0.5015204000000001,-0.07238753,1
1.1675615310668943,9.671459197998047,-0.7227606773376465,-0.06500539928674698,0.46639562,-0.29382620000000004,1
1.150161862373352,9.66490364074707,-0.6924946308135986,-0.04763000458478928,0.3359759,-0.23182335,1
1.28515625,9.760692596435547,-0.6448536515235901,-0.034121908247470856,0.33994650000000004,-0.02321288,1
1.4058678150177002,9.84552001953125,-0.5963507890701294,-0.021691450849175453,0.34269542,0.11026118,1
1.4459085464477541,9.87259578704834,-0.5562335252761841,-0.007332589477300644,0.32620203,0.1151481,1
1.4323011636734009,9.888557434082033,-0.5439149141311646,0.0028165471740067005,0.28191432,0.10903945,1
1.3945637941360474,9.90987491607666,-0.5108795166015625,-0.00392958614975214,-0.038179077,0.14660765,1
1.3143903017044067,9.905906677246094,-0.5183659791946411,-0.01328000891953707,-0.27458394,0.19730948,1
1.1956995725631714,9.865848541259766,-0.5992429852485657,-0.02630431391298771,-0.25686884,0.16676621,1
1.0154960155487058,9.791813850402832,-0.7157488465309143,-0.0330825075507164,-0.22174409,0.036651913,1
0.8483745455741882,9.716717720031738,-0.7876703143119812,-0.02013353630900383,-0.25717425,-0.116980694,1
0.7745155096054077,9.676512718200684,-0.7870113253593445,0.003139047184959054,-0.30085114,-0.17715092,1
0.8126899600028992,9.67014980316162,-0.7675364017486572,0.027205586433410645,-0.22602014,-0.15821409,1
0.9438693523406982,9.701154708862305,-0.7703555226325989,0.043854020535945885,-0.069027774,-0.1432479,1
1.1113790273666382,9.750550270080566,-0.7331709861755371,0.05271797999739647,-0.10873401,-0.081855945,1
1.2874451875686646,9.797863960266113,-0.6814220547676086,0.05333932489156723,-0.028710667,0.005192355,1
1.4041286706924438,9.823440551757812,-0.6542866230010986,0.029846504330635067,0.093767814,0.07696902,1
1.4063925743103027,9.83554744720459,-0.6440812945365906,6.173943256726488e-05,0.098043874,0.03145956,1
1.3007868528366089,9.828439712524414,-0.6380335688591003,-0.018042348325252533,0.09407325,-0.036651913,1
1.2231760025024414,9.832789421081543,-0.6115180850028992,-0.02645258419215679,0.03359759,-0.036651913,1
1.1898273229599,9.854451179504396,-0.5861625671386719,-0.0270395502448082,0.018020526,-0.007941248,1
1.15582275390625,9.877506256103516,-0.5708827972412109,-0.028663283213973045,0.0067195175,0.014049901000000002,1
1.098504900932312,9.871427536010742,-0.5635963082313538,-0.033037371933460236,0.030543262,-0.021380283,1
1.0568499565124512,9.851666450500488,-0.5392259359359741,-0.035107240080833435,-0.0061086523,-0.059864793,1
1.0493508577346802,9.844295501708984,-0.49983149766922,-0.043489012867212296,-0.06291912,-0.059864793,1
1.0681222677230835,9.860445976257324,-0.4963138401508331,-0.06060630828142166,-0.105374254,0.0027488936,1
1.0928930044174194,9.860696792602539,-0.5268214344978333,-0.07454393804073334,-0.12492194,0.03145956,1
1.0882188081741333,9.843735694885254,-0.5816997289657593,-0.07734091579914093,-0.118507855,0.005497787,1
1.0519094467163086,9.817841529846193,-0.6562723517417908,-0.06796076893806458,-0.057421334,-0.027488936,1
1.0177961587905884,9.807823181152344,-0.6850817799568176,-0.05289510264992714,-0.057421334,-0.05467244,1
1.0082989931106567,9.816949844360352,-0.6432977914810181,-0.03885631263256073,-0.047036625,-0.06750060599999999,1
1.0118162631988523,9.8278169631958,-0.599383533000946,-0.03567476198077202,0.015882496,-0.07391469,1
1.0198436975479126,9.832986831665039,-0.5659731030464172,-0.04184957966208458,-0.032375857,-0.06566802,1
1.0423126220703125,9.838811874389648,-0.5454258918762207,-0.044571589678525925,-0.05375614,-0.043676864,1
1.0710490942001345,9.841769218444824,-0.565317690372467,-0.04602871462702751,0.06078109,-0.024740042,1
1.0718765258789062,9.843621253967283,-0.5748333334922789,-0.039396822452545166,0.093767814,-0.032986723,1
1.0740317106246948,9.85264492034912,-0.5399676561355591,-0.024313313886523247,0.04153884,-0.017715093,1
1.0914515256881714,9.858593940734863,-0.4764235615730286,-0.016958136111497882,-0.0018325958,-0.0033597588,1
1.0906853675842283,9.854188919067383,-0.43179851770401,-0.019801020622253414,-0.04642576,-0.01985312,1
1.04687762260437,9.82779026031494,-0.4435558319091797,-0.023508617654442787,-0.015882496,-0.07269296,1
1.0133960247039795,9.80272102355957,-0.4783847033977509,-0.01835563965141773,0.016493361,-0.090713486,1
1.032237887382507,9.80204963684082,-0.4776290655136109,-0.00748985493555665,0.04428773,-0.05131268,1
1.088223576545715,9.821733474731444,-0.4661182761192322,-0.00555376661941409,0.062308256,-0.004276057,1
1.127669095993042,9.833702087402344,-0.4417670071125031,-0.010881274938583374,0.002443461,-0.010995574,1
1.1457704305648804,9.841485023498537,-0.4425848126411438,-0.0070687420666217795,0.050396383,0.01740966,1
1.1396194696426392,9.84166145324707,-0.4492911696434021,0.005592379253357649,0.07574729,0.016187929,1
1.0966411828994749,9.847900390625,-0.4359374046325684,0.02175768092274666,0.079107046,0.004276057,1
1.0889930725097656,9.857483863830566,-0.4100544154644013,0.02583141811192036,0.13225232,0.025350908,1
1.1024987697601318,9.865891456604004,-0.3943605422973633,0.01087931264191866,0.06414085,0.050701816,1
1.1090285778045654,9.861932754516602,-0.41020992398262013,-0.003318565897643566,-0.03726278,0.03268129,1
1.1140638589859009,9.831720352172852,-0.4815661311149597,-0.010981149040162563,0.0033597588,0.03604105,1
1.126038670539856,9.812223434448242,-0.5663174390792847,-0.015154137276113032,0.08643743400000001,0.046120327,1
1.134921669960022,9.807157516479492,-0.6398637890815735,-0.008516985923051834,0.124005646,0.05681047,1
1.1055243015289309,9.82058048248291,-0.6426914930343628,0.014262334443628788,0.11056661,0.046120327,1
1.0650475025177002,9.83273983001709,-0.5755779147148132,0.036900211125612266,0.11209377,0.01985312,1
1.0305248498916626,9.838774681091307,-0.5043517351150513,0.03891904652118683,0.11881329,-0.0036651916,1
1.0092998743057249,9.843161582946776,-0.457988828420639,0.024391885846853256,0.04795292,0.005497787,1
1.0147755146026611,9.847933769226074,-0.4936448931694031,0.015616639517247675,0.029626964,0.024129177,1
1.027430772781372,9.841127395629883,-0.5942902565002441,0.02222179248929024,0.07544186,0.033292156,1
1.020208477973938,9.832671165466307,-0.6775886416435242,0.03619900345802307,0.07727446,0.021685716,1
0.9849222898483276,9.810749053955078,-0.7079042196273804,0.05359414964914322,0.02107485,-0.010995574,1
0.969526708126068,9.8003511428833,-0.6971348524093628,0.0770333930850029,0.0015271631,-0.034208454,1
