acc_x,acc_y,acc_z,gyro_x,gyro_y,gyro_z,label
0.0,0.0,0.0,0.0,0.043982297,0.01038471,8
0.1956402063369751,-0.05508487299084664,0.18158477544784546,-0.001461344538256526,-0.03848451,-0.003970624,8
0.6627228856086731,-0.18664482235908508,0.610227108001709,-0.0011341257486492395,-0.018020526,0.007330383,8
1.3100484609603882,-0.3690474033355713,1.1965265274047852,-0.0008990950300358236,-0.03604105,0.015577064,8
2.036155462265014,-0.5737438797950745,1.844349384307861,-0.002136870054528117,0.04550946,0.0061086523,8
2.7591328620910645,-0.7776671051979065,2.478083610534668,-0.004865692462772131,-0.029321533,0.004581489,8
3.425764799118042,-0.9660125970840454,3.058354139328003,-0.00289200758561492,0.014660766,0.010690141499999998,8
4.007703781127931,-1.1312270164489746,3.5801472663879395,-0.003853913862258196,0.030848695,0.022907447,8
4.499033451080322,-1.271570324897766,4.0374488830566415,-0.003380577778443694,0.005497787,0.03023783,8
4.9045987129211435,-1.3882956504821775,4.432199001312256,-0.002027221955358982,0.011301007,0.021991149,8
5.234055519104004,-1.4840190410614014,4.770596981048584,0.001121455803513527,-0.022602014,0.038789943,8
5.49846887588501,-1.5617691278457642,5.060347080230713,0.005112177226692438,-0.06811147,0.03604105,8
5.7085676193237305,-1.6244935989379885,5.309142589569092,0.007918323390185833,-0.038789943,0.044898596,8
5.8739166259765625,-1.6748348474502563,5.524128437042236,0.008138961158692837,-0.05009095,0.03756821,8
6.002809047698975,-1.7150712013244631,5.711239814758301,0.007394349202513696,-0.029932396,0.013744468,8
6.102109432220459,-1.7471046447753906,5.875709056854247,0.003326992504298687,-0.052839845,0.009468411,8
6.182834148406982,-1.7687532901763916,6.019263744354247,-0.002464479999616742,-0.05100725,0.007330383,16
6.259309768676758,-1.7745145559310913,6.140694618225098,-0.008764696307480335,-0.052839845,0.00580322,16
6.332669258117676,-1.7672624588012695,6.244156837463379,-0.014046654105186462,-0.10751228,0.0125227375,16
6.403496742248535,-1.7495630979537964,6.333146572113037,-0.018770910799503326,-0.19181168,0.025961773,16
6.4722838401794425,-1.7234653234481812,6.410494804382324,-0.019583374261856083,-0.34208453,0.04428773,16
6.539445877075195,-1.6906009912490845,6.478492736816406,-0.02220282517373562,-0.35308012,0.07849618,16
6.605288028717041,-1.6523131132125854,6.53896951675415,-0.01114540547132492,-0.46700647,0.14172074,16
6.6700782775878915,-1.6096580028533936,6.593406677246094,0.011154754087328909,-0.6618725000000001,0.23365596,16
6.734012126922607,-1.5635058879852295,6.642985820770264,0.013405957259237766,-0.8008443000000001,0.38148534,16
6.7972564697265625,-1.514546036720276,6.688661098480225,0.0018176641315221784,-0.895223,0.5879578000000001,16
6.864546298980713,-1.4860373735427856,6.727408409118652,-0.015829486772418022,-0.5338961999999999,0.6438520000000001,16
6.932801723480225,-1.563105225563049,6.747220516204834,-0.03340255096554756,-0.25625798,0.5030475000000001,16
7.0068092346191415,-1.6909611225128174,6.727859973907472,-0.04100698232650757,-0.45662177,0.4886922,16
7.087100028991699,-1.837047100067139,6.6347618103027335,-0.05093606933951378,-0.62858033,0.5867361,16
7.199676036834718,-1.9741663932800293,6.483777046203612,-0.08369634300470352,-0.6768387,0.8020661,16
7.3358516693115225,-2.0917389392852783,6.349501132965088,-0.1307261288166046,-0.5681046999999999,0.99296147,16
7.479300022125244,-2.1970157623291016,6.260804176330566,-0.1957989484071732,-0.376293,1.0815369,16
7.5653038024902335,-2.3235843181610107,6.252016067504883,-0.26838162541389465,-0.30787608,0.9761627,16
7.561111450195312,-2.49988055229187,6.224710464477539,-0.3321334421634674,-0.21868975,0.6386596,16
7.471874237060548,-2.651442050933838,6.102268695831299,-0.3876031041145325,0.03573562,0.5030475000000001,16
7.352795124053955,-2.76015043258667,5.978640556335449,-0.4378246963024139,-0.007330383,0.61941737,16
7.263454914093018,-2.9094944000244136,5.8612914085388175,-0.4655824899673462,-0.14721853,0.636827,16
7.224333763122559,-3.135728597640991,5.705241680145264,-0.4795394837856293,-0.12217305,0.59712076,16
7.2114410400390625,-3.3558802604675293,5.472163677215576,-0.4787013828754425,0.08246681,0.6270532,16
7.234026908874513,-3.502050876617432,5.3526268005371085,-0.4774118959903717,0.12858713,0.66248333,16
7.224285125732423,-3.633962869644165,5.310749530792236,-0.4718833863735199,0.19456059,0.5842925999999999,16
7.077789306640625,-3.8459045886993413,5.215059280395508,-0.4391646087169647,0.21013765,0.45448375,16
6.844553470611572,-4.072681427001953,5.151529788970947,-0.4020288288593292,0.15943582,0.42363504,16
6.692818641662598,-4.185928821563722,5.12246561050415,-0.3612495958805084,0.22785273,0.5635232,16
6.705485820770264,-4.202116966247559,5.060614585876465,-0.3128817677497864,0.29718593,0.70829827,16
6.7819886207580575,-4.2777099609375,4.9712982177734375,-0.2720980644226074,0.48838675,0.52748215,16
6.868639945983888,-4.512547492980957,4.891206741333008,-0.2343301028013229,0.72601336,0.398895,16
6.912732601165772,-4.725305080413818,4.822012901306152,-0.20911309123039248,0.7797695,0.36193767,16
6.898895263671875,-4.856568336486816,4.869164943695068,-0.1789456158876419,0.7095199999999999,0.36774087,16
6.78210973739624,-4.9519362449646,4.8688836097717285,-0.12234329432249068,0.870483,0.43554693,16
6.640153408050537,-5.1289544105529785,4.860273838043213,-0.05444871634244919,0.8875871999999999,0.32620203,16
6.461058616638184,-5.332448959350586,4.901947021484375,0.007924428209662437,0.8668178,0.23151793,16
6.201022624969482,-5.445937156677246,5.0047287940979,0.07699475437402725,0.7095199999999999,0.16096300000000002,16
5.908496856689452,-5.471354961395264,5.097976207733153,0.1526121199131012,0.7031059000000001,0.070554934,16
5.53646183013916,-5.494584083557129,5.215919017791748,0.2184019535779953,0.6444628000000001,-0.10873401,16
5.097670555114746,-5.494711875915527,5.3680386543273935,0.2673365771770477,0.4868596,-0.3491095,16
4.6800217628479,-5.463364124298097,5.519262790679932,0.29811739921569824,0.34391713,-0.50793445,16
4.3215975761413565,-5.38747501373291,5.666558265686035,0.3217221796512604,0.30207285,-0.67256266,16
4.110811710357666,-5.2567949295043945,5.792011737823486,0.33672648668289185,0.26053402,-0.83016586,16
4.0281152725219735,-5.085034370422363,5.893690586090088,0.33444783091545105,0.35796702,-0.95569867,16
4.011176109313965,-4.877440929412842,5.95456075668335,0.33410173654556274,0.5195409000000001,-1.0833695,16
4.0073885917663565,-4.673120021820068,6.0260748863220215,0.33689311146736145,0.5036584,-1.2168436000000002,16
4.019084930419922,-4.458706855773926,6.0916709899902335,0.3304435610771179,0.46181414,-1.3209959999999998,16
4.051490783691406,-4.216399669647217,6.27197265625,0.33320051431655884,0.26908615,-1.4056008999999998,16
4.112210273742677,-3.991492748260498,6.418398857116699,0.3374670147895813,0.22785273,-1.5021176,16
4.199372291564941,-3.743626117706299,6.531955242156982,0.32717224955558777,0.4016439000000001,-1.4840971,16
4.252584457397462,-3.486070394515991,6.756477355957031,0.302759051322937,0.2510656,-1.5500705,16
4.293098449707031,-3.2444872856140137,6.975106716156006,0.26310163736343384,-0.061086524,-1.6972891,16
4.298120975494385,-3.0174477100372314,7.154209613800049,0.21821542084217072,0.009162978,-1.7715092,16
4.292408466339111,-2.810913562774658,7.356906414031982,0.16193604469299314,0.024740042,-1.8860464,16
4.338366985321045,-2.579094648361206,7.54986047744751,0.08792619407176971,-0.32314770000000004,-1.9950858,16
4.504697322845459,-2.3195116519927983,7.605395793914795,0.014780715107917787,-0.5571090999999999,-1.9960022,16
4.751420497894287,-2.0570523738861084,7.660190105438232,-0.0503821037709713,-0.9288206,-1.851838,16
5.077152729034424,-1.84882390499115,7.5419487953186035,-0.11192967742681503,-0.7443393,-1.7913623,16
5.628148555755615,-1.6013778448104858,7.297450065612793,-0.15207670629024506,-0.5510005,-1.5974126,16
6.239524841308594,-1.372297286987305,7.026603698730469,-0.16139531135559082,-0.50518554,-1.3567317,16
6.482630729675293,-1.2799625396728516,6.793448448181152,-0.1484105885028839,-0.2312125,-1.2718215,16
6.480971813201903,-1.2594043016433716,6.676158905029298,-0.12469103932380675,-0.14477506,-1.3622295,16
6.422189235687256,-1.2319133281707764,6.655202388763428,-0.09232115000486374,-0.2669481,-1.4395038999999998,16
6.565190315246582,-1.077220439910889,6.6183834075927725,-0.051183972507715225,-0.6768387,-1.2202033,16
6.9842896461486825,-0.8424863815307617,6.458695411682129,-0.0066559440456330785,-0.9483683,-1.1921035,16
7.337366580963135,-0.6848286986351013,6.2153682708740225,0.04580749943852425,-0.4447099,-1.0827587,16
7.478991985321045,-0.6520554423332214,6.105496883392334,0.1093858927488327,-0.25045475,-1.0995574,16
7.526698589324951,-0.5987610816955566,6.123591423034668,0.18107379972934726,-0.27885997,-1.0793989,16
7.479623317718506,-0.3949752151966095,6.1096534729003915,0.2585870623588562,-0.28405234,-1.0277808000000002,16
7.423902988433838,-0.1106506735086441,6.08895206451416,0.3189971446990967,-0.30848694,-1.0216721,16
7.479989051818848,0.186174750328064,6.133677005767822,0.3656876087188721,-0.01038471,-0.97249746,16
7.54448652267456,0.4660293757915497,6.175647735595702,0.4091507196426392,-0.040011674,-1.0027353,16
7.640147686004639,0.7675595879554749,6.2263240814208975,0.43709638714790333,-0.30207285,-1.0311406,16
7.7039527893066415,1.1034888029098509,6.217092990875244,0.4472149908542633,-0.22815818,-0.9419542,16
7.720947265625,1.4148529767990112,6.163076877593994,0.4610036313533783,-0.1853976,-0.86284715,16
7.773265361785889,1.6659667491912842,6.165000915527344,0.4749012291431427,-0.22388211,-0.7825184000000001,16
7.854951858520508,1.860916376113892,6.167157173156737,0.4777803421020508,-0.17409660000000002,-0.7049385,16
7.990840435028076,2.0209531784057617,6.158708572387695,0.4690503180027008,-0.064446285,-0.68111473,16
8.019102096557617,2.177313327789306,6.093533039093018,0.4349238574504852,0.020158553,-0.659429,16
7.840591907501222,2.3101048469543457,6.011387348175049,0.3900986015796661,0.015577064,-0.6737844,16
7.572538375854492,2.405532121658325,5.927838802337647,0.36041876673698425,-0.102319926,-0.72509706,16
7.3393311500549325,2.446796417236328,5.843234539031982,0.3519909679889679,-0.1863139,-0.81000733,16
7.265205383300781,2.537543535232544,5.834256649017334,0.36201751232147217,-0.19547687,-0.81122905,16
7.3262267112731925,2.712395429611206,5.916659355163574,0.3646248877048493,-0.22174409,-0.6994406999999999,16
7.561171054840088,2.9817998409271236,5.941743850708008,0.3747072219848633,-0.35399640000000004,-0.61178154,16
7.95371150970459,3.250874280929565,5.918561458587647,0.3903459310531616,-0.28527406,-0.5742133,16
8.245441436767576,3.4898891448974614,5.887975215911865,0.41134750843048096,0.18387043,-0.4175264,16
8.183197975158691,3.58152174949646,5.893502712249756,0.42889404296875,0.3921755,-0.49877146,16
7.851802349090576,3.671952247619629,6.050264358520508,0.4312882125377655,-0.013744468,-0.6771441,16
7.407710075378418,3.82100772857666,6.187307357788086,0.4115035533905029,-0.16920967,-0.8393288000000001,16
7.0485520362854,4.025162696838379,6.355988025665282,0.3954806923866272,-0.26450464,-0.8875871999999999,16
7.146182537078857,4.233314514160156,6.286972999572754,0.3862055540084839,-0.48624873,-0.464563,16
7.25609016418457,4.509745121002197,6.2324585914611825,0.3784759640693665,-0.19700404,-0.5839871999999999,16
7.293109893798827,4.751445770263672,6.124645233154298,0.379614531993866,-0.5882632,-0.6618725000000001,16
7.241348743438722,4.824965000152588,5.875877380371094,0.4092482924461365,-0.39522982,-0.6805039,16
7.0981550216674805,4.850208282470703,5.604310989379883,0.44473856687545776,-0.11362094,-0.75411314,16
6.951709747314452,4.962457180023193,5.472883701324463,0.4837634265422821,0.26175576,-0.6444628000000001,16
6.861560344696045,5.263693332672119,5.620171070098877,0.4760169982910156,-0.12034045,-0.49663344,16
6.6639580726623535,5.645463466644287,5.638400554656982,0.4596192836761474,-0.099571034,-0.64996064,16
6.368781089782715,5.921608924865723,5.6285719871521,0.4283602833747864,-0.21288654,-0.7452555999999999,16
6.112706661224365,5.962208271026611,5.582297801971436,0.3960204422473908,-0.44073927,-0.7849618,16
5.95205545425415,5.862290859222412,5.505537509918213,0.3656051754951477,-0.5766568,-0.7834346999999999,16
5.8619346618652335,5.824746131896973,5.462195873260498,0.3237334191799164,-0.8604037,-0.7959574,16
5.7865233421325675,5.8978614807128915,5.382617950439453,0.2881121337413788,-0.8622363000000001,-0.95417154,16
5.724315643310548,6.05063533782959,5.3264498710632315,0.24814820289611814,-0.9972375,-1.0482447,16
5.672614574432372,6.204755783081055,5.244733333587647,0.21729776263237,-1.0549643,-1.0311406,16
5.627777576446533,6.288477897644043,5.125946998596191,0.1890159547328949,-0.99021256,-0.9630291,16
5.6014442443847665,6.3363304138183585,5.00920295715332,0.16655421257019046,-0.8854492,-0.9468411,16
5.588593482971191,6.3979573249816895,4.838338851928711,0.14021795988082886,-0.8402450999999999,-1.0009027,16
5.47874116897583,6.45531177520752,4.729848384857178,0.1072450876235962,-0.9947941,-1.0082331,16
5.365853786468506,6.50199031829834,4.633306503295898,0.09150761365890504,-1.0757337,-0.9306532,16
5.329416751861572,6.525963306427003,4.566398143768311,0.08830976486206055,-1.4223998,-0.8549059000000001,16
5.3952598571777335,6.5126118659973145,4.4239158630371085,0.10365819931030272,-1.5415184,-0.795652,16
5.469230651855469,6.491023063659668,4.235818386077882,0.136061429977417,-1.539075,-0.82711154,16
5.448222637176514,6.560619831085205,4.0259528160095215,0.18025176227092746,-1.428203,-0.8335256,16
5.332836627960205,6.717444896697997,3.788274526596069,0.22357484698295596,-1.2672399,-0.77640975,16
5.1671671867370605,6.9554405212402335,3.6202926635742183,0.2414113283157349,-1.2556334999999998,-0.6438520000000001,16
5.007278919219972,7.220885276794434,3.511558055877685,0.2242625057697296,-1.4025466,-0.52564955,16
4.855249404907227,7.4774065017700195,3.4528403282165527,0.1835298240184784,-1.5946637,-0.50946164,16
4.676656246185303,7.634156227111816,3.333470582962036,0.12016765773296355,-1.8451185,-0.5635232,16
4.511828899383545,7.6010050773620605,2.9825747013092037,0.06988619267940521,-2.0769417000000003,-0.5983425,16
4.441120147705078,7.454442501068115,2.423693418502808,0.026248645037412643,-1.7800613999999997,-0.5476406999999999,16
4.38342809677124,7.242919921875,1.6632858514785769,-0.010326871648430824,-1.2932017,-0.59864795,16
4.333583354949951,7.161701679229736,0.9143309593200684,0.003914185333997011,-1.044885,-0.5222898,16
4.336101055145264,7.350731372833253,0.3829388022422791,0.05877938866615296,-1.4468343,-0.21899518,16
4.530595779418945,7.961836814880371,0.3254256248474121,0.11514021456241608,-2.4254405,0.28038713,16
5.0091514587402335,8.683979034423826,0.3744209706783295,0.1035861149430275,-1.6471981,-0.028405234,16
5.419524669647217,8.910262107849121,0.4036237597465515,0.0609399676322937,-0.9639453,-0.5888741,16
5.265827655792236,8.888046264648438,0.5888500213623047,-0.0071008396334946156,-0.9764681,-0.7593055000000001,16
4.708972454071045,8.869925498962402,0.6999995112419128,-0.07307267934083939,-1.4987578,-0.6789767,16
4.1825222969055185,8.925867080688477,0.5781910419464111,-0.1229379028081894,-1.7537941000000004,-0.559858,16
3.946889162063599,8.961691856384277,0.21173696219921112,-0.1640530228614807,-1.4618006,-0.5403103,16
4.0196590423583975,8.917521476745605,-0.32085350155830383,-0.180338516831398,-0.77854776,-0.49266282,16
4.381668567657472,8.845656394958496,-0.6240231394767761,-0.16728165745735168,-0.75441855,-0.42180246,16
4.889548301696777,8.740798950195312,-0.680811882019043,-0.14781776070594788,-1.2235631,-0.36957347,16
5.281724452972412,8.601021766662598,-0.8220492601394653,-0.1113997921347618,-0.56291234,-0.39584067,16
5.411018371582031,8.466557502746582,-0.9038180112838744,-0.0823836401104927,-0.23548855,-0.49266282,16
5.359746932983398,8.361244201660156,-0.8938153386116028,-0.03805248439311981,-0.44806966,-0.46211955,16
5.289278984069824,8.254755973815918,-0.9144917726516724,0.026406310498714447,-0.3979787,-0.38759398,16
5.3354811668396,8.165922164916992,-0.8804870247840881,0.08277098834514618,-0.27305678,-0.19608775,16
5.4785804748535165,8.161465644836426,-0.7771892547607422,0.11157559603452682,-0.09040806,-0.21899518,16
5.556363105773926,8.28443431854248,-0.7240026593208313,0.13500051200389862,0.33200526,-0.32375857,16
5.3868937492370605,8.415117263793945,-0.6697496175765991,0.15734536945819855,0.5571090999999999,-0.344528,16
5.021185874938965,8.438047409057617,-0.5474566817283629,0.1879417449235916,0.3979787,-0.344528,16
4.833650588989258,8.404413223266603,-0.4437468945980072,0.20956917107105252,0.058948494,-0.2733622000000001,16
4.86474609375,8.320831298828125,-0.4249702990055084,0.23509499430656436,0.051618114000000014,-0.20952678,16
4.995165824890137,8.341179847717285,-0.457890510559082,0.2426837980747223,0.3717115,-0.1151481,16
5.005369663238525,8.5277099609375,-0.4136634469032288,0.19565342366695404,0.44165558,-0.22602014,16
4.631220817565918,8.698925018310549,-0.2817418575286865,0.12937946617603302,0.14172074,-0.34574974,16
4.0659918785095215,8.738954544067383,-0.17446111142635345,0.052078403532505035,-0.23060162,-0.51007247,16
3.7262637615203857,8.819910049438477,-0.22071334719657895,-0.02968956157565117,-0.49235737,-0.41263947,16
3.732880592346192,8.886711120605469,-0.4441813826560974,-0.05370375141501427,-0.49938235,-0.41263947,16
3.9841811656951904,8.924516677856445,-0.6828863620758057,-0.009908774867653848,-0.28955013,-0.5015204000000001,16
4.348536491394043,9.019851684570312,-0.8111411333084106,0.03262881562113762,0.19028452,-0.659429,16
4.523984909057617,9.117124557495117,-0.92028146982193,0.036695867776870734,0.46639562,-0.6582073,16
4.466032028198242,9.106021881103516,-1.0065125226974487,0.04212551563978195,0.26053402,-0.66950834,16
4.320955276489259,8.969453811645508,-1.0390697717666626,0.06290797144174576,0.06841691,-0.6737844,16
4.199663162231444,8.849689483642578,-1.0149790048599243,0.1188891977071762,0.110872045,-0.6731735,16
4.162360668182373,8.897759437561035,-0.9641728401184082,0.1782107800245285,0.14172074,-0.5525276,16
4.248964786529541,9.146218299865724,-0.9070206880569458,0.21305124461650848,-0.016187929,-0.2959642,16
4.292346954345703,9.416192054748537,-0.8376771211624146,0.21647243201732635,0.08827003,-0.06688975,16
3.994656801223755,9.44215202331543,-0.7035036087036133,0.17779746651649475,0.13194689,-0.15577064,16
3.6054565906524663,9.435447692871094,-0.6128053665161133,0.09138618409633636,-0.09987647,-0.1572978,16
3.230153083801269,9.510140419006348,-0.6235323548316956,-0.027181794866919518,-0.25473082,-0.03726278,16
2.940913677215576,9.739019393920898,-0.6617292165756226,-0.1864439696073532,-0.27458394,0.30634892,16
2.685741424560547,10.001258850097656,-0.7114692330360413,-0.32741886377334595,-0.41325033,0.6062838,16
2.4451005458831787,10.101067543029783,-0.6859245896339417,-0.3939981162548065,-0.8038987,0.6291912,16
2.359105110168457,10.054854393005373,-0.5750064253807068,-0.4008760452270508,-0.9263771,0.54428095,16
2.4855411052703857,9.994940757751463,-0.4605276584625244,-0.4033675789833069,-0.8445212,0.35277468,16
2.6319384574890137,10.010272979736328,-0.3872743546962738,-0.4240713715553284,-0.6743952,0.22052236,16
2.5339136123657227,10.061331748962402,-0.2389896959066391,-0.4636440873146057,-0.4905248,0.17379116,16
2.1892859935760502,10.042208671569824,0.0927177220582962,-0.5309584736824036,-0.44257188,0.055283304000000005,16
1.8279571533203125,9.992682456970217,0.5151276588439941,-0.6421094536781311,-0.6392705,0.009773844,16
1.7060387134552002,9.965245246887207,0.7863933444023132,-0.7663617730140686,-0.8552113000000001,0.0125227375,16
1.8238526582717896,9.96157169342041,0.8039255142211914,-0.8577380180358887,-0.75808376,0.020463986,16
2.0820443630218506,9.921547889709473,0.6678992509841919,-0.9050725102424622,-0.37568212,-0.024740042,16
2.380834579467773,9.81368637084961,0.505079448223114,-0.9290533661842346,0.11148291,-0.0580322,16
2.677666664123535,9.658231735229492,0.4002043902873993,-0.9337047338485718,0.3304781,-0.0693332,16
2.9431560039520264,9.445836067199707,0.3859002888202667,-0.9081164598464966,0.28008172,-0.07574729,16
3.126708507537842,9.194077491760254,0.3573637306690216,-0.8415611386299133,0.30085114,-0.054367006,16
3.1973700523376465,8.949281692504883,0.3390288352966309,-0.739278256893158,0.33536503,-0.024740042,16
3.1865837574005127,8.727407455444336,0.3760279417037964,-0.620963454246521,0.419359,0.0030543262,16
3.1641504764556885,8.588448524475098,0.5020669102668762,-0.4977549314498901,0.50793445,0.014660766,16
3.159634113311768,8.554688453674316,0.6828184127807617,-0.3791863024234772,0.569021,-0.013133603,16
3.1685636043548584,8.49415111541748,0.8329435586929321,-0.25419294834136963,0.6939429,-0.09712757,16
3.1435389518737797,8.373125076293945,0.9129385352134703,-0.10632465779781343,0.79473567,-0.13927728,16
3.0453202724456787,8.285825729370117,0.9760502576828004,0.0569295734167099,0.7779369,-0.14966199,16
2.9026083946228027,8.325687408447267,1.086111068725586,0.20347267389297485,0.77488256,-0.054367006,16
2.821131944656372,8.581787109375,1.2808858156204224,0.2960631251335144,0.6939429,0.112399206,16
2.9161629676818848,8.901384353637695,1.4015949964523315,0.3175826668739319,0.21594086,0.29077184,16
3.028831243515014,9.142677307128906,1.364539623260498,0.33884313702583313,-0.34208453,0.36835176,16
3.0479626655578613,9.39750862121582,1.2649030685424805,0.4073128700256348,-0.7287621999999999,0.14813483,16
3.138446807861328,9.686327934265137,0.9421012997627258,0.5092502832412721,-0.30757064,-0.06078109,16
3.0778465270996094,9.92971134185791,0.7701327800750732,0.6023756265640259,0.7443393,-0.3866777,16
2.8132402896881104,9.789834022521973,0.7943763732910156,0.5724256038665771,1.7687602999999998,-0.48472157,16
2.8533482551574707,9.54596996307373,0.6772395372390747,0.6116949319839478,1.6740761999999998,-0.27397305,16
3.0214946269989014,9.359416007995604,0.4832122325897217,0.6928642392158508,0.9486737,-0.03573562,16
3.208221912384033,9.234024047851562,0.049985472112894065,0.734908401966095,0.82802784,0.17837265,16
3.3279409408569336,9.314812660217283,-0.3315354287624359,0.7180346250534058,0.8943066999999999,0.36651915,16
3.26831603050232,9.544026374816896,-0.25223347544670105,0.6068703532218933,-0.084910266,0.41599923,16
3.0477685928344727,9.649642944335938,-0.05861739441752434,0.5183514356613159,-0.6982189999999999,0.113926366,16
2.8882842063903813,9.67601490020752,-0.0965413972735405,0.4949647486209869,0.26083946,0.058948494,16
2.7335121631622314,9.752069473266602,-0.17422989010810852,0.4742605090141296,0.12644911,0.0580322,16
2.5626022815704346,9.777153968811037,-0.4266524910926819,0.39151298999786377,0.42363504,-0.024740042,16
2.4369430541992188,9.759108543395996,-0.7233144044876099,0.36632296442985535,0.627664,-0.05009095,16
2.3671975135803223,9.714729309082033,-0.8512493968009949,0.381248950958252,0.26908615,-0.0983493,16
2.324965238571167,9.645657539367676,-0.90903502702713,0.3669870495796204,-0.016798794,-0.04642576,16
2.357513427734375,9.62095546722412,-0.9013696908950806,0.3384801745414734,-0.27397305,0.01740966,16
2.4216434955596924,9.670456886291504,-0.8100571036338806,0.3216055631637573,-0.26389378,0.027794369,16
2.4612457752227783,9.700977325439453,-0.6925498843193054,0.3046551048755646,0.049480084,0.048258353,16
2.518789291381836,9.703235626220703,-0.57835853099823,0.26183030009269714,0.0720821,0.07452556,16
2.606459379196167,9.70358180999756,-0.5056313276290894,0.20289215445518494,-0.09162979,0.092240654,16
2.7306959629058842,9.666051864624023,-0.4984171092510224,0.15265439450740814,-0.17409660000000002,0.07971791,16
2.8700528144836426,9.579367637634276,-0.5739402770996094,0.11520527303218843,-0.06994407,0.06566802,16
2.9862096309661865,9.504302978515623,-0.7200857400894165,0.09411606937646866,0.04184427,0.093462385,16
3.032291412353516,9.48045539855957,-0.8150650262832642,0.08457977324724197,0.06780604,0.07544186,16
3.0428266525268555,9.483530044555664,-0.8416258096694946,0.08255218714475633,0.036957346,0.06872234,16
3.062056064605713,9.493146896362305,-0.828088641166687,0.07740676403045654,-0.028710667,0.052534413,16
3.0801823139190674,9.480934143066406,-0.7879358530044556,0.0698537603020668,-0.08827003,0.0290161,1
3.0833551883697514,9.467630386352539,-0.7675086259841919,0.061689756810665124,-0.076052725,0.04184427,1
3.0829107761383057,9.493468284606934,-0.7431639432907104,0.0489364005625248,-0.074830994,0.054367006,1
3.103393077850342,9.51364517211914,-0.674734890460968,0.031550902873277664,-0.07360926,0.061391957,1
3.1810109615325928,9.499114990234377,-0.5895661115646362,0.005193559918552637,-0.07666359,0.1160644,1
3.293533563613892,9.445382118225098,-0.5225173830986023,-0.02224360965192318,-0.054367006,0.1872302,1
3.404927015304565,9.39903736114502,-0.4872554540634155,-0.047435633838176734,-0.002443461,0.22999077,1
3.45833420753479,9.381646156311037,-0.5036272406578064,-0.0618007555603981,0.032375857,0.21166481,1
3.4181308746337886,9.358016967773438,-0.5652031302452087,-0.06556665897369385,0.08796459400000001,0.19517145,1
3.339828491210937,9.33902072906494,-0.6297653913497925,-0.060514237731695175,0.110872045,0.13439035,1
3.275066375732422,9.36063003540039,-0.6834505200386047,-0.04875357076525688,0.087659165,0.096516706,1
3.2085418701171875,9.40116024017334,-0.6939567923545837,-0.030129835009574887,0.12064589,0.021380283,1
3.1301708221435547,9.42296028137207,-0.7025749683380127,-0.016902120783925056,0.10415252,-0.009773844,1
3.056706666946411,9.41202449798584,-0.7413250207901001,-0.004168469924479723,0.13897185,-0.06780604,1
2.9861228466033936,9.401399612426758,-0.7771033048629761,0.018662307411432263,0.09712757,-0.09040806,1
2.9165730476379395,9.394638061523438,-0.7949777245521545,0.04615468531847,0.089186326,-0.1255328,1
2.8889739513397217,9.407707214355467,-0.7814065217971802,0.07164539396762848,0.10140363,-0.12980886,1
2.9062399864196777,9.42291259765625,-0.7410476803779602,0.08971384167671204,0.094989546,-0.11911872,1
2.9393215179443364,9.438716888427734,-0.6705902814865112,0.09463866800069808,0.04337143,-0.08827003,1
2.966162919998169,9.458747863769533,-0.5926265716552734,0.08594978600740433,-0.06658431,-0.071776666,1
3.0043041706085205,9.47818088531494,-0.5448253750801086,0.06716886907815932,-0.07788532,-0.03390302,1
3.043208599090576,9.490782737731934,-0.5161112546920776,0.04407953470945358,-0.064446285,-0.005192355,1
3.0863003730773926,9.486302375793457,-0.483193188905716,0.01713377796113491,-0.029932396,0.027183503,1
3.1304798126220703,9.486618995666504,-0.4621686339378357,-0.010114430449903013,-0.040011674,0.043066,1
3.15795373916626,9.478507995605467,-0.4628235399723053,-0.03274049237370491,-0.052534413,0.055588737,1
3.1642029285430913,9.461074829101562,-0.4913826584815979,-0.04667408019304276,-0.020158553,0.06047566,1
3.1434690952301025,9.449957847595217,-0.5352346897125244,-0.053577549755573266,0.008857545999999999,0.056199603,1
3.10884428024292,9.44770622253418,-0.5561471581459045,-0.055827829986810684,0.020463986,0.043676864,1
3.090093851089477,9.45164394378662,-0.5541903376579285,-0.05720194429159165,0.007330383,0.037873644,1
3.059401750564575,9.458375930786133,-0.5403151512145996,-0.06143185496330261,-0.027488936,0.01740966,1
3.0223712921142583,9.460199356079102,-0.5254244208335876,-0.06604138016700745,-0.05375614,0.019547688,1
2.98262095451355,9.452289581298828,-0.5068117976188661,-0.07374830543994904,-0.09437868,0.0070249503,1
2.9656076431274414,9.44582462310791,-0.4866452217102051,-0.07866020500659943,-0.0888809,0.009162978,1
2.964736223220825,9.448728561401367,-0.4582129716873169,-0.08243362605571747,-0.10598512,-0.0061086523,1
2.9762487411499023,9.43996524810791,-0.425473690032959,-0.0874447375535965,-0.12370021,0.007330383,1
3.0098886489868164,9.432425498962402,-0.4184577763080597,-0.09307321161031724,-0.111177474,0.0070249503,1
3.0319318771362305,9.432330131530762,-0.4170107841491699,-0.09794139862060547,-0.1151481,-0.00061086525,1
3.0436806678771973,9.43048095703125,-0.4014451503753662,-0.10172639042139052,-0.109650314,-0.01282817,1
3.065495491027832,9.433640480041504,-0.3741008043289185,-0.10570726543664932,-0.12767084,-0.010690141499999998,1
3.0951790809631348,9.446054458618164,-0.3396639823913574,-0.11097422987222673,-0.1518,-0.0125227375,1
3.108962059020996,9.459920883178713,-0.314443439245224,-0.11870504170656206,-0.17348573,-0.018936822,1
3.114103078842163,9.444198608398438,-0.29691082239151,-0.12615841627120972,-0.16646078,-0.03145956,1
3.125981092453003,9.418977737426758,-0.3032346069812775,-0.12641771137714386,-0.15088372,-0.02565634,1
3.14253568649292,9.403388023376463,-0.3080412447452545,-0.1178334578871727,-0.12980886,-0.02565634,1
3.192448616027832,9.391379356384276,-0.2998463213443756,-0.10404349863529204,-0.07147124,-0.004581489,1
3.2610599994659424,9.38421630859375,-0.2757404744625092,-0.09165950119495392,-0.05589417,0.010690141499999998,1
3.3110170364379883,9.375605583190918,-0.2485691606998444,-0.08191615343093872,-0.044593163,0.02565634,1
3.3309597969055176,9.371037483215332,-0.2310668230056763,-0.07690635323524475,-0.04428773,0.0421497,1
3.3277411460876465,9.37307071685791,-0.22502179443836207,-0.07074258476495743,-0.052839845,0.03145956,1
3.3082869052886963,9.372282028198242,-0.21828487515449524,-0.06598769873380661,-0.04337143,0.016187929,1
3.294896125793457,9.35806941986084,-0.2159583419561386,-0.060250841081142426,-0.03634648,0.010995574,1
