acc_x,acc_y,acc_z,gyro_x,gyro_y,gyro_z,label
0.0,0.0,0.0,0.0,0.00030543262000000003,0.0067195175,8
0.11180495470762253,0.031349290162324905,0.25377357006073004,-0.0008275103173218668,0.0036651916,0.011911872,8
0.3785679340362549,0.10596133768558502,0.8570521473884583,-0.003467960981652141,-0.005497787,0.014660766,8
0.7480158805847168,0.2089854031801224,1.688969969749451,-0.00713102240115404,-0.00030543262000000003,0.009468411,8
1.1621037721633911,0.32406312227249146,2.6168248653411865,-0.011056516319513321,-0.00030543262000000003,0.009162978,8
1.5740299224853516,0.4380951821804047,3.5346710681915283,-0.01488535199314356,0.005497787,0.0076358155,8
1.9543273448944087,0.5428799390792847,4.3763346672058105,-0.017943525686860085,-0.0018325958,0.011301007,8
2.288902997970581,0.6345477700233461,5.110781669616699,-0.02029780857264996,0.007941248,0.005497787,8
2.574183940887451,0.7121708393096924,5.7307610511779785,-0.022828178480267525,0.008246681,0.0036651916,8
2.8125522136688232,0.7764813899993896,6.242426872253418,-0.025300106033682827,0.008246681,0.015271631,8
3.0091495513916016,0.8289654850959778,6.6579647064208975,-0.02678091265261173,0.0033597588,-0.0012217305,8
3.1699681282043457,0.8713346123695374,6.9913368225097665,-0.0271875374019146,0.0015271631,0.0030543262,8
3.300851583480835,0.9052565693855286,7.25614595413208,-0.02690321393311024,0.004886922,0.01038471,8
3.4070591926574707,0.932218849658966,7.464478015899657,-0.027407199144363403,0.0015271631,0.012217305,8
3.4931135177612305,0.953501045703888,7.626731872558594,-0.029140906408429142,0.004276057,0.022907447,8
3.5628054141998287,0.9701741337776184,7.751602172851562,-0.030458103865385056,0.00580322,0.009773844,8
3.619262218475342,0.9831216335296632,7.846266746520996,-0.03031371533870697,0.008246681,0.008246681,8
3.6650404930114746,0.9930641055107116,7.916569232940674,-0.030324222519993782,0.0015271631,0.00580322,8
3.702216148376465,1.0005867481231692,7.967256546020508,-0.031062403693795208,-0.0036651916,0.007941248,8
3.732469081878662,1.00616192817688,8.00216007232666,-0.031299151480197906,0.008857545999999999,0.01038471,8
3.757156848907471,1.0101678371429443,8.024328231811522,-0.031273234635591514,0.019242255,0.016493361,8
3.778018712997437,1.0122109651565552,8.039570808410645,-0.030680121853947636,0.028710667,0.018936822,8
3.79056715965271,1.0153290033340454,8.075532913208008,-0.029992341995239258,0.014660766,0.009468411,8
3.7892224788665767,1.0181151628494265,8.135087966918945,-0.03101232647895813,-0.002443461,0.010995574,8
3.790260791778565,1.0175175666809082,8.208012580871582,-0.03145670518279076,0.008857545999999999,-0.0015271631,8
3.7962038516998287,1.0074082612991333,8.315707206726074,-0.029922949150204662,0.0027488936,-0.0033597588,8
3.8611714839935294,1.0508544445037842,8.439884185791017,-0.03020924888551235,-0.008857545999999999,-0.02107485,8
3.873854398727417,1.0970728397369385,8.560598373413086,-0.03203915059566498,-0.06963864,0.010995574,8
3.8334975242614746,1.0842527151107788,8.676193237304688,-0.032815739512443536,-0.08979719,-0.025350908,8
3.7804229259490967,1.0435199737548828,8.715047836303711,-0.027434302493929863,-0.020158553,-0.06780604,8
3.751327991485596,1.0154964923858645,8.700539588928223,-0.02141253836452961,0.013133603,-0.083383106,8
3.7466306686401367,1.015080809593201,8.656459808349611,-0.02278824895620346,0.058337633,-0.054061573,8
3.761606454849243,1.0556823015213013,8.592837333679201,-0.028814557939767838,0.03848451,-0.042455133,8
3.8019227981567374,1.104405641555786,8.53139591217041,-0.034506157040596015,0.0143553335,-0.014966198,8
3.8536608219146733,1.1301522254943848,8.489592552185059,-0.036508895456790924,0.020463986,0.019547688,8
3.9073505401611333,1.1240675449371338,8.489726066589355,-0.031950153410434716,-0.026572637000000003,0.014966198,8
3.9471361637115483,1.1113041639328003,8.503878593444824,-0.025802785530686382,-0.073303826,0.01740966,8
3.9491879940032963,1.0944916009902954,8.55354118347168,-0.025949766859412197,-0.022296581,0.039095376,8
3.9453213214874263,1.0953211784362793,8.619786262512207,-0.031750790774822235,-0.0061086523,0.07238753,8
3.8923549652099614,1.0190645456314087,8.650974273681639,-0.035208504647016525,0.09437868,0.12003502,8
3.806135654449463,0.9414151310920716,8.657169342041017,-0.03691583126783371,0.03604105,0.04734206,8
3.7682719230651855,0.930602490901947,8.64409351348877,-0.03293485566973686,0.053450707,0.03573562,8
3.75921630859375,0.9454248547554016,8.626958847045897,-0.033349674195051186,0.071776666,0.07544186,8
3.743899583816528,0.9483475685119628,8.589839935302733,-0.035801246762275696,0.040927973,0.04734206,8
3.721895933151245,0.9501551389694214,8.629301071166992,-0.0415525808930397,0.036651913,0.05925392700000001,8
3.733799934387207,0.9874128699302672,8.608987808227539,-0.03951975330710411,0.056199603,0.01740966,8
3.748268365859986,1.009750485420227,8.599822044372559,-0.03806417435407639,0.08735373,0.029321533,8
3.8041605949401855,1.0172148942947388,8.624441146850586,-0.04135328531265259,0.064446285,0.05925392700000001,8
3.8413972854614262,1.011203050613403,8.609167098999022,-0.04262954741716385,0.09773844,0.09407325,8
3.813981294631958,0.9677672386169434,8.595939636230469,-0.03810630738735199,0.19394971,0.04886922,8
3.77023196220398,0.9288806915283204,8.58934211730957,-0.03462933376431465,0.31184670000000003,0.13011430000000002,8
3.711932182312012,0.8418837785720825,8.590030670166017,-0.016306132078170776,0.26511553,0.18325958,8
3.675159454345703,0.7156336903572083,8.65345573425293,0.014152031391859056,0.15760323,0.10720685,8
3.615847826004028,0.6317592859268188,8.760663032531737,0.041686005890369415,0.15118915,0.09254608,8
3.5575346946716313,0.5973113179206848,8.865011215209961,0.06234584003686905,0.16676621,0.15668693,8
3.5555906295776367,0.5867711305618286,8.90390682220459,0.09431952983140944,0.14630222,0.16249016,8
3.5205724239349365,0.4620237946510315,8.963825225830078,0.15683481097221375,0.08857546,0.07422013,8
3.4854640960693364,0.3430866003036499,8.971264839172363,0.2344250828027725,-0.015882496,-0.06169739,8
3.4423215389251713,0.3370327651500702,8.902960777282715,0.29656821489334106,0.073303826,-0.12064589,8
3.4546930789947514,0.3179240226745605,8.83581256866455,0.3480110168457031,0.2941316,-0.14599679999999998,8
3.5385930538177486,0.3576694130897522,8.84693717956543,0.4033174216747284,0.18112154,-0.2284636,8
3.6484508514404297,0.6016302704811096,8.905735969543457,0.4638930559158325,0.084910266,-0.1826487,8
3.7138550281524663,0.9442080855369568,8.928631782531738,0.5188291072845459,0.03604105,-0.15577064,8
3.734413146972656,1.3310216665267944,8.913877487182617,0.5758506655693054,-0.004276057,-0.17256944,8
3.7167558670043945,1.6590104103088381,8.842122077941895,0.6312603950500488,0.10873401,-0.16982053,8
3.677756071090698,1.808919668197632,8.74825382232666,0.6660594940185547,0.20250183,-0.20647246,16
3.6467533111572266,1.884850263595581,8.631097793579103,0.6654451489448547,0.3631594,-0.28955013,16
3.706620216369629,1.954720139503479,8.587407112121582,0.6397978663444519,0.41599923,-0.21471913,16
3.734560251235962,2.0452413558959956,8.57783031463623,0.6103165149688721,0.59315014,-0.22082779,16
3.7636117935180655,2.149747133255005,8.577932357788086,0.5864019393920898,0.6426301999999999,-0.10751228,16
3.6763663291931152,2.3263416290283203,8.571828842163086,0.5618041157722473,0.6982189999999999,-0.08827003,16
3.509659767150879,2.52991795539856,8.54209041595459,0.5447453260421753,0.768163,0.039095376,16
3.263453483581543,2.8128182888031006,8.501688003540039,0.5189898014068604,0.7293731,0.10567969,16
2.980508089065552,3.1456279754638667,8.500055313110353,0.4799267053604126,0.5882632,0.22266038,16
2.707961082458496,3.4754114151000977,8.486354827880861,0.4363197982311249,0.45814893,0.20769419,16
2.493970394134521,3.701972484588623,8.425848007202147,0.3842032253742218,0.3576616,0.10781772,16
2.266508817672729,3.8698236942291264,8.306221008300781,0.3251522481441498,0.269697,0.12950343,16
2.0107407569885254,4.0455965995788565,8.214670181274414,0.2454420626163483,0.14660765,0.2012801,16
1.86066734790802,4.170088768005371,8.154348373413086,0.14828531444072726,0.13439035,0.24556783,16
1.81816840171814,4.222444534301759,8.105963706970215,0.03749841079115868,0.16523905,0.29962940000000005,16
1.872929811477661,4.193188667297363,8.11540699005127,-0.07770784199237822,0.1282817,0.37140608,16
1.976009011268616,4.069807529449463,8.137199401855469,-0.18144746124744413,0.1966986,0.40591997,16
2.0506134033203125,3.938706874847412,8.164677619934082,-0.2812952399253845,0.22113322,0.4251622000000001,16
2.052507877349853,3.79638934135437,8.143169403076174,-0.3953123092651367,0.24648413,0.5323690999999999,16
2.046712636947632,3.497858762741089,8.098166465759277,-0.5075956583023071,0.20372356,0.5888741,16
1.995594382286072,3.233049154281616,8.041918754577638,-0.6079398393630981,0.20158553,0.754724,16
1.8938546180725095,2.9901964664459233,8.101841926574707,-0.7012450098991394,0.023518313,0.7415904000000001,16
1.821524739265442,2.8218398094177246,8.312566757202147,-0.7611822485923767,-0.10842858,0.6924158,16
1.82366943359375,2.786869525909424,8.476798057556152,-0.7895888686180115,0.110872045,0.6747006999999999,16
1.782179594039917,2.525991916656494,8.780322074890138,-0.8015037178993225,0.099265605,0.72234815,16
1.842729926109314,2.2343337535858154,8.937716484069824,-0.8193795084953308,0.07849618,0.6273586,16
1.955044388771057,1.847589492797852,9.00122356414795,-0.8098046779632568,-0.08002335,0.5534439,16
2.099105834960937,1.343528151512146,9.063994407653807,-0.7853538393974304,-0.122478485,0.47616947,16
2.243428945541382,1.0361857414245603,9.096820831298828,-0.7484123110771179,-0.18600847,0.18753563,16
2.3536489009857178,0.8974505066871643,9.18311882019043,-0.7056855559349059,-0.076052725,0.23396139,16
2.4333627223968506,0.8908194899559021,9.186605453491213,-0.6353087425231934,-0.06719518,0.12217305,16
2.5199942588806152,0.9070605635643004,9.145772933959961,-0.5591644048690796,-0.15913039999999998,-0.019547688,16
2.6419141292572017,0.9663156867027284,9.10625457763672,-0.4900096952915192,-0.14630222,-0.09987647,16
2.7421858310699463,1.0216603279113772,9.10196018218994,-0.43430256843566895,-0.07452556,-0.14721853,16
2.7626378536224365,1.018992304801941,9.097875595092773,-0.38249871134758,-0.06750060599999999,-0.1863139,16
2.6624038219451904,0.9642127156257628,9.07845973968506,-0.3331803381443024,-0.11362094,-0.20555615,16
2.5157508850097656,0.9187644124031068,9.059564590454102,-0.2863938808441162,-0.20250183,-0.17898351,16
2.38835883140564,0.8934973478317261,9.05463695526123,-0.24541285634040835,-0.25228736,-0.13652839,16
2.300593376159668,0.8796783089637756,9.07140827178955,-0.2203870564699173,-0.28619036,-0.11575896,16
2.247978925704956,0.8297848701477051,9.109579086303713,-0.20547395944595334,-0.26725355,-0.08368854,16
2.20871639251709,0.7680795788764954,9.103367805480957,-0.19327929615974426,-0.24129178,-0.02321288,16
2.177375078201294,0.7195897102355957,9.087499618530273,-0.18573634326457975,-0.30207285,0.063224554,16
2.1287412643432617,0.6611449718475342,9.104918479919434,-0.1730249673128128,-0.37048978,0.12675454,16
2.0804522037506104,0.5957118272781372,9.139625549316406,-0.16367729008197784,-0.39920044,0.14294247,16
2.084545612335205,0.5588291883468628,9.191839218139648,-0.16976237297058105,-0.47586402,0.13347405,16
2.0872998237609863,0.5118921399116516,9.329024314880373,-0.1831582337617874,-0.6545420999999999,0.10415252,16
2.106284141540528,0.4510505199432373,9.39889907836914,-0.2008265256881714,-0.8038987,0.11484267,16
2.12952208518982,0.26267147064208984,9.441434860229492,-0.22424371540546414,-1.0180069,0.08735373,16
2.1381936073303223,-0.008730089291930199,9.495556831359863,-0.2322859019041061,-1.3011429,0.08796459400000001,16
2.2110207080841064,-0.2473219484090805,9.568851470947266,-0.20475871860980988,-1.2944235,0.024129177,16
2.4361226558685303,-0.4104606509208679,9.597437858581543,-0.16087110340595245,-1.1887437,-0.05681047,16
2.7731950283050537,-0.4938300251960754,9.527174949645996,-0.10746657848358154,-1.2373075,-0.16554448,16
3.1461696624755864,-0.5001843571662903,9.382193565368652,-0.04739244282245636,-1.3805555,-0.129198,16
3.512295246124268,-0.38086479902267456,9.176980018615724,0.02681676298379898,-1.4049901000000002,0.02076942,16
3.882052183151245,-0.20992383360862726,8.967170715332031,0.11951129138469695,-1.4340062,0.26358834,16
4.1946868896484375,-0.08596598356962204,8.702410697937013,0.21932658553123474,-1.1542298999999998,0.51159966,16
4.412574768066406,-0.006076539400964975,8.419003486633299,0.3192387819290161,-0.97585726,0.7883216,16
4.546642780303955,0.04516775533556938,8.215643882751465,0.4167695045471192,-1.2055426,0.8597928,16
4.6743998527526855,0.08136860281229019,8.077341079711914,0.5184680819511414,-1.3481796,0.96669424,16
4.790268898010254,0.15178759396076202,7.91240119934082,0.6274319291114807,-1.251052,1.0742066,16
4.9573283195495605,0.15774734318256378,7.762448310852051,0.7267402410507202,-1.1410962,1.2644911,16
5.129710674285889,0.04849186912178993,7.647113800048827,0.8103062510490417,-1.1945469,1.4239268,16
5.322868347167969,-0.08480224013328552,7.540235996246338,0.8592113256454468,-1.2666291,1.4660766,16
5.543481826782227,-0.06804915517568587,7.360913276672362,0.8558402061462402,-1.1985176000000002,1.4984524,16
5.829566955566406,-0.007817747071385384,7.188721179962157,0.8229842185974121,-1.0555751,1.6026049999999998,16
6.093039989471436,-0.0605209730565548,7.10582160949707,0.7873126268386841,-0.9407325,1.7760907,16
6.243999004364014,-0.21357113122940066,6.982974052429199,0.7687662243843079,-0.9108001,1.7479908,16
6.432191371917725,-0.2692818939685821,6.72031831741333,0.7397939562797546,-0.6441574000000001,1.7531831999999998,16
6.794142246246338,-0.001772621879354119,6.364201545715332,0.6632571816444397,-0.3811799,1.7745636000000002,16
7.298537254333496,0.3733266592025757,6.113449096679688,0.5781014561653137,-0.29077184,1.5296066,16
7.7966651916503915,0.4219920039176941,5.9804935455322275,0.5315347909927368,-0.024129177,1.2229522,16
8.076080322265625,0.21187959611415866,5.799307346343994,0.4686362147331238,0.10293079,1.0201449,16
8.17779541015625,-0.007726399693638086,5.6738762855529785,0.3181460797786713,0.11178834,0.8668178,16
8.176648139953612,-0.2324535250663757,5.649760246276856,0.16421502828598022,0.17654006,0.6817255999999999,16
7.992007732391357,-0.5207237601280212,5.707246780395508,0.08027052134275436,0.124311075,0.66675943,16
7.705599308013916,-0.8904703855514526,5.72325611114502,0.046950221061706536,0.12186762,0.7367035,16
7.459214687347412,-1.1535118818283079,5.862011432647705,0.045251943171024316,0.0027488936,0.7837400999999999,16
7.323721885681152,-1.282872438430786,6.125202178955077,0.029444517567753795,-0.05772676700000001,0.8594874,16
7.226109504699707,-1.3984702825546265,6.358859539031982,-0.024916687980294228,-0.06597344599999999,0.999681,16
7.169711589813232,-1.5413222312927246,6.482787609100343,-0.10455061495304108,-0.17837265,1.0998629,16
7.183229923248291,-1.6928815841674805,6.478256702423097,-0.18303196132183075,-0.33475417,1.14018,16
7.202693462371826,-1.7357752323150637,6.373910903930664,-0.2489430755376816,-0.37598756,1.2257011,16
7.208622455596924,-1.6404290199279783,6.228768348693848,-0.29700323939323425,-0.44073927,1.2733486,16
7.1810622215271,-1.4993177652359009,6.091835021972656,-0.3200927674770355,-0.5839871999999999,1.312444,16
7.187118053436278,-1.3964202404022217,6.01928186416626,-0.3159843385219574,-0.68233645,1.273654,16
7.366102695465088,-1.390810251235962,6.078469753265381,-0.27865514159202576,-0.8738427,1.2302825000000002,16
7.651216506958008,-1.665984272956848,6.335512638092041,-0.22222639620304108,-1.1475104,0.8872818000000001,16
8.046463012695312,-1.9155422449111936,6.6865601539611825,-0.1309886872768402,-1.1826351000000002,0.5488624,16
8.341265678405763,-1.8917912244796755,6.802002429962157,-0.14838339388370514,-0.48502702,0.98349303,16
8.588973999023438,-2.1948897838592534,6.869547367095947,-0.2179945558309555,-0.20891592,0.91507614,16
8.913375854492188,-2.4987921714782715,6.945525169372559,-0.2592960596084595,0.18509217,0.8078693,16
8.92600154876709,-2.823647737503052,6.931819438934326,-0.2919895052909851,0.49632803,0.88270026,16
8.588189125061035,-3.1251516342163086,6.880156993865968,-0.31985577940940857,0.7293731,0.8744536,16
8.039510726928711,-3.360224723815918,6.820912837982178,-0.363697350025177,0.36651915,0.86590147,16
7.4888973236083975,-3.560261011123657,6.698989868164063,-0.3950574696063995,-0.058643065,0.8029824000000001,16
7.141961097717285,-3.773370027542114,6.5504093170166025,-0.41453006863594055,-0.076052725,0.7180721,16
6.966105937957764,-3.9831933975219727,6.362370491027832,-0.4442033171653748,-0.0018325958,0.6444628000000001,16
6.903144836425781,-4.136064052581787,6.230183124542236,-0.4998825490474701,0.03268129,0.65393126,16
6.866176128387451,-4.220810413360597,6.16552209854126,-0.5892583131790161,0.09315695,0.68386364,16
6.751955986022949,-4.2948036193847665,6.118052959442139,-0.6799587607383728,-0.006414085,0.7357872,16
6.516275405883789,-4.421680927276611,6.022190570831299,-0.7564126253128052,-0.19120082,0.7651087,16
6.224477291107178,-4.624533176422119,5.8142147064208975,-0.8226332068443298,-0.39553526,0.73456544,16
5.958707809448242,-4.922209739685059,5.532203674316406,-0.8673446774482727,-0.4877759,0.700357,16
5.804126262664795,-5.234453678131104,5.231645584106445,-0.8774849176406859,-0.6160576,0.75869465,16
5.687830924987793,-5.5571022033691415,4.944365978240967,-0.8626759648323059,-0.8017605999999999,0.8072583999999999,16
5.48859167098999,-5.876396656036378,4.683237552642822,-0.8478041887283325,-1.0543534,0.80970186,16
5.259532451629639,-6.118281841278076,4.4585843086242685,-0.8420808911323547,-1.3319917,0.79351395,16
5.013519287109375,-6.263477802276611,4.205987453460693,-0.8344337344169617,-1.6368134,0.8454375,16
4.724379062652588,-6.365324020385742,3.8361504077911377,-0.8179698586463928,-1.8078557,0.86651236,16
4.447605609893799,-6.4664244651794425,3.3357903957366943,-0.7799760699272156,-1.8194622,0.90285885,16
4.327538967132568,-6.602071285247803,2.758816719055176,-0.7101854085922241,-1.6997325,0.86498517,16
4.4047579765319815,-6.666557788848878,2.285186290740967,-0.6297255754470825,-1.8044959,0.90041536,16
4.512595653533936,-6.607287883758545,1.900676965713501,-0.5644277930259705,-1.8414533,0.9147707,16
4.582286357879639,-6.4973697662353525,1.5209423303604126,-0.4920054376125336,-1.6019941999999998,0.98807454,16
4.60675859451294,-6.491138458251952,1.182451844215393,-0.3916454017162323,-1.366811,1.0571023000000002,16
4.6726579666137695,-6.66684627532959,0.875779390335083,-0.2513207495212555,-1.1921035,1.1459832,16
4.759370803833008,-7.0611772537231445,0.5585634708404541,-0.10917667299509047,-0.86345804,1.0421360999999998,16
4.8159141540527335,-7.507773399353027,0.2704381048679352,0.0369548499584198,-0.23884831,0.9071349,16
4.91269063949585,-7.854861736297607,0.10606095939874648,0.14732830226421356,0.28008172,0.7761043000000001,16
5.018147468566895,-8.12489128112793,0.17819476127624512,0.1886584460735321,0.28344148,0.54092115,16
5.01478910446167,-8.356090545654299,0.4955044090747833,0.18730896711349487,-0.04886922,0.42088616,16
4.706979274749756,-8.670383453369139,0.8907076716423035,0.203313022851944,-0.3979787,0.31520647,16
4.230896949768066,-9.059566497802734,1.1226743459701538,0.2368644922971725,-0.5910121,0.29016098,16
3.79154372215271,-9.468156814575195,1.3074573278427124,0.2725345194339752,-0.782213,0.25595254,16
3.657833814620972,-9.779632568359377,1.5731548070907593,0.3140827119350433,-1.2104294,0.23609942,16
3.914241075515747,-9.833056449890137,1.6718393564224243,0.3429166674613953,-0.9053023,0.17195857,16
4.253163814544679,-9.559449195861816,1.552925705909729,0.3002005815505981,-0.4288274,0.26083946,16
4.556341171264648,-9.118444442749023,1.3528984785079956,0.18143483996391296,0.01740966,0.29779682,16
4.816784381866455,-8.646810531616211,1.1699838638305664,0.014014511369168758,0.24007004,0.21288654,16
4.979349613189697,-8.19357967376709,1.10027277469635,-0.16882966458797455,0.13347405,0.12461651,16
5.001038551330566,-7.8407111167907715,1.1068795919418335,-0.3491168916225433,-0.19181168,0.08155051,16
4.895672798156738,-7.6015472412109375,1.1180557012557983,-0.4856571555137634,-0.23579398,0.17318029999999998,16
4.711679458618164,-7.441051959991455,1.159906029701233,-0.5644599199295044,-0.35033122,0.37018433,16
4.498085975646973,-7.437777996063232,1.2169471979141235,-0.5738083720207214,-0.35369098,0.54550266,16
4.318352699279785,-7.659613609313965,1.0907148122787476,-0.4877945184707642,-0.37293324,0.68844515,16
4.155057907104491,-7.9380736351013175,0.9723396301269532,-0.3618071675300598,-0.6612616,0.7699956,16
3.8380303382873535,-8.145325660705566,0.86683589220047,-0.22370745241642,-0.95478237,0.893085,16
3.5315301418304443,-8.291659355163574,0.7723563313484192,-0.05697198957204819,-1.0534371,1.3069462,16
3.3721165657043457,-8.642481803894043,0.5527999997138977,0.13249127566814425,-0.65087694,1.2443326,16
3.35532808303833,-9.071975708007812,0.5200199484825134,0.23911400139331815,-1.010982,0.88453287,16
3.3440637588500977,-9.36312484741211,0.4171296060085297,0.19837985932827,-1.1215485,0.23548855,16
3.4473083019256587,-9.33749771118164,0.2325548827648163,0.04116429388523102,-0.8943066999999999,-0.04337143,16
3.6557097434997563,-9.24210262298584,-0.14616358280181885,-0.20854736864566806,-0.34819320000000004,-0.31612277,16
3.769299030303955,-9.162817001342773,-0.6786638498306274,-0.4573568105697632,0.021380283,-0.5381723,16
3.7397537231445312,-9.070513725280762,-1.3497490882873535,-0.6802529096603394,0.52198434,-0.3136793,16
3.6773838996887207,-8.975488662719727,-1.8982563018798828,-0.8550173044204712,0.37140608,0.17440203,16
3.6153686046600337,-8.80353832244873,-2.080529928207397,-0.8979524970054626,0.12461651,0.7538077,16
3.466226816177368,-8.627037048339844,-1.911628007888794,-0.7746142148971558,0.3567453,1.2770138,16
3.325817584991455,-8.609277725219728,-1.64579176902771,-0.5777137875556946,0.7305948,1.5250251,16
3.212865114212036,-8.686477661132812,-1.3237985372543335,-0.4069899022579193,0.6377433000000001,1.4996742,16
3.1103441715240483,-8.82000732421875,-1.0267196893692017,-0.3060612678527832,-0.06261369,0.9957104,16
2.864288330078125,-8.925086975097656,-0.9086326360702516,-0.2106894254684448,-0.30757064,0.16462818,16
2.561014175415039,-9.109789848327637,-0.8526741862297058,-0.11954185366630556,0.40133846,-0.083383106,16
2.5362436771392822,-9.706457138061523,-0.6336304545402527,-0.1147313192486763,0.61086524,0.013133603,16
2.573906898498535,-10.306713104248047,-0.4105690121650696,-0.2348923981189728,0.3866777,-0.09712757,16
2.437359571456909,-10.445274353027344,-0.3818122148513794,-0.4130512773990631,0.15088372,-0.06841691,16
2.2727949619293213,-10.297481536865234,-0.7479718327522278,-0.5156135559082031,0.08521569999999999,0.17134771,1
2.212255477905273,-10.099298477172852,-1.0542025566101074,-0.37967780232429504,-0.3213151,0.51068336,1
2.1680264472961426,-9.992353439331056,-0.9483282566070556,-0.0754435807466507,-0.35185838,0.65148777,1
2.0277245044708248,-9.9033203125,-0.6869450211524963,0.2498438060283661,-0.28130344,0.6075055,1
1.8621957302093504,-9.840275764465332,-0.4596822559833527,0.4799122512340546,-0.1423316,0.25686884,1
1.6977696418762207,-9.765769958496094,-0.2586391270160675,0.5719833374023438,-0.1872302,-0.2321288,1
1.6049529314041138,-9.662405967712402,-0.09090805053710938,0.5627092123031616,-0.1872302,-0.408058,1
1.6097437143325806,-9.592613220214844,0.057831693440675735,0.5069695115089417,-0.204029,-0.49113566,1
1.6846075057983398,-9.57623291015625,0.19629915058612826,0.4698448777198792,-0.3100141,-0.46517387,1
1.7950117588043213,-9.597243309020996,0.2875178754329681,0.5062644481658936,-0.37415496,-0.37965274,1
1.868428349494934,-9.637288093566896,0.3039452135562897,0.5987846255302429,-0.30879238,-0.26725355,1
1.8901900053024288,-9.660049438476562,0.3167596459388733,0.6879205107688904,-0.19547687,-0.18997909,1
1.892007827758789,-9.664447784423828,0.4420998394489288,0.7355579733848572,-0.112399206,-0.17256944,1
1.8880804777145384,-9.681840896606444,0.6801913976669312,0.7338379025459291,-0.048258353,-0.2415972,1
1.8993855714797971,-9.70147705078125,0.9339589476585388,0.7084141969680786,0.05497787,-0.28038713,1
1.8994711637496948,-9.660223960876463,1.1568957567214966,0.6630444526672363,0.14599679999999998,-0.29993483,1
1.8712443113327024,-9.532445907592773,1.3187400102615356,0.5940554141998291,0.12705997,-0.2611449,1
1.8487566709518437,-9.373075485229492,1.3794597387313845,0.510058581829071,0.14355333,-0.19181168,1
1.8528473377227783,-9.201006889343262,1.38884699344635,0.41020992398262013,0.14569137,-0.07666359,1
1.8741276264190676,-9.001770973205566,1.3598848581314087,0.2912313044071197,0.16279559,0.032375857,1
1.90438449382782,-8.817133903503418,1.2983057498931885,0.1761942207813263,0.14844026,0.16065755,1
1.8967188596725464,-8.77553653717041,1.2244051694869995,0.1158078834414482,0.035430185,0.22968534,1
1.8664921522140503,-8.880828857421875,1.282963752746582,0.05755357816815376,-0.011911872,0.29840767,1
1.7524675130844116,-9.124987602233887,1.3930875062942505,-0.01831460557878017,0.013133603,0.28985557,1
1.6631288528442385,-9.386155128479004,1.4609419107437134,-0.0793953686952591,-0.008246681,0.21044308,1
1.7075923681259155,-9.49679470062256,1.4747676849365234,-0.10683201253414154,-0.16401732,0.052534413,1
1.9001624584198,-9.43821907043457,1.4353483915328982,-0.1149463951587677,-0.28496864,0.054061573,1
2.058208703994751,-9.319306373596193,1.3753905296325684,-0.12539397180080414,-0.4465425,0.05772676700000001,1
2.1166539192199707,-9.202677726745604,1.2913765907287598,-0.14616209268569946,-0.39920044,0.04153884,1
2.134045362472534,-9.103248596191406,1.191217064857483,-0.1773431897163391,-0.25503623,0.08521569999999999,1
2.133943796157837,-9.055204391479492,1.1164382696151731,-0.20811647176742554,-0.09010262,0.10629055,1
2.149111032485962,-9.074155807495117,1.1213334798812866,-0.2306761294603348,-0.09315695,0.10293079,1
2.2026958465576167,-9.129239082336426,1.1483192443847656,-0.24054360389709475,-0.22540927,0.040927973,1
2.288503885269165,-9.201998710632324,1.1139611005783079,-0.2504616379737854,-0.22021692,0.043982297,1
2.3498902320861816,-9.301934242248537,1.0178260803222656,-0.266923189163208,-0.105068825,0.060170225999999986,1
2.3711917400360107,-9.398921966552734,0.9447631239891052,-0.27606093883514404,-0.07086037,0.05589417,1
2.3623080253601074,-9.450346946716307,0.9131391644477844,-0.2740058302879333,-0.1001819,0.058337633,1
2.3308162689208984,-9.466190338134766,0.8777970671653748,-0.25753071904182434,-0.15210545,0.048563786,1
2.301983594894409,-9.467013359069824,0.8166665434837341,-0.2363006323575973,-0.17684549,0.04062254,1
2.280581474304199,-9.46390438079834,0.7290615439414978,-0.21913014352321625,-0.12644911,0.03268129,1
2.294111728668213,-9.456921577453613,0.6485573053359985,-0.20289915800094604,-0.0888809,0.03023783,1
2.327305555343628,-9.450591087341307,0.5929323434829712,-0.1850988119840622,-0.07941248,0.01985312,1
2.351588487625122,-9.440082550048828,0.5720716118812561,-0.16681256890296936,-0.07513642,-0.022602014,1
2.36748480796814,-9.436501502990724,0.5508802533149719,-0.14876346290111542,-0.05222898,-0.048258353,1
2.374175548553467,-9.43417263031006,0.5133483409881592,-0.1342231035232544,-0.038789943,-0.05925392700000001,1
2.367286205291748,-9.43213939666748,0.4586259126663208,-0.12359021604061128,-0.033292156,-0.047647487,1
2.3587172031402592,-9.431131362915039,0.41361159086227417,-0.11321447044610974,-0.058337633,-0.04062254,1
2.3498189449310303,-9.436982154846193,0.3853764832019806,-0.10479477792978288,-0.059864793,-0.025045475,1
2.3501207828521733,-9.430875778198242,0.3636348843574524,-0.10082251578569412,-0.07452556,-0.010995574,1
2.3566129207611084,-9.416181564331056,0.3317883610725403,-0.0990244597196579,-0.06414085,0.007330383,1
2.3566315174102783,-9.409017562866213,0.3040248155593872,-0.10182885825634004,-0.0571159,0.005497787,1
2.35619592666626,-9.398618698120117,0.27703970670700073,-0.10789430141448976,-0.043676864,0.011911872,1
2.3486220836639404,-9.384276390075684,0.25175687670707697,-0.11618252098560332,-0.028405234,0.01863139,1
2.342125415802002,-9.38248062133789,0.2281972020864487,-0.121372289955616,-0.04795292,0.014966198,1
2.342555284500122,-9.393948554992676,0.2074396163225174,-0.12421943247318268,-0.032375857,0.0070249503,1
2.345875024795532,-9.400270462036133,0.18596422672271729,-0.1262790411710739,-0.035124752999999995,0.003970624,1
2.345829486846924,-9.408823013305664,0.16926150023937225,-0.12468303740024568,-0.03573562,-0.005192355,1
2.3465025424957275,-9.417540550231934,0.15228506922721866,-0.11978063732385635,-0.03604105,-0.002443461,1
2.3474605083465576,-9.426982879638672,0.13440755009651184,-0.11667381227016448,-0.021991149,0.00061086525,1
2.341639995574951,-9.431994438171387,0.12176323682069777,-0.11224784702062607,-0.032070424,-0.0036651916,1
2.3302381038665767,-9.430440902709961,0.11081921309232713,-0.10624945163726808,-0.07849618,-0.0033597588,1
2.329777240753174,-9.428220748901367,0.09380007535219193,-0.09837792813777924,-0.0421497,-0.011911872,1
2.3418962955474854,-9.43101978302002,0.08404523879289627,-0.09287429600954056,-0.027488936,-0.020158553,1
2.3612875938415527,-9.43346881866455,0.06704746931791307,-0.08740399032831192,-0.027488936,-0.02443461,1
