acc_x,acc_y,acc_z,gyro_x,gyro_y,gyro_z,label
0.0,0.0,0.0,0.0,0.026267206,0.016493361,8
0.20584118366241452,-0.029490128159523014,0.1930127888917923,-0.0012151722330600025,0.02565634,0.017715093,8
0.6966208815574646,-0.09994707256555556,0.6552234292030334,-0.004256970714777708,0.01740966,0.009773844,8
1.3757435083389282,-0.1976735144853592,1.298030138015747,-0.007661227136850356,0.0125227375,0.009468411,8
2.136193037033081,-0.30739617347717285,2.021901845932007,-0.011601116508245468,0.014660766,0.01740966,8
2.8918437957763667,-0.4167627990245819,2.7458949089050293,-0.015760364010930058,0.0061086523,0.011301007,8
3.5885603427886963,-0.5179692506790161,3.4185731410980225,-0.01834740675985813,0.004581489,0.010690141499999998,8
4.200545787811278,-0.6072611808776855,4.014932155609132,-0.021300958469510082,0.018325957,0.015271631,8
4.721368312835693,-0.6836525797843933,4.528040409088135,-0.02391858771443367,0.006414085,0.015271631,8
5.1555256843566895,-0.7477471828460693,4.961550235748291,-0.024850182235240936,0.0027488936,0.013439035,8
5.5130653381347665,-0.8007423281669617,5.322203636169434,-0.02596232108771801,0.00030543262000000003,0.015271631,8
5.806454658508301,-0.8438301086425781,5.615351676940918,-0.026300260797142986,0.007330383,0.011301007,8
6.0462141036987305,-0.8786138892173767,5.851783275604247,-0.02665054425597191,-0.0033597588,0.013439035,8
6.241766929626465,-0.9065536856651306,6.041471004486084,-0.02656220830976963,0.0018325958,0.018020526,8
6.40121603012085,-0.928904950618744,6.1929893493652335,-0.0276691559702158,0.016187929,0.01740966,8
6.531329154968263,-0.9467223286628724,6.313545227050781,-0.02707497961819172,0.009162978,0.013744468,8
6.63772439956665,-0.9608720541000366,6.409052848815918,-0.027529168874025345,0.0076358155,0.021991149,8
6.7249794006347665,-0.9720631837844848,6.484354496002197,-0.02998792752623558,0.00580322,0.02321288,8
6.796814918518066,-0.9808711409568788,6.543381214141847,-0.030853692442178726,0.017104227,0.022907447,8
6.856233596801758,-0.9877621531486512,6.5893187522888175,-0.02981741540133953,-0.005192355,0.008552114,8
6.906157970428468,-0.9936208128929138,6.6231303215026855,-0.029584383592009544,-0.0061086523,0.011301007,8
6.9499449729919425,-1.0002071857452393,6.642313003540039,-0.029003061354160312,-0.008857545999999999,0.014660766,8
6.988892078399657,-1.0074775218963623,6.649430274963379,-0.02669488824903965,0.0018325958,0.018936822,8
7.023947238922119,-1.0152959823608398,6.646859645843506,-0.02464916743338108,0.0143553335,0.015577064,8
7.055878639221191,-1.023556351661682,6.6364989280700675,-0.025863487273454663,0.013744468,0.004276057,8
7.085299015045166,-1.0321712493896484,6.619881629943848,-0.031092161312699318,0.032986723,0.0070249503,8
7.112712860107423,-1.04107666015625,6.598214626312256,-0.041765298694372184,0.039095376,-0.0033597588,8
7.138527870178223,-1.050221562385559,6.572464942932129,-0.05107060819864273,0.03573562,0.0021380284,8
7.1630072593688965,-1.0595325231552124,6.5435471534729,-0.057080380618572235,0.043066,-0.0018325958,8
7.186446189880371,-1.0689938068389893,6.512012481689452,-0.06231918185949325,0.027488936,-0.0033597588,8
7.209056854248048,-1.078580021858215,6.478358268737793,-0.062856025993824,0.016187929,-0.0009162979,8
7.230974674224853,-1.0882513523101809,6.443065166473389,-0.06358923763036728,-0.009162978,-0.01038471,8
7.25234842300415,-1.0979982614517212,6.406425476074219,-0.06953771412372589,-0.04520403,-0.009773844,8
7.27328634262085,-1.1078063249588013,6.368701457977295,-0.07494824379682541,-0.011911872,0.00580322,8
7.293891906738281,-1.1176730394363403,6.330068111419678,-0.07145122438669205,0.11942416,0.004581489,8
7.314190864562987,-1.1275659799575806,6.290791034698486,-0.06271957606077194,0.08857546,-0.036651913,8
7.334269046783447,-1.13749361038208,6.250940799713135,-0.049640249460935586,-0.10140363,-0.040317107000000005,8
7.354166030883789,-1.1474466323852541,6.210638999938965,-0.02972904779016972,-0.07452556,0.027488936,8
7.373916625976562,-1.1574196815490725,6.1699767112731925,-0.00604047579690814,0.06352998,0.086132,8
7.393558025360107,-1.1674134731292725,6.129004955291747,0.02634387277066708,0.19333886,0.13011430000000002,8
7.407820224761963,-1.1745728254318235,6.095420837402344,0.058541830629110336,0.23823744,0.12858713,8
7.402212142944336,-1.1710776090621948,6.090156555175781,0.07777285575866699,0.34788775,0.056505036,8
7.3796000480651855,-1.1584621667861938,6.109127521514893,0.09157850593328476,0.32284227,0.13011430000000002,8
7.343242645263673,-1.1384735107421875,6.147676467895508,0.11145377159118652,0.31245756,0.1957823,8
7.29611873626709,-1.1127110719680786,6.201601028442383,0.13074614107608795,0.3032946,0.22632557,8
7.240253448486327,-1.082260012626648,6.267995357513428,0.15454043447971344,0.3109304,0.21074851,8
7.1773109436035165,-1.0480130910873413,6.34447717666626,0.17366087436676025,0.4251622000000001,0.23548855,8
7.1085734367370605,-1.0106574296951294,6.429202556610107,0.18854095041751864,0.4810564000000001,0.25503623,8
7.035465717315674,-0.970958948135376,6.520184516906737,0.20192234218120572,0.44501534,0.27702740000000003,8
6.9587016105651855,-0.9292988777160645,6.61638069152832,0.2175954431295395,0.44409904,0.27397305,8
6.881867408752441,-0.8859923481941223,6.713482856750487,0.2241820693016052,0.36774087,0.28008172,8
6.8142337799072275,-0.8412226438522339,6.8006954193115225,0.2284547984600067,0.23823744,0.2959642,8
6.75465202331543,-0.7953154444694519,6.879194736480713,0.2407024055719376,0.19914207,0.269697,8
6.701521873474121,-0.7484647035598755,6.9507203102111825,0.2452673614025116,0.08857546,0.24037547,8
6.6535587310791025,-0.7008265852928162,7.0166683197021475,0.24520084261894226,-0.04642576,0.19792034,8
6.609785079956055,-0.6526293754577637,7.078074455261231,0.2454550713300705,-0.10415252,0.124005646,8
6.569355487823486,-0.6039440631866455,7.135865211486816,0.2374474108219147,-0.16279559,0.047647487,8
6.531612873077393,-0.5548677444458008,7.190751075744629,0.21945101022720334,-0.20280726,-0.0021380284,8
6.496032238006593,-0.5054838657379149,7.243298053741455,0.19169676303863525,-0.14019357,-0.03023783,8
6.462128639221191,-0.4557390213012695,7.294062614440918,0.15108686685562134,-0.04184427,-0.0571159,8
6.433273315429688,-0.4104768335819245,7.33873701095581,0.10674890875816344,0.0061086523,-0.08521569999999999,8
6.420646667480469,-0.3842443525791168,7.363352298736572,0.06564757227897644,-0.006414085,-0.11178834,8
6.421921253204347,-0.37440261244773865,7.370771884918213,0.019789109006524086,0.009162978,-0.1151481,8
6.434476375579834,-0.3778387606143952,7.364255905151367,-0.03563738614320755,0.023823744,-0.10415252,8
6.455893516540527,-0.39174538850784296,7.346760272979736,-0.08932977169752121,0.087659165,-0.10476339,8
6.484504699707031,-0.4141364097595215,7.320364475250244,-0.1346668004989624,0.15577064,-0.09743301,8
6.519007682800293,-0.44345438480377203,7.286696434020996,-0.16919419169425964,0.26328292,-0.09896017,8
6.558054447174072,-0.4781506359577179,7.247391223907472,-0.20420542359352112,0.29932398,-0.08704830000000001,8
6.600847244262695,-0.5172614455223083,7.2034544944763175,-0.24036090075969696,0.3100141,-0.06383542,8
6.64665412902832,-0.5599229335784912,7.155792236328125,-0.26601460576057434,0.43768495,-0.035124752999999995,8
6.690085411071777,-0.5999845266342163,7.116305828094482,-0.276686429977417,0.47800204,-0.01863139,8
6.725780487060548,-0.6708643436431885,7.128824710845947,-0.2806653082370758,0.44929138,-0.04734206,8
6.8061370849609375,-0.8354378342628479,7.15871000289917,-0.2742828130722046,0.43799037,-0.08063421400000001,8
6.821345806121826,-0.9958446621894836,7.198909282684326,-0.2448337823152542,0.6401868000000001,-0.07544186,8
6.788439750671388,-1.0337568521499634,7.288831233978271,-0.1920709609985352,0.5305365,-0.020463986,16
6.778094291687013,-0.9784800410270692,7.2809200286865225,-0.14536911249160767,0.5870415,0.05467244,16
6.8103532791137695,-0.9486158490180968,7.1317996978759775,-0.11453846096992493,0.8885035,0.06078109,16
6.823887825012207,-1.0544782876968384,7.025613784790039,-0.111326701939106,0.956615,-0.0076358155,16
6.723845958709718,-1.204327940940857,7.047904014587402,-0.1189354807138443,0.9761627,-0.04520403,16
6.522517204284668,-1.3228827714920044,7.154074668884277,-0.10142520815134047,0.88056225,-0.00580322,16
6.241020202636719,-1.378915309906006,7.348159313201903,-0.056792788207530975,0.7657196,0.04795292,16
5.895026206970215,-1.3692867755889893,7.606081008911133,0.0020247353240847588,0.70371675,0.04337143,16
5.591648578643799,-1.3367935419082642,7.749079704284668,0.051261793822050095,0.7699956,0.022602014,16
5.440221786499023,-1.2947983741760254,7.798198223114014,0.08833437412977219,0.79290307,-0.040011674,16
5.35406494140625,-1.243077516555786,7.7886552810668945,0.10715192556381226,0.8949176,-0.108123146,16
5.259680271148682,-1.1560767889022827,7.844299793243407,0.12443839758634567,0.9819659,-0.1133155,16
5.187848091125488,-1.0862390995025637,8.006645202636719,0.13704775273799896,0.96669424,-0.12675454,16
5.108977794647217,-1.1239328384399414,8.179190635681152,0.1508861780166626,0.86070913,-0.17654006,16
4.916284561157227,-1.198338508605957,8.285732269287111,0.16102571785449982,0.64660084,-0.23090707,16
4.589940547943115,-1.2522244453430176,8.409889221191406,0.16754931211471558,0.5207626000000001,-0.2864958,16
4.22432279586792,-1.1787030696868896,8.554814338684082,0.17056456208229065,0.57818395,-0.40286562,16
3.972116708755493,-1.0186116695404053,8.655440330505371,0.15639057755470276,0.54367006,-0.48441613,16
3.860182523727417,-0.8388524055480957,8.674783706665039,0.13707420229911804,0.589485,-0.46883908,16
3.8825416564941406,-0.6744366884231567,8.760396957397461,0.12680235505104065,0.8032878000000001,-0.47861293,16
4.0126662254333505,-0.6404561996459961,8.916789054870605,0.12607963383197784,0.8029824000000001,-0.5018258,16
4.151404857635498,-0.7839003205299377,9.078516006469727,0.15688633918762207,0.7492262,-0.47586402,16
4.2269067764282235,-0.8842726945877075,9.195429801940918,0.22175493836402893,0.5626069,-0.2678644,16
4.319623947143556,-1.150091290473938,9.314380645751953,0.32874226570129395,0.3268129,-0.10445796,16
4.482480049133301,-1.5326074361801147,9.41266918182373,0.4832998812198639,0.3222314000000001,-0.03940081,16
4.678358554840088,-1.8040726184844968,9.47555446624756,0.6477328538894653,0.3408628,-0.0125227375,16
4.714963912963867,-1.7688878774642944,9.444424629211426,0.8171301484107971,0.28527406,0.15577064,16
4.663923740386963,-1.4646742343902588,9.408597946166992,0.9994527101516724,0.24281894,0.32711834,16
4.658656120300293,-1.086491346359253,9.306628227233887,1.185089111328125,0.23609942,0.44929138,16
4.664719104766847,-0.7672933340072632,9.131117820739746,1.3874900341033936,0.06261369,0.50335294,16
4.648857593536377,-0.3516954481601715,8.810293197631836,1.5936564207077026,0.46883908,0.6337727,16
4.587599277496338,0.10885626822710036,8.50508975982666,1.802340030670166,0.6377433000000001,0.6469063,16
4.618956565856934,0.705133318901062,8.370888710021973,1.9974287748336792,0.09437868,0.5021312,16
4.454516887664795,1.4572968482971191,8.250322341918945,2.145135402679444,0.15485434,0.33078352,16
3.957341432571411,2.245671033859253,8.060648918151855,2.2358551025390625,0.29932398,0.08124508,16
3.3083598613739014,2.9942748546600337,7.957057476043701,2.2578134536743164,0.38087448,-0.116980694,16
2.8428938388824463,3.639480352401733,7.992916584014893,2.232917308807373,0.4343252,-0.21991149,16
2.674823045730591,4.248567581176759,7.953547477722168,2.1916947364807133,0.6569856,-0.28588495,16
2.660700559616089,4.886177062988281,7.8159117698669425,2.1388804912567143,0.8713993,-0.3032946,16
2.620975971221924,5.4640421867370605,7.580306053161621,2.0687227249145512,1.1545353,-0.3109304,16
2.502511739730835,5.822949409484862,7.435361862182617,1.9788392782211304,1.1142181999999998,-0.38637227,16
2.3511197566986084,5.989366054534912,7.314673900604247,1.8854632377624512,1.1496483999999998,-0.4166101,16
2.1608455181121826,6.045731067657472,7.187043190002441,1.8162516355514529,1.1667526,-0.44532076,16
1.9023306369781492,6.1423702239990225,7.051931381225586,1.7704626321792605,1.1139128,-0.5112942,16
1.6334308385849,6.334914207458496,6.855398654937744,1.7441326379776,1.0699303999999998,-0.56046885,16
1.448710322380066,6.605144023895264,6.75010871887207,1.728067398071289,0.83016586,-0.5516113,16
1.2818297147750854,6.893567085266112,6.619687557220459,1.7035696506500244,0.9370673,-0.65026605,16
1.11907696723938,7.184868335723878,6.4543395042419425,1.6777352094650269,1.0002918,-0.7703011,16
0.927782952785492,7.4290099143981925,6.143387794494629,1.652658224105835,1.1175779,-0.95569867,16
0.70494145154953,7.70460033416748,5.856058120727539,1.6032876968383791,1.29198,-1.1026118,16
0.594433605670929,8.082160949707031,5.655935764312744,1.5442228317260742,1.3967434,-1.1026118,16
0.6813532710075378,8.50583553314209,5.689515113830566,1.4742553234100342,1.1264355,-1.0442741,16
0.8028905987739563,8.77385139465332,5.705772876739503,1.404174566268921,1.0793989,-0.79229224,16
1.0785889625549316,8.8986234664917,5.7395896911621085,1.3195725679397583,0.91782504,-0.4373795,16
1.2882981300354004,8.884803771972656,5.7582764625549325,1.2192835807800293,0.52839845,-0.1966986,16
1.377165913581848,8.930379867553711,5.587023735046387,1.1097419261932373,0.6133086999999999,0.018936822,16
1.3770679235458374,8.939303398132324,5.335434436798097,0.971866250038147,0.7516696999999999,0.3210097,16
1.294505000114441,8.868789672851562,5.136673927307129,0.8233014345169067,0.4859433,0.64873886,16
1.2003580331802368,8.789884567260742,4.93135404586792,0.7076072692871094,0.09285152,0.9092729,16
1.1131311655044556,8.796652793884277,4.577568531036377,0.6377037763595581,-0.05009095,1.1844677,16
0.9765901565551758,8.972064971923828,4.124302864074707,0.5838603377342224,0.29993483,1.4871514,16
0.8349045515060425,9.361964225769043,3.831681966781616,0.4852547347545624,0.83291477,1.8640553,16
0.6527688503265381,9.786603927612305,3.6891298294067374,0.3532518744468689,1.2675453,2.0616703000000003,16
0.3941072821617127,10.124204635620117,3.67881441116333,0.2056378871202469,1.3866642,2.2708917,16
-0.10530529916286467,10.195524215698242,3.7492787837982178,0.05200410261750221,1.2996159,2.0888536,16
-0.7372894287109375,10.020008087158203,3.934848546981812,-0.13151080906391144,0.7483099,1.9022343,16
-1.2215901613235474,9.7233247756958,3.985834836959839,-0.315304696559906,0.7788531999999999,1.9431623,16
-1.271820306777954,9.56539821624756,3.6796987056732178,-0.4207844436168671,1.3029754999999998,2.2354615,16
-0.8104124069213867,9.522136688232422,3.306758165359497,-0.5029140710830688,1.8139644,2.4489589,16
-0.13690221309661865,9.487471580505373,2.8675360679626465,-0.5924896001815796,2.3554964,2.4126122000000003,16
0.4843741059303284,9.397640228271484,2.6720848083496094,-0.7027249336242676,2.1401663,2.0818288000000003,16
0.7671735882759094,9.108916282653807,2.596212387084961,-0.8448819518089294,2.083356,1.6627752,16
0.6278841495513916,8.662534713745117,2.454502582550049,-0.9075485467910768,2.3533583,1.4178182,16
0.27602827548980713,8.055178642272951,2.321322441101074,-0.8885622024536133,2.2522602000000003,1.2550226,16
-0.18769781291484836,7.339280605316162,2.3067786693573,-0.7818496227264404,1.7354681,1.1453723999999998,16
-0.6811001300811768,6.600959300994872,2.445891857147217,-0.5782175660133362,1.0497719,1.0824533,16
-1.0683143138885498,5.954466342926025,2.6619904041290283,-0.2806566059589386,0.45204028,0.9550878,16
-1.2793620824813845,5.491815567016602,2.775838851928711,0.07174438238143921,0.23884831,0.7809911999999999,16
-1.3764358758926392,5.241369247436523,2.666428327560425,0.44232991337776173,0.267559,0.42943826,16
-1.436902403831482,5.128388404846191,2.3477556705474854,0.7873548269271851,0.4025602,-0.06505715,16
-1.483479619026184,5.209261417388916,2.0193984508514404,1.0987484455108645,0.038179077,-0.5552765000000001,16
-1.5917305946350098,5.4053306579589835,1.8424527645111084,1.4116346836090088,-0.7452555999999999,-0.99082345,16
-1.704357624053955,5.583339214324951,1.7324206829071045,1.727394938468933,-1.1362093999999998,-1.303281,16
-1.6805700063705444,5.9059810638427725,1.5017951726913452,2.019273042678833,-0.8371908000000001,-1.4724906999999998,16
-1.17531418800354,7.123780250549316,0.8769045472145081,2.2207448482513428,0.70341134,-1.1377366000000002,16
-0.03230900689959526,9.120803833007812,0.2009018361568451,2.294074296951294,3.11694,-0.13622294,16
1.0383223295211792,10.633634567260742,0.33717814087867737,2.3102858066558842,3.7736201,-0.42210788,16
1.3716251850128174,11.659587860107422,0.936962068080902,2.1911299228668213,3.340822,-0.3903429,16
0.9972848296165466,12.353805541992188,1.7772799730300903,2.0335257053375244,3.035084,0.31337386,16
0.4329761564731598,12.564984321594238,3.2473835945129395,1.796660542488098,1.4532484,0.8219192,16
-0.18336272239685056,12.206174850463867,4.4214630126953125,1.3831658363342283,-1.3866642,0.23090707,16
-0.9954367876052856,11.809663772583008,4.163488864898682,1.22521710395813,-3.5500433,-0.32406402,16
-1.9199222326278689,11.961527824401855,2.782856702804565,1.2168670892715454,-2.1096232,-0.6585127,16
-2.776893138885498,12.213640213012695,1.1508030891418457,1.027753829956055,3.1334333,-0.44165558,16
-3.039829730987549,12.111849784851074,0.5674592852592468,0.884502112865448,2.6963592,-0.14996742,16
-1.9531654119491575,11.77212142944336,0.633188009262085,0.7496223449707031,0.906524,-0.5299255999999999,16
-0.4916007518768311,11.198765754699707,-0.4029300510883331,0.6312397718429565,1.4547756,-0.11484267,16
0.3116893768310547,10.696789741516113,-1.1003869771957395,0.6269821524620056,1.4208726,0.24190263,16
0.5550597310066223,10.353392601013184,-1.2928519248962402,0.6543943881988525,1.0754282,0.19608775,16
0.3734648823738098,10.24753475189209,-1.2394472360610962,0.6618244051933289,1.2366967,-0.020463986,16
0.01765173114836216,10.320624351501463,-1.0718873739242554,0.6151392459869385,1.1731668,-0.28619036,16
-0.4045477509498596,10.386953353881836,-0.9435851573944092,0.5676345825195312,1.2873985,-0.36193767,16
-0.8752774000167847,10.244067192077637,-0.8338735699653625,0.5355466604232788,1.3387111,-0.453262,16
-1.0864783525466921,10.004426956176758,-0.769647479057312,0.4903996884822846,1.1255191999999998,-0.5161811,16
-0.9022035002708436,9.82565689086914,-0.960214376449585,0.4585910737514496,1.1007791999999998,-0.41325033,16
-0.4654574990272522,9.755946159362793,-1.2641443014144895,0.46359583735466,1.0589349,-0.26572640000000003,16
-0.02189703471958637,9.829050064086914,-1.4384489059448242,0.4645862579345703,0.85918194,-0.22266038,16
0.2537965178489685,9.989944458007812,-1.6264747381210327,0.4556480646133423,0.87872964,-0.23426682,16
0.3561512231826782,10.048851013183594,-1.8281793594360352,0.4410374164581299,0.90377516,-0.16523905,16
0.2805400490760803,9.939931869506836,-2.0331993103027344,0.4190307259559631,1.0436633,-0.100792766,16
0.05152686685323715,9.793959617614746,-2.1725902557373047,0.3934835195541382,1.0989466,-0.09132435,16
-0.2605339586734772,9.749549865722656,-2.1384973526000977,0.3766830861568451,0.9062186,-0.08399397,16
-0.5638853907585144,9.78069305419922,-2.0614299774169917,0.34220391511917114,0.76174897,-0.11209377,16
-0.7560504078865051,9.837054252624512,-2.0873730182647705,0.2917480170726776,0.68386364,-0.10415252,16
-0.8326300382614136,9.863686561584473,-2.1706876754760738,0.23603160679340365,0.675617,-0.07666359,16
-0.8840330243110657,9.880459785461426,-2.25663161277771,0.1798279732465744,0.7076874,-0.016187929,16
-0.9593091011047364,9.852112770080566,-2.3326256275177,0.12845207750797272,0.514654,0.004276057,16
-1.0006093978881836,9.761981964111328,-2.4468860626220703,0.08898793905973433,0.4978552,-0.03970624,16
-0.9613823294639589,9.624277114868164,-2.577974557876587,0.047196708619594574,0.44898596,-0.02565634,1
-0.8822299838066101,9.506192207336426,-2.607001781463623,0.015798551961779594,0.3555236,-0.038179077,1
-0.7848856449127197,9.470892906188963,-2.540860176086426,-0.015980614349246025,0.27091873,-0.048563786,1
-0.6850279569625854,9.40458869934082,-2.4454712867736816,-0.03771786391735077,0.105374254,-0.0290161,1
-0.6472980380058289,9.30471897125244,-2.3868637084960938,-0.03494968637824058,0.014660766,-0.00061086525,1
-0.6694707274436951,9.308589935302734,-2.409219741821289,-0.028004227206110958,0.077579886,-0.022602014,1
-0.7199966311454773,9.404817581176758,-2.440830707550049,-0.007974385283887386,0.28160888,0.005192355,1
-0.7631962299346924,9.573095321655273,-2.331613540649414,0.01756000891327858,0.34880406,0.03970624,1
-0.8065847158432007,9.755112648010254,-2.1078903675079346,0.03186080977320671,0.27916542,0.03268129,1
-0.8006587028503418,9.873597145080566,-1.9654415845870967,0.030615318566560745,0.23365596,-0.0067195175,1
-0.7336929440498352,9.93316650390625,-1.9506604671478271,0.015826055780053142,0.29504790000000003,-0.02321288,1
-0.6852878332138062,9.957937240600586,-2.0007574558258057,-0.012358994223177431,0.18509217,-0.076052725,1
-0.6409822106361389,9.937185287475586,-2.0992701053619385,-0.030894827097654343,0.29962940000000005,-0.118507855,1
-0.6298630237579346,9.9020414352417,-2.123171329498291,-0.027304420247673992,0.25717425,-0.15851954,1
-0.682047963142395,9.828533172607422,-2.0519568920135502,-0.024130450561642647,0.19272798,-0.20830505,1
-0.745682418346405,9.744709014892578,-1.9709397554397583,-0.03090512938797474,0.19120082,-0.17470746,1
-0.7405831813812256,9.651494026184082,-1.897676944732666,-0.03355076164007187,0.15485434,-0.13225232,1
-0.7098128199577332,9.61921215057373,-1.8442525863647459,-0.01999211311340332,0.11789699,-0.08032878,1
-0.7545575499534607,9.63394260406494,-1.8170243501663208,-0.0002056588418781757,0.011301007,-0.06994407,1
-0.8474928140640259,9.666061401367188,-1.8346790075302124,-0.0054188515059649936,0.03390302,-0.050396383,1
-0.9183480739593506,9.699073791503906,-1.853708028793335,-0.014067131094634531,0.050701816,-0.02687807,1
-0.9550018310546876,9.734771728515623,-1.861279249191284,-0.0194521676748991,0.025045475,0.014049901000000002,1
-0.9606513381004332,9.766066551208496,-1.8512331247329712,-0.018561337143182755,-0.015577064,0.039095376,1
-0.9676138758659364,9.77394199371338,-1.847300171852112,-0.01628517173230648,0.058337633,0.05772676700000001,1
-0.9969087839126588,9.796520233154297,-1.8418337106704712,-0.01628000289201736,-0.008246681,0.09162979,1
-1.0551590919494631,9.794520378112793,-1.8127597570419312,-0.02526593580842018,-0.087659165,0.11453723,1
-1.1153762340545654,9.765439987182617,-1.7986681461334229,-0.03885607048869133,-0.09437868,0.07574729,1
-1.1419508457183838,9.740887641906738,-1.8002139329910278,-0.056014202535152435,-0.0720821,0.077579886,1
-1.1138110160827637,9.72380542755127,-1.8178380727767944,-0.0647546797990799,-0.0842994,0.08552113,1
-1.0698329210281372,9.680774688720703,-1.8614394664764404,-0.07604432106018066,-0.12095132,0.086132,1
-1.0217521190643308,9.642801284790039,-1.9147837162017824,-0.0876154825091362,-0.1423316,0.08399397,1
-0.99925434589386,9.561882972717283,-1.941501259803772,-0.09350589662790297,-0.04184427,0.105374254,1
-1.032551646232605,9.517372131347656,-1.9120930433273315,-0.08279741555452348,-0.03604105,0.14294247,1
-1.0727684497833252,9.498893737792967,-1.84637987613678,-0.08318623900413513,-0.10170906,0.15760323,1
-1.0803198814392092,9.503000259399414,-1.8052358627319336,-0.0896252989768982,-0.079107046,0.13164146,1
-1.0560445785522459,9.570735931396484,-1.811169147491455,-0.08665990084409714,0.015882496,0.15057829,1
-1.0728235244750977,9.686968803405762,-1.7973638772964478,-0.09313517063856123,-0.034513887,0.16462818,1
-1.104860782623291,9.655030250549316,-1.7346479892730713,-0.1190893054008484,-0.12156218,0.0720821,1
-1.1097835302352903,9.588579177856444,-1.7180678844451904,-0.14614251255989075,0.09987647,0.10567969,1
-1.0666009187698364,9.576166152954102,-1.7473238706588743,-0.17597031593322754,0.29229903,0.16310102,1
-0.972387671470642,9.60663890838623,-1.7664917707443235,-0.19015628099441528,0.28680122,0.15882497,1
-0.8889972567558289,9.503990173339844,-1.7771334648132324,-0.20990915596485135,0.32711834,0.07696902,1
-0.8216589689254761,9.380171775817873,-1.7814757823944092,-0.2336404472589493,0.23915374,0.046120327,1
-0.7343117594718933,9.417262077331543,-1.7879644632339478,-0.22072628140449524,0.24953845,0.054367006,1
-0.6382626891136169,9.552633285522461,-1.7716745138168335,-0.19047501683235168,0.32192600000000005,0.079107046,1
-0.5981215834617615,9.573384284973145,-1.6960815191268919,-0.1888360679149628,0.25961772,0.002443461,1
-0.5874547958374023,9.569387435913086,-1.6375491619110107,-0.1819312423467636,0.33383787,-0.03573562,1
-0.5684136748313904,9.710445404052734,-1.6501519680023191,-0.16175298392772675,0.6102544,0.02565634,1
-0.5072804093360901,9.780977249145508,-1.635094165802002,-0.1264479011297226,0.32253686,-0.07880162,1
-0.4662541449069977,9.806406021118164,-1.6324700117111206,-0.09787046909332277,0.3023783,0.14508049,1
-0.517926037311554,9.805527687072754,-1.6476627588272097,-0.09609492868185043,0.46731192,0.15057829,1
-0.6131793260574341,9.78981113433838,-1.6166112422943115,-0.09910432994365692,0.4156938,-0.060170225999999986,1
-0.5719935297966003,9.808510780334473,-1.5367871522903442,-0.07724467664957048,0.25809056,-0.1133155,1
-0.35457733273506165,9.878676414489746,-1.536799073219299,-0.03608018159866333,0.21991149,-0.002443461,1
-0.2529861032962799,9.938289642333984,-1.5576915740966797,0.003775368677452207,0.24831672,0.12339478,1
-0.26695215702056885,9.91143035888672,-1.5204323530197144,0.00981611292809248,0.16982053,0.048258353,1
-0.2367459833621979,9.852757453918457,-1.4460452795028689,-0.002353729447349906,-0.030848695,-0.06658431,1
-0.21188899874687195,9.813858032226562,-1.4108444452285769,-0.0032121813856065273,-0.020463986,-0.0061086523,1
-0.2426809221506119,9.808820724487305,-1.4232547283172607,0.00039648753590881824,0.20311269,-0.08368854,1
-0.2657432854175568,9.84103298187256,-1.4043174982070925,-0.004930447321385145,0.2611449,-0.077579886,1
-0.24401287734508514,9.873357772827148,-1.3523614406585691,-0.01994631066918373,0.12858713,-0.10934488,1
-0.1822815239429474,9.902792930603027,-1.3368806838989258,-0.02449299767613411,0.054061573,-0.07360926,1
-0.19838282465934756,9.911677360534668,-1.3561826944351196,-0.01344374381005764,0.13683382,0.014660766,1
-0.2635415196418762,9.91495418548584,-1.3490349054336548,-0.010904873721301556,0.23487769,-0.023518313,1
-0.27970609068870544,9.92849063873291,-1.3244051933288574,-0.017249543219804764,0.12492194,-0.05222898,1
-0.2602261006832123,9.937204360961914,-1.31927490234375,-0.01570839807391167,0.03604105,-0.037873644,1
-0.26155686378479004,9.941370010375977,-1.3235764503479004,-0.013103650882840157,0.07544186,-0.008246681,1
-0.2669453024864197,9.975984573364258,-1.3269940614700315,-0.01792881079018116,0.12767084,-0.0076358155,1
-0.2612504959106445,9.99028491973877,-1.3245548009872437,-0.02774976752698421,0.11209377,0.06597344599999999,1
-0.3178533017635345,9.940625190734863,-1.3444138765335083,-0.04013817384839058,0.13775012,0.084910266,1
-0.4357675909996033,9.919925689697266,-1.3942768573760986,-0.054149139672517776,0.19150625,0.0125227375,1
-0.4677880108356476,9.907889366149902,-1.3979213237762451,-0.0719330832362175,0.09315695,-0.018020526,1
-0.41354256868362427,9.801011085510254,-1.3922849893569946,-0.08766469359397888,-0.07849618,0.027488936,1
-0.3790992200374603,9.674137115478516,-1.4390645027160645,-0.08725038915872574,-0.16371189,0.04642576,1
-0.3974568247795105,9.62592315673828,-1.543669819831848,-0.06656495481729507,-0.017715093,0.03176499,1
-0.43458715081214905,9.633195877075195,-1.61342191696167,-0.04414916783571243,0.106901415,0.017104227,1
-0.4615364074707031,9.64983367919922,-1.613335132598877,-0.0334150604903698,0.06261369,0.0067195175,1
-0.4805693924427033,9.668479919433594,-1.57529616355896,-0.03189938887953758,-0.06169739,0.009468411,1
-0.503308892250061,9.694316864013672,-1.5445502996444702,-0.031838376075029366,-0.12675454,0.004886922,1
-0.5361293554306029,9.7156982421875,-1.5575169324874878,-0.02750005200505257,-0.038789943,0.008246681,1
-0.5650514364242554,9.722254753112793,-1.5899837017059326,-0.019529908895492557,0.049785517,0.004886922,1
-0.5666368007659912,9.716695785522461,-1.6270979642868042,-0.004697730299085379,0.062002823,0.011911872,1
-0.5584752559661865,9.718689918518066,-1.6374722719192505,0.010810190811753271,0.043066,0.01282817,1
-0.5563365817070007,9.729430198669434,-1.6448205709457395,0.017685366794466972,-0.0018325958,0.009162978,1
-0.5606997013092041,9.73198699951172,-1.6493693590164185,0.012403912842273712,-0.037873644,0.0021380284,1
-0.5581784248352051,9.720938682556152,-1.665264129638672,0.002450715517625213,-0.04062254,0.00030543262000000003,1
-0.5423374176025391,9.718201637268066,-1.694599151611328,-0.003427854273468256,-0.026572637000000003,-0.0027488936,1
-0.5336019992828369,9.72019100189209,-1.7022569179534912,-0.006640327628701925,0.005497787,0.0125227375,1
-0.5225057005882263,9.726219177246094,-1.6877448558807373,-0.011792955920100212,-0.029932396,0.005497787,1
-0.5048122406005859,9.730072975158693,-1.6657687425613403,-0.01295169722288847,-0.030848695,0.0012217305,1
-0.4915682673454285,9.725293159484863,-1.6720550060272217,-0.0064858393743634215,-0.03604105,0.014966198,1
-0.4920347630977631,9.725059509277344,-1.6889417171478271,0.0013194821076467633,-0.040317107000000005,0.01985312,1
