timestamp,rel_time,acc_x,acc_y,acc_z,gyro_x,gyro_y,gyro_z,azimuth,pitch,roll,label
0.0,0.0,0.0,0.0,0.0,0.0,0.74006325,0.03268129,22.11699500000001,-0.631976,54.671574,STD
9.870209304822103e-14,2.924346712773405e-28,7.46385121187694e-26,5.616844952164319e-25,7.324787976535702e-26,-6.673988823084847e-26,0.73792523,0.039095376,22.19852,-1.0049524,54.585377,STD
1.9348800339713534e-10,8.483930822944207e-25,1.460153767660229e-22,1.0989627581521157e-21,1.4491369780200193e-22,-1.3057450370803994e-22,0.75655663,0.028710667,22.312534,-1.3904856,54.4473,STD
2.335324111868431e-08,1.2901837775373925e-22,1.756549050029325e-20,1.3243213305762258e-19,1.7620625642411604e-20,-1.578643341343196e-20,0.7693848000000001,0.030848695,22.423325,-1.7829453999999998,54.304638,STD
8.653562417748617e-07,5.6459564100008526e-21,6.490413222790804e-19,4.901431009132445e-18,6.56859161344684e-19,-5.863954706716246e-19,0.7791585999999999,0.035124752999999995,22.53932600000001,-2.1850932000000003,54.143433,STD
1.618633177713491e-05,1.2055110527497616e-19,1.2113114603398942e-17,9.160048549157479e-17,1.2347111590981005e-17,-1.1003747115137737e-17,0.79626286,0.042455133,22.662743,-2.5904653,53.96927,STD
0.00019158230861648917,1.594731118915603e-18,1.4309519177540994e-16,1.0834596422281176e-15,1.468133487765011e-16,-1.3073315619181725e-16,0.73456544,0.04153884,22.793776,-3.001901,53.797783,STD
0.0016255149384960532,1.490184898668368e-17,1.211801227363142e-15,9.18759527821205e-15,1.2516825031351898e-15,-1.1132526497192484e-15,0.7528914000000001,0.056505036,22.914032,-3.4222732,53.59183,STD
0.010682182386517525,1.0667106112524581e-16,7.947361166512831e-15,6.034578490122372e-14,8.269137124713478e-15,-7.340310440907567e-15,0.73761976,0.06505715,23.062082,-3.8381608,53.39968,STD
0.05726628005504608,6.175581163763951e-16,4.2516439316669236e-14,3.2335383827984676e-13,4.458353174488505e-14,-3.9472975398285176e-14,0.7254025,0.06536258,23.1906,-4.2743707,53.193733,STD
0.25983262062072754,3.004922648734568e-15,1.9251593862904676e-13,1.4664997731797524e-12,2.0349284865668615e-13,-1.7962068193499298e-13,0.7012733,0.07849618,29.666172,-4.702605,52.966515,STD
1.0253530740737915,1.2643293191365833e-14,7.582698032838897e-13,5.78484222329978e-12,8.078757931725966e-13,-7.107614193382905e-13,0.66920286,0.08216137400000001,30.360764,-5.142592,52.73674000000001,STD
3.5932469367980957,4.701101297523505e-14,2.6527920485297507e-12,2.0265532307828238e-11,2.8481399096808024e-12,-2.497203398926784e-12,0.63407815,0.099571034,31.05582,-5.591368,52.503048,STD
11.366944313049316,1.5713167258232102e-13,8.379650272283268e-12,6.409026087617065e-11,9.063113107221632e-12,-7.918739448886658e-12,0.5671884,0.116675265,31.755623,-6.0454183,52.27905300000001,STD
32.889076232910156,4.786304273925179e-13,2.4216002467158937e-11,1.8539679513818186e-10,2.6374321129840617e-11,-2.2963396809072556e-11,0.4783075,0.12064589,32.46991,-6.5321455,52.044083,STD
87.97895050048828,1.3435987348750511e-12,6.471391478246602e-11,4.958562449530746e-10,7.094594356438222e-11,-6.155373433180955e-11,0.38759398,0.124311075,33.18255,-7.024801299999999,51.820057,STD
219.53359985351562,3.508369376264975e-12,1.6135480451762163e-10,1.23716425992626e-09,1.7798462703666473e-10,-1.53876744679593e-10,0.29168814,0.11636983,33.921440000000004,-7.5618095,51.59176,STD
514.84814453125,8.588147554222658e-12,3.7818964626623597e-10,2.901187290405005e-09,4.195656322369956e-10,-3.6143757431439383e-10,0.25503623,0.11789699,34.655827,-8.119878,51.362022,STD
1142.0548095703125,1.9839782594566202e-11,8.3858703314732e-10,6.4353558038021674e-09,9.352948415752849e-10,-8.027618014772031e-10,0.18936823,0.1133155,35.40755,-8.69561,51.15456,STD
2409.38818359375,4.350057813962138e-11,1.7687785680564616e-09,1.3576812563087515e-08,1.9824737407247994e-09,-1.6950911785329481e-09,0.050701816,0.090713486,36.190655,-9.339673,50.933033,STD
4857.37744140625,9.097443631755908e-11,3.5656824159957523e-09,2.7372363931021937e-08,4.014559795706418e-09,-3.4189653330685132e-09,-0.17806722,0.03390302,37.005325,-10.028478,50.73766,STD
9396.6298828125,1.822559742015173e-10,6.898419613321494e-09,5.295580152164803e-08,7.799008550080089e-09,-6.614127467940989e-09,-0.17837265,0.03573562,37.801937,-10.799594,50.456406,STD
17506.4375,3.510958468400105e-10,1.2854899367198414e-08,9.866869987718019e-08,1.4587895336148904e-08,-1.2316562880698712e-08,-0.10934488,0.03604105,38.63483,-11.554915,50.19712,STD
31511.837890625,6.525323614781087e-10,2.3146716543465118e-08,1.7762440052138118e-07,2.6356897109280908e-08,-2.214751049223196e-08,-0.094989546,0.03848451,39.48345,-12.435919,49.842667,STD
54958.85546875,1.1735414862101834e-09,4.0387273969599846e-08,3.098267313816905e-07,4.613014326082521e-08,-3.856584740447033e-08,-0.086132,0.037873644,40.304447,-13.329344,49.452164,STD
93109.15625,2.0476804696301087e-09,6.845933597787734e-08,5.249635819382092e-07,7.840984750373536e-08,-6.519513107150487e-08,-0.07299839999999999,0.04520403,41.115868,-14.307749,48.886024,STD
153576.359375,3.4747205113205837e-09,1.1298920554736469e-07,8.660010735184187e-07,1.2973065111054893e-07,-1.072359339104878e-07,-0.07147124,0.05009095,41.895817,-15.281566,48.303646,STD
247126.453125,5.746365161485301e-09,1.8194511142155534e-07,1.3937054745838395e-06,2.0935884492701007e-07,-1.7197268675772648e-07,-0.06047566,0.05681047,42.66422,-16.44913,47.40606,STD
388664.28125,9.27923871074654e-09,2.863773715944262e-07,2.1922160158283077e-06,3.3015638223332644e-07,-2.6938215569316526e-07,-0.053145275,0.05375614,43.37921,-17.607038,46.49824,STD
598426.75,1.4656396096768276e-08,4.413175247464096e-07,3.3757867186068324e-06,5.09628534928197e-07,-4.128484079046757e-07,-0.03573562,0.058948494,44.038296,-19.100899,45.046658,STD
903401.5,2.2678641187212634e-08,6.668522587460757e-07,5.096800578030525e-06,7.711723810643889e-07,-6.199859967637167e-07,-0.031154128,0.064751714,44.610565,-20.572725,43.60913,STD
1338987.125,3.4426946626808785e-08,9.89386876426579e-07,7.55514929551282e-06,1.1455415460659424e-06,-9.135699770013161e-07,-0.021380283,0.070554934,45.04889,-22.640522,41.263268,STD
1950908.125,5.1337281092855847e-08,1.4431109320867108e-06,1.1009047739207745e-05,1.6725385876270593e-06,-1.322568550676806e-06,-0.014966198,0.064446285,45.35672,-24.645031,39.00136,STD
2797393.5,7.528906564857607e-08,2.0716770450235344e-06,1.5787340089445934e-05,2.4029461656027706e-06,-1.8832703290172503e-06,-0.00580322,0.06536258,45.558414,-26.726805,36.656734,STD
3951625.25,1.0870846978150439e-07,2.9300999813131057e-06,2.2303322111838497e-05,3.4007007343461737e-06,-2.6404959498904645e-06,0.0033597588,0.062002823,45.657974,-28.729494,34.409473,STD
5504457.0,1.546875836311301e-07,4.086881290277233e-06,3.107008888036944e-05,4.74531270810985e-06,-3.6488802379608387e-06,0.008857545999999999,0.0571159,45.67752,-30.65962,32.26119,STD
7567401.0,2.1712047271194024e-07,5.62636296308483e-06,4.2717383621493354e-05,6.53452980259317e-06,-4.974209332431201e-06,0.02321288,0.048258353,45.62148300000001,-32.513912,30.200144,STD
10275877.0,3.00857038837421e-07,7.651308806089219e-06,5.8009933127323166e-05,8.887242984201293e-06,-6.694796411466086e-06,0.03023783,0.042455133,45.510567,-34.301136,28.228258,STD
13792708.0,4.1187516330865037e-07,1.0285704775014892e-05,7.786715286783874e-05,1.1946615813940298e-05,-8.902873560145963e-06,0.038179077,0.04428773,45.34225,-36.014725,26.337797,STD
18311854.0,5.574718784373545e-07,1.3677780771104153e-05,0.00010338419087929651,1.588343729963526e-05,-1.1705986253218725e-05,0.052839845,0.03970624,45.13016500000001,-37.66569000000001,24.52106,STD
24062362.0,7.464740292562055e-07,1.8003231161856093e-05,0.00013585416309069842,2.0899673472740687e-05,-1.5228359188768081e-05,0.05925392700000001,0.03390302,44.8764,-39.250504,22.782513,STD
31312500.0,9.894680488287122e-07,2.34686322073685e-05,0.00017679149459581822,2.723219949984923e-05,-1.9612225514720194e-05,0.07666359,0.034513887,44.583183,-40.76926,21.114893,STD
40374076.0,1.2990495861231466e-06,3.0315020921989344e-05,0.00022795611585024744,3.5156688682036474e-05,-2.5019086024258286e-05,0.07147124,0.03176499,44.263237,-42.228745,19.520887,STD
51606872.0,1.6900925174923032e-06,3.882164673996158e-05,0.0002913785574492067,4.499163696891628e-05,-3.163089058944024e-05,0.0711658,0.026572637000000003,43.91151,-43.628624,17.984709,STD
65423220.0,2.1800365175295155e-06,4.930982322548516e-05,0.00036938549601472914,5.710249752155505e-05,-3.96511095459573e-05,0.07147124,0.027794369,43.53487,-44.971893,16.517712,STD
82292616.0,2.7891933314094786e-06,6.214691529748961e-05,0.00046462586033158004,7.19058807590045e-05,-4.93056868435815e-05,0.06872234,0.032375857,43.145763,-46.25795,15.115197,STD
102746400.0,3.541070782375755e-06,7.775038830004632e-05,0.000580097024794668,8.987379260361195e-05,-6.0843864048365504e-05,0.058337633,0.02565634,42.73998,-47.492588,13.77401,STD
127382448.0,4.462713150132913e-06,9.659190254751593e-05,0.0007191710756160319,0.00011153792002005503,-7.453883154084906e-05,0.058643065,0.028710667,42.31163,-48.669075,12.494076,STD
156869808.0,5.5850578064564615e-06,0.00011920140968868509,0.0008856209460645914,0.00013749384379480034,-9.06882414710708e-05,0.041233405,0.03756821,41.87380200000001,-49.795246,11.274725,STD
191953264.0,6.943305834283819e-06,0.0001461712527088821,0.0010836460860446095,0.00016840521129779518,-0.00010961452062474564,0.03390302,0.035124752999999995,41.420807,-50.87312,10.107168,STD
233457856.0,8.577306289225817e-06,0.00017816023319028318,0.001317897462286055,0.00020500787650234997,-0.00013166501594241709,0.031154128,0.03726278,40.96773,-51.90402,9.004209,STD
282293184.0,1.0531951375014614e-05,0.00021589752577710897,0.0015935020055621862,0.0002481137926224619,-0.00015721192175988108,0.036651913,0.036957346,40.503136,-52.890358,7.9503119999999985,STD
339457536.0,1.2857581168645993e-05,0.00026018652715720236,0.0019160857191309333,0.0002986148465424776,-0.00018665206152945757,0.03145956,0.03848451,40.033894,-53.834152,6.950428,STD
406041920.0,1.561039789521601e-05,0.00031190854497253895,0.002291795564815402,0.0003574865113478154,-0.00022040639305487275,0.03390302,0.03023783,39.55328400000001,-54.73987,5.991953,STD
483233696.0,1.8852886569220573e-05,0.0003720262902788818,0.00272732088342309,0.00042579122236929834,-0.0002589194045867771,0.040927973,0.0290161,39.054943,-55.608486,5.070611,STD
572319936.0,2.2654237909591757e-05,0.00044158712262287736,0.003229911671951413,0.0005046814330853522,-0.0003026582417078316,0.03604105,0.029626964,38.55271,-56.44196700000001,4.192665,STD
674690688.0,2.709077853069175e-05,0.0005217261495999992,0.0038073959294706583,0.0005954026710242033,-0.00035211164504289627,0.054061573,0.028710667,38.037415,-57.240234,3.3512256,STD
791841536.0,3.224638930987567e-05,0.0006136688170954585,0.004468195606023073,0.0006992958369664848,-0.0004077887278981507,0.04795292,0.024129177,37.527428,-58.00744,2.5537648,STD
925376192.0,3.821294740191661e-05,0.0007187335286289454,0.005221339408308268,0.0008177996496669948,-0.0004702175792772323,0.051923547,0.027794369,37.004673,-58.74425,1.7925894,STD
1077008384.0,4.5090728235663846e-05,0.0008383336244150996,0.00607647467404604,0.0009524524211883545,-0.0005399436340667307,0.044898596,0.025045475,36.484726,-59.44794,1.0762569,STD
1248563456.0,5.298883843352087e-05,0.0009739791858009994,0.007043875753879547,0.0011048936285078526,-0.0006175279268063605,0.054367006,0.02321288,35.955578,-60.124382,0.3937754000000001,STD
1441979648.0,6.202561053214595e-05,0.001127278315834701,0.0081344498321414,0.001276864786632359,-0.0007035451708361506,0.05925392700000001,0.025961773,35.426186,-60.77191,-0.25215518,STD
1659308672.0,7.232900679809973e-05,0.0012999381870031357,0.009359742514789104,0.0014702106127515435,-0.0007985817501321435,0.052839845,0.026267206,34.883507,-61.382225,-0.86847043,STD
1902716032.0,8.403701212955639e-05,0.0014937655068933964,0.010731938295066357,0.0016868787351995707,-0.0009032333618961275,0.0693332,0.028099801,34.332653,-61.96673199999999,-1.4549713,STD
2174480896.0,9.729799785418436e-05,0.0017106669256463647,0.012263857759535313,0.0019289200427010655,-0.0010181029792875051,0.052534413,0.028099801,33.79176,-62.570724,-2.006937,STD
2476995072.0,0.00011227106733713299,0.0019526481628417969,0.013968956656754017,0.002198487753048539,-0.0011437981156632304,0.056199603,0.028405234,33.24041,-63.150830000000006,-2.5335739,STD
2812762112.0,0.00012912641977891326,0.002221813891083002,0.01586131565272808,0.0024978364817798138,-0.0012809286126866937,0.03756821,0.032986723,32.700146000000004,-63.66947,-3.0205562,STD
3184396032.0,0.00014804562670178711,0.002520366106182337,0.017955634742975235,0.0028293204959481955,-0.0014301040209829807,0.04153884,0.03268129,32.154625,-64.16806,-3.48411,STD
3594618112.0,0.00016922198119573295,0.002850602613762021,0.020267218351364136,0.003195392433553934,-0.001591930747963488,0.042455133,0.03970624,31.614452000000004,-64.64924,-3.9151711,STD
4046255104.0,0.00019286072347313166,0.0032149150501936674,0.02281196042895317,0.0035986003931611776,-0.0017670098459348083,0.05161811400000002,0.037873644,31.069328,-65.107704,-4.3201933,STD
4542236160.0,0.00021917933190707117,0.0036157863214612007,0.025606326758861542,0.004041584674268961,-0.0019559336360543966,0.04886922,0.043676864,30.527462,-65.55099,-4.6955967,STD
5085588480.0,0.00024840771220624447,0.004055787343531847,0.02866734005510807,0.004527075681835413,-0.0021592837292701006,0.05100725,0.042455133,29.97958,-66.013855,-5.0500894,STD
5679434240.0,0.00028078840114176273,0.004537574015557766,0.03201254829764366,0.00505788903683424,-0.0023776281159371138,0.059864793,0.05131268,29.430965000000004,-66.46136,-5.378411,STD
6326985728.0,0.00031657671206630766,0.0050638834945857525,0.03566000610589981,0.005636922083795071,-0.002611517906188965,0.06291912,0.04886922,28.887905,-66.859825,-5.6834044000000015,STD
7031539712.0,0.0003560409531928599,0.005637529771775007,0.039628248661756516,0.00626714900135994,-0.0028614855837076902,0.07788532,0.05009095,28.34116400000001,-67.24486,-5.966203,STD
7796473344.0,0.00039946241304278374,0.006261399015784264,0.04393625259399414,0.006951616145670414,-0.0031280419789254665,0.08216137400000001,0.046120327,27.794207,-67.62119,-6.226901,STD
8625238016.0,0.00044713553506881,0.0069384449161589146,0.04860341176390648,0.007693435996770859,-0.0034116737078875303,0.079107046,0.04886922,27.248144,-67.98653,-6.466837,STD
9521352704.0,0.0004993679467588663,0.007671683561056852,0.053649503737688065,0.008495782501995564,-0.003712840611115098,0.09040806,0.040317107000000005,26.702621,-68.33981,-6.694036,STD
10488398848.0,0.0005564804305322468,0.008464187383651733,0.05909464880824089,0.00936188455671072,-0.0040319738909602165,0.089186326,0.04062254,26.164776,-68.69181999999999,-6.902656,STD
11530011648.0,0.0006188068655319512,0.009319080039858818,0.06495927274227142,0.0102950194850564,-0.004369473084807396,0.09285152,0.046120327,25.62701400000001,-69.03244000000001,-7.0962644,STD
12649875456.0,0.0006866943440400064,0.010239530354738235,0.07126407325267792,0.011298507452011108,-0.004725704900920391,0.09193522,0.040927973,25.09734,-69.36158,-7.2756157,STD
13851714560.0,0.0007605029386468232,0.011228744871914387,0.07802997529506683,0.012375702150166035,-0.0051009999588131905,0.10354166,0.048258353,24.56572,-69.67976999999999,-7.4355755000000014,STD
15139286016.0,0.0008406055858358741,0.012289962731301785,0.08527808636426926,0.013529987074434757,-0.005495651625096798,0.1133155,0.052534413,24.035625,-69.99051999999999,-7.580922599999999,STD
16516373504.0,0.0009273879695683718,0.013426447287201881,0.09302965551614761,0.014764765277504921,-0.0059099141508340836,0.10567969,0.04153884,23.512434,-70.29124,-7.7131643,STD
17986777088.0,0.0010212482884526253,0.014641482383012772,0.10130602866411209,0.016083454713225365,-0.0063440012745559216,0.109650314,0.035430185,22.98453,-70.57944,-7.8342113,STD
19554306048.0,0.00112259725574404,0.01593836210668087,0.11012860387563705,0.0174894779920578,-0.006798084359616041,0.110872045,0.038179077,22.464622,-70.85884,-7.941289,STD
21222772736.0,0.0012318574590608478,0.017320387065410614,0.11951878666877747,0.018986256793141365,-0.007272290997207165,0.12980886,0.028710667,21.94972000000001,-71.12428,-8.044431,STD
22995980288.0,0.0013494634767994285,0.018790854141116142,0.1294979304075241,0.0205772016197443,-0.007766703609377146,0.1337795,0.029932396,21.442577,-71.38358000000002,-8.130298,STD
24877715456.0,0.0014758611796423793,0.020353050902485847,0.1400873214006424,0.022265706211328506,-0.008281359449028969,0.1328632,0.03023783,20.938622,-71.6389,-8.211822999999999,STD
26871746560.0,0.0016115078469738364,0.02201025001704693,0.1513080894947052,0.02405514009296894,-0.0088162487372756,0.14599679999999998,0.020463986,20.435688,-71.89020500000002,-8.285586,STD
28981803008.0,0.0017568714683875442,0.023765699937939644,0.16318120062351227,0.025948837399482727,-0.009371314197778702,0.14752395,0.017104227,19.941008,-72.13708000000003,-8.345338,STD
31211579392.0,0.0019124305108562112,0.025622619315981865,0.17572738230228424,0.027950093150138855,-0.009946451522409916,0.14538592,0.01282817,19.454453,-72.382675,-8.402426,STD
33564717056.0,0.0020786733366549015,0.027584189549088478,0.18896707892417908,0.030062153935432434,-0.010541506111621857,0.14172074,0.010690141499999998,18.973335,-72.62475,-8.449459,STD
36044804096.0,0.002256097737699747,0.029653549194335938,0.20292043685913086,0.032288212329149246,-0.011156277731060982,0.13897185,0.010690141499999998,18.496264,-72.86335,-8.489931,STD
38655361024.0,0.0024452107027173042,0.03183378651738167,0.21760721504688263,0.0346313938498497,-0.01179051585495472,0.1423316,0.006414085,18.024448,-73.09402,-8.522730000000001,STD
41399836672.0,0.0026465279515832663,0.03412793204188347,0.2330467849969864,0.03709475323557854,-0.012443922460079193,0.15607607,0.0036651916,17.55001,-73.325615,-8.54609,STD
44281597952.0,0.0028605731204152107,0.03653895482420921,0.24925802648067474,0.039681266993284225,-0.01311615202575922,0.15057829,-0.003970624,17.086195,-73.55244,-8.562077,STD
47303925760.0,0.0030878775287419558,0.039069756865501404,0.2662593722343445,0.04239383339881897,-0.013806811533868313,0.14782938,-0.00030543262000000003,16.626316,-73.777985,-8.570461,STD
50470002688.0,0.0033289792481809855,0.041723158210515976,0.28406864404678345,0.045235250145196915,-0.014515460468828678,0.14110987,-0.002443461,16.175463,-74.002144,-8.573784,STD
53782904832.0,0.003584422869607806,0.044501904398202896,0.3027031719684601,0.04820822551846504,-0.015241612680256367,0.14538592,-0.0027488936,15.726153,-74.22431999999998,-8.567471000000001,STD
57245605888.0,0.0038547590374946594,0.047408655285835266,0.3221795856952667,0.05131535604596138,-0.015984738245606422,0.14110987,-0.0012217305,15.286551,-74.44213,-8.552927,BSC
60860960768.0,0.004140543285757303,0.05044597387313843,0.34251391887664795,0.0545591376721859,-0.016744261607527733,0.13164146,-0.00061086525,14.852359,-74.66,-8.529933999999999,BSC
64631697408.0,0.0044423360377550125,0.05361633375287056,0.36372148990631104,0.05794193968176842,-0.017519567161798477,0.129198,-0.005192355,14.422843,-74.87508000000003,-8.501514,BSC
68560412672.0,0.004760701674968004,0.056922104209661484,0.38581687211990356,0.061466019600629807,-0.018309995532035828,0.12492194,-0.002443461,13.994234,-75.08906,-8.466573,BSC
72649580544.0,0.005096208304166794,0.060365550220012665,0.4088138937950134,0.06513350456953049,-0.019114850088953972,0.12064589,0.008552114,13.571422,-75.29851500000002,-8.424325999999999,BSC
76901523456.0,0.005449426360428333,0.06394881755113602,0.43272560834884644,0.06894639879465103,-0.019933396950364113,0.112704635,0.00580322,13.1536255,-75.50496,-8.378674499999999,BSC
81318420480.0,0.005820928607136011,0.06767395883798599,0.45756426453590393,0.07290656119585037,-0.02076486125588417,0.1001819,0.014660766,12.742264,-75.7106,-8.320766,BSC
85902295040.0,0.006211289204657078,0.071542888879776,0.4833412170410156,0.0770157128572464,-0.021608438342809677,0.093767814,0.018325957,12.337891,-75.91566999999998,-8.256399,BSC
90655031296.0,0.006621083244681358,0.0755574032664299,0.5100669860839844,0.08127544075250626,-0.02246329002082348,0.07696902,0.01038471,11.945123,-76.115875,-8.186926,BSC
95578341376.0,0.007050886284559965,0.0797191858291626,0.5377511382102966,0.08568717539310455,-0.023328548297286034,0.08979719,0.0143553335,11.5458355,-76.31869499999998,-8.113745,BSC
100673781760.0,0.007501272484660149,0.08402978628873825,0.5664024353027344,0.09025221318006516,-0.024203315377235413,0.07971791,0.010079277,11.163666,-76.511566,-8.038812,BSC
105942736896.0,0.00797281600534916,0.08849061280488968,0.5960286259651184,0.0949716791510582,-0.025086667388677597,0.07696902,0.008246681,10.780345,-76.70546999999998,-7.9592557,BSC
111386427392.0,0.008466089144349098,0.09310296177864075,0.6266365647315979,0.09984655678272247,-0.025977658107876778,0.07452556,0.009468411,10.406009,-76.89981,-7.870551,BSC
117005893632.0,0.008981660939753056,0.09786798059940338,0.6582320332527161,0.10487766563892365,-0.026875317096710205,0.07574729,0.013744468,10.036085,-77.0928,-7.778303599999999,BSC
122802012160.0,0.009520098567008972,0.10278668254613876,0.6908199787139893,0.11006567627191544,-0.027778659015893936,0.08368854,0.013744468,9.85432640944405,-77.1853117682373,-7.73380734936939,BSC
128775487488.0,0.010081964544951916,0.10785993933677673,0.7244042754173279,0.11541109532117844,-0.028686678037047386,0.07513642,-0.0021380284,9.670168,-77.279045,-7.6887235999999985,BSC
134926835712.0,0.010667817667126656,0.11308848857879639,0.7589878439903259,0.1209142655134201,-0.029598355293273926,0.073303826,-0.0021380284,9.307954,-77.46606,-7.590596700000001,BSC
141256409088.0,0.011278212070465088,0.11847291886806488,0.7945725917816162,0.12657536566257477,-0.03051265887916088,0.07696902,-0.0021380284,8.951342,-77.64872,-7.4966135,BSC
147764363264.0,0.011913696303963661,0.12401368468999863,0.8311594128608704,0.13239441812038422,-0.03142854943871498,0.08124508,-0.009468411,8.604884,-77.82129,-7.405428,BSC
154450673664.0,0.012574812397360802,0.1297110915184021,0.8687481880187988,0.1383712887763977,-0.03234497830271721,0.069027774,-0.015271631,8.266454,-77.98992,-7.3106256,BSC
161315160064.0,0.013262096792459488,0.13556531071662903,0.9073377847671509,0.14450566470623016,-0.03326088935136795,0.06688975,-0.015882496,7.9212475000000016,-78.160095,-7.215209,BSC
168357462016.0,0.013976077549159527,0.14157634973526,0.9469261169433594,0.1507970690727234,-0.03417522832751274,0.063224554,-0.015271631,7.5845145999999986,-78.32288,-7.118064,BSC
175577022464.0,0.014717276208102703,0.1477441042661667,0.987510085105896,0.15724487602710724,-0.03508693724870682,0.064446285,-0.015882496,7.241532,-78.47789,-7.021259,BSC
182973104128.0,0.015486204996705055,0.15406829118728638,1.0290855169296265,0.16384829580783844,-0.035994965583086014,0.063224554,-0.01863139,6.9048104000000015,-78.63274399999997,-6.922454400000001,BSC
190544822272.0,0.016283368691802025,0.16054850816726685,1.0716474056243896,0.17060637474060059,-0.03689826279878616,0.07299839999999999,-0.018020526,6.5684023,-78.78452,-6.8200502000000025,BSC
198291095552.0,0.017109261825680733,0.16718420386314392,1.1151896715164185,0.17751799523830414,-0.0377957820892334,0.058643065,-0.020463986,6.243714,-78.9316,-6.716297999999999,BSC
206210678784.0,0.01796436868607998,0.17397469282150269,1.1597052812576294,0.18458189070224762,-0.038686495274305344,0.061086524,-0.021991149,5.918173,-79.071434,-6.6157174,BSC
214302162944.0,0.018849164247512817,0.1809191256761551,1.2051862478256226,0.19179664552211761,-0.03956937417387962,0.06872234,-0.023823744,5.5994085999999985,-79.20515400000002,-6.5138817000000016,BSC
222563958784.0,0.019764114171266556,0.18801654875278473,1.2516237497329712,0.19916066527366638,-0.040443409234285355,0.06536258,-0.027183503,5.287211,-79.33729,-6.411011,BSC
230994329600.0,0.020709671080112457,0.19526584446430206,1.299007773399353,0.20667222142219543,-0.04130760207772255,0.06597344599999999,-0.025350908,4.973525,-79.464264,-6.302203,BSC
239591374848.0,0.02168627642095089,0.202665776014328,1.347327709197998,0.21432942152023315,-0.04216097667813301,0.064446285,-0.02443461,4.665479,-79.59090400000002,-6.1930842,BSC
248353030144.0,0.022694360464811325,0.21021495759487152,1.3965719938278198,0.22213023900985718,-0.043002571910619736,0.05589417,-0.0290161,4.3610373,-79.70705,-6.0840864,BSC
257277067264.0,0.02373434044420719,0.21791189908981323,1.446727991104126,0.2300724983215332,-0.04383144900202751,0.06078109,-0.02565634,4.056552,-79.82544,-5.971979,BSC
266361143296.0,0.02480662241578102,0.22575494647026062,1.4977824687957764,0.238153874874115,-0.04464669153094292,0.040317107000000005,-0.03145956,3.7659223,-79.934814,-5.8614073,BSC
275602735104.0,0.025911599397659302,0.233742356300354,1.549721360206604,0.24637192487716675,-0.04544740170240402,0.040317107000000005,-0.032375857,3.4698842000000005,-80.041885,-5.750746,BSC
284999188480.0,0.027049649506807327,0.24187223613262177,1.6025296449661255,0.25472405552864075,-0.046232715249061584,0.03726278,-0.029626964,3.1841135,-80.141655,-5.6389246,BSC
294547718144.0,0.028221139684319496,0.25014257431030273,1.6561915874481201,0.2632075250148773,-0.04700178653001785,0.03176499,-0.03726278,2.9000986,-80.23676999999998,-5.5334177,BSC
304245407744.0,0.029426421970129013,0.2585512697696686,1.7106908559799194,0.27181947231292725,-0.04775380715727806,0.023823744,-0.037873644,2.6206388,-80.32547,-5.4241824,BSC
314089242624.0,0.030665835365653038,0.26709607243537903,1.7660102844238281,0.28055694699287415,-0.04848799109458923,0.01160644,-0.04062254,2.3539078,-80.41063,-5.318764,BSC
324076011520.0,0.03193970397114754,0.27577465772628784,1.8221321105957031,0.2894168496131897,-0.04920358210802078,0.00061086525,-0.04337143,2.0921996,-80.49375,-5.2126535999999986,BSC
334202437632.0,0.03324833884835243,0.28458455204963684,1.8790377378463745,0.29839593172073364,-0.0498998649418354,-0.010079277,-0.05131268,1.8371788,-80.57292,-5.107837,BSC
344465145856.0,0.03459203243255615,0.2935231924057007,1.9367080926895142,0.30749088525772095,-0.05057614669203758,-0.014049901000000002,-0.05131268,1.5832503999999998,-80.648636,-5.005572,BSC
354860597248.0,0.03597106784582138,0.30258792638778687,1.9951233863830566,0.316698282957077,-0.05123177543282509,-0.027183503,-0.057421334,1.338465,-80.71831,-4.9060510000000015,BSC
365385220096.0,0.037385713309049606,0.3117760121822357,2.0542633533477783,0.32601457834243774,-0.05186612904071808,-0.036957346,-0.061086524,1.0973708999999998,-80.78496,-4.811111,BSC
376035311616.0,0.038836218416690826,0.321084588766098,2.114107131958008,0.3354361355304718,-0.05247862637042999,-0.052534413,-0.08002335,0.8653245999999999,-80.842834,-4.7210565,BSC
386807037952.0,0.040322817862033844,0.3305107355117798,2.174633502960205,0.34495922923088074,-0.05306871980428696,-0.04642576,-0.08979719,0.63643634,-80.8994,-4.636986,BSC
397696565248.0,0.04184573516249657,0.34005144238471985,2.2358205318450928,0.35458001494407654,-0.05363589525222778,-0.058337633,-0.11026118,0.4208861,-80.94393000000002,-4.5594964,BSC
408699928576.0,0.04340517520904541,0.3497036099433899,2.2976460456848145,0.3642945885658264,-0.05417967960238457,-0.07574729,-0.12614368,0.20539884,-80.97644,-4.4916387,BSC
419813097472.0,0.045001331716775894,0.3594640791416168,2.3600873947143555,0.3740989863872528,-0.05469964072108269,-0.08857546,-0.14660765,359.9957,-81.00272,-4.429771,BSC
431031943168.0,0.04663437604904175,0.369329571723938,2.423121452331543,0.3839891254901886,-0.05519538000226021,-0.09040806,-0.16554448,359.79468,-81.013306,-4.373203299999999,BSC
442352336896.0,0.048304472118616104,0.37929680943489075,2.486724853515625,0.3939609229564667,-0.05566653981804848,-0.09865474,-0.18875736,359.60257,-81.02032,-4.322071,BSC
453770051584.0,0.0500117689371109,0.3893623948097229,2.5508739948272705,0.404010146856308,-0.05611279979348183,-0.092240654,-0.21288654,359.41394,-81.00551999999998,-4.2824097000000005,BSC
465280827392.0,0.051756393164396286,0.39952290058135986,2.6155447959899902,0.41413256525993347,-0.05653388053178787,-0.09560041,-0.2415972,359.2339,-80.98080999999998,-4.2488337,BSC
476880338944.0,0.05353846028447151,0.4097748398780823,2.680712938308716,0.4243238866329193,-0.05692954361438751,-0.10873401,-0.269697,359.05765,-80.95356,-4.225027,BSC
488564228096.0,0.055358074605464935,0.420114666223526,2.7463538646698,0.4345797896385193,-0.05729958787560463,-0.10354166,-0.29260445,358.88052000000016,-80.91546,-4.2070622,BSC
500328103936.0,0.05721531808376312,0.4305388033390045,2.8124430179595947,0.44489586353302,-0.05764384940266609,-0.09285152,-0.29871312,358.7115,-80.87144,-4.180928,BSC
512167542784.0,0.05911026522517204,0.4410436451435089,2.878955364227295,0.45526769757270813,-0.05796221271157265,-0.111177474,-0.33169982,358.5536,-80.81838,-4.166655,BSC
524078088192.0,0.06104297190904617,0.4516254961490631,2.945866107940674,0.46569085121154785,-0.05825459584593773,-0.111177474,-0.34269542,358.38742,-80.76474,-4.1399236,BSC
536055316480.0,0.0630134791135788,0.4622806906700134,3.0131499767303467,0.4761608839035034,-0.058520954102277756,-0.10934488,-0.35643986,358.2297,-80.70517,-4.121435,BSC
548094705664.0,0.0650218203663826,0.473005473613739,3.080781936645508,0.4866732954978943,-0.05876128748059273,-0.11789699,-0.35399640000000004,358.06796,-80.644295,-4.093891,BSC
560191832064.0,0.06706800311803818,0.483796089887619,3.1487367153167725,0.4972235858440399,-0.05897563695907593,-0.14172074,-0.36071593,357.91348,-80.579254,-4.0710974,BSC
572342140928.0,0.06915202736854553,0.4946487843990326,3.216989040374756,0.5078072547912598,-0.059164077043533325,-0.15118915,-0.3475823,357.74548,-80.5155,-4.031935,BSC
584541143040.0,0.07127388566732407,0.5055597424507141,3.2855138778686523,0.5184198021888733,-0.05932672694325447,-0.17165314,-0.3472769,357.59067000000016,-80.44768499999998,-3.9960492,BSC
596784381952.0,0.0734335407614708,0.516525149345398,3.354285717010498,0.5290567278862,-0.0594637393951416,-0.17745635,-0.34513888,357.43613,-80.37883000000002,-3.955522,BSC
609067401216.0,0.07563096284866333,0.5275412201881409,3.4232797622680664,0.5397135615348816,-0.059575311839580536,-0.18234327,-0.35613444,357.27304,-80.30641999999997,-3.8979094,BSC
621385744384.0,0.0778660923242569,0.5386040806770325,3.4924707412719727,0.5503858327865601,-0.05966167896986008,-0.18234327,-0.37140608,357.11255,-80.22904,-3.840734,BSC
633734955008.0,0.08013886213302612,0.5497099161148071,3.561833620071411,0.561069130897522,-0.05972311273217201,-0.1994475,-0.40317106,356.96127,-80.13383,-3.7967827000000014,BSC
646110642176.0,0.08244919031858444,0.5608548521995544,3.6313438415527344,0.5717589855194092,-0.059759922325611115,-0.20219639,-0.43004912,356.80856,-80.02865600000001,-3.7558265,BSC
658508349440.0,0.08479698747396469,0.5720351338386536,3.700976610183716,0.5824510455131531,-0.05977245792746544,-0.17440203,-0.45937067,356.65997000000016,-79.90342,-3.736151,BSC
670923816960.0,0.08718214184045792,0.5832468271255493,3.770707368850708,0.5931409597396851,-0.059761106967926025,-0.15088372,-0.49205196,356.51678,-79.76598,-3.7235703,BSC
683352653824.0,0.08960454910993576,0.5944861769676208,3.8405120372772217,0.6038243770599365,-0.0597262941300869,-0.13439035,-0.5363397,356.37183,-79.61825999999998,-3.7221293,BSC
695790665728.0,0.09206407517194748,0.6057493090629578,3.9103662967681885,0.6144970655441284,-0.05966848134994507,-0.13164146,-0.57360244,356.23563,-79.44296999999997,-3.738786,BSC
708233527296.0,0.09456057846546173,0.6170324683189392,3.9802465438842773,0.6251547932624817,-0.05958816781640053,-0.13561209,-0.59742624,356.10327,-79.24653,-3.770267,BSC
720677109760.0,0.09709390997886658,0.6283318400382996,4.050129413604736,0.6357933878898621,-0.059485893696546555,-0.13500121,-0.6206391,355.97318,-79.04632,-3.8099036,BSC
733117284352.0,0.09966390579938889,0.639643669128418,4.119991302490234,0.64640873670578,-0.05936223641037941,-0.14813483,-0.6398814,355.85153,-78.83294000000002,-3.8516245,BSC
745549922304.0,0.10227039456367493,0.6509642004966736,4.189809322357178,0.6569967865943909,-0.05921780318021774,-0.17165314,-0.6450737,355.73938,-78.61474,-3.8930817,BSC
757971025920.0,0.10491319745779037,0.6622896790504456,4.259560585021973,0.6675536036491394,-0.05905324965715408,-0.20647246,-0.6423248,355.63693,-78.39241,-3.93372,BSC
770376597504.0,0.10759212076663971,0.6736164093017578,4.329222679138184,0.6780752539634705,-0.05886925756931305,-0.24098633,-0.6356053,355.53882000000016,-78.14729,-3.9662569,BSC
782762770432.0,0.11030695587396622,0.684940755367279,4.398774147033691,0.6885578632354736,-0.05866655334830284,-0.26358834,-0.6267477,355.44872999999984,-77.911446,-3.9939284,BSC
795125678080.0,0.11305749416351318,0.6962590217590332,4.468193054199219,0.6989976763725281,-0.058445896953344345,-0.31429017,-0.6197228,355.37317,-77.66485,-4.004689,BSC
807461584896.0,0.1158435195684433,0.7075676321983337,4.5374579429626465,0.7093909978866577,-0.05820808932185173,-0.35063666,-0.6236934000000001,355.30148,-77.41566999999998,-4.0138936,BSC
819766755328.0,0.11866480112075806,0.7188630104064941,4.606547832489014,0.7197341918945312,-0.05795396491885185,-0.3484986,-0.6301074999999999,355.2341,-77.16634,-4.0183964,BSC
832037584896.0,0.12152110040187836,0.7301415801048279,4.675442695617676,0.7300236821174622,-0.05768439546227455,-0.33292156,-0.6407976,355.1745,-76.91348,-4.022684,BSC
844270469120.0,0.1244121715426445,0.7413998246192932,4.74412202835083,0.7402560710906982,-0.05740029364824295,-0.31826079999999995,-0.6444628000000001,355.1185,-76.65856,-4.029925,BSC
856461934592.0,0.1273377537727356,0.7526343464851379,4.81256628036499,0.7504279613494873,-0.05710260570049286,-0.29535335,-0.66859204,355.05875,-76.40994,-4.0459566,BSC
868608573440.0,0.13029758632183075,0.7638416886329651,4.88075590133667,0.7605360746383667,-0.05679231882095337,-0.2846632,-0.70249504,354.99243,-76.15078000000003,-4.0749516,BSC
880707108864.0,0.13329140841960907,0.7750185132026672,4.948672294616699,0.7705771923065186,-0.05647045746445656,-0.26572640000000003,-0.72601336,354.9198,-75.90177,-4.1078134,BSC
892754264064.0,0.13631895184516907,0.786161482334137,5.016296863555908,0.7805482149124146,-0.05613808333873749,-0.24404067,-0.7510588,354.84814,-75.6276,-4.163938,BSC
904746827776.0,0.13937991857528687,0.7972673177719116,5.083611965179443,0.7904461026191711,-0.0557962991297245,-0.22785273,-0.77946407,354.7765,-75.364716,-4.22572,BSC
916681785344.0,0.14247402548789978,0.8083328008651733,5.150599479675293,0.8002679347991943,-0.05544624105095863,-0.21074851,-0.81092364,354.70892000000015,-75.09269,-4.30326,BSC
928556056576.0,0.14560097455978394,0.819354772567749,5.21724271774292,0.8100108504295349,-0.05508909374475479,-0.19792034,-0.84788096,354.64264,-74.82802,-4.387809,BSC
940366757888.0,0.14876046776771545,0.8303301334381104,5.283524990081787,0.8196721076965332,-0.054726071655750275,-0.18997909,-0.90010995,354.57852,-74.57266,-4.482781,BSC
952111071232.0,0.15195219218730927,0.841255784034729,5.349430084228516,0.8292490839958191,-0.054358433932065964,-0.16401732,-0.9282097,354.5179,-74.30199999999998,-4.599137000000002,BSC
963786309632.0,0.1551758497953415,0.852128803730011,5.414942264556885,0.8387392163276672,-0.05398748070001602,-0.12889257,-0.9599747,354.45914,-74.033905,-4.728053,BSC
975389720576.0,0.15843111276626587,0.8629462718963623,5.480046272277832,0.8481400609016418,-0.053614553064107895,-0.10567969,-0.97310835,354.40356,-73.76093,-4.8761816,BSC
986918813696.0,0.16171766817569733,0.8737053275108337,5.544727802276611,0.8574492335319519,-0.053241025656461716,-0.06811147,-1.0274754,354.34277000000014,-73.48841999999998,-5.0432324,BSC
998371033088.0,0.1650351881980896,0.8844031691551208,5.608972072601318,0.8666645288467407,-0.052868325263261795,-0.02076942,-1.0742066,354.2936,-73.211334,-5.2307315,BSC
1009744019456.0,0.16838334500789642,0.895037055015564,5.672764778137207,0.8757837414741516,-0.05249791592359543,0.034208454,-1.1163563,354.23900000000015,-72.93943,-5.4298472,BSC
1021035413504.0,0.17176179587841034,0.905604362487793,5.736093044281006,0.8848048448562622,-0.052131298929452896,0.102319926,-1.1685852,354.19113,-72.64888,-5.671156400000001,BSC
1032243052544.0,0.17517021298408508,0.9161024689674377,5.798943996429443,0.8937258720397949,-0.05177002400159836,0.16707164,-1.2125676,354.13556,-72.365135,-5.9192519999999975,BSC
1043364773888.0,0.1786082684993744,0.9265289306640625,5.861305236816406,0.9025449752807617,-0.05141567811369896,0.24648413,-1.2412782,354.06418,-72.09095,-6.1771160000000025,BSC
1054398545920.0,0.1820756047964096,0.9368813037872314,5.923164367675781,0.9112603664398193,-0.051069896668195724,0.29565877,-1.2562444,354.01193,-71.78113,-6.4681807,BSC
1065342468096.0,0.18557187914848328,0.9471572041511536,5.9845099449157715,0.9198704361915588,-0.05073435604572296,0.28893927,-1.2608258999999995,353.95947,-71.47305,-6.7580156,BSC
1076194574336.0,0.18909674882888794,0.9573543071746826,6.04533052444458,0.9283736348152161,-0.05041076987981796,0.24587326,-1.2434162,353.93268,-71.09864,-7.0718675000000015,BSC
1086953095168.0,0.19264985620975494,0.9674704670906067,6.105616092681885,0.9367684721946716,-0.0501009002327919,0.16982053,-1.2336423,353.92294,-70.72224,-7.3770595,BSC
1097616392192.0,0.19623085856437683,0.9775035381317139,6.165356159210205,0.9450536370277405,-0.04980655014514923,0.0983493,-1.2144,353.92584,-70.34491,-7.663313,BSC
1108182827008.0,0.19983941316604614,0.9874514937400818,6.224540710449219,0.9532278776168823,-0.04952956363558769,0.045814894,-1.2027937,353.95486,-69.902985,-7.943045,BSC
1118650761216.0,0.20347514748573303,0.9973123073577881,6.283160209655762,0.9612900614738464,-0.049271829426288605,0.025350908,-1.1890492,353.99594,-69.46549,-8.205958,BSC
1129018818560.0,0.20713771879673004,1.0070841312408447,6.341206073760986,0.9692391753196716,-0.04903527721762657,0.03359759,-1.1771374,354.04736,-68.9781,-8.465408,BSC
1139285688320.0,0.21082675457000732,1.0167651176452637,6.398669719696045,0.9770742654800415,-0.04882187396287918,0.040927973,-1.1771374,354.10678,-68.5014,-8.715608,BSC
1149450059776.0,0.21454191207885742,1.0263534784317017,6.455543041229248,0.9847944974899292,-0.0486336275935173,0.010079277,-1.1774428,354.17908,-67.990234,-8.966063499999997,BSC
1159510753280.0,0.21828283369541168,1.0358476638793945,6.511817932128906,0.9923991560935974,-0.04847258701920509,0.005192355,-1.1972959,354.24655,-67.48122,-9.218449,BSC
1169466589184.0,0.22204914689064026,1.0452460050582886,6.5674872398376465,0.9998875856399536,-0.04834084212779999,0.013744468,-1.1985176000000002,354.32358,-66.948814,-9.465643,BSC
1179316518912.0,0.2258405089378357,1.0545469522476196,6.622544288635254,1.0072592496871948,-0.04824051260948181,0.025961773,-1.1859949,354.4035,-66.42064,-9.708138,BSC
1189059624960.0,0.22965656220912933,1.0637489557266235,6.6769819259643555,1.0145137310028076,-0.04817375913262367,0.03176499,-1.1771374,354.49277,-65.86418,-9.956309,BSC
1198694989824.0,0.23349693417549133,1.0728507041931152,6.730794429779053,1.021650791168213,-0.04814277961850166,0.043066,-1.1670581,354.57755,-65.316864,-10.196291,BSC
1208221696000.0,0.23736128211021423,1.0818508863449097,6.783975601196289,1.028670072555542,-0.04814979434013367,0.054061573,-1.1575897,354.6616,-64.762924,-10.4283285,BSC
1217639219200.0,0.24124924838542938,1.0907481908798218,6.836520195007324,1.0355714559555054,-0.04819706454873085,0.057421334,-1.1371256,354.76694,-64.16888399999999,-10.69456,BSC
1226946641920.0,0.24516046047210693,1.099541425704956,6.888422966003418,1.042354941368103,-0.04828687757253647,0.07819075,-1.1346822,354.86703,-63.57502,-10.959035,BSC
1236143570944.0,0.24909457564353943,1.108229398727417,6.939679145812988,1.0490206480026245,-0.04842154309153557,0.06994407,-1.1304061,354.97217,-62.96184,-11.211332,BSC
1245229350912.0,0.2530512511730194,1.116810917854309,6.990283966064453,1.0555686950683594,-0.048603400588035583,0.057421334,-1.1276573,355.07367,-62.351147,-11.457702,BSC
1254203588608.0,0.2570301294326782,1.1252849102020264,7.040233135223389,1.0619994401931763,-0.04883481189608574,0.06291912,-1.144456,355.16867,-61.73246999999999,-11.688074,BSC
1263065890816.0,0.2610308527946472,1.1336504220962524,7.089522361755371,1.0683132410049438,-0.04911815747618675,0.04886922,-1.1545353,355.271,-61.123783,-11.904605,BSC
1271815864320.0,0.26505306363105774,1.1419063806533813,7.138148307800293,1.0745104551315308,-0.049455832690000534,0.03390302,-1.1612549,355.37372,-60.51873000000001,-12.11775,BSC
1280453378048.0,0.2690964341163635,1.1500518321990967,7.186107635498047,1.0805917978286743,-0.049850255250930786,-0.009468411,-1.1435398,355.4578,-59.948563,-12.293753,BSC
1288978169856.0,0.2731606066226959,1.1580857038497925,7.233396530151367,1.0865578651428223,-0.05030385032296181,-0.05681047,-1.1233811000000002,355.54642,-59.39053000000001,-12.4613,BSC
1297389977600.0,0.2772452235221863,1.166007161140442,7.280012607574463,1.0924094915390015,-0.05081905052065849,-0.0580322,-1.106277,355.60275,-58.85961,-12.600342,BSC
1305688932352.0,0.28134995698928833,1.1738152503967285,7.325953006744385,1.0981476306915283,-0.051398295909166336,-0.02443461,-1.103528,355.65997000000016,-58.349487,-12.730799,BSC
1313874903040.0,0.2854744791984558,1.181509017944336,7.371214866638184,1.1037732362747192,-0.052044034004211426,0.027488936,-1.1068878,355.71246,-57.84185,-12.8502035,BSC
1321947889664.0,0.28961843252182007,1.1890875101089478,7.415796279907227,1.1092875003814697,-0.05275871232151985,0.06352998,-1.0454959,355.7491,-57.365158,-12.950374,BSC
1329908023296.0,0.29378148913383484,1.1965497732162476,7.4596943855285645,1.1146917343139648,-0.053544774651527405,0.08124508,-1.0155635,355.78104,-56.91167,-13.059099,BSC
1337755435008.0,0.29796332120895386,1.2038947343826294,7.502907752990723,1.1199872493743896,-0.05440466105937958,0.13836098,-1.0045679,355.801,-56.423965,-13.158669,BSC
1345490255872.0,0.30216360092163086,1.2111215591430664,7.545434474945068,1.1251754760742188,-0.05534080043435097,0.25259277,-1.0216721,355.80048,-55.962708,-13.264416,BSC
1353112879104.0,0.3063820004463196,1.2182291746139526,7.587272644042969,1.1302582025527954,-0.056355610489845276,0.33292156,-1.0439687,355.83618,-55.455082,-13.442639000000002,BSC
1360623435776.0,0.31061819195747375,1.2252165079116821,7.628420352935791,1.1352370977401733,-0.05745150148868561,0.3652974,-1.0607675,355.8577,-54.9633,-13.626999,BSC
1368022319104.0,0.3148718476295471,1.2320823669433594,7.668876647949219,1.1401140689849854,-0.05863086134195328,0.42363504,-1.1007791999999998,355.91293,-54.400875,-13.911577,BSC
1375309922304.0,0.3191426694393158,1.238825798034668,7.708640098571777,1.1448912620544434,-0.059896063059568405,0.44440445,-1.1258247,355.97162000000014,-53.85334399999999,-14.18767,BSC
1382486769664.0,0.3234303295612335,1.2454454898834229,7.747709274291992,1.1495708227157593,-0.06124945357441902,0.45998153,-1.1548406999999998,356.02637000000016,-53.32664499999999,-14.474286,BSC
1389553254400.0,0.32773450016975403,1.2519402503967285,7.786082744598389,1.1541551351547241,-0.06269335746765137,0.47586402,-1.2055426,356.11783,-52.736404,-14.825619,BSC
1396509900800.0,0.33205488324165344,1.2583086490631104,7.82375955581665,1.158646821975708,-0.06423007696866989,0.47983465,-1.2541064,356.21536000000015,-52.169926,-15.174244,BSC
1403357233152.0,0.3363911807537079,1.2645493745803833,7.860738754272461,1.163048505783081,-0.06586187332868576,0.46120325,-1.3078625,356.3573,-51.561928,-15.561654999999998,BSC
1410095775744.0,0.3407430946826935,1.2706609964370728,7.897019863128662,1.1673630475997925,-0.06759098917245865,0.41325033,-1.3344351,356.5114,-50.97181,-15.939018,BSC
1416726315008.0,0.34511032700538635,1.2766419649124146,7.932601451873779,1.171593427658081,-0.06941962242126465,0.33994650000000004,-1.350623,356.68713,-50.375862,-16.315063000000002,BSC
1423249375232.0,0.3494925796985626,1.2824907302856445,7.967482566833496,1.1757429838180542,-0.07134994119405746,0.27122417,-1.3457361,356.87567,-49.797394,-16.674088,BSC
1429665742848.0,0.3538895547389984,1.2882055044174194,8.001663208007812,1.1798150539398193,-0.07338406890630722,0.20861048,-1.3408492,357.04944,-49.222523,-17.009144,BSC
1435976073216.0,0.35830095410346985,1.293784499168396,8.035141944885254,1.1838133335113525,-0.07552409917116165,0.15424347,-1.3396275,357.23746,-48.65939,-17.323689,BSC
1442181152768.0,0.36272650957107544,1.2992258071899414,8.067917823791504,1.1877416372299194,-0.07777208089828491,0.112399206,-1.3023646999999998,357.40924,-48.103767,-17.589113,BSC
1448281767936.0,0.3671659231185913,1.3045275211334229,8.099990844726562,1.1916038990020752,-0.08013001084327698,0.06597344599999999,-1.2678508,357.5935,-47.557312,-17.835718,BSC
1454278705152.0,0.37161895632743835,1.309687614440918,8.131360054016113,1.1954044103622437,-0.08259985595941544,0.025961773,-1.237613,357.76822000000016,-46.999737,-18.051697,BSC
1460172750848.0,0.3760852813720703,1.3147038221359253,8.162025451660156,1.1991475820541382,-0.0851835235953331,0.006414085,-1.217149,357.94125,-46.454216,-18.24972,BSC
1465964953600.0,0.3805646598339081,1.319573998451233,8.191986083984375,1.2028380632400513,-0.0878828763961792,-0.014049901000000002,-1.2030991000000002,358.11575,-45.918545,-18.427835,BSC
1471656099840.0,0.38505682349205017,1.3242956399917603,8.22124195098877,1.2064807415008545,-0.09069972485303879,-0.014660766,-1.1902708999999998,358.2779,-45.372997,-18.592588,BSC
1477247107072.0,0.3895615041255951,1.3288663625717163,8.249792098999023,1.210080623626709,-0.09363583475351334,-0.01282817,-1.1612549,358.4343,-44.84149,-18.741074,BSC
1482738892800.0,0.39407843351364136,1.333283543586731,8.277636528015137,1.2136430740356445,-0.09669291973114014,-0.0021380284,-1.1459832,358.5881,-44.29028,-18.88146,BSC
1488132374528.0,0.39860737323760986,1.337544560432434,8.30477523803711,1.21717369556427,-0.0998726338148117,-0.010690141499999998,-1.1166617,358.73303,-43.758347,-19.003397,BSC
1493428600832.0,0.4031480550765991,1.3416465520858765,8.331208229064941,1.2206782102584839,-0.10317657887935638,-0.0036651916,-1.0888673,358.8582,-43.202713,-19.11305,BSC
1498628489216.0,0.40770024061203003,1.3455866575241089,8.356934547424316,1.2241625785827637,-0.10660629719495773,0.009468411,-1.0656544,358.9748,-42.67603,-19.211697,BSC
1503733088256.0,0.4122636914253235,1.3493618965148926,8.38195514678955,1.227632999420166,-0.11016327887773514,0.036651913,-1.0488556999999998,359.08563,-42.127174,-19.303974,BSC
1508743315456.0,0.416838139295578,1.3529691696166992,8.406269073486328,1.2310960292816162,-0.11384895443916321,0.07147124,-1.029308,359.1826,-41.603306,-19.389978,BSC
1513660350464.0,0.42142337560653687,1.356405258178711,8.429877281188965,1.2345582246780396,-0.11766469478607178,0.101098195,-1.0201449,359.29156,-41.0619,-19.483006,BSC
1518485110784.0,0.42601916193962097,1.3596669435501099,8.452779769897461,1.2380266189575195,-0.12161180377006531,0.13958271,-1.0183123,359.38507000000016,-40.541725,-19.57726,BSC
1523218776064.0,0.4306252598762512,1.3627506494522095,8.474976539611816,1.2415082454681396,-0.12569153308868408,0.14905111,-1.0201449,359.4909,-40.00348,-19.68416,BSC
1527862394880.0,0.4352414309978485,1.3656530380249023,8.496468544006348,1.245010495185852,-0.1299050748348236,0.1863139,-1.0235047,359.58,-39.488323,-19.799181,BSC
1532417015808.0,0.43986746668815613,1.3683702945709229,8.517255783081055,1.2485408782958984,-0.13425353169441223,0.21777347,-1.0326678,359.67926,-38.94897,-19.939133,BSC
1536883687424.0,0.44450315833091736,1.3708988428115845,8.537339210510254,1.2521072626113892,-0.1387379765510559,0.24190263,-1.0393872,359.77066,-38.42858,-20.079453,BSC
1541263589376.0,0.4491482675075531,1.3732348680496216,8.556719779968262,1.2557176351547241,-0.14335939288139343,0.27152961,-1.0387764000000002,359.87494,-37.88561,-20.253141,BSC
1545557770240.0,0.45380261540412903,1.375374436378479,8.575398445129395,1.2593802213668823,-0.14811870455741882,0.2932153,-1.0396926,359.9764,-37.35868,-20.425117,BSC
1549767409664.0,0.45846596360206604,1.377313494682312,8.593377113342285,1.2631033658981323,-0.15301677584648132,0.3036,-1.0479393,0.095631726,-36.795757,-20.619726,BSC
1553893556224.0,0.4631381034851074,1.3790481090545654,8.610655784606934,1.2668957710266113,-0.158054381608963,0.3051272,-1.0247264,0.2038655,-36.259464,-20.804232,BSC
1557937258496.0,0.46781885623931885,1.3805739879608154,8.627237319946289,1.2707661390304565,-0.1632322371006012,0.28955013,-0.9972375,0.33919644,-35.68914,-20.987236,BSC
1561899827200.0,0.4725080132484436,1.3818869590759277,8.643122673034668,1.2747235298156738,-0.1685509979724884,0.2782491,-0.98471475,0.46924257,-35.134422,-21.16286,BSC
1565782179840.0,0.47720539569854736,1.382982611656189,8.658313751220703,1.2787771224975586,-0.1740112453699112,0.2764165,-0.96974856,0.5909386999999999,-34.60493,-21.325127,BSC
1569585627136.0,0.4819107949733734,1.3838566541671753,8.672813415527344,1.2829362154006958,-0.17961348593235016,0.2764165,-0.9468411,0.72204494,-34.04632,-21.474512,BSC
1573311217664.0,0.4866240322589874,1.3845045566558838,8.686622619628906,1.28721022605896,-0.18535815179347992,0.28680122,-0.9407325,0.8488860999999999,-33.507126,-21.619938,BSC
1576960000000.0,0.4913449287414551,1.3849217891693115,8.699745178222656,1.2916089296340942,-0.19124560058116913,0.29810223,-0.9297369,0.9767283,-32.935986,-21.763302,BSC
1580533153792.0,0.49607330560684204,1.3851038217544556,8.712183952331543,1.2961421012878418,-0.19727611541748047,0.31795537,-0.9242391,1.0977969,-32.387737,-21.904755,BSC
1584031858688.0,0.5008089542388916,1.3850460052490234,8.7239408493042,1.3008195161819458,-0.20344990491867065,0.3463606,-0.91782504,1.2093587,-31.856272,-22.04292,BSC
1587457163264.0,0.5055517554283142,1.3847436904907227,8.735020637512207,1.3056514263153076,-0.20976711809635162,0.34483343,-0.9049969,1.3382577,-31.30064,-22.18722,BSC
1590810247168.0,0.5103015303611755,1.3841922283172607,8.7454252243042,1.3106478452682495,-0.21622781455516815,0.34605515,-0.9129381,1.4624887,-30.758703000000004,-22.334833,BSC
1594092290048.0,0.5150581002235413,1.3833868503570557,8.755159378051758,1.3158191442489624,-0.22283197939395905,0.31337386,-0.8885035,1.5961802,-30.20494,-22.471214,BSC
1597304340480.0,0.519821286201477,1.3823227882385254,8.764226913452148,1.3211755752563477,-0.22957952320575714,0.30879238,-0.86498517,1.7237576,-29.667109000000004,-22.609863,BSC
1600447447040.0,0.5245909094810486,1.380995273590088,8.772632598876953,1.3267276287078857,-0.2364702820777893,0.30298916,-0.84757555,1.8718951,-29.097778,-22.736414,BSC
1603522789376.0,0.5293668508529663,1.3793995380401611,8.780381202697754,1.3324857950210571,-0.24350401759147644,0.3747658,-0.86467975,2.0067997,-28.552156,-22.8767,BSC
1606531416064.0,0.5341489315032959,1.377530813217163,8.787476539611816,1.3384605646133423,-0.25068041682243347,0.3903429,-0.8588764999999999,2.1623137000000003,-27.978657,-23.006104,BSC
1609474506752.0,0.5389370322227478,1.3753843307495117,8.793924331665039,1.3446625471115112,-0.257999062538147,0.3484986,-0.8472700999999999,2.3143563,-27.420612,-23.134468,BSC
1612353110016.0,0.5437309741973877,1.3729554414749146,8.79973030090332,1.3511024713516235,-0.26545950770378113,0.32162055,-0.84635377,2.459043,-26.887468,-23.26507,BSC
1615168405504.0,0.548530638217926,1.3702392578125,8.804899215698242,1.3577908277511597,-0.27306118607521057,0.32009340000000003,-0.82741696,2.6196487,-26.32272,-23.387186,BSC
1617921310720.0,0.5533358454704285,1.3672312498092651,8.80943775177002,1.3647383451461792,-0.28080347180366516,0.3213151,-0.83169305,2.7849526,-25.771643,-23.50097,BSC
1620613005312.0,0.5581464767456055,1.3639267683029175,8.813352584838867,1.3719556331634521,-0.28868567943573,0.3585779000000001,-0.8344419,2.959364,-25.19866,-23.627823,BSC
1623244406784.0,0.5629624128341675,1.3603211641311646,8.816649436950684,1.3794533014297485,-0.29670700430870056,0.36377025,-0.8206975000000001,3.1296197999999995,-24.645258,-23.739868,BSC
1625816694784.0,0.567783534526825,1.3564099073410034,8.8193359375,1.3872419595718384,-0.30486661195755005,0.34574974,-0.8042041,3.3157368,-24.06836,-23.867773,BSC
1628330917888.0,0.5726096630096436,1.3521884679794312,8.821417808532715,1.3953322172164917,-0.31316354870796204,0.34300083,-0.7858781,3.4894870000000004,-23.511995,-23.993149,BSC
1630788124672.0,0.5774407386779785,1.347652554512024,8.822903633117676,1.4037344455718994,-0.32159683108329773,0.34330627,-0.7870999,3.687449,-22.92489,-24.109783,BSC
1633189363712.0,0.5822765827178955,1.3427977561950684,8.823800086975098,1.4124590158462524,-0.3301653563976288,0.37812558,-0.7819075,3.86836,-22.361742,-24.226269,BSC
1635535552512.0,0.587117075920105,1.3376199007034302,8.824115753173828,1.4215162992477417,-0.3388679623603821,0.43554693,-0.8002335,4.0647182,-21.76963,-24.357649,BSC
1637827739648.0,0.5919620990753174,1.332114815711975,8.823858261108398,1.430916428565979,-0.3477034270763397,0.4288274,-0.7858781,4.2485247,-21.20162,-24.471323,BSC
1640066973696.0,0.5968115329742432,1.326278567314148,8.823036193847656,1.4406696557998657,-0.35667043924331665,0.4156938,-0.7724390999999999,4.426292,-20.649107,-24.594973,BSC
1642254172160.0,0.6016652584075928,1.320107102394104,8.821657180786133,1.4507858753204346,-0.36576759815216064,0.40225476,-0.75869465,4.6124434,-20.086565,-24.710016,BSC
1644390383616.0,0.6065231561660767,1.3135967254638672,8.819730758666992,1.4612748622894287,-0.3749934434890747,0.40653083,-0.7483099,4.78966,-19.541945,-24.820055,BSC
1646476525568.0,0.61138516664505,1.3067436218261719,8.817266464233398,1.4721463918685913,-0.38434648513793945,0.43585235,-0.75228053,4.9638852999999985,-18.981733,-24.934784,BSC
1648513515520.0,0.6162511706352234,1.299544334411621,8.814271926879883,1.4834100008010864,-0.39382508397102356,0.4147775,-0.7449501999999999,5.1317444000000005,-18.44114,-25.029898,BSC
1650502402048.0,0.6211210489273071,1.2919954061508179,8.810757637023926,1.495074987411499,-0.4034276008605957,0.36896262,-0.7147123000000001,5.2882724,-17.91998,-25.119371,BSC
1652444102656.0,0.6259946823120117,1.2840934991836548,8.806733131408691,1.5071505308151245,-0.4131523072719574,0.34697145,-0.6899723000000001,5.4447064,-17.375923,-25.202393,BSC
1654339534848.0,0.6308719515800476,1.2758355140686035,8.802206993103027,1.5196456909179688,-0.4229973554611206,0.3576616,-0.66798115,5.5888205,-16.854488,-25.275013,BSC
1656189616128.0,0.63575279712677,1.2672184705734253,8.797189712524414,1.5325692892074585,-0.4329609274864197,0.39095375,-0.6640105,5.7504106,-16.304748999999994,-25.360294,BSC
1657995264000.0,0.6406371593475342,1.2582393884658813,8.791690826416016,1.5459297895431519,-0.443041056394577,0.4156938,-0.66431594,5.900932,-15.779837,-25.440247,BSC
1659757264896.0,0.6455249190330505,1.2488956451416016,8.785720825195312,1.559735655784607,-0.4532357454299927,0.4251622000000001,-0.68233645,6.0565553,-15.230487,-25.542871,BSC
1661476667392.0,0.6504159569740295,1.2391847372055054,8.779289245605469,1.5739949941635132,-0.4635429382324219,0.41141775,-0.6808093000000001,6.202064,-14.702016,-25.639437,BSC
1663154257920.0,0.6553102135658264,1.2291042804718018,8.772407531738281,1.5887155532836914,-0.4739604890346527,0.419359,-0.657291,6.3476653,-14.158039000000002,-25.74852000000001,BSC
1664790822912.0,0.6602075695991516,1.2186521291732788,8.765084266662598,1.6039050817489624,-0.48448625206947327,0.4175264,-0.64751714,6.4951134,-13.62349,-25.847446,BSC
1666387279872.0,0.6651079654693604,1.2078262567520142,8.757330894470215,1.6195709705352783,-0.4951179623603821,0.43279803,-0.63346726,6.6280813,-13.109227,-25.946627,BSC
1667944415232.0,0.6700112819671631,1.1966246366500854,8.749157905578613,1.6357202529907227,-0.5058533549308777,0.4373795,-0.6252206,6.7598095,-12.575093,-26.048794,BSC
1669463146496.0,0.674917459487915,1.1850457191467285,8.740574836730957,1.6523597240447998,-0.5166900157928467,0.43096542,-0.61941737,6.8842690000000015,-12.058932,-26.146763,BSC
1670944129024.0,0.6798264384269714,1.1730880737304688,8.731593132019043,1.669495940208435,-0.527625560760498,0.4783075,-0.6356053,7.012934,-11.521816,-26.260569,BSC
1672388280320.0,0.6847381591796875,1.1607502698898315,8.722222328186035,1.6871352195739746,-0.538657546043396,0.47342056,-0.625526,7.1327744000000015,-11.003129,-26.35150100000001,BSC
1673796386816.0,0.6896525025367737,1.1480311155319214,8.712472915649414,1.705283522605896,-0.54978346824646,0.4279111,-0.5702427,7.251933599999999,-10.465814,-26.440073,BSC
1675169234944.0,0.6945694088935852,1.1349296569824219,8.70235538482666,1.7239463329315186,-0.5610007643699646,0.42638394,-0.51343226,7.361444,-9.945511,-26.534607,BSC
1676507480064.0,0.6994888186454773,1.1214451789855957,8.691879272460938,1.7431291341781616,-0.5723068714141846,0.44073927,-0.47433686,7.450093700000001,-9.424555,-26.611643,BSC
1677811908608.0,0.7044106721878052,1.1075770854949951,8.681055068969727,1.7628369331359863,-0.583699107170105,0.47403142,-0.44440445,7.519989,-8.921159,-26.687235,BSC
1679083307008.0,0.7093348503112793,1.093324899673462,8.669893264770508,1.7830743789672852,-0.5951747894287109,0.49174652,-0.4184427,7.576289,-8.440441,-26.75705,BSC
1680322461696.0,0.7142612934112549,1.0786885023117065,8.658403396606445,1.8038458824157715,-0.6067311763763428,0.50701815,-0.39064834,7.619924,-7.959161,-26.836687,BSC
1681530028032.0,0.7191900014877319,1.0636677742004395,8.646595001220703,1.8251553773880005,-0.6183655261993408,0.5314528000000001,-0.3210097,7.638818700000002,-7.491828999999999,-26.917303000000004,BSC
1682706661376.0,0.7241208553314209,1.0482628345489502,8.634478569030762,1.8470065593719482,-0.6300750374794006,0.56291234,-0.27366763,7.6495395,-7.039421000000001,-27.002556,BSC
1683853017088.0,0.729053795337677,1.032474160194397,8.622062683105469,1.8694028854370117,-0.6418569087982178,0.5888741,-0.23151793,7.637634299999997,-6.609915700000001,-27.08711,BSC
1684969881600.0,0.7339888215065002,1.0163021087646484,8.609356880187988,1.8923472166061401,-0.6537082195281982,0.6224717,-0.19639318,7.6399565,-6.159427,-27.176779,BSC
1686057779200.0,0.7389258146286011,0.9997475147247314,8.596370697021484,1.9158421754837036,-0.6656261086463928,0.6646214,-0.17287487,7.630298599999999,-5.7324486,-27.271488,BSC
1687117496320.0,0.7438647150993347,0.9828112125396729,8.583112716674805,1.9398901462554932,-0.6776076555252075,0.68477994,-0.13011430000000002,7.649497,-5.2794523,-27.382877,BSC
1688149688320.0,0.7488055229187012,0.9654943346977234,8.569591522216797,1.964492917060852,-0.6896499395370483,0.7122689,-0.06383542,7.651262299999999,-4.84875,-27.502869,BSC
1689154879488.0,0.7537481188774109,0.9477981328964233,8.555815696716309,1.9896519184112549,-0.7017499208450317,0.72234815,-0.0012217305,7.651383,-4.4170346,-27.631401,BSC
1690133725184.0,0.7586925029754639,0.9297240972518921,8.541793823242188,2.0153684616088867,-0.7139046788215637,0.7507534,0.037873644,7.6365185,-4.0118637,-27.76767000000001,BSC
1691086880768.0,0.7636386156082153,0.9112738370895386,8.527533531188965,2.0416431427001953,-0.7261112332344055,0.7657196,0.11453723,7.607931,-3.5992657999999995,-27.894255,BSC
1692015001600.0,0.7685863971710205,0.8924492597579956,8.513042449951172,2.068476438522339,-0.7383664846420288,0.77457714,0.15149458,7.579411500000001,-3.2057807,-28.023075,BSC
1692918480896.0,0.7735357880592346,0.8732523322105408,8.49832820892334,2.0958681106567383,-0.7506674528121948,0.7987063,0.22693644,7.520021000000002,-2.8094938,-28.14535,BSC
1693798105088.0,0.7784867286682129,0.8536853194236755,8.483397483825684,2.1238179206848145,-0.76301109790802,0.81397796,0.30787608,7.4476542000000014,-2.4466080000000003,-28.262907,BSC
1694654267392.0,0.7834392189979553,0.8337506651878357,8.468256950378418,2.152324914932251,-0.7753943800926208,0.8210029000000001,0.39278635,7.4046699999999985,-2.04353,-28.370703,BSC
1695487623168.0,0.7883931398391724,0.8134509325027466,8.452913284301758,2.1813879013061523,-0.787814199924469,0.84482664,0.47891834,7.3344283,-1.6791343999999997,-28.482384000000003,BSC
1696298696704.0,0.7933485507965088,0.7927889227867126,8.437373161315918,2.211005210876465,-0.8002675175666809,0.8542950999999999,0.54428095,7.275458299999999,-1.2906206,-28.56706,BSC
1697088012288.0,0.798305332660675,0.7717676758766174,8.421642303466797,2.2411746978759766,-0.812751293182373,0.8323039000000001,0.5345071,7.211792999999999,-0.9331374,-28.645027,BSC
1697856094208.0,0.8032634854316711,0.750390350818634,8.405726432800293,2.2718939781188965,-0.8252624869346619,0.86559606,0.56138515,7.111748,-0.5724096,-28.75301,BSC
1698603466752.0,0.8082228899002075,0.7286603450775146,8.389630317687988,2.3031599521636963,-0.837797999382019,0.9193522,0.5861251999999999,7.0158463000000015,-0.24624772,-28.85623,BSC
1699330654208.0,0.813183605670929,0.7065812349319458,8.373358726501465,2.3349692821502686,-0.8503547310829163,0.9569204,0.54702985,7.000822500000001,0.13941911,-29.003803,BSC
1700038180864.0,0.8181455731391907,0.6841568350791931,8.356916427612305,2.3673179149627686,-0.8629297018051147,1.0125091,0.52473325,6.9718857000000005,0.4879302,-29.166893,BSC
1700726439936.0,0.8231087327003479,0.6613911390304565,8.340307235717773,2.4002017974853516,-0.875519871711731,1.067487,0.52106804,6.978418,0.8463138000000001,-29.407366,BSC
1701395955712.0,0.8280730247497559,0.6382883787155151,8.323535919189453,2.4336159229278564,-0.8881222009658813,1.1102476,0.52656585,6.991652,1.1782503,-29.654734,BSC
1702047121408.0,0.8330384492874146,0.6148529052734375,8.306605339050293,2.467555284500122,-0.9007336497306824,1.1557571000000002,0.5140431,7.014774000000001,1.4813915000000002,-29.91292,BSC
1702680461312.0,0.8380049467086792,0.5910893678665161,8.289518356323242,2.50201416015625,-0.9133512377738953,1.1939361000000002,0.5152648,7.062296400000001,1.7801986,-30.220465,BSC
1703296368640.0,0.8429725170135498,0.5670025944709778,8.27227783203125,2.5369861125946045,-0.9259719252586365,1.205848,0.4831944,7.1290836,2.057535,-30.527445,BSC
1703895367680.0,0.8479411005973816,0.5425977110862732,8.254886627197266,2.57246470451355,-0.938592791557312,1.2400563999999998,0.46028697,7.2137337,2.3428268,-30.8696,BSC
1704477851648.0,0.8529106974601746,0.5178799033164978,8.237346649169922,2.608442544937134,-0.9512108564376831,1.2895365,0.43463063,7.314773599999999,2.5999255,-31.213593,BSC
1705044082688.0,0.8578812479972839,0.4928547441959381,8.219658851623535,2.644912004470825,-0.9638231992721558,1.3451253,0.43157628,7.3472004,2.8182456,-31.589663,BSC
1705594716160.0,0.8628527522087097,0.46752795577049255,8.201825141906738,2.6818649768829346,-0.976426899433136,1.3594806000000002,0.40225476,7.4038496,3.0219240000000003,-31.962929,BSC
1706130014208.0,0.8678251504898071,0.44190549850463867,8.183846473693848,2.719292640686035,-0.9890190362930298,1.3497068,0.3744604,7.458628,3.207662,-32.346405,BSC
1706650370048.0,0.8727984428405762,0.4159936010837555,8.165722846984863,2.757185935974121,-1.0015966892242432,1.4159856000000002,0.35827246,7.5282564,3.3851879,-32.75139,BSC
1707156176896.0,0.8777726292610168,0.38979870080947876,8.147455215454102,2.79553484916687,-1.0141570568084717,1.4630222,0.34819320000000004,7.610996000000001,3.5312173,-33.14369600000001,BSC
1707647827968.0,0.8827475905418396,0.3633275032043457,8.129042625427246,2.83432936668396,-1.0266972780227661,1.4651603000000002,0.31429017,7.725992,3.7007136,-33.564095,BSC
1708125585408.0,0.8877233862876892,0.33658695220947266,8.110485076904297,2.873558282852173,-1.0392144918441772,1.4627168,0.31581733,7.8405952,3.8479548,-33.992973,BSC
1708589973504.0,0.8926999568939209,0.30958425998687744,8.091781616210938,2.913210391998291,-1.0517059564590454,1.4581354,0.34116822,7.998089,4.0136185,-34.42837,BSC
1709041254400.0,0.8976773023605347,0.2823268473148346,8.072931289672852,2.9532737731933594,-1.0641688108444214,1.3603969,0.3735441,8.155595,4.166454,-34.831326000000004,BSC
1709479821312.0,0.9026553630828857,0.2548224627971649,8.05393123626709,2.9937357902526855,-1.0766003131866455,0.96486163,0.68936145,8.231981,4.271429,-35.190872,BSC
1709905936384.0,0.9076341390609741,0.22707904875278473,8.034780502319336,3.034583568572998,-1.088997721672058,0.5705481,0.9993755,8.298341,4.3679323,-35.51750999999999,BSC
1710319861760.0,0.912613570690155,0.19910484552383423,8.015477180480957,3.075803279876709,-1.1013582944869995,0.593761,1.0503827,8.348282000000001,4.330275,-35.84657,BSC
1710722121728.0,0.9175936579704285,0.1709083467721939,7.996017932891846,3.1173806190490723,-1.1136794090270996,0.5354234,1.2177598,8.159701,4.160309,-36.06606,BSC
1711112847360.0,0.9225744009017944,0.14249831438064575,7.976399898529053,3.1593010425567627,-1.1259582042694092,0.17745635,1.7965547,7.803141,3.818894,-36.211143,BSC
1711492431872.0,0.9275557994842529,0.11388376355171204,7.956619739532471,3.2015490531921387,-1.138192057609558,0.627664,2.1542163,7.7886630000000014,3.7154593,-36.534573,BSC
1711861137408.0,0.9325377941131592,0.08507399260997772,7.936674118041992,3.2441086769104004,-1.1503783464431763,2.362216,2.6520715,7.530691,3.372057,-37.132805,BSC
1712219226112.0,0.9375203251838684,0.05607854202389717,7.916558742523193,3.2869632244110107,-1.162514328956604,2.8023443,2.7360654,7.257463,2.8255978,-37.47692,BSC
1712567091200.0,0.9425034523010254,0.026907222345471382,7.896269798278809,3.3300957679748535,-1.1745972633361816,-0.38912117,2.7146852000000004,7.268178999999999,2.4954915,-37.564354,BSC
1712904863744.0,0.9474871158599854,-0.002429900923743844,7.875802516937256,3.373488426208496,-1.186624526977539,-4.896085,2.6832256,7.216371499999997,2.1683767000000005,-37.35005,BSC
1713232936960.0,0.9524713158607483,-0.031922515481710434,7.855151653289795,3.417123317718506,-1.1985934972763062,-5.3554554,2.2736404,7.517039299999999,1.941978,-37.5053,BSC
1713551572992.0,0.9574560523033142,-0.061560068279504776,7.834312438964844,3.4609813690185547,-1.2105014324188232,-2.2953262000000003,1.5971072,7.8015857,1.7658657,-37.373653,BSC
1713860902912.0,0.9624412655830383,-0.09133176505565643,7.813279151916504,3.5050432682037354,-1.2223457098007202,-0.84849185,1.2910636999999998,8.061580000000001,1.7580465,-36.72583,BSC
1714161319936.0,0.9674269556999207,-0.12122657895088196,7.792046070098877,3.5492889881134033,-1.2341235876083374,0.9737192,0.6356053,8.658986,1.921854,-37.014774,BSC
1714452955136.0,0.9724131226539612,-0.1512332707643509,7.7706074714660645,3.593698263168335,-1.2458323240280151,1.6643023,0.13103059,9.852901,2.3299060000000003,-38.07844,BSC
1714736070656.0,0.9773997068405151,-0.18134041130542755,7.74895715713501,3.6382503509521484,-1.2574691772460938,1.4618006,-0.0290161,11.107182,2.7496312,-39.31706,BSC
1715010928640.0,0.9823867678642273,-0.21153637766838074,7.72708797454834,3.6829235553741455,-1.2690314054489136,2.0925188,0.14141529999999994,12.595595,3.2892497000000005,-41.11839000000001,BSC
1715277791232.0,0.9873742461204529,-0.24180936813354492,7.704993724822998,3.727695941925049,-1.280516266822815,3.8835757000000006,0.48838675,14.082245,3.7833242,-43.104084,BSC
1715536920576.0,0.9923621416091919,-0.27214744687080383,7.682667255401611,3.772545337677002,-1.2919209003448486,5.379585,0.84329945,15.514351,4.105441000000001,-45.1105,BSC
1715788447744.0,0.9973503947257996,-0.30253854393959045,7.660101413726807,3.8174490928649902,-1.303242564201355,5.357288400000002,0.990518,16.042901999999998,3.7081144,-46.809174,BSC
1716032503808.0,1.0023390054702759,-0.3329704999923706,7.6372880935668945,3.862384080886841,-1.3144781589508057,4.5594983,1.0534371,16.527401,3.31102,-48.74921,BSC
1716269481984.0,1.0073280334472656,-0.36343109607696533,7.614220142364502,3.9073266983032227,-1.3256248235702515,2.9969049,1.1569787,16.19665,2.6995323,-49.653095,BSC
1716499382272.0,1.012317419052124,-0.3939080536365509,7.5908894538879395,3.9522533416748047,-1.3366795778274536,0.8717046999999999,1.2944235,15.765627,2.028596,-50.1686,BSC
1716722597888.0,1.017307162284851,-0.4243890643119812,7.567287445068359,3.9971399307250977,-1.3476393222808838,-0.77121735,1.4535538,15.249589000000002,1.4183928999999995,-50.37298,BSC
1716939259904.0,1.0222972631454468,-0.45486190915107727,7.543405532836914,4.041962146759033,-1.3585008382797241,-1.4608842,1.3723087,13.696232,0.34859836,-49.46299000000001,BSC
1717149499392.0,1.0272877216339111,-0.48531442880630493,7.519235134124756,4.086695671081543,-1.3692609071731567,-1.5693128,1.0552697,12.268008,-0.65504646,-48.233074,BSC
1717353447424.0,1.0322784185409546,-0.5157344937324524,7.494767189025879,4.1313157081604,-1.3799163103103638,-1.4871514,0.7467828000000001,10.690576,-1.9579902,-47.04964,BSC
1717551366144.0,1.0372694730758667,-0.546110212802887,7.469992637634277,4.175797462463379,-1.3904635906219482,-1.4349225,0.46700647,9.3760395,-3.1409762000000003,-45.83819,BSC
1717743386624.0,1.042260766029358,-0.5764298439025879,7.444901466369629,4.22011661529541,-1.4008991718292236,-1.31672,0.0842994,8.339437,-4.166505,-44.692688,BSC
1717929771008.0,1.0472524166107178,-0.6066818833351135,7.419483661651611,4.264248371124268,-1.4112194776535034,-0.91813046,-0.36896262,7.8011417,-4.8337355,-44.29265,BSC
1718110519296.0,1.0522443056106567,-0.6368550062179565,7.393729209899902,4.308167934417725,-1.4214208126068115,-0.44806966,-0.75319684,7.392609599999999,-5.36993,-43.959328,BSC
1718285893632.0,1.0572364330291748,-0.6669383645057678,7.3676276206970215,4.351850986480713,-1.4314993619918823,-0.24007004,-0.958753,7.093912,-5.7852260000000015,-43.676582,BSC
1718456025088.0,1.062228798866272,-0.6969213485717773,7.341168403625488,4.395272731781006,-1.441451072692871,0.16065755,-1.0009027,7.247243400000001,-5.74584,-44.15835,BSC
1718621175808.0,1.0672214031219482,-0.7267937660217285,7.314340114593506,4.438409328460693,-1.451271891593933,0.54275376,-0.981355,7.440772,-5.641317,-44.68909,BSC
1718781345792.0,1.0722142457962036,-0.7565457820892334,7.287130832672119,4.481236457824707,-1.4609575271606445,0.8020661,-0.8848383,7.7712364,-5.2726316,-45.40156,BSC
1718936797184.0,1.077207326889038,-0.7861681580543518,7.2595295906066895,4.523730754852295,-1.4705036878585815,0.9630291,-0.729984,8.057936,-4.8973193,-46.17101,BSC
1719087529984.0,1.0822006464004517,-0.815652072429657,7.2315239906311035,4.565868854522705,-1.4799057245254517,0.97341377,-0.636827,8.1916485,-4.559941,-46.4524,BSC
1719233806336.0,1.0871942043304443,-0.8449892401695251,7.203101634979248,4.6076273918151855,-1.4891588687896729,0.7272350999999999,-0.6542366999999999,8.308121,-4.194925,-46.696236,BSC
1719375626240.0,1.0921880006790161,-0.8741719126701355,7.17425012588501,4.648983955383301,-1.498258352279663,0.29718593,-0.7189884,8.40869,-3.812598,-46.880127,BSC
1719513251840.0,1.0971819162368774,-0.903192937374115,7.144956588745117,4.689917087554932,-1.5071991682052612,-0.18081611,-0.77640975,8.381098,-3.542899,-46.77445,BSC
1719646683136.0,1.1021760702133179,-0.9320457577705383,7.115207672119141,4.730404376983643,-1.515976071357727,-0.69058317,-0.8200866,8.385407,-3.2607954,-46.541252,BSC
1719776182272.0,1.1071704626083374,-0.9607244729995728,7.08499002456665,4.770425319671631,-1.5245836973190308,-1.183246,-0.8582656999999999,8.358361,-3.0289145,-46.1261,BSC
1719901749248.0,1.1121649742126465,-0.9892237782478333,7.054290294647217,4.809959411621094,-1.5330164432525635,-1.4630222,-0.8167268,8.320355000000001,-2.813553,-45.636124,BSC
1720023515136.0,1.1171597242355347,-1.0175390243530273,7.02309513092041,4.848987102508545,-1.5412687063217163,-1.5033393999999998,-0.71959925,8.348499,-2.5362036,-45.059883,BSC
1720141611008.0,1.1221545934677124,-1.0456663370132446,6.991390228271484,4.887488842010498,-1.5493346452713013,-1.3573426000000002,-0.54244834,8.319252,-2.3026302000000003,-44.46965,BSC
1720256167936.0,1.1271495819091797,-1.073602318763733,6.959161758422852,4.925446033477783,-1.5572081804275513,-1.17897,-0.35094208,8.236825999999999,-2.126873,-43.890175,BSC
1720367316992.0,1.132144808769226,-1.1013444662094116,6.926395893096924,4.962841510772705,-1.5648831129074097,-1.042747,-0.23304509,8.487491,-1.5639718,-43.62877,BSC
1720475058176.0,1.137140154838562,-1.128890872001648,6.893078327178955,4.99965763092041,-1.5723531246185303,-0.89461213,-0.25625798,8.6885605,-1.0927159,-43.42045,BSC
1720579522560.0,1.1421356201171875,-1.1562401056289673,6.859195709228516,5.0358781814575195,-1.5796117782592773,-0.5534439,-0.43249258,8.880547,-0.6867591,-43.305515,BSC
1720680841216.0,1.1471312046051025,-1.183391809463501,6.824734210968018,5.071487903594971,-1.5866525173187256,-0.05009095,-0.6542366999999999,9.428825,-0.047741536,-43.41435,BSC
1720779145216.0,1.1521270275115967,-1.210345983505249,6.789680480957031,5.106472492218018,-1.5934685468673706,0.49693888,-0.81336707,10.007768,0.5852393,-43.62291,BSC
1720874434560.0,1.1571229696273804,-1.2371033430099487,6.754020690917969,5.140817642211914,-1.600053071975708,0.743423,-0.91629785,10.896834,1.4495451,-44.055958,BSC
1720966840320.0,1.1621190309524536,-1.2636653184890747,6.717742443084717,5.174510478973389,-1.6063991785049438,1.0735956,-0.9831876,11.83754,2.3416342999999995,-44.635784,BSC
1721056493568.0,1.1671152114868164,-1.2900339365005493,6.680832862854004,5.207538604736328,-1.612499713897705,1.2116512,-1.1255191999999998,12.840532,3.2012513,-45.38391,BSC
1721143525376.0,1.1721115112304688,-1.3162119388580322,6.643280029296875,5.239891052246094,-1.6183477640151978,1.2626585,-1.1997393,13.864354999999998,4.1027346,-46.15770300000001,BSC
1721227935744.0,1.1771079301834106,-1.3422025442123413,6.605072021484375,5.271557331085205,-1.6239360570907593,1.1160508,-1.138042,14.742768,4.839976,-46.86373,BSC
1721309724672.0,1.182104468345642,-1.3680096864700317,6.566197872161865,5.302528381347656,-1.6292574405670166,0.768163,-0.9941832,15.623323,5.5571194,-47.49633,BSC
1721389023232.0,1.1871010065078735,-1.3936376571655273,6.526647567749023,5.332795143127441,-1.6343048810958862,0.24801129,-0.88025683,16.479525,6.2441497,-48.011566,BSC
1721465962496.0,1.1920976638793945,-1.4190914630889893,6.486411094665527,5.362349987030029,-1.6390711069107056,-0.28038713,-0.79320854,16.828348000000002,6.650296000000001,-48.06106,BSC
1721540542464.0,1.197094440460205,-1.4443767070770264,6.445479393005371,5.391186237335205,-1.6435489654541016,-0.6872234,-0.74220127,17.105019,7.013691400000001,-47.998726,BSC
1721612894208.0,1.2020913362503052,-1.4694992303848267,6.403844833374023,5.41929817199707,-1.6477313041687012,-0.9101892,-0.729984,17.106428,7.1804614,-47.8208,BSC
1721683148800.0,1.2070883512496948,-1.4944655895233154,6.361499786376953,5.446681022644043,-1.6516112089157104,-1.0064004999999998,-0.7272350999999999,17.06055,7.323211,-47.569542,BSC
1721751306240.0,1.212085485458374,-1.5192828178405762,6.318438529968262,5.473330497741699,-1.6551817655563354,-0.95142263,-0.7247916,16.996754,7.447031,-47.303722,BSC
1721817366528.0,1.2170826196670532,-1.5439581871032715,6.274655342102051,5.49924373626709,-1.6584361791610718,-0.79198676,-0.7431175999999999,16.96509,7.5648246,-47.091984,BSC
1721881460736.0,1.222079873085022,-1.5684994459152222,6.230146408081055,5.524418830871582,-1.6613677740097046,-0.5910121,-0.7834346999999999,16.94425,7.683688,-46.91043,BSC
1721943588864.0,1.2270772457122803,-1.5929148197174072,6.184908390045166,5.548854351043701,-1.6639701128005981,-0.36957347,-0.86559606,17.000088,7.8363559999999985,-46.821064,BSC
1722003881984.0,1.2320746183395386,-1.6172128915786743,6.138939380645752,5.572549819946289,-1.6662369966506958,-0.20861048,-0.9669997,17.087559,8.011965,-46.768364,BSC
1722062340096.0,1.2370721101760864,-1.6414024829864502,6.092238426208496,5.595506191253662,-1.668162226676941,-0.10262536,-1.0708468,17.21866,8.221428,-46.75651,BSC
1722119094272.0,1.2420697212219238,-1.6654927730560303,6.044806003570557,5.617724895477295,-1.669740080833435,-0.005497787,-1.1670581,17.519909,8.56287,-46.773758,BSC
1722174144512.0,1.2470673322677612,-1.6894932985305786,5.99664306640625,5.639208793640137,-1.6709650754928589,0.11789699,-1.2324207,17.853563,8.934408,-46.820934,BSC
1722227621888.0,1.2520650625228882,-1.713413953781128,5.947752952575684,5.659960746765137,-1.6718318462371826,0.17501289,-1.2690725,18.34565,9.459079,-46.822372,BSC
1722279395328.0,1.2570629119873047,-1.737264633178711,5.898138999938965,5.679985046386719,-1.6723356246948242,0.310625,-1.2837333999999998,18.86386,9.985222,-46.873123,BSC
1722329726976.0,1.2620607614517212,-1.7610557079315186,5.847806453704834,5.699286460876465,-1.6724716424942017,0.43310347,-1.3014483,19.47166,10.607588,-46.88143,BSC
1722378485760.0,1.2670587301254272,-1.7847975492477417,5.796761512756348,5.717870712280273,-1.6722358465194702,0.5161811,-1.2901474,20.073042,11.218078,-46.91164000000001,BSC
1722425802752.0,1.2720566987991333,-1.8085010051727295,5.745011806488037,5.735744953155518,-1.6716243028640747,0.51159966,-1.2767084,20.693579,11.873447,-46.88438,BSC
1722471809024.0,1.277054786682129,-1.8321768045425415,5.69256591796875,5.75291633605957,-1.6706335544586182,0.49449542,-1.2458596000000002,21.299393,12.511359,-46.872673,BSC
1722516373504.0,1.2820528745651245,-1.8558359146118164,5.639433860778809,5.769392967224121,-1.6692606210708618,0.45875978,-1.2021828,21.859304,13.157473,-46.773384,BSC
1722559627264.0,1.2870510816574097,-1.879489541053772,5.585626125335693,5.785183906555176,-1.6675028800964355,0.39553526,-1.1753048,22.393122,13.785396,-46.659016,BSC
1722601701376.0,1.2920492887496948,-1.903148889541626,5.531155109405518,5.800298690795898,-1.6653581857681274,0.3463606,-1.1765264,22.90312,14.397479,-46.53651,BSC
1722642464768.0,1.2970476150512695,-1.9268251657485962,5.476033687591553,5.8147478103637695,-1.6628248691558838,0.32742378,-1.1615603,23.365105,15.016182999999998,-46.35,BSC
1722682048512.0,1.3020459413528442,-1.950529932975769,5.420276165008545,5.828542232513428,-1.6599018573760986,0.32528573,-1.1319333,23.800608,15.615269,-46.154816,BSC
1722720452608.0,1.307044267654419,-1.9742745161056519,5.363897323608398,5.84169340133667,-1.6565883159637451,0.35124752,-1.0680978,24.203026,16.206827,-45.947426,BSC
1722757808128.0,1.3120427131652832,-1.9980703592300415,5.30691385269165,5.854213714599609,-1.6528840065002441,0.36071593,-1.0439687,24.589222,16.785055,-45.733517,BSC
1722794115072.0,1.3170411586761475,-2.0219287872314453,5.249342441558838,5.866115570068359,-1.6487892866134644,0.38637227,-1.0290025,25.020164,17.368437,-45.568607,BSC
1722829373440.0,1.3220397233963013,-2.0458614826202393,5.1912007331848145,5.877412796020508,-1.6443049907684326,0.4196644000000001,-1.0210613000000002,25.43322,17.920834,-45.40873,BSC
1722863583232.0,1.327038288116455,-2.0698795318603516,5.132507801055908,5.888119220733643,-1.639432430267334,0.4804455,-1.022283,25.96026,18.52005,-45.312008,BSC
1722896744448.0,1.3320368528366089,-2.093994379043579,5.073282718658447,5.89824914932251,-1.6341735124588013,0.5714644,-1.0067059,26.477623,19.09098,-45.23151,BSC
1722928988160.0,1.3370355367660522,-2.1182172298431396,5.013545513153076,5.9078168869018555,-1.628530740737915,0.65668017,-0.9978484,26.996553,19.643974,-45.16086,BSC
1722960314368.0,1.3420342206954956,-2.142559051513672,4.953317642211914,5.9168381690979,-1.622506856918335,0.691194,-0.99082345,27.608456,20.224241,-45.15671500000001,BSC
1722990854144.0,1.347032904624939,-2.1670308113098145,4.892619609832764,5.925328254699707,-1.6161054372787476,0.6957755,-0.95905846,28.209394,20.778564000000006,-45.166077,BSC
1723020476416.0,1.3520317077636719,-2.191643476486206,4.8314738273620605,5.933302879333496,-1.609330415725708,0.6908886,-0.9266826,28.8004,21.328993,-45.171032,BSC
1723049312256.0,1.3570305109024048,-2.216407537460327,4.769902229309082,5.9407782554626465,-1.6021863222122192,0.6575964,-0.91324353,29.371931,21.859776,-45.167442,BSC
1723077230592.0,1.3620293140411377,-2.241333246231079,4.707927703857422,5.947771072387695,-1.5946781635284424,0.6151413,-0.8680395000000001,29.920795,22.375456,-45.164177,BSC
1723104362496.0,1.3670282363891602,-2.2664308547973633,4.645573139190674,5.9542975425720215,-1.5868115425109863,0.5522222,-0.8387180000000001,30.448246,22.875067,-45.14404,BSC
1723130839040.0,1.3720271587371826,-2.291710138320923,4.58286190032959,5.96037483215332,-1.5785924196243286,0.4990769000000001,-0.8155051,30.977938,23.374166,-45.120773,BSC
1723156529152.0,1.377026081085205,-2.317180633544922,4.51981782913208,5.966019630432129,-1.570027470588684,0.45998153,-0.7693848000000001,31.468393,23.844398,-45.091747,BSC
1723181563904.0,1.382025122642517,-2.3428516387939453,4.4564642906188965,5.971249103546143,-1.5611236095428467,0.42241332,-0.7165449,31.944273,24.314283,-45.049614,BSC
1723205943296.0,1.387024164199829,-2.368732213973999,4.392824649810791,5.976080894470215,-1.551888346672058,0.39492437,-0.66889745,32.38949,24.761213,-45.006012,BSC
1723229667328.0,1.3920232057571411,-2.3948307037353516,4.328923225402832,5.980531692504883,-1.5423297882080078,0.37904188,-0.64476824,32.809090000000005,25.194042,-44.960083,BSC
1723252736000.0,1.3970222473144531,-2.4211549758911133,4.2647833824157715,5.984618663787842,-1.5324561595916748,0.3820962,-0.6044512,33.176548,25.607994,-44.91032,BSC
1723275149312.0,1.4020214080810547,-2.4477131366729736,4.2004289627075195,5.988359451293945,-1.5222764015197754,0.38453966,-0.5732970000000001,33.52612,26.01118,-44.85881,BSC
1723296907264.0,1.4070205688476562,-2.4745121002197266,4.135883331298828,5.9917707443237305,-1.5117998123168945,0.36651915,-0.5537493,33.85341,26.407536,-44.807747,BSC
1723318140928.0,1.4120197296142578,-2.501558780670166,4.071169376373291,5.994869709014893,-1.5010360479354858,0.35369098,-0.5235115,34.13947,26.776958,-44.766605,BSC
1723338850304.0,1.417019009590149,-2.5288596153259277,4.00631046295166,5.997673511505127,-1.4899951219558716,0.32436943,-0.4877759,34.40099,27.134674,-44.72195,BSC
1723359035392.0,1.42201828956604,-2.556420087814331,3.9413294792175293,6.000198841094971,-1.4786875247955322,0.29352075,-0.42730024,34.60727,27.463718,-44.682358,BSC
1723378696192.0,1.4270175695419312,-2.584245443344116,3.876248598098755,6.002462387084961,-1.4671239852905273,0.26145032,-0.37384954,34.789684,27.777618,-44.641308,BSC
1723397832704.0,1.4320168495178223,-2.6123404502868652,3.811089515686035,6.004480361938477,-1.4553155899047852,0.22143865,-0.34391713,34.94407,28.070263,-44.598606,BSC
1723416444928.0,1.4370161294937134,-2.640709161758423,3.7458739280700684,6.006268501281738,-1.4432737827301025,0.1908954,-0.32192600000000005,35.015057,28.308407,-44.555847,BSC
1723434532864.0,1.442015528678894,-2.6693549156188965,3.6806228160858154,6.007843017578125,-1.431010127067566,0.19456059,-0.2855795,35.06619,28.52102,-44.520206,BSC
1723452227584.0,1.4470149278640747,-2.6982808113098145,3.6153564453125,6.009219646453857,-1.41853666305542,0.22907446,-0.24373524,35.068176,28.69352,-44.48696,BSC
1723469529088.0,1.4520143270492554,-2.7274887561798096,3.5500946044921875,6.01041316986084,-1.4058655500411987,0.24801129,-0.18845193,35.048557,28.833885,-44.460506,BSC
1723486306304.0,1.457013726234436,-2.7569806575775146,3.484856605529785,6.011438846588135,-1.3930091857910156,0.25778514,-0.16279559,35.029022,28.962029,-44.44123,BSC
1723502690304.0,1.4620132446289062,-2.786757230758667,3.419661045074463,6.012310981750488,-1.3799800872802734,0.23671028,-0.10476339,35.029552,29.082216,-44.431385,BSC
1723518681088.0,1.4670127630233765,-2.816818952560425,3.3545258045196533,6.0130438804626465,-1.3667911291122437,0.21594086,-0.044898596,35.02193,29.18476,-44.428368,BSC
1723534278656.0,1.4720122814178467,-2.84716534614563,3.289468288421631,6.013650894165039,-1.3534551858901978,0.16798794,0.02443461,35.02085,29.295868,-44.4131,BSC
1723549483008.0,1.477011799812317,-2.8777952194213867,3.2245047092437744,6.014145374298096,-1.3399853706359863,0.10262536,0.03940081,35.005264000000004,29.38258,-44.39034,BSC
1723564425216.0,1.482011318206787,-2.9087069034576416,3.1596508026123047,6.014540195465088,-1.32639479637146,0.020158553,0.07696902,34.95711,29.47082,-44.362736,BSC
1723578974208.0,1.4870109558105469,-2.9398980140686035,3.094921588897705,6.014847755432129,-1.3126966953277588,-0.013133603,0.13072516,34.89348,29.525936,-44.33742,BSC
1723593261056.0,1.4920105934143066,-2.971365213394165,3.0303313732147217,6.015079498291016,-1.2989044189453125,-0.04428773,0.17989981,34.796513,29.562574,-44.301434,BSC
1723607154688.0,1.4970102310180664,-3.0031049251556396,2.965893268585205,6.015246868133545,-1.2850311994552612,-0.0711658,0.22113322,34.758183,29.607506,-44.297607,BSC
1723620786176.0,1.5020098686218262,-3.0351126194000244,2.9016201496124268,6.015360355377197,-1.2710905075073242,-0.10293079,0.26511553,34.69433,29.627981,-44.29608,BSC
1723634024448.0,1.507009506225586,-3.067383050918579,2.8375234603881836,6.015430450439453,-1.2570955753326416,-0.13255776,0.30268374,34.613495,29.624205,-44.295715,BSC
1723647000576.0,1.5120092630386353,-3.099910259246826,2.7736144065856934,6.015467166900635,-1.243059754371643,-0.17134771,0.30818152,34.551636,29.617136,-44.310097,BSC
1723659714560.0,1.5170090198516846,-3.13268780708313,2.709902763366699,6.01547908782959,-1.2289962768554688,-0.20830505,0.33505958,34.466034,29.586386,-44.32949,BSC
1723672166400.0,1.5220087766647339,-3.165708303451538,2.6463980674743652,6.015475273132324,-1.2149183750152588,-0.20005837,0.3820962,34.414577,29.54812,-44.379494,BSC
1723684356096.0,1.5270085334777832,-3.1989641189575195,2.583108901977539,6.015463352203369,-1.2008390426635742,-0.27030787,0.38453966,34.337914000000005,29.505404,-44.40106,BSC
1723696283648.0,1.5320082902908325,-3.2324466705322266,2.520042896270752,6.015450954437256,-1.1867713928222656,-0.3631594,0.38545597,34.246162,29.443586,-44.427326,BSC
1723707949056.0,1.5370080471038818,-3.2661468982696533,2.457206964492798,6.015444755554199,-1.172728180885315,-0.4456262,0.40958515,34.200733,29.368925,-44.49889,BSC
1723719352320.0,1.5420079231262207,-3.3000552654266357,2.3946073055267334,6.015450954437256,-1.1587220430374146,-0.4792238,0.44073927,34.14322,29.28536,-44.561325,BSC
1723730624512.0,1.5470077991485596,-3.3341610431671143,2.332249164581299,6.015475273132324,-1.1447654962539673,-0.48563787,0.46700647,34.08712,29.210772,-44.608845,BSC
1723741634560.0,1.5520076751708984,-3.3684535026550293,2.270137071609497,6.0155229568481445,-1.1308709383010864,-0.49174652,0.48380527,34.017612,29.131422,-44.65269,BSC
1723752382464.0,1.5570075511932373,-3.402921199798584,2.208275079727173,6.015598297119141,-1.1170505285263062,-0.46761733,0.528093,33.941395,29.027136,-44.710938,BSC
1723762999296.0,1.5620074272155762,-3.4375522136688232,2.1466662883758545,6.015705585479736,-1.103316068649292,-0.42821655,0.57726765,33.85476,28.94514,-44.745388,BSC
1723773353984.0,1.567007303237915,-3.4723339080810547,2.085313320159912,6.015847682952881,-1.08967924118042,-0.36193767,0.636827,33.768085,28.844858,-44.80037700000001,BSC
1723783577600.0,1.572007179260254,-3.5072531700134277,2.0242180824279785,6.016027450561523,-1.0761513710021973,-0.2941316,0.711658,33.6547,28.747234,-44.843304,BSC
1723793539072.0,1.5770071744918823,-3.5422964096069336,1.9633817672729492,6.016247272491455,-1.0627435445785522,-0.22876903,0.7837400999999999,33.544296,28.630117,-44.909397,BSC
1723803369472.0,1.5820071697235107,-3.5774497985839844,1.902804970741272,6.01650857925415,-1.0494667291641235,-0.17867808,0.8594874,33.398067,28.50573300000001,-44.967556,BSC
1723813068800.0,1.5870071649551392,-3.612698793411255,1.8424876928329468,6.016812801361084,-1.036331295967102,-0.17715092,0.9288206,33.23987,28.363781,-45.039806,BSC
1723822505984.0,1.5920071601867676,-3.64802885055542,1.7824294567108154,6.017159938812256,-1.0233474969863892,-0.17898351,0.9639453,33.028786,28.217253000000003,-45.0904,BSC
1723831812096.0,1.597007155418396,-3.683424472808838,1.7226293087005615,6.017550468444824,-1.0105252265930176,-0.16920967,0.97219205,32.8124,28.06967,-45.149025,BSC
1723840987136.0,1.6020071506500244,-3.7188704013824463,1.663085699081421,6.017983436584473,-0.9978739619255066,-0.14355333,0.9425651,32.505733,27.901,-45.186398,BSC
1723850031104.0,1.6070071458816528,-3.7543506622314453,1.6037967205047607,6.018457889556885,-0.9854028820991516,-0.08704830000000001,0.8695666999999999,32.22579,27.760601,-45.222206,BSC
1723858944000.0,1.6120071411132812,-3.789849281311035,1.5447601079940796,6.018972396850586,-0.9731208086013794,0.0033597588,0.7672467,31.984423,27.651447,-45.25641,BSC
1723867725824.0,1.6170072555541992,-3.825349807739258,1.4859730005264282,6.019524574279785,-0.9610361456871033,0.12705997,0.6609562,31.669247,27.42947,-45.400425,BSC
1723876245504.0,1.6220073699951172,-3.860835552215576,1.4274322986602783,6.020112037658691,-0.9491569399833679,0.2519819,0.5635232,31.418016,27.253576,-45.539555,BSC
1723884765184.0,1.6270074844360352,-3.896289825439453,1.369134545326233,6.0207319259643555,-0.9374908208847046,0.35705075,0.4981606,31.172491,26.999517,-45.760944,BSC
1723893153792.0,1.6320075988769531,-3.9316954612731934,1.311076045036316,6.021380424499512,-0.9260450601577759,0.42271876,0.44959682,30.983215,26.778715,-45.978317,BSC
1723901411328.0,1.637007713317871,-3.9670357704162598,1.2532528638839722,6.0220537185668945,-0.9148263931274414,0.4343252,0.4129449000000001,30.83138,26.579815000000004,-46.18968,BSC
1723909537792.0,1.642007827758789,-4.002293109893799,1.1956607103347778,6.022747993469238,-0.9038412570953369,0.3817908,0.39492437,30.657906,26.346256,-46.416748,BSC
1723917533184.0,1.647007942199707,-4.037450790405273,1.13829505443573,6.023458003997803,-0.8930956721305847,0.29016098,0.39920044,30.485027,26.125393,-46.62919,BSC
1723925397504.0,1.652008056640625,-4.07249116897583,1.0811513662338257,6.024178504943848,-0.8825951218605042,0.24220806,0.40133846,30.222387,25.9133,-46.775814,BSC
1723933130752.0,1.657008171081543,-4.107397079467773,1.024224877357483,6.024904727935791,-0.8723447322845459,0.12797627,0.4089743,29.920399,25.707966,-46.88525,BSC
1723940732928.0,1.6620084047317505,-4.142151832580566,0.9675107598304749,6.025630474090576,-0.8623491525650024,0.04337143,0.42485678,29.54126500000001,25.550337,-46.91653400000001,BSC
1723948335104.0,1.667008638381958,-4.1767377853393555,0.9110040068626404,6.0263495445251465,-0.8526125550270081,-0.013439035,0.43401974,29.148712,25.404453,-46.926407,BSC
1723955806208.0,1.6720088720321655,-4.2111382484436035,0.8546994924545288,6.027055740356445,-0.8431387543678284,-0.054061573,0.43004912,28.744503,25.311693,-46.890186,BSC
1723963146240.0,1.677009105682373,-4.245336055755615,0.798592209815979,6.0277419090271,-0.833931028842926,-0.06078109,0.42271876,28.343225,25.230478,-46.848137,BSC
1723970486272.0,1.6820093393325806,-4.2793145179748535,0.7426770329475403,6.028401851654053,-0.824992299079895,-0.059864793,0.40653083,28.105309,25.191221,-46.88897,BSC
1723977695232.0,1.687009572982788,-4.3130574226379395,0.686948835849762,6.029027938842773,-0.8163248896598816,-0.05375614,0.39187005,27.874243,25.158533,-46.924843,BSC
1723984773120.0,1.6920098066329956,-4.346548557281494,0.6314026117324829,6.029613018035889,-0.8079307675361633,-0.03848451,0.35827246,27.662151,25.138653,-46.95349,BSC
1723991851008.0,1.6970100402832031,-4.379771709442139,0.5760332942008972,6.030149459838867,-0.7998114228248596,-0.0061086523,0.33322698,27.52754,25.1133,-47.053825,BSC
1723998797824.0,1.7020102739334106,-4.4127116203308105,0.5208359956741333,6.030629634857178,-0.7919679284095764,0.0125227375,0.2968805,27.41097,25.0989,-47.14168,BSC
1724005744640.0,1.7070105075836182,-4.445352554321289,0.46580588817596436,6.031045436859131,-0.7844008803367615,0.03756821,0.2761111,27.315624,25.07822,-47.258266,BSC
1724012560384.0,1.7120107412338257,-4.47767972946167,0.4109382629394531,6.031389236450195,-0.7771103978157043,0.06841691,0.25686884,27.240072,25.066921,-47.3689,BSC
1724019376128.0,1.7170109748840332,-4.509678840637207,0.3562285900115967,6.031652927398682,-0.7700961828231812,0.09285152,0.24404067,27.175613,25.05803,-47.47623,BSC
1724026060800.0,1.7220112085342407,-4.541335582733154,0.30167245864868164,6.0318284034729,-0.7633575201034546,0.09590584,0.22968534,27.078247,25.046528,-47.555313,BSC
1724032745472.0,1.7270114421844482,-4.572636127471924,0.24726566672325134,6.03190803527832,-0.7568932771682739,0.08002335,0.21471913,26.988558,25.035818,-47.62934,BSC
1724039299072.0,1.7320116758346558,-4.603567600250244,0.19300422072410583,6.031883239746094,-0.7507018446922302,0.056505036,0.20647246,26.804106,25.007761,-47.65157,BSC
1724045852672.0,1.7370119094848633,-4.634117126464844,0.13888435065746307,6.0317463874816895,-0.7447811961174011,0.027488936,0.19181168,26.624996000000003,24.980776,-47.663094,BSC
1724052275200.0,1.7420121431350708,-4.664272308349609,0.08490251004695892,6.031489372253418,-0.7391289472579956,0.01740966,0.18478674,26.436653000000003,24.939503,-47.68533,BSC
1724058697728.0,1.7470123767852783,-4.694021701812744,0.03105543926358223,6.03110408782959,-0.7337422966957092,-0.022907447,0.19272798,26.236662,24.892372,-47.692368,BSC
1724064989184.0,1.7520127296447754,-4.723353862762451,-0.022659864276647568,6.030582904815674,-0.7286180853843689,-0.043066,0.19272798,26.048485,24.853867,-47.6972,BSC
1724071280640.0,1.757012963294983,-4.75225830078125,-0.07624610513448715,6.029918193817139,-0.7237526774406433,-0.04428773,0.19914207,25.866453,24.798466,-47.713123,BSC
1724077572096.0,1.7620131969451904,-4.780725479125977,-0.12970568239688873,6.029102325439453,-0.7191421985626221,-0.034513887,0.20005837,25.687836,24.74393,-47.72426,BSC
1724083732480.0,1.767013430595398,-4.808745384216309,-0.18304069340229034,6.028127670288086,-0.7147822976112366,-0.018020526,0.22021692,25.547165,24.698526,-47.755928,BSC
1724089892864.0,1.7720136642456055,-4.836309909820557,-0.23625287413597107,6.026987552642822,-0.7106683850288391,-0.0012217305,0.24678956,25.409674,24.64398,-47.78932,BSC
1724096053248.0,1.777013897895813,-4.863410472869873,-0.28934362530708313,6.025675296783447,-0.7067954540252686,0.025045475,0.27672195,25.27428,24.581327,-47.830788,BSC
1724102082560.0,1.7820141315460205,-4.890040397644043,-0.3423139750957489,6.024184226989746,-0.7031582593917847,0.051923547,0.30848694,25.154724,24.519243,-47.89067,BSC
1724108111872.0,1.787014365196228,-4.916192054748535,-0.3951646089553833,6.022507667541504,-0.6997511982917786,0.07971791,0.3368922,25.036453,24.447655,-47.958866,BSC
1724114141184.0,1.7920145988464355,-4.941860198974609,-0.4478958547115326,6.020639896392822,-0.696568489074707,0.11301007,0.3594942,24.921179,24.370909,-48.036224,BSC
1724120039424.0,1.797014832496643,-4.967038631439209,-0.500507652759552,6.0185747146606445,-0.6936039328575134,0.13469578,0.39187005,24.79327,24.282505,-48.12148300000001,BSC
1724125937664.0,1.8020150661468506,-4.99172306060791,-0.5529994964599609,6.016307353973389,-0.6908511519432068,0.14202617,0.42363504,24.666357,24.19146,-48.211704,BSC
1724131835904.0,1.807015299797058,-5.015909671783447,-0.6053704619407654,6.0138325691223145,-0.6883035898208618,0.15851954,0.45906523,24.502829,24.082014,-48.30987,BSC
1724137603072.0,1.8120155334472656,-5.039594650268555,-0.6576193571090698,6.01114559173584,-0.6859543919563293,0.14721853,0.4908302,24.328518,23.973194,-48.40449,BSC
1724143370240.0,1.8170157670974731,-5.062775611877441,-0.7097445130348206,6.008242130279541,-0.6837965846061707,0.12370021,0.52290064,24.147408,23.86089,-48.502285,BSC
1724149137408.0,1.8220160007476807,-5.085450649261475,-0.7617437839508057,6.0051188468933105,-0.6818228960037231,0.0711658,0.54458636,23.87877000000001,23.730272,-48.571415,BSC
1724154904576.0,1.8270162343978882,-5.10761833190918,-0.8136147260665894,6.001771926879883,-0.6800259947776794,0.021991149,0.5766568,23.596224,23.59756,-48.639072,BSC
1724160671744.0,1.8320164680480957,-5.129278182983398,-0.8653544187545776,5.998198509216309,-0.6783983111381531,-0.03573562,0.59498274,23.251059,23.45001,-48.689674,BSC
1724166307840.0,1.8370167016983032,-5.150430679321289,-0.9169595837593079,5.994395732879639,-0.6769322156906128,-0.106595986,0.61666846,22.88491,23.303583,-48.727676,BSC
1724171943936.0,1.8420169353485107,-5.17107629776001,-0.9684264659881592,5.99036169052124,-0.6756200194358826,-0.14263703,0.6209445,22.52021,23.169651,-48.75636,BSC
1724177580032.0,1.8470171689987183,-5.191216468811035,-1.019750952720642,5.986094951629639,-0.6744537949562073,-0.20708331,0.6258314,22.106066,23.02337,-48.76516,BSC
1724183216128.0,1.8520174026489258,-5.210853576660156,-1.0709284543991089,5.981594085693359,-0.6734256148338318,-0.24617869,0.623388,21.699064,22.885693,-48.76698,BSC
1724188852224.0,1.8570176362991333,-5.229990005493164,-1.1219542026519775,5.976858139038086,-0.672527551651001,-0.26389378,0.6084218000000001,21.277359,22.739195,-48.763344,BSC
1724194357248.0,1.8620178699493408,-5.248629570007324,-1.1728227138519287,5.971887588500977,-0.6717515587806702,-0.258396,0.59559363,20.861242,22.595581,-48.75239000000001,BSC
1724199862272.0,1.8670181035995483,-5.266776084899902,-1.2235283851623535,5.966681957244873,-0.6710895895957947,-0.23304509,0.5699373000000001,20.464859,22.46007,-48.734135,BSC
1724205367296.0,1.8720183372497559,-5.2844343185424805,-1.2740652561187744,5.961242198944092,-0.6705335974693298,-0.17928895,0.53786683,20.152306,22.3284,-48.77139,BSC
1724210872320.0,1.8770185708999634,-5.301609516143799,-1.3244267702102661,5.955569267272949,-0.670075535774231,-0.10293079,0.5119051,19.865952,22.200544,-48.813297,BSC
1724216377344.0,1.882018804550171,-5.318307876586914,-1.3746061325073242,5.949665069580078,-0.6697074174880981,-0.005497787,0.4700608,19.650013,22.087677,-48.8833,BSC
1724221882368.0,1.8870190382003784,-5.334535121917725,-1.4245963096618652,5.943531513214111,-0.6694211959838867,0.07788532,0.44837508,19.457155,21.975857,-48.963573,BSC
1724227256320.0,1.892019271850586,-5.3502984046936035,-1.4743897914886475,5.937171459197998,-0.6692090630531311,0.113926366,0.42424592,19.297316,21.872013,-49.045006,BSC
1724232630272.0,1.8970195055007935,-5.365605354309082,-1.52397882938385,5.930587291717529,-0.6690630912780762,0.13011430000000002,0.40775254,19.169811,21.777689,-49.140984,BSC
1724238004224.0,1.902019739151001,-5.380463600158691,-1.5733553171157837,5.923782825469971,-0.6689755916595459,0.12003502,0.38789943,19.058096,21.688347,-49.231266,BSC
1724243378176.0,1.9070199728012085,-5.394881725311279,-1.6225109100341797,5.91676139831543,-0.6689388751983643,0.101098195,0.38331795,18.935928,21.613316,-49.300198,BSC
1724248752128.0,1.912020206451416,-5.408868312835693,-1.6714370250701904,5.909527778625488,-0.6689453721046448,0.052534413,0.38759398,18.810896,21.544094,-49.355255,BSC
1724254126080.0,1.9170204401016235,-5.422432899475098,-1.7201247215270996,5.90208625793457,-0.6689876914024353,-0.016493361,0.39950588,18.647844,21.483274,-49.379642,BSC
1724259500032.0,1.922020673751831,-5.435585021972656,-1.7685648202896118,5.894441604614258,-0.6690585613250732,-0.13225232,0.4092797,18.46385,21.421309,-49.379837,BSC
1724264873984.0,1.9270209074020386,-5.448334693908691,-1.816748023033142,5.886599540710449,-0.6691508293151855,-0.25350907,0.42424592,18.258963,21.35536,-49.36344,BSC
1724270247936.0,1.932021141052246,-5.460691928863525,-1.8646646738052368,5.878565311431885,-0.6692575216293335,-0.36285394,0.4166101,17.995169,21.30817,-49.279484,BSC
1724275490816.0,1.937021255493164,-5.472667694091797,-1.9123049974441528,5.870345592498779,-0.6693717837333679,-0.398895,0.42302418,17.714717999999994,21.243757,-49.18885,BSC
1724280733696.0,1.942021369934082,-5.4842729568481445,-1.9596590995788574,5.861946105957031,-0.6694870591163635,-0.3998113,0.41447207,17.461302,21.194470000000006,-49.09846,BSC
1724285976576.0,1.947021484375,-5.495518684387207,-2.0067169666290283,5.853374004364014,-0.6695968508720398,-0.35338554,0.41691554,17.209507000000002,21.136484,-49.01387,BSC
1724291219456.0,1.952021598815918,-5.506416320800781,-2.0534679889678955,5.844635963439941,-0.6696949601173401,-0.23640485,0.4279111,17.018538,21.06822,-48.99549,BSC
1724296462336.0,1.957021713256836,-5.516977310180664,-2.0999021530151367,5.8357391357421875,-0.6697753071784973,-0.12186762,0.4202753,16.847996,21.001421,-48.984493,BSC
1724301705216.0,1.962021827697754,-5.5272135734558105,-2.1460089683532715,5.826691150665283,-0.6698320508003235,-0.019242255,0.39584067,16.708353,20.936089000000006,-48.996662,BSC
1724306948096.0,1.9670219421386719,-5.537136554718018,-2.1917777061462402,5.81749963760376,-0.6698595285415649,0.052839845,0.39828414,16.60726,20.849678,-49.06573,BSC
1724312190976.0,1.9720220565795898,-5.546758651733398,-2.2371978759765625,5.808172702789307,-0.6698523759841919,0.15485434,0.3894266,16.553448,20.772928,-49.158825,BSC
1724317433856.0,1.9770221710205078,-5.556092262268066,-2.2822587490081787,5.798717975616455,-0.6698053479194641,0.22357668,0.3979787,16.49813,20.662067,-49.287907,BSC
1724322676736.0,1.9820222854614258,-5.565149307250977,-2.3269495964050293,5.789144039154053,-0.6697134971618652,0.26542094,0.41355577,16.464218,20.55173,-49.43123,BSC
1724327919616.0,1.9870222806930542,-5.573941707611084,-2.371259927749634,5.779458999633789,-0.6695720553398132,0.28496864,0.44104472,16.413183,20.423882,-49.59055,BSC
1724333031424.0,1.9920222759246826,-5.58248233795166,-2.4151790142059326,5.76967191696167,-0.66937655210495,0.28160888,0.4550946,16.369370999999994,20.293112,-49.750626,BSC
1724338143232.0,1.997022271156311,-5.590782642364502,-2.458696126937866,5.759790897369385,-0.6691226959228516,0.2678644,0.46486846,16.283691,20.150057,-49.89484,BSC
1724343255040.0,2.0020222663879395,-5.598855495452881,-2.501800775527954,5.7498250007629395,-0.6688064336776733,0.24648413,0.47158796,16.19548,20.005966,-50.034077,BSC
1724348366848.0,2.0070223808288574,-5.606712818145752,-2.544482469558716,5.739782810211182,-0.6684238910675049,0.2171626,0.47433686,16.059786,19.859943,-50.135067,BSC
1724353478656.0,2.0120224952697754,-5.61436653137207,-2.58673095703125,5.729672908782959,-0.6679715514183044,0.19975294,0.48441613,15.921338,19.710936,-50.23262,BSC
1724358590464.0,2.0170226097106934,-5.621828556060791,-2.628535747528076,5.7195048332214355,-0.6674460768699646,0.20066923,0.48747048,15.784812,19.561726,-50.332355,BSC
1724363702272.0,2.0220224857330322,-5.629110813140869,-2.669886827468872,5.709287166595459,-0.6668443083763123,0.20463985,0.4783075,15.650757999999998,19.413694,-50.425194,BSC
1724368814080.0,2.027022361755371,-5.636224746704102,-2.7107741832733154,5.699028491973877,-0.6661633253097534,0.20463985,0.4728097,15.518408,19.265976,-50.515324,BSC
1724373925888.0,2.03202223777771,-5.643182277679443,-2.751188039779663,5.688737869262695,-0.665400505065918,0.21135938,0.47128254,15.397903,19.115261,-50.62078,BSC
1724379037696.0,2.037022113800049,-5.649994850158691,-2.791118860244751,5.678423881530762,-0.6645533442497253,0.20677789,0.47036624,15.281439,18.965866,-50.719715,BSC
1724384149504.0,2.0420219898223877,-5.656673431396484,-2.830557107925415,5.668095588684082,-0.6636196970939636,0.22449298,0.46211955,15.183106,18.808754,-50.84858,BSC
1724389261312.0,2.0470218658447266,-5.663228988647461,-2.8694939613342285,5.657761573791504,-0.6625974774360657,0.26878070000000004,0.46731192,15.089768,18.647514,-50.9813,BSC
1724394373120.0,2.0520217418670654,-5.66967248916626,-2.9079201221466064,5.647430896759033,-0.661484956741333,0.31978795,0.46670106,15.012017000000002,18.49094,-51.114655,BSC
1724399484928.0,2.0570216178894043,-5.676013946533203,-2.9458272457122803,5.637111186981201,-0.6602804660797119,0.33444872,0.46609017,14.946060999999998,18.317093,-51.26935,BSC
1724404596736.0,2.062021493911743,-5.6822638511657715,-2.9832069873809814,5.626811504364014,-0.6589826345443726,0.35918877,0.47158796,14.896455,18.149548,-51.436005,BSC
1724409708544.0,2.067021369934082,-5.688432693481445,-3.0200512409210205,5.616539478302002,-0.6575902700424194,0.3643811,0.47219884,14.830029,17.965345000000006,-51.599197,BSC
1724414820352.0,2.072021245956421,-5.6945295333862305,-3.056352138519287,5.606303691864014,-0.6561023592948914,0.36285394,0.46853364,14.772129,17.78182,-51.763035,BSC
1724419932160.0,2.077021360397339,-5.700564384460449,-3.092102527618408,5.59611177444458,-0.6545180678367615,0.36865717,0.46181414,14.722826,17.60361,-51.92575,BSC
1724425043968.0,2.082021474838257,-5.706546306610107,-3.1272952556610107,5.585971355438232,-0.6528367400169373,0.3640757,0.453262,14.637505,17.413704,-52.069874,BSC
1724430155776.0,2.087021589279175,-5.712483882904053,-3.16192364692688,5.57589054107666,-0.6510578989982605,0.34880406,0.43096542,14.564775,17.23345,-52.20642,BSC
1724435267584.0,2.0920217037200928,-5.718385696411133,-3.195981502532959,5.565876007080078,-0.6491812467575073,0.35002577,0.4129449000000001,14.466575,17.038420000000002,-52.340973,BSC
1724440248320.0,2.0970218181610107,-5.724260330200195,-3.2294626235961914,5.555934906005859,-0.6472065448760986,0.33841935,0.3979787,14.375507,16.854698000000006,-52.46278,BSC
1724445229056.0,2.1020219326019287,-5.7301154136657715,-3.262361764907837,5.546074390411377,-0.6451338529586792,0.30604348,0.38759398,14.270357,16.655539,-52.587612,BSC
1724450209792.0,2.1070220470428467,-5.735959053039551,-3.2946736812591553,5.536301136016846,-0.6429632902145386,0.2941316,0.38973203,14.173831,16.464113,-52.711315,BSC
1724455190528.0,2.1120221614837646,-5.741797924041748,-3.3263936042785645,5.526621341705322,-0.6406950950622559,0.27550024,0.40103304,14.07451,16.28135,-52.822280000000006,BSC
1724460171264.0,2.1170222759246826,-5.747639179229736,-3.3575174808502197,5.517041206359863,-0.6383296251296997,0.24098633,0.39492437,13.971431,16.0705,-52.955437,BSC
1724465283072.0,2.1220223903656006,-5.7534894943237305,-3.3880412578582764,5.507566928863525,-0.6358673572540283,0.19914207,0.398895,13.859638,15.864206,-53.081474,BSC
1724470263808.0,2.1270225048065186,-5.759355545043945,-3.417961597442627,5.498203754425049,-0.6333089470863342,0.17012598,0.41416663,13.722866,15.635110999999998,-53.211754000000006,BSC
1724475244544.0,2.1320226192474365,-5.765242576599121,-3.447275400161743,5.488957405090332,-0.6306551098823547,0.118202426,0.42119157,13.580666,15.4121685,-53.321903000000006,BSC
1724480225280.0,2.1370227336883545,-5.7711567878723145,-3.475980043411255,5.479832649230957,-0.6279066205024719,0.09010262,0.42485678,13.4165325,15.173062,-53.434086,BSC
1724485206016.0,2.1420228481292725,-5.777103424072266,-3.5040736198425293,5.470834255218506,-0.6250643730163574,0.04520403,0.43860126,13.2382345,14.937875,-53.528187,BSC
1724490186752.0,2.1470229625701904,-5.783087253570557,-3.5315544605255127,5.4619669914245605,-0.6221293807029724,-0.008857545999999999,0.441961,13.044081,14.696612,-53.61552,BSC
1724495167488.0,2.1520230770111084,-5.7891130447387695,-3.5584213733673096,5.453235149383545,-0.6191025972366333,-0.062308256,0.4361577999999999,12.847247,14.465252,-53.689648,BSC
1724500148224.0,2.1570231914520264,-5.795185089111328,-3.5846734046936035,5.444642543792725,-0.6159851551055908,-0.09743301,0.44623706,12.643128,14.243662,-53.754887,BSC
1724505128960.0,2.1620233058929443,-5.801307678222656,-3.6103105545043945,5.436192989349365,-0.6127781867980957,-0.11056661,0.45723262,12.404911,14.017341,-53.80764,BSC
1724510109696.0,2.1670234203338623,-5.8074846267700195,-3.6353328227996826,5.427889823913574,-0.6094829440116882,-0.0842994,0.46517387,12.173463,13.804568,-53.86071999999999,BSC
1724515090432.0,2.1720235347747803,-5.813718795776367,-3.659740686416626,5.419735908508301,-0.6061005592346191,-0.03726278,0.4654793,11.896982,13.560846,-53.932236,BSC
1724520071168.0,2.1770236492156982,-5.820013999938965,-3.683535099029541,5.411734104156494,-0.6026324033737183,-0.004581489,0.47678033,11.623884,13.332912,-54.00633199999999,BSC
1724525051904.0,2.182023763656616,-5.8263726234436035,-3.7067177295684814,5.403886795043945,-0.5990797281265259,-0.012217305,0.48533243,11.304279,13.05323,-54.09816,BSC
1724530032640.0,2.187023878097534,-5.832797050476074,-3.729290246963501,5.396196365356445,-0.595443844795227,-0.01282817,0.48166725,10.999728,12.793584,-54.196617,BSC
1724535144448.0,2.192023992538452,-5.839290142059326,-3.7512550354003906,5.388665199279785,-0.5917260646820068,-0.018936822,0.464563,10.702049,12.545277,-54.28745,BSC
1724540125184.0,2.19702410697937,-5.845853805541992,-3.7726147174835205,5.381294250488281,-0.5879276990890503,-0.0021380284,0.4279111,10.264867,12.231961,-54.33065,BSC
1724545105920.0,2.202024221420288,-5.852489471435547,-3.793372392654419,5.374085426330566,-0.5840501189231873,-0.005192355,0.39095375,9.8378,11.930183,-54.362663,BSC
1724550086656.0,2.207024335861206,-5.859199047088623,-3.8135316371917725,5.367039680480957,-0.5800946354866028,-0.018325957,0.3475823,9.473794,11.679846,-54.38211,BSC
1724555067392.0,2.212024450302124,-5.865983486175537,-3.8330962657928467,5.3601579666137695,-0.5760625600814819,-0.03940081,0.28802297,-7.139392999999999,11.446219,-54.391630000000006,BSC
1724560048128.0,2.217024564743042,-5.872844219207764,-3.8520703315734863,5.353440761566162,-0.571955144405365,-0.02443461,0.22876903,-7.1265163000000005,11.23175,-54.40195,BSC
1724565159936.0,2.22202467918396,-5.879781723022461,-3.8704583644866943,5.346888542175293,-0.567773699760437,0.030848695,0.1826487,-7.124682400000001,11.081576,-54.41288,BSC
1724570140672.0,2.227024793624878,-5.886796951293945,-3.888265371322632,5.340501308441162,-0.5635194778442383,0.08093964,0.12736541,-7.117603,10.957166,-54.41967,BSC
1724575121408.0,2.232024908065796,-5.893889904022217,-3.90549635887146,5.3342790603637695,-0.5591937303543091,0.10140363,0.093767814,-7.1032553,10.860203,-54.45219399999999,BSC
1724580102144.0,2.237025022506714,-5.901061058044434,-3.922156810760498,5.328221321105957,-0.5547975897789001,0.13530666,0.077579886,-7.087109599999999,10.778635,-54.497055,BSC
1724585082880.0,2.242025136947632,-5.908310890197754,-3.9382526874542236,5.322327613830566,-0.5503321886062622,0.13408493,0.058337633,-7.080812,10.719369,-54.53321999999999,BSC
1724590194688.0,2.24702525138855,-5.9156389236450195,-3.953789710998535,5.316596984863281,-0.5457985997200012,0.10354166,0.043676864,-7.052318,10.652525,-54.61540600000001,BSC
1724595175424.0,2.2520253658294678,-5.9230451583862305,-3.9687743186950684,5.311028480529785,-0.5411979556083679,0.06566802,0.028405234,-7.024803,10.595832,-54.69059,BSC
1724600156160.0,2.2570254802703857,-5.930529594421387,-3.983212947845459,5.30562162399292,-0.5365312695503235,0.016187929,0.0030543262,-6.990313499999999,10.533259,-54.745796,BSC
1724605136896.0,2.2620255947113037,-5.938091278076172,-3.997112274169922,5.300374507904053,-0.5317994356155396,-0.029626964,-0.015271631,-6.955382000000001,10.475526,-54.78923399999999,BSC
1724610117632.0,2.2670257091522217,-5.945729732513428,-4.010478973388672,5.295285701751709,-0.5270034670829773,-0.05222898,-0.018325957,-6.9148545,10.40535,-54.838566,BSC
1724615229440.0,2.2720258235931396,-5.953444004058838,-4.02332067489624,5.290353775024414,-0.5221441388130188,-0.09682214,-0.04184427,-6.868534,10.346856,-54.864803,BSC
1724620210176.0,2.2770259380340576,-5.961233615875244,-4.035644054412842,5.285576820373535,-0.5172223448753357,-0.12308934,-0.053145275,-6.817710000000001,10.270932,-54.8932,BSC
1724625190912.0,2.2820260524749756,-5.969098091125488,-4.04745626449585,5.2809529304504395,-0.5122388005256653,-0.14110987,-0.064446285,-6.764947,10.203967,-54.909180000000006,BSC
1724630171648.0,2.2870261669158936,-5.977035999298096,-4.058764934539795,5.276480197906494,-0.5071942806243896,-0.14385876,-0.06963864,-6.7151429999999985,10.142607,-54.921562,BSC
1724635152384.0,2.2920262813568115,-5.98504638671875,-4.069577217102051,5.272156238555908,-0.5020894408226013,-0.14172074,-0.08063421400000001,-6.661616,10.067505,-54.93317800000001,BSC
1724640264192.0,2.2970263957977295,-5.993128299713135,-4.079901218414307,5.267979145050049,-0.49692487716674805,-0.12736541,-0.08124508,-6.619179700000001,10.000147,-54.947685,BSC
1724645244928.0,2.3020265102386475,-6.001280784606934,-4.0897440910339355,5.263946056365967,-0.4917011857032776,-0.129198,-0.08643743400000001,-6.5746455,9.917105,-54.956512,BSC
1724650225664.0,2.3070266246795654,-6.009502410888672,-4.0991129875183105,5.260055065155029,-0.48641887307167053,-0.12950343,-0.101098195,-6.53538,9.843566,-54.968483,BSC
1724655206400.0,2.3120267391204834,-6.017792701721191,-4.108016014099121,5.256303787231445,-0.48107844591140747,-0.13408493,-0.1151481,-6.493963,9.7663555,-54.981823,BSC
1724660187136.0,2.3170268535614014,-6.026150226593018,-4.11646032333374,5.252689361572266,-0.47568032145500183,-0.14599679999999998,-0.13103059,-6.4572997,9.700272,-54.9913,BSC
1724665167872.0,2.3220269680023193,-6.034573554992676,-4.124453544616699,5.249209880828857,-0.47022494673728943,-0.16157386,-0.15882497,-6.411556,9.636316,-54.99511700000001,BSC
1724670148608.0,2.3270270824432373,-6.043062210083008,-4.132002830505371,5.245862007141113,-0.46471264958381653,-0.16798794,-0.16401732,-6.3700795,9.574631,-54.9987,BSC
1724675129344.0,2.3320271968841553,-6.051614761352539,-4.139115810394287,5.2426438331604,-0.4591437876224518,-0.17287487,-0.17256944,-6.318328,9.54645,-54.99524,BSC
1724680110080.0,2.337027072906494,-6.060230255126953,-4.145799160003662,5.2395524978637695,-0.45351868867874146,-0.1881465,-0.17867808,-6.2712164,9.522679,-54.987373,BSC
1724685090816.0,2.342026948928833,-6.068907737731934,-4.152060031890869,5.2365851402282715,-0.44783762097358704,-0.21135938,-0.18112154,-6.2145844000000015,9.493806,-54.97310600000001,BSC
1724690071552.0,2.347026824951172,-6.077646255493164,-4.157905578613281,5.233739852905273,-0.44210085272789,-0.22876903,-0.18173242,-6.1616273,9.46903,-54.956642,BSC
1724695052288.0,2.3520267009735107,-6.086444854736328,-4.163342475891113,5.231013774871826,-0.4363086223602295,-0.2565634,-0.18845193,-6.110121,9.448189,-54.921658,BSC
1724700033024.0,2.3570265769958496,-6.095302581787109,-4.16837739944458,5.2284040451049805,-0.43046119809150696,-0.28130344,-0.1853976,-6.061085,9.4256935,-54.884712,BSC
1724705013760.0,2.3620264530181885,-6.10421895980835,-4.173016548156738,5.2259087562561035,-0.4245587885379791,-0.32070425,-0.18234327,-6.015261,9.405451,-54.833298,BSC
1724709994496.0,2.3670263290405273,-6.113193511962891,-4.1772661209106445,5.223525524139404,-0.4186016023159027,-0.36010507,-0.18051068,-5.966831,9.382559,-54.77685500000001,BSC
1724714975232.0,2.372026205062866,-6.122225284576416,-4.181131839752197,5.221251964569092,-0.4125899076461792,-0.3830125,-0.17470746,-5.924963,9.3570595,-54.7078,BSC
1724720087040.0,2.377026081085205,-6.131314277648926,-4.184619903564453,5.219085693359375,-0.4065239131450653,-0.4071417,-0.17531833,-5.8815503,9.331873,-54.629463,BSC
1724725198848.0,2.382025957107544,-6.1404595375061035,-4.187735557556152,5.217024326324463,-0.40040385723114014,-0.44012842,-0.18325958,-5.844664,9.318991,-54.530785,BSC
1724730179584.0,2.387025833129883,-6.149661064147949,-4.190484046936035,5.215065956115723,-0.3942300081253052,-0.45540005,-0.18875736,-5.8105480000000025,9.306705,-54.43318000000001,BSC
1724735160320.0,2.3920257091522217,-6.158918857574463,-4.192870616912842,5.2132086753845215,-0.3880026638507843,-0.47647488,-0.18509217,-5.7829213,9.298312,-54.324383,BSC
1724740141056.0,2.3970255851745605,-6.168232440948486,-4.194899559020996,5.211450576782227,-0.3817221522331238,-0.4783075,-0.1872302,-5.7535267,9.291762,-54.218777,BSC
1724745121792.0,2.4020254611968994,-6.177602291107178,-4.196576118469238,5.209789752960205,-0.3753887712955475,-0.48655418,-0.19364429,-5.7315073,9.289661,-54.10852,BSC
1724750102528.0,2.4070253372192383,-6.187028408050537,-4.197904109954834,5.208224773406982,-0.36900290846824646,-0.48563787,-0.19394971,-5.707574,9.29058,-53.9958,BSC
1724755083264.0,2.412025213241577,-6.196511268615723,-4.198887825012207,5.206753730773926,-0.3625650107860565,-0.4810564000000001,-0.18600847,-5.6905413000000005,9.2944565,-53.88503299999999,BSC
1724760064000.0,2.417025089263916,-6.206050872802734,-4.199531078338623,5.2053751945495605,-0.3560754954814911,-0.4801401,-0.2003638,-5.6675324,9.3090515,-53.76651800000001,BSC
1724765175808.0,2.422024965286255,-6.2156476974487305,-4.1998372077941895,5.204087257385254,-0.34953489899635315,-0.47403142,-0.20433442,-5.6479339999999985,9.318156,-53.65515500000001,BSC
1724770156544.0,2.4270248413085938,-6.225302696228027,-4.199809551239014,5.2028889656066895,-0.3429437577724457,-0.47128254,-0.20708331,-5.635064,9.337573,-53.54176999999999,BSC
1724775137280.0,2.4320247173309326,-6.235016345977783,-4.199450969696045,5.201779365539551,-0.3363027274608612,-0.4578435,-0.20830505,-5.614919,9.351034,-53.43575300000001,BSC
1724780118016.0,2.4370245933532715,-6.2447896003723145,-4.198764324188232,5.200757026672363,-0.3296124339103699,-0.45020768,-0.21960606,-5.5958567000000015,9.383221,-53.31709,BSC
1724785098752.0,2.4420244693756104,-6.254622936248779,-4.197751998901367,5.1998209953308105,-0.32287365198135376,-0.44684792,-0.21960606,-5.574091,9.407862,-53.20486500000001,BSC
1724790210560.0,2.447024345397949,-6.264517784118652,-4.19641637802124,5.198970317840576,-0.31608718633651733,-0.44837508,-0.22571471,7.1685243000000005,9.445116,-53.076714,BSC
1724795191296.0,2.452024221420288,-6.27447509765625,-4.194759368896484,5.198204040527344,-0.3092539310455322,-0.44165558,-0.22876903,7.1842318,9.4782095,-52.955395,BSC
1724800172032.0,2.457024097442627,-6.284496307373047,-4.192782878875732,5.197521209716797,-0.30237480998039246,-0.453262,-0.23823744,7.2011013,9.515226,-52.83093,BSC
1724805152768.0,2.462023973464966,-6.294582366943359,-4.190488815307617,5.196921348571777,-0.2954508662223816,-0.4529566,-0.23915374,7.235387299999997,9.562757,-52.70855699999999,BSC
1724810133504.0,2.4670238494873047,-6.30473518371582,-4.187878131866455,5.196403980255127,-0.288483202457428,-0.45814893,-0.24953845,7.2732882,9.612329,-52.58337,BSC
1724815245312.0,2.4720237255096436,-6.314955711364746,-4.1849517822265625,5.1959686279296875,-0.28147298097610474,-0.46211955,-0.26145032,7.3179564,9.666882,-52.458088,BSC
1724820226048.0,2.4770236015319824,-6.3252458572387695,-4.181711196899414,5.195614814758301,-0.27442148327827454,-0.4654793,-0.2678644,7.3612975999999986,9.7161875,-52.33456,BSC
1724825206784.0,2.4820234775543213,-6.335606575012207,-4.178157329559326,5.195342063903809,-0.2673300802707672,-0.4746423,-0.2724459,7.404914,9.767791,-52.210907,BSC
1724830187520.0,2.48702335357666,-6.34604024887085,-4.174290657043457,5.195149898529053,-0.260200172662735,-0.46609017,-0.28191432,7.452731,9.815373,-52.0882,BSC
1724835168256.0,2.492023229598999,-6.356547832489014,-4.170111656188965,5.195038318634033,-0.25303328037261963,-0.47525316,-0.28221974,7.492309,9.859009,-51.961987,BSC
1724840148992.0,2.497023105621338,-6.36713171005249,-4.16562032699585,5.19500732421875,-0.24583102762699127,-0.4654793,-0.28955013,7.544189500000001,9.904327,-51.835754,BSC
1724845129728.0,2.5020229816436768,-6.377793312072754,-4.160817623138428,5.195056438446045,-0.23859508335590363,-0.4596761,-0.29168814,7.589492,9.9473095,-51.709957,BSC
1724850110464.0,2.5070228576660156,-6.388534069061279,-4.155703067779541,5.195185661315918,-0.23132723569869995,-0.45662177,-0.29016098,7.633942599999999,9.985462,-51.579067,BSC
1724855091200.0,2.5120227336883545,-6.399355888366699,-4.150277137756348,5.195394992828369,-0.2240293174982071,-0.45631635,-0.29443705,7.6798142999999985,10.0215225,-51.452133,BSC
