timestamp,rel_time,acc_x,acc_y,acc_z,gyro_x,gyro_y,gyro_z,azimuth,pitch,roll,label
0.0,0.0,0.0,0.0,0.0,0.0,0.0012217305,0.008552114,315.65167,-39.18291,-3.9991565000000002,STD
48591630000.0,1.490129670855822e-05,0.006323275621980429,0.02899538353085518,0.00044390035327523947,-8.496081863995641e-05,0.0036651915999999997,0.009773844,315.6125,-39.8583,-3.8063559999999996,STD
145051700000.0,7.908863335615024e-05,0.018880676478147507,0.08655624091625214,0.0012290767626836896,-0.00023542833514511585,0.01282817,0.017715093,315.57592999999997,-40.5226,-3.6138567999999998,STD
287959800000.0,0.00021154232672415674,0.037490155547857285,0.17183592915534973,0.0022886833176016808,-0.00036888758768327534,0.011301007,0.013133603,315.54562000000004,-41.186195,-3.4227417,STD
475248920000.0,0.0004438948235474527,0.06188734620809555,0.2836025059223175,0.0035143119748681784,-0.0005760557251051068,0.016798794,0.011301007,315.51218,-41.84042,-3.2342622000000003,STD
704276600000.0,0.0008019187953323126,0.0917322039604187,0.42028048634529114,0.0048080673441290855,-0.0008293925202451646,0.028099801,0.01160644,315.48056,-42.491283,-3.0483196,STD
971913360000.0,0.0013051613932475448,0.12662041187286377,0.5800033807754517,0.006084463559091091,-0.0012832293286919594,0.020463986,0.01160644,315.45416,-43.131657000000004,-2.861215,STD
1274641600000.0,0.00197289208881557,0.16609716415405273,0.7606732249259949,0.0072549087926745415,-0.001651283586397767,0.024129177,0.01160644,315.42532,-43.769622999999996,-2.6800672999999997,STD
1608661200000.0,0.0028209062293171883,0.20967034995555878,0.9600231051445007,0.008237629197537899,-0.002036937978118658,0.021380282999999996,0.009468411,315.40173,-44.395924,-2.4978017999999995,STD
1969994600000.0,0.003862114390358329,0.25682440400123596,1.1756802797317505,0.008957083337008953,-0.002604926470667124,0.02321288,0.011301007,315.37766,-45.01511,-2.3178644,STD
2354588000000.0,0.005104913376271725,0.3070331811904907,1.405226230621338,0.009349491447210312,-0.0033822739496827126,0.025350908,0.014966198,315.35607999999996,-45.627136,-2.138953,STD
2758404000000.0,0.0065548000857234,0.359772264957428,1.646252155303955,0.009359285235404968,-0.004438203759491444,0.028099801,0.015577064,315.33617999999996,-46.229492,-1.9623203000000002,STD
3177503300000.0,0.008216137997806072,0.41452983021736145,1.8964076042175293,0.008935016579926014,-0.005572060123085976,0.02565634,0.014049901000000002,315.31842,-46.824673,-1.7863667,STD
3608112800000.0,0.010088415816426277,0.47081494331359863,2.1534411907196045,0.008040429092943668,-0.007069173734635115,0.01282817,0.014966198,315.30356,-47.407579999999996,-1.6099507,STD
4046680000000.0,0.012167940847575665,0.5281649827957153,2.4152328968048096,0.006650293245911598,-0.008042784407734871,0.011301007,0.0033597588,315.29132000000004,-47.99,-1.4399416,STD
4489914400000.0,0.014452021569013596,0.5861514806747437,2.679819107055664,0.00473921000957489,-0.00898236595094204,0.006414085,0.0125227375,315.2801,-48.558147,-1.2640051,STD
4934813000000.0,0.01696145348250866,0.6443868279457092,2.9454092979431152,0.00221950258128345,-0.00990235898643732,0.021380282999999996,0.0076358155,315.2715,-49.12292,-1.0988296,STD
5378679000000.0,0.01963132433593273,0.7025108337402344,3.210390567779541,-0.0007556680357083678,-0.01082021463662386,0.014660766,0.018325957,315.26572000000004,-49.680546,-0.9251825,STD
5819123400000.0,0.022483181208372116,0.7602158188819885,3.473339080810547,-0.00426993565633893,-0.011693857610225677,0.01985312,0.010690141499999998,315.25995,-50.230909999999994,-0.76346016,STD
6254064300000.0,0.02550872415304184,0.8172298073768616,3.7330117225646973,-0.008321058005094528,-0.012378212995827198,0.036651913,0.01863139,315.24982,-50.774853,-0.59873503,STD
6681716000000.0,0.02869691699743271,0.8733188509941101,3.988342523574829,-0.01289625559002161,-0.013207969255745411,0.04153884,0.017104227,315.24576,-51.30915,-0.43844095,STD
7100573400000.0,0.032037727534770966,0.9282857179641724,4.238432884216309,-0.0179827231913805,-0.014542334713041782,0.06017022599999999,0.020158553,315.23407000000003,-51.834796999999995,-0.28268048,STD
7509393000000.0,0.03552337363362312,0.981967568397522,4.482540607452393,-0.023571282625198364,-0.015503381378948689,0.06688975,0.01863139,315.22638,-52.357459999999996,-0.12886187,STD
7907171600000.0,0.03914203494787216,1.034232258796692,4.720066547393799,-0.02963915653526783,-0.016911296173930168,0.05100725,0.01985312,315.2199,-52.864090000000004,0.025102656,STD
8293125000000.0,0.04288630187511444,1.0849766731262207,4.950542449951172,-0.036173611879348755,-0.018531816080212593,0.05375614,0.01985312,315.20937999999995,-53.36683000000001,0.17224054,STD
8666664000000.0,0.0467463843524456,1.1341227293014526,5.1736159324646,-0.04315337538719177,-0.020028479397296906,0.034513887,0.018020526000000002,315.20892000000003,-53.861194999999995,0.32382953,STD
9027372000000.0,0.050710540264844894,1.1816145181655884,5.3890380859375,-0.050550032407045364,-0.021749913692474365,0.015577064,0.017715093,315.20874,-54.344531999999994,0.47329822,STD
9374984000000.0,0.05476927012205124,1.2274161577224731,5.596649646759033,-0.058339886367321014,-0.02358534187078476,0.008246681,0.02076942,315.21127,-54.82156,0.6224132,STD
9709363000000.0,0.058916933834552765,1.2715092897415161,5.796370029449463,-0.06650861352682114,-0.025484681129455566,0.008246681,0.019547688,315.21844,-55.28991,0.7703199000000001,STD
10030488000000.0,0.06314656883478165,1.313889980316162,5.988185882568359,-0.07503712177276611,-0.02747379057109356,-0.005497787,0.012217305,315.23224,-55.74981999999999,0.918799,STD
10338432000000.0,0.06746387481689453,1.3545684814453125,6.172140121459961,-0.0839405283331871,-0.029744431376457214,-0.01160644,0.0125227375,315.24426,-56.200559999999996,1.0654069,STD
10633345000000.0,0.07185079902410507,1.3935350179672241,6.348331928253174,-0.09308087825775146,-0.03165977820754051,-0.01863139,0.0076358155,315.26285,-56.646904000000006,1.2092091,STD
10915444000000.0,0.07636124640703201,1.4300872087478638,6.517157077789307,-0.10023744404315948,-0.03329233452677727,-0.014355333500000001,0.007330383,315.28042999999997,-57.083702,1.3511758,STD
11185000000000.0,0.08084017783403397,1.4646259546279907,6.6786298751831055,-0.10622192919254303,-0.03491407632827759,-0.021380282999999996,0.0030543262,315.28638,-57.578384,1.4942287,STD
11442323000000.0,0.08537587523460388,1.4970003366470337,6.833014011383057,-0.11062152683734894,-0.03635351359844208,-0.021380282999999996,0.0012217305,315.2904,-58.0676,1.6342794,STD
11687759000000.0,0.08995325118303299,1.5273022651672363,6.980496406555176,-0.11354896426200867,-0.03597861900925636,-0.013133603,0.005497787,315.29498,-58.558075,1.7728398,STD
11921677000000.0,0.09457336366176605,1.5564638376235962,7.122508525848389,-0.1146729439496994,-0.03574671223759651,-0.016798794,0.0012217305,315.29636,-59.042106999999994,1.9117761999999998,STD
12144461000000.0,0.0992286205291748,1.5847350358963013,7.259503364562988,-0.11400249600410461,-0.034864943474531174,-0.008552114,-0.008857545999999999,315.29400000000004,-59.53272,2.0457141,STD
12356513000000.0,0.10392087697982788,1.6124964952468872,7.391350269317627,-0.10827628523111343,-0.03358351066708565,0.00030543262000000003,-0.004886922,315.28094,-60.016487,2.1768165,STD
12558235000000.0,0.10864171385765076,1.6398138999938965,7.518136978149414,-0.0971522405743599,-0.03201599791646004,0.0033597588,-0.00580322,315.27022999999997,-60.49612,2.3024597,STD
12750036000000.0,0.11339347809553146,1.6676676273345947,7.639503479003906,-0.08079444617033005,-0.02992193028330803,0.01038471,0.00061086525,315.24352999999996,-60.978947,2.4287822,STD
12932322000000.0,0.11816828697919846,1.6964597702026367,7.755364894866943,-0.05957644060254097,-0.028393598273396492,0.015271631,0.004886922,315.2177,-61.45006,2.5528302000000003,STD
13105495000000.0,0.12296511977910995,1.72620689868927,7.864851474761963,-0.032750122249126434,-0.02695763297379017,0.024129177,0.007330383,315.16794,-61.914294999999996,2.6745634,STD
13269953000000.0,0.12778355181217194,1.7568923234939575,7.96785306930542,-0.00021109168301336467,-0.02596181444823742,0.02321288,0.011301007,315.1189,-62.36605,2.7969546000000003,STD
13426082000000.0,0.1326257437467575,1.7882038354873657,8.062710762023926,0.03609597310423851,-0.02565736509859562,0.035124752999999995,0.022602014,315.00793,-62.823707999999996,2.9132466,STD
13574263000000.0,0.13748091459274292,1.819899320602417,8.149028778076172,0.07500562816858292,-0.026267198845744133,0.022296581,0.02565634,314.90372,-63.269997,3.0304873,STD
13714862000000.0,0.14234855771064758,1.8496708869934082,8.228753089904785,0.11450588703155518,-0.02748875878751278,0.02565634,0.028099801,314.69965,-63.739180000000005,3.1411667000000003,STD
13848238000000.0,0.1472303420305252,1.8764735460281372,8.302942276000977,0.1536555290222168,-0.029146471992135048,0.0125227375,0.026267206,314.50195,-64.19574,3.2544951,STD
13974734000000.0,0.152123361825943,1.8992137908935547,8.373109817504883,0.19327901303768158,-0.030799245461821556,-0.0125227375,0.030848695,314.30264,-64.640465,3.4008985000000003,STD
14094683000000.0,0.1570287048816681,1.9170724153518677,8.440439224243164,0.23402701318264008,-0.03202774375677109,-0.04184427,0.029932396,314.1072,-65.07648,3.546153,STD
14208405000000.0,0.16194304823875427,1.9303823709487915,8.505212783813477,0.27445346117019653,-0.03269195556640625,-0.058643065,0.01740966,313.85857999999996,-65.54414,3.6900089,STD
14316207000000.0,0.16686555743217468,1.9394052028656006,8.567641258239746,0.31380224227905273,-0.031608741730451584,-0.07422013,0.0076358155,313.61523,-66.01045,3.8368626000000003,STD
14418383000000.0,0.1717997044324875,1.942238211631775,8.628445625305176,0.3482176959514618,-0.029579443857073784,-0.07422013,0.0067195175,313.26218,-66.53895,3.9699394999999997,STD
14515216000000.0,0.17673756182193756,1.9383589029312134,8.687945365905762,0.37614449858665466,-0.026102792471647263,-0.06291912,-0.004886922,312.9106,-67.06821,4.0992928,STD
14606975000000.0,0.1816822588443756,1.9323885440826416,8.746054649353027,0.4000958204269409,-0.022354958578944206,-0.057726767000000005,-0.0067195175,312.36742999999996,-67.71992,4.2242928,BSC
14693917000000.0,0.1866348534822464,1.9283143281936646,8.802696228027344,0.42226216197013855,-0.019079288467764854,-0.04428773,-0.024129177,311.82068,-68.35889,4.3449655,BSC
14776288000000.0,0.1915915459394455,1.925927996635437,8.856850624084473,0.44263145327568054,-0.015748927369713783,-0.040011674,-0.025961772999999997,310.98688,-69.20453,4.463867700000001,BSC
14854322000000.0,0.1965506374835968,1.9250731468200684,8.907918930053711,0.4612252712249756,-0.012058798223733902,-0.043676864,-0.03573562,310.157,-70.01986,4.587532,BSC
14928242000000.0,0.20151278376579285,1.9269757270812988,8.956042289733887,0.47664716839790344,-0.008044099435210228,-0.053145275,-0.05009095,308.87827000000004,-71.12116,4.794903,BSC
14998261000000.0,0.20648060739040375,1.9332547187805176,9.00134563446045,0.48705804347991943,-0.0035434907767921686,-0.06994407,-0.06352998,307.61782999999997,-72.1602,5.0234294,BSC
15064580000000.0,0.2114506959915161,1.9427717924118042,9.044524192810059,0.49209731817245483,0.0004758441646117717,-0.083383106,-0.06841691,306.7444,-72.92236,5.254681,BSC
15127393000000.0,0.21642330288887024,1.9547983407974243,9.086047172546387,0.4915976822376251,0.0043151103891432285,-0.090713486,-0.06963864,305.88196,-73.64579,5.4921690000000005,BSC
15186882000000.0,0.22140149772167206,1.9692400693893433,9.126008033752441,0.4857841432094574,0.008519654162228107,-0.09162979,-0.08032878,305.03976,-74.32839,5.745058,BSC
15243221000000.0,0.22638170421123505,1.9859336614608765,9.164481163024902,0.4749992787837982,0.012274082750082016,-0.09162979,-0.08155051,304.20554,-74.9603,6.0066447,BSC
15296574000000.0,0.23136478662490845,2.0035645961761475,9.20097827911377,0.4592021405696869,0.016414498910307884,-0.09896017,-0.08307768,303.38095,-75.5533,6.2711368,BSC
15347099000000.0,0.23634855449199677,2.0211377143859863,9.235164642333984,0.43847984075546265,0.02088792249560356,-0.089491755,-0.07269296,302.55734,-76.095764,6.5423800000000005,BSC
15394943000000.0,0.24133192002773285,2.0386524200439453,9.267162322998047,0.4131139814853668,0.026570651680231094,-0.07941248,-0.07086037,301.79584,-76.59761999999999,6.8305679999999995,BSC
15440248000000.0,0.24631711840629578,2.056118965148926,9.297083854675293,0.38330093026161194,0.032504480332136154,-0.071776666,-0.069027774,301.03726,-77.04639399999999,7.123711,BSC
15483147000000.0,0.25130268931388855,2.072359800338745,9.323756217956543,0.35145479440689087,0.03971658647060394,-0.06017022599999999,-0.059864793,300.27963,-77.45331999999999,7.4209130000000005,BSC
15523768000000.0,0.25629159808158875,2.086250066757202,9.34603500366211,0.31981226801872253,0.048187922686338425,-0.03268129,-0.047647487,299.52022999999997,-77.80909,7.720312599999999,BSC
15562231000000.0,0.26128044724464417,2.0976006984710693,9.364386558532715,0.28923138976097107,0.057168591767549515,-0.02076942,-0.03176499,298.81427,-78.12546999999999,8.012186,BSC
15598649000000.0,0.26627296209335327,2.1060805320739746,9.379243850708008,0.26077988743782043,0.06681037694215775,-0.009468411,-0.025350908,298.1054,-78.3956,8.304939,BSC
15633132000000.0,0.271350234746933,2.1115264892578125,9.39125919342041,0.23714277148246765,0.07758232951164246,-0.011911871999999999,-0.018936822,297.40836,-78.618065,8.597105,BSC
15665780000000.0,0.2763397991657257,2.115501880645752,9.402111053466797,0.21764954924583435,0.08976594358682632,-0.01740966,-0.01863139,296.71353,-78.79233599999999,8.890144,BSC
15696692000000.0,0.28132694959640503,2.1175620555877686,9.411627769470215,0.2033580243587494,0.10183830559253693,-0.035124752999999995,-0.013133603,296.02457000000004,-78.915886,9.180937,BSC
15725960000000.0,0.286323606967926,2.1181559562683105,9.421304702758789,0.1960907280445099,0.114146888256073,-0.054061572999999995,-0.010995574,295.34198,-78.99555,9.472158,BSC
15753671000000.0,0.291317880153656,2.1175668239593506,9.431617736816406,0.19588884711265564,0.12703698873519897,-0.09621128,-0.015882496,294.67548,-79.0278,9.764793,BSC
15779907000000.0,0.29631030559539795,2.116347551345825,9.442606925964355,0.202379509806633,0.1406077891588211,-0.124005646,-0.014660766,293.9825,-79.01116,10.059128999999999,BSC
15804747000000.0,0.3013027310371399,2.1149346828460693,9.454303741455078,0.2152446061372757,0.1541721671819687,-0.16157386,-0.027183502999999998,293.3092,-78.95522,10.349929,BSC
15828264000000.0,0.30629441142082214,2.1131865978240967,9.465033531188965,0.23300345242023468,0.16724224388599396,-0.19608775,-0.04062254,292.60632000000004,-78.850876,10.648052,BSC
15850531000000.0,0.3112882673740387,2.1110002994537354,9.47359848022461,0.254598468542099,0.18036498129367828,-0.21685717,-0.048563786,291.91455,-78.711426,10.944839,BSC
15871611000000.0,0.31631261110305786,2.1083614826202393,9.480948448181152,0.2786467969417572,0.1925286054611206,-0.23640485,-0.06078109,291.19318,-78.53065,11.247005999999999,BSC
15891570000000.0,0.3213057816028595,2.1054165363311768,9.487683296203613,0.3036476671695709,0.20414213836193085,-0.24617869,-0.08002335,290.47922,-78.3243,11.544943,BSC
15910465000000.0,0.3262990713119507,2.1027393341064453,9.494268417358398,0.32905352115631104,0.21523483097553253,-0.24342979999999997,-0.093462385,289.74017000000003,-78.08292,11.850451,BSC
15928355000000.0,0.33129411935806274,2.100706100463867,9.501004219055176,0.35435986518859863,0.22549261152744293,-0.23732115,-0.1020145,289.00714,-77.82251,12.151586,BSC
15945292000000.0,0.33628714084625244,2.100238561630249,9.509252548217773,0.3795434534549713,0.23509012162685394,-0.23396139,-0.12278391400000001,288.2603,-77.545815,12.449335000000001,BSC
15961326000000.0,0.3412814140319824,2.1020121574401855,9.52001667022705,0.40461692214012146,0.2445344477891922,-0.23396139,-0.12950343,287.51653999999996,-102.74821999999999,12.747962,BSC
15976508000000.0,0.34627506136894226,2.1073801517486572,9.532868385314941,0.429750919342041,0.2536872625350952,-0.21746802,-0.13744467,286.76157,-103.053444,13.044212,BSC
15990880000000.0,0.3512692451477051,2.117750406265259,9.547414779663086,0.4551324248313904,0.26227110624313354,-0.20219639,-0.13927728,286.01022,-103.36856,13.339379999999998,BSC
16004488000000.0,0.3562626838684082,2.131840467453003,9.561994552612305,0.4802524149417877,0.27075573801994324,-0.1957823,-0.15027285,285.22513,-103.697784,13.639057999999999,BSC
16017371000000.0,0.36125797033309937,2.148678779602051,9.57533073425293,0.5047339200973511,0.2781861424446106,-0.18539760000000002,-0.14844026,284.43817,-104.03499000000001,13.940389999999999,BSC
16029568000000.0,0.3662536144256592,2.1681406497955322,9.58549976348877,0.5286544561386108,0.28500908613204956,-0.16676621,-0.13897185,283.63702,-104.3964,14.260458999999999,BSC
16041115000000.0,0.3712511956691742,2.1901798248291016,9.589010238647461,0.5521345734596252,0.29076865315437317,-0.1572978,-0.13775012,282.8393,-104.75589000000001,14.575942000000001,BSC
16052047000000.0,0.3762463331222534,2.21278977394104,9.58324909210205,0.5749559998512268,0.29568421840667725,-0.15057829,-0.13683382,282.0007,-105.14034,14.9132595,BSC
16062396000000.0,0.3812456429004669,2.2341949939727783,9.565461158752441,0.5969429016113281,0.299426406621933,-0.14110987,-0.13561209,281.1632,-105.52136000000002,15.247435000000001,BSC
16072195000000.0,0.3862740695476532,2.2544596195220947,9.535139083862305,0.618175208568573,0.3038155734539032,-0.15302174,-0.1337795,280.30664,-105.924644,15.601476000000002,BSC
16081472000000.0,0.3912715017795563,2.27364444732666,9.495623588562012,0.6386105418205261,0.3085730969905853,-0.17684549,-0.13194689,279.4563,-106.321724,15.951264000000002,BSC
16090255000000.0,0.39626988768577576,2.290907859802246,9.448431968688965,0.6589524745941162,0.31426531076431274,-0.19242255,-0.13530666,278.594,-106.71596000000001,16.29712,BSC
16098570000000.0,0.4012637436389923,2.305279016494751,9.39709758758545,0.6799362897872925,0.32097262144088745,-0.22632557,-0.13988814,277.75012000000004,-107.1047,16.637556,BSC
16106443000000.0,0.40625831484794617,2.3180882930755615,9.347650527954102,0.7013601064682007,0.3289339244365692,-0.26236662,-0.14049901,276.85882999999995,-107.53441000000001,17.015547,BSC
16113896000000.0,0.41125357151031494,2.3312599658966064,9.308988571166992,0.722896158695221,0.33871719241142273,-0.301462,-0.15485434,275.98767000000004,-107.95407,17.382454,BSC
16120952000000.0,0.4162445664405823,2.3447554111480713,9.280386924743652,0.7445154190063477,0.3493463695049286,-0.35094208,-0.16096300000000002,275.11444,-108.380974,17.757137,BSC
16127633000000.0,0.4212382435798645,2.360621929168701,9.265645980834961,0.7639620304107666,0.36113449931144714,-0.37965274,-0.17043139999999998,274.25647000000004,-108.79836999999999,18.121077,BSC
16133958000000.0,0.42623066902160645,2.3788294792175293,9.264017105102539,0.7807880640029907,0.3732873499393463,-0.42210788,-0.17592919,273.42734,-109.20775,18.477486,BSC
16139945000000.0,0.4312227666378021,2.3992865085601807,9.27436351776123,0.7932499051094055,0.38513439893722534,-0.45020768,-0.1777618,272.56766,-109.60895500000001,18.827223,BSC
16145614000000.0,0.4362161159515381,2.4218077659606934,9.295807838439941,0.8011388182640076,0.39576417207717896,-0.49113566,-0.18234327,271.72028,-109.99103999999998,19.158936999999998,BSC
16150981000000.0,0.44120970368385315,2.445709228515625,9.32565689086914,0.8018980622291565,0.4053717255592346,-0.5180137,-0.17531833,270.88794,-110.36652,19.486588,BSC
16156063000000.0,0.4462035596370697,2.4702930450439453,9.361989974975586,0.7955796718597412,0.4137348234653473,-0.54183745,-0.16615535,270.1043,-110.708176,19.78247,BSC
16160874000000.0,0.45119816064834595,2.4920482635498047,9.396269798278809,0.7807199954986572,0.4188525676727295,-0.5589417,-0.16646078,269.33557,-111.03558999999998,20.070729999999998,BSC
16165429000000.0,0.4561960995197296,2.511110544204712,9.428605079650879,0.7576873898506165,0.4212071895599365,-0.5739079,-0.14905111,268.62633999999997,-111.335075,20.329792,BSC
16169741000000.0,0.461190789937973,2.5276598930358887,9.459101676940918,0.7271300554275513,0.42088082432746887,-0.57879484,-0.14813483,267.9259,-111.61671000000001,20.578045,BSC
16173824000000.0,0.4661872684955597,2.5418026447296143,9.487855911254883,0.6892877221107483,0.41786983609199524,-0.5821546,-0.14202617,267.20856000000003,-111.89691,20.830889000000003,BSC
16177690000000.0,0.47127652168273926,2.5489251613616943,9.506444931030273,0.6393633484840393,0.41208940744400024,-0.61483586,-0.15332718,266.5091,-112.15891,21.071503,BSC
16181349000000.0,0.47626790404319763,2.5522496700286865,9.519085884094238,0.5850914120674133,0.40433821082115173,-0.6267477,-0.16310102,265.81244,-112.41051000000002,21.308376000000003,BSC
16184814000000.0,0.4812641143798828,2.5509650707244873,9.523711204528809,0.5256475210189819,0.3963489830493927,-0.67347896,-0.1777618,265.27557,-112.60462,21.471199,BSC
16188095000000.0,0.4862578213214874,2.5456011295318604,9.521014213562012,0.462051659822464,0.3892412781715393,-0.73975784,-0.1881465,264.7526,-112.7895,21.627275,BSC
16191200000000.0,0.49125394225120544,2.535517454147339,9.512785911560059,0.39631688594818115,0.38392847776412964,-0.818254,-0.20799962,264.30102999999997,-112.944824,21.74044,BSC
16194142000000.0,0.49624621868133545,2.5208587646484375,9.499883651733398,0.32922831177711487,0.38200777769088745,-0.92087936,-0.22815818,263.8803,-113.096985,21.84456,BSC
16196926000000.0,0.50124192237854,2.502488851547241,9.484801292419434,0.26168084144592285,0.3848772943019867,-1.0308351999999998,-0.25167647,263.54413,-113.23203000000001,21.914867,BSC
16199562000000.0,0.5062353610992432,2.4808788299560547,9.468289375305176,0.19401052594184875,0.39301422238349915,-1.1337659,-0.26878070000000004,263.2388,-113.36827,21.976136999999998,BSC
16202057000000.0,0.5112341046333313,2.456312656402588,9.45270824432373,0.12653885781764984,0.4060401916503906,-1.2238685,-0.28924468,262.9839,-113.48965,22.002878,BSC
16204421000000.0,0.5162313580513,2.429112672805786,9.43869686126709,0.059459228068590164,0.4237597584724426,-1.2944235,-0.30726522,262.75525,-113.61751000000001,22.021639,BSC
16206659000000.0,0.5212306976318359,2.4016878604888916,9.428607940673828,-0.010514874011278152,0.444197416305542,-1.3445143999999998,-0.32436943,262.56237999999996,-113.73515,22.012936,BSC
16208777000000.0,0.5262275338172913,2.3749654293060303,9.423105239868164,-0.08435186743736267,0.4672245681285858,-1.357648,-0.33536503,262.3799,-113.86235,21.999796,BSC
16210783000000.0,0.5312257409095764,2.349634885787964,9.424189567565918,-0.16054478287696838,0.4915637969970703,-1.3411547,-0.3475823,262.2095,-113.97542,21.958244,BSC
16212682000000.0,0.5362240672111511,2.3259081840515137,9.432329177856445,-0.23839262127876282,0.5152733325958252,-1.3179418,-0.35094208,262.04135,-114.095,21.916954,BSC
16214480000000.0,0.5412220358848572,2.303699493408203,9.447135925292969,-0.31779801845550537,0.5376216173171997,-1.2501358,-0.35735616,261.88495,-114.21011000000001,21.85748,BSC
16216183000000.0,0.5462193489074707,2.2829277515411377,9.468244552612305,-0.398669958114624,0.5585510730743408,-1.1395692,-0.36438109999999996,261.7081,-114.328926,21.801954000000002,BSC
16217795000000.0,0.5512162446975708,2.262434959411621,9.493074417114258,-0.47857415676116943,0.5772419571876526,-1.0137309,-0.35857790000000006,261.50232,-114.4497,21.75392,BSC
16219322000000.0,0.5562158226966858,2.241726875305176,9.520503997802734,-0.5565736293792725,0.5934718251228333,-0.8741482,-0.34300083,261.2595,-114.57181000000001,21.715296,BSC
16220768000000.0,0.5612154603004456,2.2206954956054688,9.545862197875977,-0.6265009045600891,0.6069323420524597,-0.7476991,-0.32742378,261.02145,-114.67758,21.654547,BSC
16222137000000.0,0.5662145018577576,2.199315309524536,9.56766414642334,-0.6865778565406799,0.6180965900421143,-0.6383542,-0.32406402,260.74683,-114.78251000000002,21.603632,BSC
16223433000000.0,0.571212887763977,2.175058126449585,9.581193923950195,-0.7343245148658752,0.6269567608833313,-0.56107974,-0.31429017,260.4534,-114.88056,21.55486,BSC
16224659000000.0,0.5762132406234741,2.14668869972229,9.584221839904785,-0.7687164545059204,0.6332123875617981,-0.52748215,-0.31520647,260.1402,-114.97138999999999,21.509388,BSC
16225821000000.0,0.5812131762504578,2.1156110763549805,9.57496166229248,-0.7896120548248291,0.6383370757102966,-0.52320606,-0.31031954,259.76993,-115.06084399999999,21.478437,BSC
16226922000000.0,0.5862143039703369,2.082524299621582,9.552755355834961,-0.797175943851471,0.6425212621688843,-0.56169057,-0.3155119,259.40335,-115.14081599999999,21.444546,BSC
16227965000000.0,0.5912142992019653,2.0475478172302246,9.517497062683105,-0.7912193536758423,0.6468731164932251,-0.64843345,-0.31429017,259.0031,-115.21498999999999,21.418716,BSC
16228951000000.0,0.5962145924568176,2.010749578475952,9.469111442565918,-0.7716273665428162,0.6518232226371765,-0.7632760999999999,-0.3155119,258.625,-115.28473000000001,21.386702,BSC
16229886000000.0,0.6012136936187744,1.9730898141860962,9.411754608154297,-0.743848443031311,0.6590324640274048,-0.8958339,-0.31856623,258.1998,-115.36838999999999,21.378635,BSC
16230771000000.0,0.6062124371528625,1.9351164102554321,9.347914695739746,-0.7111037969589233,0.6687874794006348,-1.0244209999999998,-0.32253686,257.8119,-115.4523,21.36222,BSC
16231608000000.0,0.6112121939659119,1.8997193574905396,9.281149864196777,-0.6816393136978149,0.6808223128318787,-1.1270463,-0.33536503,257.36422999999996,-115.55405,21.376251,BSC
16232402000000.0,0.6162119507789612,1.8683453798294067,9.213432312011719,-0.6596802473068237,0.6950317621231079,-1.1866056999999999,-0.35491269999999997,256.94785,-115.65784,21.380577,BSC
16233154000000.0,0.6212155222892761,1.8416081666946411,9.147459983825684,-0.6488968729972839,0.7119184732437134,-1.2040153999999998,-0.36621370000000003,256.48126,-115.78392,21.407875,BSC
16233866000000.0,0.6262213587760925,1.8200271129608154,9.085803031921387,-0.6525470018386841,0.7303794026374817,-1.1814133999999998,-0.37812558,256.02774,-115.905975,21.427101,BSC
16234540000000.0,0.6312204599380493,1.8038314580917358,9.032752990722656,-0.6697973012924194,0.7505747675895691,-1.1499538,-0.39431350000000004,255.63156,-116.03641999999999,21.427220000000002,BSC
16235179000000.0,0.6362190246582031,1.793297529220581,8.991369247436523,-0.7005239129066467,0.771484375,-1.0784826,-0.39920044,255.22402999999997,-116.1679,21.431679000000003,BSC
16235784000000.0,0.641250491142273,1.7851771116256714,8.96677303314209,-0.7433772087097168,0.7917517423629761,-0.9914343000000001,-0.4175264,254.88492000000002,-116.29726000000001,21.401009,BSC
16236356000000.0,0.6462458372116089,1.7770529985427856,8.957235336303711,-0.7933303117752075,0.8104994893074036,-0.89919364,-0.4279111,254.52853,-116.42796000000001,21.377972,BSC
16236898000000.0,0.6512409448623657,1.7643415927886963,8.96418285369873,-0.8508811593055725,0.8269133567810059,-0.8689558000000001,-0.44532076,254.23026000000002,-116.55495,21.32432,BSC
16237412000000.0,0.6562367081642151,1.7427618503570557,8.987013816833496,-0.9151687622070312,0.8401736617088318,-0.86926126,-0.47678033,253.91532999999998,-116.670425,21.26995,BSC
16237899000000.0,0.6612323522567749,1.70931077003479,9.023650169372559,-0.9850150346755981,0.8504159450531006,-0.9025534,-0.5448918,253.62897,-116.75018,21.160416,BSC
16238360000000.0,0.666228175163269,1.6613686084747314,9.072283744812012,-1.059404969215393,0.8578823804855347,-0.9673050999999999,-0.6221663000000001,253.35077,-116.813354,21.039106,BSC
16238797000000.0,0.6712765097618103,1.5961335897445679,9.131089210510254,-1.1302143335342407,0.863420844078064,-1.061073,-0.70096785,253.10172000000003,-116.81673400000001,20.829256,BSC
16239212000000.0,0.6762667894363403,1.5210797786712646,9.193610191345215,-1.1936240196228027,0.8679316639900208,-1.187522,-0.7779369,252.87537000000003,-116.8012,20.594715,BSC
16239604000000.0,0.6812565326690674,1.4336767196655273,9.254968643188477,-1.2463234663009644,0.8695651292800903,-1.3756685,-0.8570439000000001,252.71255,-116.70657,20.245855,BSC
16239975000000.0,0.6865145564079285,1.3209848403930664,9.303140640258789,-1.2747242450714111,0.8681164979934692,-1.8845193,-1.0607674999999999,252.48691000000002,-116.41518400000001,19.388298000000002,BSC
16240327000000.0,0.6917585730552673,1.2031673192977905,9.339685440063477,-1.288150429725647,0.8645476698875427,-2.1551325,-1.1520919,252.44315,-116.214355,18.877201,BSC
16240661000000.0,0.6969894766807556,1.0865894556045532,9.366320610046387,-1.2941402196884155,0.8614131808280945,-2.366492,-1.2232577,252.40497000000002,-115.96586,18.297518,BSC
16240976000000.0,0.7022085785865784,0.9774901270866394,9.384700775146484,-1.300063967704773,0.8585922122001648,-2.4828618,-1.2620476,252.40952000000001,-115.71210500000001,17.698483,BSC
16241276000000.0,0.7074148058891296,0.882034182548523,9.395339965820312,-1.3119122982025146,0.8578423261642456,-2.496301,-1.2684617,252.36853,-115.44637,17.087685,BSC
16241560000000.0,0.7126103043556213,0.8069433569908142,9.398650169372559,-1.3361530303955078,0.8613808155059814,-2.409558,-1.2403619,252.33119,-115.20558,16.487814,BSC
16241829000000.0,0.7177948951721191,0.7545028328895569,9.393669128417969,-1.3720910549163818,0.870069682598114,-2.2403482999999995,-1.207986,252.27026,-115.00301999999999,15.910748499999999,BSC
16242084000000.0,0.7229715585708618,0.728257954120636,9.378925323486328,-1.4192286729812622,0.8828531503677368,-2.025629,-1.180497,252.17442000000003,-114.83333999999999,15.365136999999999,BSC
16242325000000.0,0.7281373739242554,0.7244302034378052,9.35685920715332,-1.478251576423645,0.898796796798706,-1.9043724999999998,-1.1707232,252.12115,-114.75523999999999,14.863057999999999,BSC
16242553000000.0,0.7332978248596191,0.7394387722015381,9.330099105834961,-1.5507193803787231,0.916251003742218,-1.6105462,-1.1307116000000001,251.96509,-114.71086000000001,14.424460999999999,BSC
16242770000000.0,0.7384447455406189,0.7623163461685181,9.294821739196777,-1.6298567056655884,0.9372838139533997,-1.2980886999999999,-1.0852021,251.82558999999998,-114.78392,14.076685999999999,BSC
16242976000000.0,0.7435880303382874,0.7788350582122803,9.244720458984375,-1.7073464393615723,0.9627625942230225,-1.0464121,-1.0595458,251.62342999999998,-114.88106499999999,13.765212,BSC
16243171000000.0,0.7487211227416992,0.7868999242782593,9.184213638305664,-1.7762551307678223,0.9933130741119385,-0.8680395000000001,-1.0418307,251.38126,-115.08851999999999,13.536164999999999,BSC
16243356000000.0,0.7538499236106873,0.7827602624893188,9.118663787841797,-1.8259588479995728,1.028860330581665,-0.8014551999999999,-1.0506883,251.1029,-115.32258,13.326267999999999,BSC
16243531000000.0,0.7589683532714844,0.7688387036323547,9.048653602600098,-1.8587201833724976,1.0688124895095825,-0.8417723,-1.0754282,250.838,-115.60104,13.1065445,BSC
16243697000000.0,0.7640830278396606,0.7485162019729614,8.974493026733398,-1.8769277334213257,1.1121209859848022,-0.93676186,-1.0974194,250.57169,-115.905624,12.891354,BSC
16243855000000.0,0.7691924571990967,0.7230460047721863,8.896611213684082,-1.8825536966323853,1.1555304527282715,-1.0653489999999999,-1.1157454,250.27582,-116.18011000000001,12.645953,BSC
16244005000000.0,0.7742995023727417,0.6953065395355225,8.81562614440918,-1.8795902729034424,1.195438265800476,-1.1765264,-1.1374311000000001,250.00189,-116.460205,12.391188,BSC
16244146000000.0,0.7794018983840942,0.6642107367515564,8.730758666992188,-1.8700430393218994,1.2281570434570312,-1.2571607,-1.1414018,249.7184,-116.70418000000001,12.125301,BSC
16244280000000.0,0.7845032215118408,0.6264702081680298,8.639345169067383,-1.858237385749817,1.2513841390609741,-1.3035865,-1.1377366000000002,249.45882000000003,-116.927765,11.853456,BSC
16244408000000.0,0.7895992398262024,0.5826081037521362,8.541322708129883,-1.848098635673523,1.2637046575546265,-1.3377948999999998,-1.1438452,249.18177999999997,-117.10434,11.582898,BSC
16244530000000.0,0.7946853637695312,0.5332286357879639,8.43526840209961,-1.8522462844848633,1.2652766704559326,-1.3478742,-1.1652255,248.91534,-117.23904399999999,11.312621,BSC
16244645000000.0,0.7997633814811707,0.4780614674091339,8.321967124938965,-1.8726760149002075,1.257551908493042,-1.3552046,-1.196685,248.66,-117.32746999999999,11.00791,BSC
16244754000000.0,0.804839551448822,0.41426271200180054,8.20387077331543,-1.9240235090255737,1.2445743083953857,-1.3261883999999997,-1.2366967,248.3992,-117.38054,10.704547999999999,BSC
16244858000000.0,0.8099138736724854,0.34186387062072754,8.081860542297363,-2.0048694610595703,1.2297002077102661,-1.3112222,-1.2922854,248.2498,-117.44079599999999,10.312712,BSC
16244957000000.0,0.8149805068969727,0.25656887888908386,7.963642597198486,-2.115654945373535,1.2169535160064697,-1.3231341,-1.3545936,248.09442,-117.4912,9.916165,BSC
16245050000000.0,0.8200588822364807,0.1577681005001068,7.849804878234863,-2.256828546524048,1.2105343341827393,-1.3585643,-1.4358387,248.05527,-117.63843500000002,9.396771000000001,BSC
16245138000000.0,0.8251186013221741,0.047248806804418564,7.751195907592773,-2.4179656505584717,1.2131168842315674,-1.3423764,-1.5366315000000002,247.99146000000002,-117.80882,8.869761,BSC
16245222000000.0,0.8302301168441772,-0.07913327217102051,7.670515537261963,-2.6039881706237793,1.2240259647369385,-1.2843441999999998,-1.6386459999999998,247.99392999999998,-118.094604,8.246769,BSC
16245302000000.0,0.8352841734886169,-0.2142176628112793,7.613002777099609,-2.7856242656707764,1.2414668798446655,-1.2379183999999999,-1.6798794,247.98245,-118.42779499999999,7.624123,BSC
16245377000000.0,0.8403326272964478,-0.36104685068130493,7.581708908081055,-2.964362621307373,1.2601431608200073,-1.1267409,-1.7418822,247.95272999999997,-118.84029,6.909066999999999,BSC
16245450000000.0,0.8453775644302368,-0.5192118883132935,7.579014778137207,-3.1317944526672363,1.2806401252746582,-1.0403035,-1.7690656999999999,247.90722999999997,-119.307846,6.208312,BSC
16245518000000.0,0.8504250645637512,-0.688573956489563,7.605530738830566,-3.2848379611968994,1.3024864196777344,-0.9465357,-1.7718146000000001,247.81827,-119.795105,5.5272865,BSC
16245583000000.0,0.8554653525352478,-0.864258348941803,7.657797336578369,-3.413057327270508,1.3243404626846313,-0.84849185,-1.7513506,247.68332999999998,-120.2697,4.7906275,BSC
16245645000000.0,0.8605033159255981,-1.0439987182617188,7.734378814697266,-3.510500192642212,1.3463157415390015,-0.7687739,-1.7238616999999998,247.52399,-120.769035,4.0815997,BSC
16245703000000.0,0.8655381202697754,-1.2175308465957642,7.824951648712158,-3.5735976696014404,1.3678523302078247,-0.7357872,-1.6722436,247.31527999999997,-121.20756499999999,3.337018,BSC
16245760000000.0,0.8706600666046143,-1.3798043727874756,7.929080009460449,-3.590823173522949,1.3874435424804688,-0.7021896,-1.5806139,247.09416000000002,-121.65520500000001,2.6385875,BSC
16245813000000.0,0.8756880164146423,-1.5288716554641724,8.033309936523438,-3.5881130695343018,1.4060721397399902,-0.6786713000000001,-1.5497651000000001,246.8075,-122.00198999999999,1.9267203999999998,BSC
16245864000000.0,0.8807138204574585,-1.6568852663040161,8.13393783569336,-3.5615599155426025,1.4238381385803223,-0.61483586,-1.4911219999999998,246.52196,-122.353546,1.2732075,BSC
16245912000000.0,0.8857389688491821,-1.7601909637451172,8.225318908691406,-3.523367404937744,1.4413247108459473,-0.5580254,-1.4474452,246.14323,-122.57387,0.68578094,BSC
16245958000000.0,0.8907627463340759,-1.8350329399108887,8.30159854888916,-3.4862120151519775,1.4593605995178223,-0.47922380000000003,-1.3817772,245.76096,-122.8028,0.14645648,BSC
16246002000000.0,0.8957826495170593,-1.8846986293792725,8.35736083984375,-3.458984613418579,1.4792675971984863,-0.36743546,-1.3460416000000002,245.2876,-122.97150400000001,-0.28294516,BSC
16246044000000.0,0.9008034467697144,-1.9122735261917114,8.38487434387207,-3.453381299972534,1.501824975013733,-0.27550024,-1.3414601000000002,244.81265,-123.15158000000001,-0.6842661999999999,BSC
16246084000000.0,0.9058200716972351,-1.9238578081130981,8.385226249694824,-3.4688971042633057,1.527347207069397,-0.23671028,-1.3793336999999999,244.2935,-123.35976000000001,-0.9818638000000001,BSC
16246122000000.0,0.9108389019966125,-1.9303929805755615,8.357246398925781,-3.5072219371795654,1.555253028869629,-0.24190263,-1.4550809999999998,243.76747000000003,-123.58021000000001,-1.2741008999999999,BSC
16246158000000.0,0.9158563613891602,-1.9355043172836304,8.304377555847168,-3.566099166870117,1.5838203430175781,-0.34941490000000003,-1.5464053,243.32832000000002,-123.92913999999999,-1.5670953,BSC
16246193000000.0,0.9208765029907227,-1.9511728286743164,8.233222007751465,-3.6421091556549072,1.6120208501815796,-0.47342056,-1.6450601000000002,242.88797000000002,-124.28617,-1.8766669999999999,BSC
16246226000000.0,0.9258888959884644,-1.9759292602539062,8.15256118774414,-3.7306387424468994,1.637807011604309,-0.5476406999999999,-1.7379116000000001,242.50473,-124.78548,-2.251036,BSC
16246257000000.0,0.9309056997299194,-2.0087926387786865,8.075689315795898,-3.82616925239563,1.6614863872528076,-0.6609562,-1.7647897000000001,242.15833999999998,-125.28465,-2.6494744,BSC
16246287000000.0,0.9359187483787537,-2.045328378677368,8.00465202331543,-3.9255576133728027,1.683203935623169,-0.7287621999999999,-1.8057177,241.84644,-125.8825,-3.1384137,BSC
16246316000000.0,0.9409328699111938,-2.0771822929382324,7.944113254547119,-4.023378372192383,1.704903483390808,-0.7455609999999999,-1.8350391,241.54619,-126.47991999999999,-3.6289672999999993,BSC
16246343000000.0,0.9459438323974609,-2.102236270904541,7.893387794494629,-4.11826753616333,1.7257559299468994,-0.71685034,-1.8359555,241.26657000000003,-127.10216499999999,-4.153236,BSC
16246369000000.0,0.9509558081626892,-2.1132285594940186,7.851983070373535,-4.206063747406006,1.7472712993621826,-0.6392705,-1.8390098000000001,240.97256000000002,-127.73215,-4.6659555,BSC
16246394000000.0,0.9559676647186279,-2.1115334033966064,7.817699432373047,-4.282528400421143,1.7705373764038086,-0.5290093000000001,-1.8399261000000002,240.63012999999998,-128.36359,-5.144643,BSC
16246418000000.0,0.9609804153442383,-2.0996804237365723,7.784633159637451,-4.332957744598389,1.7960957288742065,-0.39767328,-1.8674151,240.2608,-128.99947,-5.599440599999999,BSC
16246442000000.0,0.9660331606864929,-2.0767130851745605,7.75262975692749,-4.355529308319092,1.8228312730789185,-0.34086279999999997,-1.9013181000000001,239.85254,-129.60768000000002,-5.983152,BSC
16246464000000.0,0.9710439443588257,-2.0462746620178223,7.721814155578613,-4.3582658767700195,1.8492488861083984,-0.43585235,-1.9654589,239.4429,-130.21774,-6.372618,BSC
16246485000000.0,0.9760631322860718,-2.008288621902466,7.690984725952148,-4.340579986572266,1.8718007802963257,-0.63255095,-1.9926423999999998,239.03116,-130.81473,-6.7613225,BSC
16246504000000.0,0.9810715913772583,-1.980857491493225,7.647362232208252,-4.333679676055908,1.8896023035049438,-0.77824235,-2.0134118,238.62357000000003,-131.40222,-7.160004600000001,BSC
16246524000000.0,0.9860806465148926,-1.9637763500213623,7.591022491455078,-4.337402820587158,1.9034439325332642,-0.8142834,-2.0399845,238.09795,-131.78249,-7.3952746,BSC
16246543000000.0,0.9910899996757507,-1.9647691249847412,7.52634859085083,-4.349444389343262,1.9166291952133179,-0.8026769,-2.0812180000000002,237.60461,-132.15213,-7.652957400000001,BSC
16246561000000.0,0.996092677116394,-1.9845503568649292,7.455028057098389,-4.36869478225708,1.9292094707489014,-0.820392,-2.1646009999999998,237.1283,-132.5006,-7.934136,BSC
16246579000000.0,1.0010967254638672,-2.0272045135498047,7.384592533111572,-4.390844345092773,1.9427469968795776,-0.84329945,-2.2434027000000003,236.68462000000002,-132.9787,-8.327825,BSC
16246596000000.0,1.0061014890670776,-2.0951411724090576,7.321090221405029,-4.412343502044678,1.9569141864776611,-0.84971356,-2.3096813999999997,236.23639,-133.44983,-8.727112,BSC
16246611000000.0,1.0111054182052612,-2.179953098297119,7.271050453186035,-4.4286932945251465,1.9719703197479248,-0.87995136,-2.3365595,235.8179,-134.0316,-9.264358999999999,BSC
16246627000000.0,1.016108512878418,-2.2765724658966064,7.237931251525879,-4.43743371963501,1.987135648727417,-0.9080511999999998,-2.3289237000000003,235.39774,-134.60861,-9.795324,BSC
16246642000000.0,1.0211126804351807,-2.369666576385498,7.217103958129883,-4.450159549713135,2.002469301223755,-0.9034697,-2.2941043,234.99704,-135.21008,-10.415251,BSC
16246656000000.0,1.0261163711547852,-2.4517037868499756,7.205872535705566,-4.4724860191345215,2.020404100418091,-0.8695666999999999,-2.2586741000000004,234.59912000000003,-135.8195,-11.017663,BSC
16246670000000.0,1.0311201810836792,-2.523261547088623,7.203742504119873,-4.503921985626221,2.0401666164398193,-0.72051555,-2.2391264,234.12602,-136.38252,-11.609186,BSC
16246684000000.0,1.0361735820770264,-2.583765745162964,7.2118048667907715,-4.545890808105469,2.0669004917144775,-0.37232238,-2.1820107,233.62488,-136.9739,-12.122376,BSC
16246696000000.0,1.0411738157272339,-2.6308658123016357,7.222227096557617,-4.591705322265625,2.1075429916381836,-0.25870144,-2.1679606,233.1423,-137.60777,-12.642559,BSC
16246709000000.0,1.0461739301681519,-2.655991315841675,7.23009729385376,-4.6395697593688965,2.1515862941741943,-0.06078109,-2.1401662999999997,232.59392999999997,-138.21313,-13.046819000000001,BSC
16246721000000.0,1.0511727333068848,-2.662432909011841,7.230956077575684,-4.6928558349609375,2.2025279998779297,0.13103059,-2.1206186000000002,231.94804,-138.88599,-13.326185999999998,BSC
16246733000000.0,1.0561734437942505,-2.654928207397461,7.216187477111816,-4.758141994476318,2.2572333812713623,0.29046643,-2.1132883999999996,231.29045,-139.55353,-13.558042000000002,BSC
16246745000000.0,1.0611717700958252,-2.636824607849121,7.183905601501465,-4.837846279144287,2.3145902156829834,0.37048978,-2.1093178,230.57071000000002,-140.22255,-13.656857999999998,BSC
16246756000000.0,1.0661710500717163,-2.6152985095977783,7.126505374908447,-4.940658092498779,2.3734967708587646,0.40164390000000005,-2.1029036,229.86111,-140.89893,-13.727022,BSC
16246767000000.0,1.0712573528289795,-2.6049604415893555,7.031716823577881,-5.057157039642334,2.432096242904663,0.31123585,-2.0674734,229.16545,-141.66068,-13.774845000000001,BSC
16246777000000.0,1.076253056526184,-2.6098663806915283,6.918327808380127,-5.1669697761535645,2.4919514656066895,0.2724459,-2.0595322,228.47931,-142.43355,-13.804594,BSC
16246788000000.0,1.0812512636184692,-2.636383295059204,6.7757720947265625,-5.270218849182129,2.548372745513916,0.15913039999999998,-2.0653354999999998,227.88592999999997,-143.35504,-13.914423999999999,BSC
16246797000000.0,1.0862475633621216,-2.6793577671051025,6.619740009307861,-5.366202354431152,2.598775863647461,-0.04062254,-2.0567832,227.33615,-144.25902,-14.038352,BSC
16246806000000.0,1.0912442207336426,-2.732402801513672,6.471760272979736,-5.453651428222656,2.639233112335205,-0.22724187,-2.0387628,226.81918,-145.11649,-14.174871,BSC
16246816000000.0,1.0962406396865845,-2.789966106414795,6.3357930183410645,-5.5304059982299805,2.670372247695923,-0.32925636,-1.9929477999999998,226.35788,-146.16301,-14.511268,BSC
16246825000000.0,1.1012369394302368,-2.845710515975952,6.216562747955322,-5.5938286781311035,2.6956522464752197,-0.40561453,-1.9468275000000002,225.9302,-147.16592,-14.866712,BSC
16246835000000.0,1.1062437295913696,-2.8956642150878906,6.115848064422607,-5.643401622772217,2.720952272415161,-0.4886922,-1.8860464,225.4816,-148.16412,-15.269254,BSC
16246843000000.0,1.111240267753601,-2.9352619647979736,6.034605979919434,-5.679561138153076,2.7499663829803467,-0.52687126,-1.8414533,225.04757999999998,-149.1367,-15.658853,BSC
16246852000000.0,1.1162372827529907,-2.9613301753997803,5.973965644836426,-5.7067646980285645,2.7836520671844482,-0.54519725,-1.8139644,224.63497999999998,-150.04602,-16.036665,BSC
16246860000000.0,1.1212342977523804,-2.971083164215088,5.9344682693481445,-5.7297821044921875,2.8220536708831787,-0.53969944,-1.8096883000000001,224.23285,-150.96071,-16.399828,BSC
16246868000000.0,1.126231074333191,-2.9663033485412598,5.911975860595703,-5.752272129058838,2.865424156188965,-0.5225952,-1.8228218999999997,223.74977,-151.79419,-16.674467,BSC
16246877000000.0,1.1312307119369507,-2.94876766204834,5.901906967163086,-5.778666019439697,2.9099340438842773,-0.4908302,-1.8490891,223.27396000000002,-152.62091,-16.932865,BSC
16246884000000.0,1.1362295150756836,-2.921264886856079,5.901297569274902,-5.817111492156982,2.9581758975982666,-0.50488013,-1.8829921000000003,222.70177,-153.2969,-17.016022,BSC
16246891000000.0,1.1412270069122314,-2.886929988861084,5.906755447387695,-5.878149509429932,3.009429931640625,-0.5158757,-1.9220876,222.15277000000003,-153.97229,-17.09705,BSC
16246899000000.0,1.1462208032608032,-2.8522350788116455,5.913311958312988,-5.946913719177246,3.0627055168151855,-0.48288897,-1.9456058,221.54997000000003,-154.69801,-17.162924,BSC
16246906000000.0,1.151218056678772,-2.826664924621582,5.913698196411133,-6.00206995010376,3.115730047225952,-0.46914452,-1.9462167000000001,220.9829,-155.42192,-17.237886,BSC
16246913000000.0,1.156212568283081,-2.8088173866271973,5.906705856323242,-6.0463762283325195,3.164479970932007,-0.6105598000000001,-1.9269744,220.41461,-156.19919,-17.330572,BSC
16246921000000.0,1.1612106561660767,-2.7962653636932373,5.8877763748168945,-6.08542537689209,3.205699920654297,-0.8356636999999999,-1.9260582,219.88258,-156.95074,-17.441896,BSC
16246928000000.0,1.166205883026123,-2.788208246231079,5.857998371124268,-6.119308948516846,3.2385377883911133,-0.9608909999999999,-1.9300288,219.32597,-157.7322,-17.618578,BSC
16246935000000.0,1.1712085008621216,-2.781432867050171,5.818724155426025,-6.146271228790283,3.2655398845672607,-0.9639453000000001,-1.92392,218.81041000000002,-158.47441,-17.812545999999998,BSC
16246942000000.0,1.1762124300003052,-2.7795355319976807,5.773313999176025,-6.169428825378418,3.2910053730010986,-0.9053023000000001,-1.9217819999999999,218.25175,-159.27028,-18.05405,BSC
16246948000000.0,1.1812125444412231,-2.790339231491089,5.728055953979492,-6.19488000869751,3.31864595413208,-0.8362745,-1.9077321,217.72037000000003,-160.03772,-18.281275,BSC
16246954000000.0,1.1862136125564575,-2.8151609897613525,5.682854652404785,-6.2212677001953125,3.3509175777435303,-0.77396625,-1.9034561,217.1355,-160.87749,-18.519152,BSC
16246961000000.0,1.1912144422531128,-2.857351064682007,5.637603282928467,-6.245511531829834,3.3882081508636475,-0.6719518,-1.8918496,216.56894,-161.70981,-18.714338,BSC
16246967000000.0,1.196212649345398,-2.917337656021118,5.590344429016113,-6.269869804382324,3.4285247325897217,-0.5833763000000001,-1.8591683999999997,215.96632000000002,-162.60931000000002,-18.9414,BSC
16246973000000.0,1.201210379600525,-2.9998395442962646,5.533984184265137,-6.302077770233154,3.4691832065582275,-0.4831944,-1.8145752,215.38372999999999,-163.49811,-19.122349,BSC
16246979000000.0,1.2062097787857056,-3.1034152507781982,5.46517276763916,-6.3405327796936035,3.506291389465332,-0.37995818,-1.7849482,214.76722999999998,-164.43123,-19.344124,BSC
16246986000000.0,1.2112083435058594,-3.2243549823760986,5.365059852600098,-6.3782243728637695,3.5408358573913574,-0.33322698,-1.7574593,214.1828,-165.34534,-19.535812,BSC
16246992000000.0,1.216205358505249,-3.3571629524230957,5.231813430786133,-6.416910171508789,3.5743696689605713,-0.34697145,-1.7470746,213.55700000000002,-166.3314,-19.789407999999998,BSC
16246998000000.0,1.2212051153182983,-3.479595422744751,5.049097537994385,-6.464949607849121,3.6084439754486084,-0.30940324,-1.7308867,212.95605,-167.2855,-19.99757,BSC
16247005000000.0,1.2262024879455566,-3.587824821472168,4.817017078399658,-6.517691612243652,3.6420207023620605,-0.14569137,-1.7345519,212.30028,-168.35672,-20.241343,BSC
16247011000000.0,1.2312029600143433,-3.6552836894989014,4.515298843383789,-6.550871849060059,3.674410343170166,0.064751714,-1.6807956999999998,211.68384,-169.3911,-20.437399,BSC
16247017000000.0,1.2362054586410522,-3.68475604057312,4.149920463562012,-6.562989711761475,3.7085084915161133,0.27397305,-1.5259413999999998,211.10182000000003,-170.67503,-20.623129000000002,BSC
16247023000000.0,1.2412065267562866,-3.6832950115203857,3.743844985961914,-6.531139850616455,3.746519088745117,0.40958515,-1.2922854,210.56541,-171.92893999999998,-20.746796,BSC
16247030000000.0,1.2462235689163208,-3.6508944034576416,3.296490430831909,-6.4556450843811035,3.7850756645202637,0.42027529999999996,-1.1023063999999998,210.07242000000002,-173.41748,-20.790644,BSC
16247035000000.0,1.251220703125,-3.5986056327819824,2.843127489089966,-6.361786842346191,3.821040391921997,0.36865717,-1.0564915000000001,209.6115,-174.88884,-20.796120000000002,BSC
16247040000000.0,1.2562178373336792,-3.5310981273651123,2.3891282081604004,-6.252936363220215,3.855104684829712,0.24709499,-1.0928379,209.17497,-176.53075,-20.775417,BSC
16247045000000.0,1.2612155675888062,-3.4853010177612305,1.9848674535751343,-6.158014297485352,3.8883302211761475,0.17867808,-1.1133018999999997,208.76353,-178.15386999999998,-20.738474,BSC
16247051000000.0,1.2662111520767212,-3.4598658084869385,1.6274243593215942,-6.076192855834961,3.917245864868164,0.19730948,-1.0332786,208.36133999999998,-179.83128,-20.662672,BSC
16247056000000.0,1.271298885345459,-3.5122764110565186,1.352581262588501,-5.961728096008301,3.9378817081451416,0.16065755,-0.9456194,207.96246000000002,178.52063,-20.60819,BSC
16247061000000.0,1.2763097286224365,-3.6047847270965576,1.1267138719558716,-5.832474708557129,3.93982195854187,0.07941248,-0.9502009,207.56555,176.95363999999998,-20.546541,BSC
16247066000000.0,1.281302809715271,-3.7387685775756836,0.9323873519897461,-5.701590538024902,3.9342200756073,-0.13347405,-1.0021244,207.17824,175.45671000000002,-20.576035,BSC
16247072000000.0,1.286298155784607,-3.9155690670013428,0.769413411617279,-5.56851053237915,3.912086009979248,-0.2843578,-1.0516045,206.77455,174.24577,-20.801575,BSC
16247077000000.0,1.2913284301757812,-4.077800273895264,0.5980366468429565,-5.394477844238281,3.8697431087493896,-0.36926803,-1.0903945,206.3565,173.10852,-21.055977,BSC
16247082000000.0,1.2963167428970337,-4.220701694488525,0.41843149065971375,-5.189432144165039,3.8050615787506104,-0.46853364,-1.151481,205.91206,172.08112,-21.343254,BSC
16247087000000.0,1.3013089895248413,-4.3209452629089355,0.21888874471187592,-4.963602542877197,3.720013380050659,-0.59956425,-1.1863003,205.40945,171.26448,-21.795078,BSC
16247093000000.0,1.3063026666641235,-4.378327369689941,-0.00036957996780984104,-4.720414161682129,3.6190857887268066,-0.80481493,-1.1991285,204.88707,170.56833,-22.282253,BSC
16247098000000.0,1.311295747756958,-4.421074390411377,-0.24543121457099915,-4.500433921813965,3.506885290145874,-1.1349876,-1.208597,204.30771000000001,169.86553999999998,-22.85716,BSC
16247103000000.0,1.3162882328033447,-4.458137512207031,-0.5172566771507263,-4.314970970153809,3.3908164501190186,-1.5867225,-1.2602149999999999,203.68738000000002,169.23764,-23.51066,BSC
16247108000000.0,1.3212834596633911,-4.525340557098389,-0.7931969165802002,-4.211353778839111,3.2783451080322266,-1.7935003,-1.325883,203.0322,168.49693,-24.11066,BSC
16247114000000.0,1.3262742757797241,-4.628172874450684,-1.0676716566085815,-4.1942267417907715,3.1714770793914795,-2.02624,-1.3603969,202.32692,167.79994,-24.832183999999998,BSC
16247119000000.0,1.33126962184906,-4.762203693389893,-1.303328037261963,-4.266293525695801,3.0704345703125,-1.9251418000000002,-1.4144584999999998,201.56851,166.97275,-25.462355,BSC
16247124000000.0,1.3362641334533691,-4.924330234527588,-1.4954358339309692,-4.421990871429443,2.971667766571045,-1.5424347,-1.4563028,200.79335,166.16919,-26.061798,BSC
16247129000000.0,1.3412649631500244,-5.123437881469727,-1.6673715114593506,-4.648656845092773,2.871735095977783,-0.95814216,-1.4746287,200.01803999999998,165.39919,-26.559546,BSC
16247135000000.0,1.3462575674057007,-5.357196807861328,-1.8254190683364868,-4.936110973358154,2.769298553466797,-0.32711834,-1.5430456,199.24997,164.65338,-26.914263000000002,BSC
16247140000000.0,1.351252555847168,-5.644675254821777,-2.0967142581939697,-5.26767110824585,2.6643941402435303,0.069027774,-1.706452,198.48135,164.11642,-27.121240000000004,BSC
16247145000000.0,1.3562499284744263,-5.987364768981934,-2.5039074420928955,-5.637319564819336,2.5582275390625,0.21258110000000002,-2.0723602999999997,197.67896000000002,163.5914,-27.192457,BSC
16247150000000.0,1.3612884283065796,-6.402152061462402,-3.035616159439087,-5.962278842926025,2.458239793777466,0.29443705,-2.7919595,196.71056000000002,163.10516,-27.12636,BSC
16247156000000.0,1.3662834167480469,-6.863755226135254,-3.6383979320526123,-6.2256903648376465,2.3670966625213623,0.66767573,-3.598607,195.67871,162.59341,-26.898196999999996,BSC
16247161000000.0,1.3712778091430664,-7.261966228485107,-4.2881340980529785,-6.348814964294434,2.2744626998901367,1.3362677,-4.0430117,194.52356,161.66846,-26.599232,BSC
16247166000000.0,1.376272439956665,-7.538216590881348,-4.962864875793457,-6.300649642944336,2.1607866287231445,2.558609,-4.0277400000000005,193.42158999999998,160.82527,-26.002302,BSC
16247171000000.0,1.3812663555145264,-7.717154026031494,-5.640017986297607,-6.225588321685791,2.024650812149048,4.393343,-3.7959165999999995,192.30844,159.71365,-25.227864999999998,BSC
16247177000000.0,1.3862662315368652,-7.81081485748291,-6.309889316558838,-6.191776752471924,1.877474308013916,6.173098599999999,-3.4981197999999996,191.44377,158.75821000000002,-24.136782,BSC
16247182000000.0,1.3912663459777832,-7.840132713317871,-6.9679155349731445,-6.121056079864502,1.7369041442871094,7.084204,-3.1761939999999997,190.81513999999999,157.63062,-22.686543,BSC
16247187000000.0,1.3962613344192505,-7.819764137268066,-7.611297130584717,-5.965368270874023,1.6164077520370483,6.6877527,-2.8588492999999997,190.41394,156.61231999999998,-21.15781,BSC
16247192000000.0,1.4012564420700073,-7.760008335113525,-8.233607292175293,-5.737042427062988,1.507476568222046,5.2082370000000004,-2.6047293999999996,190.20326,155.6105,-19.473858,BSC
16247198000000.0,1.4062526226043701,-7.673705101013184,-8.826340675354004,-5.451680660247803,1.393477439880371,3.2033772000000003,-2.3472497000000003,190.02087,154.70998,-18.08918,BSC
16247203000000.0,1.4112485647201538,-7.605971336364746,-9.325509071350098,-5.159769058227539,1.2583216428756714,1.3069462,-2.0002782,189.80312,153.77796999999998,-17.019464000000003,BSC
16247208000000.0,1.4162439107894897,-7.610099792480469,-9.654483795166016,-4.920428276062012,1.0949980020523071,0.55680364,-1.564426,189.59186,153.01181,-16.221382000000002,BSC
16247213000000.0,1.4212400913238525,-7.682643890380859,-9.821527481079102,-4.731064319610596,0.9036728739738464,-0.39553526,-1.2910636999999998,189.14378,152.35341,-15.933597,BSC
16247219000000.0,1.4262369871139526,-7.819930076599121,-9.835328102111816,-4.588998794555664,0.7064131498336792,-0.68539083,-0.8213083000000001,188.84715,151.8541,-15.756548,BSC
16247224000000.0,1.4312421083450317,-7.95595645904541,-9.627090454101562,-4.390349388122559,0.4931338429450989,-1.6484199000000002,-1.2144,188.14122,151.5609,-15.898154000000002,BSC
16247229000000.0,1.4362461566925049,-8.045723915100098,-9.164932250976562,-4.068896293640137,0.2700439393520355,-2.5027149,-0.87781334,187.70262,151.44714,-16.2555,BSC
16247234000000.0,1.4412444829940796,-8.05672550201416,-8.589594841003418,-3.807035446166992,0.03611993417143822,-3.9174788,0.12492194,186.93575,152.27014,-17.596153,BSC
16247239000000.0,1.4462428092956543,-7.9635748863220215,-8.000391006469727,-3.738743543624878,-0.19448547065258026,-5.1074443,1.7250835,186.32442,153.21486000000002,-19.224998,BSC
16247245000000.0,1.4512407779693604,-7.801939964294434,-7.498117923736572,-3.7809066772460938,-0.39020833373069763,-4.6089782999999995,3.2827900000000003,186.00928000000002,154.62018,-21.10406,BSC
16247250000000.0,1.4562398195266724,-7.603705883026123,-7.174089431762695,-3.8588836193084717,-0.5375906229019165,-2.9749138,4.1786237,185.9649,156.10976000000002,-23.127762,BSC
16247255000000.0,1.4612400531768799,-7.384103298187256,-7.0252485275268555,-3.932480573654175,-0.6529466509819031,-1.4089607,4.2705589999999995,186.44196000000002,157.7862,-24.689648000000002,BSC
16247260000000.0,1.4662364721298218,-7.1573100090026855,-7.045307636260986,-3.9660847187042236,-0.7555627226829529,-0.36651915,3.8182132000000006,187.21587,159.40503999999999,-25.981462,BSC
16247266000000.0,1.4713246822357178,-6.91879415512085,-7.212289333343506,-3.9204344749450684,-0.8524821996688843,0.35979962,2.5806002999999995,187.70078999999998,160.39514,-26.463257000000002,BSC
16247271000000.0,1.4763190746307373,-6.68186092376709,-7.419140338897705,-3.829103469848633,-0.9394347667694092,0.42455134,2.1536055,188.32407,161.3431,-26.863293,BSC
16247276000000.0,1.4813127517700195,-6.445138931274414,-7.65130615234375,-3.682450294494629,-1.0196048021316528,0.3930918,1.3643675,188.68071,161.73683,-26.827403999999998,BSC
16247281000000.0,1.4863088130950928,-6.215452194213867,-7.847448825836182,-3.5021581649780273,-1.0946884155273438,0.24709499,0.76083267,188.95032,162.06975,-26.778208000000003,BSC
16247287000000.0,1.4912996292114258,-5.999840259552002,-7.995113372802734,-3.3192849159240723,-1.176513671875,0.07086037,0.35063666,188.95483000000002,162.1386,-26.677914,BSC
16247292000000.0,1.4962948560714722,-5.807215213775635,-8.075640678405762,-3.170682191848755,-1.2742761373519897,-0.15943582,0.08124508,188.79425,162.18213,-26.586964000000002,BSC
16247297000000.0,1.501309871673584,-5.638724327087402,-8.081155776977539,-3.0714025497436523,-1.3897795677185059,-0.46181414,-0.12492194,188.48713999999998,162.26984,-26.590714000000002,BSC
16247302000000.0,1.5063031911849976,-5.492853164672852,-8.0175142288208,-3.0286755561828613,-1.5195719003677368,-0.7987063,-0.26542094,188.08548000000002,162.40814,-26.647318,BSC
16247308000000.0,1.5112934112548828,-5.367605209350586,-7.884726524353027,-3.0387611389160156,-1.6567387580871582,-1.0607674999999999,-0.34697145,187.65024,162.77008,-26.799927,BSC
16247313000000.0,1.516287922859192,-5.257209300994873,-7.688143253326416,-3.08771014213562,-1.7927159070968628,-1.149343,-0.3930918,187.1601,163.16435,-26.989984999999997,BSC
16247318000000.0,1.5212829113006592,-5.168951988220215,-7.440029621124268,-3.1314566135406494,-1.9178165197372437,-1.235475,-0.40103304,186.69652,163.79904,-27.270033,BSC
16247323000000.0,1.526279091835022,-5.1368513107299805,-7.177142143249512,-2.9920287132263184,-2.0309600830078125,-1.4785993,-0.4266894,186.18653999999998,164.42989,-27.61494,BSC
16247329000000.0,1.5312749147415161,-5.16377067565918,-6.914154052734375,-2.7196195125579834,-2.1146345138549805,-2.6175575,-0.2929099,185.57148999999998,165.13486,-28.212406,BSC
16247334000000.0,1.5362731218338013,-5.2795867919921875,-6.723451614379883,-2.5281405448913574,-2.124882698059082,-5.4208183,0.20586158,184.89398,165.62502,-29.36583,BSC
16247339000000.0,1.541269063949585,-5.4655561447143555,-6.591781139373779,-2.4374279975891113,-1.968718409538269,-7.699039999999999,0.95111716,184.08957,165.65053999999998,-31.294338,BSC
16247344000000.0,1.5462664365768433,-5.6403727531433105,-6.463650226593018,-2.6024444103240967,-1.664841890335083,-7.024645,1.4382823,183.34805,165.45297,-33.205290000000005,BSC
16247350000000.0,1.551264762878418,-5.800770282745361,-6.343838691711426,-2.999629020690918,-1.4041314125061035,-4.1153994,1.7018706000000001,182.48273999999998,165.37708,-35.217113,BSC
16247355000000.0,1.5562597513198853,-5.90455436706543,-6.287217140197754,-3.5054495334625244,-1.3066595792770386,-0.75900006,1.6111571000000002,181.70533999999998,165.2067,-36.88645,BSC
16247360000000.0,1.5612562894821167,-5.95457124710083,-6.281468391418457,-4.1081109046936035,-1.3369019031524658,2.449875,1.2324207,181.60072,165.1821,-37.130066,BSC
16247365000000.0,1.5662511587142944,-5.959537982940674,-6.245718955993652,-4.736306667327881,-1.452958106994629,4.947703,0.81183994,181.7493,165.60825,-36.638870000000004,BSC
16247371000000.0,1.5712584257125854,-5.919610023498535,-6.179961681365967,-5.391730785369873,-1.6351984739303589,6.775411999999999,0.42607849999999997,182.29008000000002,166.34343,-34.989468,BSC
16247376000000.0,1.576256275177002,-5.831737518310547,-6.036279678344727,-6.047917366027832,-1.8749847412109375,8.427802,0.12461651,182.86479,167.37753,-32.74069,BSC
16247381000000.0,1.581259846687317,-5.6971635818481445,-5.815089225769043,-6.703375816345215,-2.1523542404174805,9.925339,-0.043676864,183.39192,168.62303,-30.082193,BSC
16247386000000.0,1.586255669593811,-5.543567180633545,-5.577533721923828,-7.339325904846191,-2.425424575805664,9.963212,-0.0983493,183.84188999999998,170.06032,-27.165546000000003,BSC
16247392000000.0,1.5912623405456543,-5.370718479156494,-5.3251237869262695,-7.955105781555176,-2.6477739810943604,9.963212,-0.099265605,184.42615,171.6986,-23.807514,BSC
16247397000000.0,1.5962579250335693,-5.1888298988342285,-5.091617107391357,-8.517921447753906,-2.795459508895874,9.963212,-0.03176499,184.8517,173.23126000000002,-20.545317,BSC
16247402000000.0,1.6012734174728394,-4.995560646057129,-4.877377986907959,-9.019871711730957,-2.8719394207000732,9.963212,0.03970624,185.2141,174.65363,-17.297564,BSC
16247407000000.0,1.6062686443328857,-4.7808709144592285,-4.695483207702637,-9.29527759552002,-2.893232583999634,9.960157,0.06017022599999999,185.48512,175.7982,-14.156222,BSC
16247412000000.0,1.6112638711929321,-4.54343843460083,-4.545834064483643,-9.340694427490234,-2.875887870788574,8.213083000000001,-0.0125227375,185.66357,176.6613,-11.5645485,BSC
16247418000000.0,1.6162598133087158,-4.294901371002197,-4.426591873168945,-9.188312530517578,-2.8290939331054688,6.6944723,-0.23671028,185.79065,177.27233999999999,-9.002099000000001,BSC
16247423000000.0,1.6212557554244995,-4.038206100463867,-4.336028575897217,-8.853721618652344,-2.7707626819610596,3.7449093,-0.3979787,185.85962,177.75943,-7.424127,BSC
16247428000000.0,1.6262518167495728,-3.7766358852386475,-4.24927282333374,-8.370872497558594,-2.6845643520355225,0.9627235999999999,-0.7131852,185.83733999999998,177.91153,-6.252957299999999,BSC
16247433000000.0,1.6312505006790161,-3.512155771255493,-4.150817394256592,-7.76210880279541,-2.5613386631011963,-1.6258179,-0.945314,185.77249,177.92004,-5.890135,BSC
16247439000000.0,1.6362494230270386,-3.2532994747161865,-4.052351951599121,-7.159646034240723,-2.3959455490112305,-3.7207801,-1.1194104999999999,185.54199,177.76526,-6.1214857,BSC
16247444000000.0,1.6412465572357178,-3.0040488243103027,-3.959514617919922,-6.62699556350708,-2.2038819789886475,-5.209153,-1.2220358999999998,185.2387,177.44773999999998,-6.915804400000001,BSC
16247448000000.0,1.6462427377700806,-2.763880968093872,-3.87200665473938,-6.16053581237793,-2.008430004119873,-6.282749,-1.1337659,184.89642,177.0157,-8.186762,BSC
16247453000000.0,1.6512409448623657,-2.5322656631469727,-3.789548397064209,-5.757156848907471,-1.8198620080947876,-7.0646567,-0.8216136999999999,184.54437,176.44754,-9.806105,BSC
16247459000000.0,1.6562378406524658,-2.3503317832946777,-3.8004331588745117,-5.517852783203125,-1.6373553276062012,-7.372838000000001,-0.042455133,184.30461,175.83682,-11.611571000000001,BSC
16247464000000.0,1.6612352132797241,-2.237088441848755,-3.945924758911133,-5.488827705383301,-1.4036813974380493,-6.801678999999999,1.3060299,184.2845,174.9671,-13.419870000000001,BSC
16247468000000.0,1.666232943534851,-2.188929796218872,-4.1616530418396,-5.609098434448242,-1.036420226097107,-7.329161,1.8799378,184.18962,173.73332,-15.541269,BSC
16247473000000.0,1.671317219734192,-2.221606492996216,-4.399299144744873,-5.857822418212891,-0.700125515460968,-6.5915413,1.9932534,184.36241,173.09283,-17.150414,BSC
16247479000000.0,1.676303505897522,-2.2715375423431396,-4.605226993560791,-6.109629154205322,-0.48228180408477783,-5.8533106,1.9892827000000002,184.52933000000002,171.8796,-18.910286,BSC
16247484000000.0,1.6812936067581177,-2.29970645904541,-4.681403636932373,-6.248341083526611,-0.29777786135673523,-4.497495,1.572978,184.59212,170.33531000000002,-20.256408999999998,BSC
16247489000000.0,1.6862976551055908,-2.3065404891967773,-4.630188465118408,-6.276162147521973,-0.1795564740896225,-3.5277467000000002,0.8689558000000001,184.52088999999998,169.4804,-21.531376,BSC
16247493000000.0,1.691287636756897,-2.2951176166534424,-4.470440864562988,-6.209130764007568,-0.12597346305847168,-2.9654453,0.20189096,184.35939,168.7304,-22.494053,BSC
16247498000000.0,1.6962745189666748,-2.268690347671509,-4.221009254455566,-6.067947864532471,-0.12599880993366241,-2.8948902999999997,-0.33964106,184.035,168.18135,-23.270292,BSC
16247504000000.0,1.7012664079666138,-2.2320268154144287,-3.90968656539917,-5.882900714874268,-0.1711924523115158,-3.1905491,-0.6591236,183.5771,167.85329,-23.951593,BSC
16247508000000.0,1.7062549591064453,-2.196152687072754,-3.5613834857940674,-5.689929485321045,-0.2524247169494629,-3.7336085,-0.74006325,183.05565,168.39911999999998,-24.7408,BSC
16247513000000.0,1.7112466096878052,-2.1790554523468018,-3.2113051414489746,-5.546180725097656,-0.3585294485092163,-4.0402627,-0.6407976,182.50056,169.0848,-25.540382,BSC
16247518000000.0,1.716240644454956,-2.19042706489563,-2.86733341217041,-5.433689117431641,-0.4741174876689911,-4.5020766,-0.54733527,182.08395,169.72975,-26.715649,BSC
16247524000000.0,1.7212363481521606,-2.2541019916534424,-2.5474648475646973,-5.3146867752075195,-0.5854988098144531,-4.7051897,-0.29810223,181.76543,170.47888,-27.918346000000003,BSC
16247529000000.0,1.7262309789657593,-2.3660778999328613,-2.256549119949341,-5.208410263061523,-0.6862401366233826,-5.269629,-0.026267206,181.50101999999998,171.3633,-29.340117,BSC
16247533000000.0,1.7312263250350952,-2.520728588104248,-2.0243170261383057,-5.208724021911621,-0.7816126942634583,-5.4006596,0.21777347,181.35655,172.3004,-30.699240000000003,BSC
16247538000000.0,1.7362232208251953,-2.714235782623291,-1.851711392402649,-5.29645299911499,-0.869021475315094,-4.457484,0.41996986,181.26389,173.21341,-32.113174,BSC
16247544000000.0,1.741219401359558,-2.937697410583496,-1.750291347503662,-5.413428783416748,-0.9397104978561401,-3.4266486000000005,0.4896085,181.23443999999998,174.08713999999998,-33.528023,BSC
16247549000000.0,1.746215581893921,-3.183016538619995,-1.7140860557556152,-5.550624847412109,-0.9983959794044495,-2.5149322,0.43799037,181.09097,175.04384,-34.487408,BSC
16247553000000.0,1.7512110471725464,-3.3999176025390625,-1.7218749523162842,-5.65087890625,-1.0501288175582886,-1.6951511000000001,0.31581733,180.98552,175.9247,-35.163628,BSC
16247558000000.0,1.756210446357727,-3.5765838623046875,-1.7616732120513916,-5.708410739898682,-1.094058632850647,-0.8387180000000001,0.19456059,180.67393,176.6272,-35.552708,BSC
16247563000000.0,1.7612086534500122,-3.665480136871338,-1.791412591934204,-5.6983489990234375,-1.1301780939102173,0.09407325,0.17928895,180.37541000000002,177.27225,-35.691359999999996,BSC
16247569000000.0,1.7662053108215332,-3.6771199703216553,-1.8110756874084473,-5.628887176513672,-1.156136393547058,0.93828905,0.28496864,180.13959,177.67506,-35.741608,BSC
16247574000000.0,1.7712048292160034,-3.635889768600464,-1.8189336061477661,-5.519073963165283,-1.170130968093872,1.6423112000000002,0.42638394,179.92137,178.0369,-35.57165,BSC
16247578000000.0,1.7762031555175781,-3.5537869930267334,-1.8149794340133667,-5.38015079498291,-1.1708787679672241,2.3075435,0.56505036,179.85234,178.35922,-35.11855,BSC
16247583000000.0,1.7812066078186035,-3.4653429985046387,-1.7964365482330322,-5.246335029602051,-1.1583857536315918,2.9684997,0.68875057,179.83043999999998,178.64795,-34.475037,BSC
16247589000000.0,1.7862064838409424,-3.38059401512146,-1.7646726369857788,-5.125025749206543,-1.1360758543014526,3.5036175000000003,0.82619524,179.93666000000002,178.92412,-33.637703,BSC
16247594000000.0,1.7912371158599854,-3.349148988723755,-1.719252586364746,-5.05677604675293,-1.1114553213119507,3.6447275,1.0045679,180.09554,179.19507,-32.73178,BSC
16247598000000.0,1.7962327003479004,-3.359879732131958,-1.6646150350570679,-5.0304179191589355,-1.09792959690094,3.4019086000000005,1.2165382,180.35596999999999,179.55301,-31.756746000000003,BSC
16247603000000.0,1.8012317419052124,-3.440561056137085,-1.60369074344635,-5.067810535430908,-1.1069363355636597,2.8658742999999998,1.4022411,180.65906999999999,179.96796,-30.832690999999997,BSC
16247609000000.0,1.8062304258346558,-3.5846426486968994,-1.5379962921142578,-5.166913032531738,-1.1458203792572021,2.1090124,1.4834863,180.99483,-179.41692,-30.093003999999997,BSC
16247614000000.0,1.811228632926941,-3.765871524810791,-1.4808396100997925,-5.351897239685059,-1.2126801013946533,1.6930131000000002,1.4391985,181.33446999999998,-178.70831,-29.419153,BSC
16247619000000.0,1.8162336349487305,-3.982300043106079,-1.432703971862793,-5.615728855133057,-1.291782021522522,0.9016371,1.3720033,181.67917,-177.86356,-29.196362,BSC
16247623000000.0,1.8212343454360962,-4.215851306915283,-1.4025990962982178,-5.890745162963867,-1.3621758222579956,0.1872302,1.3701707,182.01501000000002,-177.00542,-29.076368,BSC
16247628000000.0,1.8262287378311157,-4.465362071990967,-1.3894290924072266,-6.1761298179626465,-1.4185960292816162,-0.5870415,1.4236214,182.36935,-176.16098,-29.19515,BSC
16247634000000.0,1.8312275409698486,-4.72607421875,-1.3931188583374023,-6.421496391296387,-1.4419939517974854,-1.5296066000000001,1.5076154,182.7414,-175.45882,-29.55712,BSC
16247638000000.0,1.8362236022949219,-4.995753765106201,-1.4124027490615845,-6.619377136230469,-1.4307438135147095,-2.3658812,1.6172657,183.15039,-174.83711,-30.092240000000004,BSC
16247643000000.0,1.8412233591079712,-5.241485118865967,-1.4311597347259521,-6.814700603485107,-1.3982815742492676,-2.840218,1.7079792,183.57121,-174.36528,-30.842610999999998,BSC
16247648000000.0,1.846221685409546,-5.450308799743652,-1.442567229270935,-7.026337146759033,-1.3654820919036865,-2.8185322,1.7760907,184.02881000000002,-173.95406,-31.652779,BSC
16247654000000.0,1.8512208461761475,-5.587491512298584,-1.4549734592437744,-7.271288871765137,-1.3474525213241577,-2.47095,1.7825048,184.4508,-173.60828,-32.64178,BSC
16247659000000.0,1.856217384338379,-5.647286891937256,-1.4705688953399658,-7.552214622497559,-1.3471657037734985,-1.9517145,1.7269161,184.86288000000002,-173.25894,-33.537384,BSC
16247664000000.0,1.8612245321273804,-5.62855863571167,-1.4884066581726074,-7.856245517730713,-1.3611856698989868,-1.4697418,1.6215416999999999,185.30563,-172.84877,-34.182835,BSC
16247668000000.0,1.8662257194519043,-5.539427280426025,-1.50797438621521,-8.176971435546875,-1.3785278797149658,-1.1068878,1.527774,185.70803999999998,-172.42678999999998,-34.69409,BSC
16247674000000.0,1.8713082075119019,-5.396343231201172,-1.5293340682983398,-8.559636116027832,-1.3887441158294678,-0.7312057,1.4831808000000002,186.16652,-171.99217,-34.729565,BSC
16247679000000.0,1.8763025999069214,-5.234166145324707,-1.5509616136550903,-8.967434883117676,-1.3854917287826538,-0.38240165,1.5317446000000001,186.59532,-171.58128,-34.66805,BSC
16247683000000.0,1.881296992301941,-5.110911846160889,-1.5752993822097778,-9.398638725280762,-1.3638402223587036,-0.018936822,1.6334536,187.09732,-171.20251000000002,-34.192809999999994,BSC
16247688000000.0,1.8862937688827515,-5.0459089279174805,-1.6027911901474,-9.84593391418457,-1.312790036201477,0.17440203,1.7424932,187.5955,-170.93796,-33.678515999999995,BSC
16247694000000.0,1.891289472579956,-5.126218795776367,-1.5638006925582886,-10.295595169067383,-1.215677261352539,-0.3368922,1.7553213,188.18036,-170.83316000000002,-33.026737,BSC
16247699000000.0,1.8962864875793457,-5.385822296142578,-1.4303399324417114,-10.742189407348633,-1.0599814653396606,-1.7253889,1.3878858,188.70901,-170.98785,-32.61718,BSC
16247704000000.0,1.901282548904419,-5.7545952796936035,-1.2747355699539185,-11.093034744262695,-0.8582330346107483,-3.5020905,0.64965516,189.13523999999998,-171.40613000000002,-32.60249,BSC
16247708000000.0,1.906277060508728,-6.2073140144348145,-1.119665265083313,-11.323637962341309,-0.6501614451408386,-5.052161,-0.06566802,189.50671,-171.98306000000002,-32.952346999999996,BSC
16247713000000.0,1.9112735986709595,-6.688772678375244,-0.9743447303771973,-11.396391868591309,-0.4754296839237213,-5.6728,-0.5830709,189.71358,-172.4897,-33.985657,BSC
16247719000000.0,1.9162694215774536,-7.1508002281188965,-0.8465157747268677,-11.283323287963867,-0.3516961336135864,-6.6043696,-0.7819075,189.87988,-173.01758,-35.52167,BSC
16247724000000.0,1.921269416809082,-7.551875114440918,-0.7314526438713074,-11.055561065673828,-0.25662878155708313,-7.1229944000000005,-1.0653489999999999,189.69713000000002,-173.57818999999998,-37.557903,BSC
16247728000000.0,1.9262665510177612,-7.874199390411377,-0.6262798309326172,-10.755500793457031,-0.20551441609859467,-7.1095552,-1.2046263000000001,189.51466000000002,-173.88431,-39.629597,BSC
16247733000000.0,1.9312634468078613,-8.109423637390137,-0.5406319499015808,-10.454500198364258,-0.17973332107067108,-6.503576799999999,-1.2046263000000001,189.17789,-174.10732,-41.85692,BSC
16247739000000.0,1.9362660646438599,-8.253647804260254,-0.4796612858772278,-10.191887855529785,-0.15980243682861328,-5.3215528,-1.0775663,188.79913,-174.25455,-43.852245,BSC
16247744000000.0,1.9412751197814941,-8.308156967163086,-0.4479130804538727,-9.973066329956055,-0.13347870111465454,-3.7009269999999996,-0.81000733,188.45911999999998,-174.31438,-45.531216,BSC
16247748000000.0,1.9462721347808838,-8.28084945678711,-0.44619020819664,-9.79892349243164,-0.09423376619815826,-1.9117028000000003,-0.49021935,188.10983000000002,-174.35362,-46.78553,BSC
16247753000000.0,1.951267123222351,-8.19111156463623,-0.46615904569625854,-9.648725509643555,-0.04485601186752319,-0.046120327,-0.22052236,187.83972,-174.4384,-47.398228,BSC
16247759000000.0,1.9562647342681885,-8.063364028930664,-0.49740731716156006,-9.49720573425293,0.009084855206310749,1.3588698000000001,-0.053450707,187.57788,-174.50848,-47.616141999999996,BSC
16247764000000.0,1.9612621068954468,-7.910247325897217,-0.5322901010513306,-9.336870193481445,0.05832799896597862,2.4251351000000003,0.053145275,187.36359,-174.66318,-47.24467,BSC
16247769000000.0,1.9662590026855469,-7.740555286407471,-0.5655662417411804,-9.162614822387695,0.09996597468852997,3.2049046000000003,0.13347405,187.1535,-174.79996,-46.554653,BSC
16247773000000.0,1.9712579250335693,-7.562114715576172,-0.6018709540367126,-8.95954418182373,0.1327112317085266,3.5790594,0.21899518,186.98006999999998,-174.92676,-45.640976,BSC
16247778000000.0,1.9762914180755615,-7.379520893096924,-0.6456341743469238,-8.710935592651367,0.15514951944351196,3.5726454,0.29046643,186.82768000000002,-175.01485,-44.621716,BSC
16247784000000.0,1.9812883138656616,-7.2063188552856445,-0.7009788155555725,-8.43001937866211,0.1662674993276596,3.2775974000000003,0.31184670000000003,186.72395,-175.06166000000002,-43.587917,BSC
16247789000000.0,1.9862905740737915,-7.04931640625,-0.7745295763015747,-8.10906982421875,0.16771019995212555,2.8029552000000004,0.31398472,186.6598,-175.07027,-42.615925,BSC
16247793000000.0,1.9912865161895752,-6.911169528961182,-0.8581968545913696,-7.759790897369385,0.16123034060001373,2.2253819999999997,0.36926803,186.60707,-175.06049,-41.84349,BSC
16247798000000.0,1.9962828159332275,-6.795830249786377,-0.9440983533859253,-7.391541957855225,0.14900808036327362,1.5937473999999998,0.47555858,186.6027,-175.01238999999998,-41.227066,BSC
16247804000000.0,2.001277446746826,-6.7102532386779785,-1.0287017822265625,-7.019534111022949,0.12801259756088257,1.0277808000000002,0.5992588000000001,186.59447,-174.95186,-40.89663,BSC
16247809000000.0,2.006272554397583,-6.662979602813721,-1.108062982559204,-6.660505294799805,0.09600939601659775,0.6096435,0.7254025,186.64886,-174.83616999999998,-40.70523,BSC
16247813000000.0,2.0112650394439697,-6.641767978668213,-1.1770397424697876,-6.321244716644287,0.05596160143613815,0.43799037,0.7883216,186.7548,-174.63785,-40.708294,BSC
16247818000000.0,2.0162620544433594,-6.627813816070557,-1.2260020971298218,-6.014360427856445,0.012904418632388115,0.10781772,0.8949176,186.94626,-174.37986999999998,-40.873383000000004,BSC
16247824000000.0,2.021256923675537,-6.620223522186279,-1.2538176774978638,-5.740265846252441,-0.038763951510190964,-0.14110987,0.9987647,187.17331000000001,-174.00383,-41.152634,BSC
16247829000000.0,2.026254653930664,-6.618028163909912,-1.2559874057769775,-5.502578258514404,-0.09547562152147293,-0.31581733,1.1136073,187.44997,-173.60368,-41.5019,BSC
16247833000000.0,2.031248092651367,-6.623269557952881,-1.2338494062423706,-5.297041893005371,-0.1545039415359497,-0.40194935,1.2156218,187.79877,-173.12561000000002,-41.872184999999995,BSC
16247838000000.0,2.0362462997436523,-6.64020299911499,-1.1866559982299805,-5.1195244789123535,-0.21281179785728455,-0.46211955,1.3139712,188.18983,-172.61665,-42.27855,BSC
16247843000000.0,2.041239023208618,-6.669227600097656,-1.117395043373108,-4.971945762634277,-0.2697376608848572,-0.4905248,1.3857478,188.69612,-172.0421,-42.66053,BSC
16247849000000.0,2.046274185180664,-6.715604782104492,-1.0244938135147095,-4.866250514984131,-0.3245738744735718,-0.5326744999999999,1.4480561,189.23233000000002,-171.45598,-43.05442,BSC
16247854000000.0,2.051267385482788,-6.772025108337402,-0.9194740653038025,-4.800971508026123,-0.37743180990219116,-0.5821546,1.4645494,189.89261000000002,-170.76611,-43.4217,BSC
16247858000000.0,2.056264877319336,-6.837329387664795,-0.8063894510269165,-4.802672863006592,-0.42774951457977295,-0.6096435,1.450805,190.55154,-170.08743,-43.785088,BSC
16247863000000.0,2.0612587928771973,-6.910991191864014,-0.6880155205726624,-4.871838092803955,-0.47406718134880066,-0.61361414,1.4010194999999999,191.29613999999998,-169.35709,-44.103485,BSC
16247869000000.0,2.066256046295166,-6.993699073791504,-0.5703012347221375,-5.024142265319824,-0.5142865777015686,-0.53786683,1.3213016000000002,191.99588,-168.66753,-44.40113,BSC
16247874000000.0,2.071319341659546,-7.088581085205078,-0.45166364312171936,-5.277029037475586,-0.5452494025230408,-0.38973203,1.1872166000000002,192.6548,-168.0462,-44.551163,BSC
16247878000000.0,2.0763137340545654,-7.1981964111328125,-0.33116626739501953,-5.608156681060791,-0.5643236637115479,-0.19853121,1.0173961,193.2331,-167.49475,-44.67139,BSC
16247883000000.0,2.0813119411468506,-7.328564167022705,-0.20609469711780548,-6.044893264770508,-0.5688223838806152,-0.06078109,0.8008443000000001,193.72737,-167.06468,-44.554684,BSC
16247889000000.0,2.086308240890503,-7.486600399017334,-0.075516477227211,-6.526472091674805,-0.5568365454673767,-0.06078109,0.5296202,194.11087,-166.74521000000001,-44.446552000000004,BSC
16247894000000.0,2.0913026332855225,-7.673107147216797,0.06063679978251457,-7.036069393157959,-0.527405321598053,-0.26969699999999996,0.19792034,194.38523999999998,-166.55244,-44.387295,BSC
16247898000000.0,2.0962975025177,-7.879170894622803,0.20965461432933807,-7.526157379150391,-0.48165377974510193,-0.569021,-0.18112154,194.57594,-166.5062,-44.159534,BSC
16247903000000.0,2.101292133331299,-8.0991849899292,0.37513214349746704,-7.970765113830566,-0.4246837794780731,-0.71959925,-0.5103779,194.66458,-166.57338000000001,-43.989437,BSC
16247908000000.0,2.1062850952148438,-8.31749153137207,0.5588507056236267,-8.342458724975586,-0.3667944669723511,-0.7180721,-0.75411314,194.66939,-166.72536000000002,-43.86266,BSC
16247914000000.0,2.111281156539917,-8.528157234191895,0.7614853978157043,-8.63168716430664,-0.3164990544319153,-0.6102544,-0.8347474,194.62138000000002,-166.92421000000002,-43.775208,BSC
16247919000000.0,2.1162755489349365,-8.697832107543945,0.9702922105789185,-8.829294204711914,-0.2731975317001343,-0.49571714,-0.9266825999999999,194.52888000000002,-167.11784,-43.79355,BSC
16247923000000.0,2.1212730407714844,-8.809327125549316,1.1789486408233643,-8.930641174316406,-0.24198634922504425,-0.5946773,-0.8210029000000001,194.49504,-167.24596,-43.835705,BSC
16247928000000.0,2.126269578933716,-8.850225448608398,1.3543583154678345,-8.969491958618164,-0.21728914976119995,-0.81031275,-0.61819565,194.56772,-167.2531,-43.983643,BSC
16247934000000.0,2.1312673091888428,-8.815956115722656,1.482249140739441,-8.961912155151367,-0.19486849009990692,-0.9056076999999999,-0.42943826,194.66618,-167.22397,-44.11705,BSC
16247939000000.0,2.1362645626068115,-8.722612380981445,1.5584065914154053,-8.919994354248047,-0.17294277250766754,-0.8026769,-0.28619036,194.92491,-167.04056,-44.2676,BSC
16247943000000.0,2.1412622928619385,-8.57831859588623,1.5822523832321167,-8.849626541137695,-0.1507042944431305,-0.57971114,-0.20677789,195.21057,-166.84296,-44.39645,BSC
16247948000000.0,2.146259307861328,-8.394693374633789,1.5666459798812866,-8.750944137573242,-0.12846271693706512,-0.32467487,-0.14874569,195.47798,-166.66773999999998,-44.430690000000006,BSC
16247954000000.0,2.151256561279297,-8.178933143615723,1.519546627998352,-8.624439239501953,-0.10670652985572815,-0.13775012,-0.05681047,195.75694,-166.47978,-44.411224,BSC
16247959000000.0,2.156254291534424,-7.944005012512207,1.454941987991333,-8.480807304382324,-0.08752591907978058,0.008552114,0.039095376,195.89087,-166.42282,-44.32431,BSC
16247963000000.0,2.1612510681152344,-7.6985650062561035,1.3820295333862305,-8.327203750610352,-0.06961166113615036,0.122478485,0.122478485,196.03325,-166.35663,-44.18755,BSC
16247968000000.0,2.1662471294403076,-7.446890354156494,1.299734354019165,-8.16612720489502,-0.05169173702597618,0.21746802,0.20738874,196.12181,-166.34736999999998,-44.015053,BSC
16247973000000.0,2.171245813369751,-7.1940016746521,1.2063703536987305,-8.000388145446777,-0.033457182347774506,0.30115658,0.27885997,196.22359,-166.32417,-43.807629999999996,BSC
16247979000000.0,2.1762442588806152,-6.9507341384887695,1.108702540397644,-7.82426118850708,-0.013736517168581486,0.34086279999999997,0.30940324,196.32573,-166.31757,-43.576640000000005,BSC
16247984000000.0,2.181244134902954,-6.724505424499512,1.0114012956619263,-7.633583068847656,0.007537554483860731,0.30421090000000006,0.34116822,196.4544,-166.30241,-43.33637,BSC
16247988000000.0,2.186246871948242,-6.527432441711426,0.9124096632003784,-7.424726963043213,0.029549768194556236,0.20555615,0.37384954,196.56314,-166.32509,-43.10646,BSC
16247993000000.0,2.1912453174591064,-6.367184162139893,0.810498833656311,-7.196208953857422,0.04996567592024803,0.03726278,0.38423425,196.68938,-166.34798999999998,-42.903683,BSC
16247999000000.0,2.1962430477142334,-6.249965190887451,0.7104102969169617,-6.946605205535889,0.06678685545921326,-0.16982053,0.38148534,196.81912,-166.38441,-42.8018,BSC
16248004000000.0,2.2012412548065186,-6.180596828460693,0.6161600351333618,-6.675003528594971,0.07789348810911179,-0.46761733,0.40194935,196.99294,-166.40403999999998,-42.76611,BSC
16248008000000.0,2.206238269805908,-6.1578168869018555,0.5342845320701599,-6.386472225189209,0.08206005394458771,-0.6441574000000001,0.44379359999999995,197.13121,-166.43591,-42.889885,BSC
16248013000000.0,2.2112369537353516,-6.181208610534668,0.4710771143436432,-6.085218906402588,0.08263516426086426,-1.0729848,0.46944994,197.33803,-166.45998,-43.161823,BSC
16248019000000.0,2.2162346839904785,-6.244876384735107,0.4251456558704376,-5.788990020751953,0.07697795331478119,-1.5137241000000001,0.49693888,197.58853,-166.41488999999999,-43.651140000000005,BSC
16248024000000.0,2.2212352752685547,-6.3440842628479,0.3954770565032959,-5.514827251434326,0.06542056053876877,-1.9080375,0.48685959999999995,197.88287,-166.36023,-44.242977,BSC
16248028000000.0,2.226231336593628,-6.466840744018555,0.37807556986808777,-5.276042938232422,0.04860296845436096,-2.2375993999999997,0.46150870000000005,198.31967,-166.1728,-45.06432,BSC
16248033000000.0,2.2312307357788086,-6.60090970993042,0.3689982295036316,-5.09053897857666,0.0276193767786026,-2.4446826,0.42546764,198.78647,-165.97534,-45.951355,BSC
16248038000000.0,2.2362301349639893,-6.740658283233643,0.3672349750995636,-4.960755825042725,0.0033591745886951685,-2.5546384,0.3717115,199.31552,-165.73418999999998,-46.95219,BSC
16248044000000.0,2.241229295730591,-6.879133701324463,0.3717401921749115,-4.891731262207031,-0.023221705108880997,-2.5955665,0.30665436,199.85185,-165.49889,-47.977540000000005,BSC
16248048000000.0,2.246222496032715,-7.015455722808838,0.38205280900001526,-4.881008148193359,-0.04968820512294769,-2.5680776,0.24984388,200.35791,-165.32643000000002,-48.960033,BSC
16248053000000.0,2.2512218952178955,-7.148306846618652,0.3981398046016693,-4.931819438934326,-0.07536277174949646,-2.4526237999999996,0.18661933,200.8371,-165.1687,-49.91868,BSC
16248058000000.0,2.256216287612915,-7.278753280639648,0.42088836431503296,-5.043919563293457,-0.09800878167152405,-2.259896,0.12980886,201.25981000000002,-165.06624,-50.718998,BSC
16248064000000.0,2.2612156867980957,-7.4098615646362305,0.45409896969795227,-5.23100471496582,-0.11503675580024719,-1.9636263999999999,0.064446285,201.61713999999998,-164.99248,-51.452976,BSC
16248069000000.0,2.2662134170532227,-7.540435314178467,0.49636247754096985,-5.469265937805176,-0.1268763244152069,-1.6392567999999998,-0.012217305,201.89838999999998,-164.95328,-51.97043,BSC
16248073000000.0,2.2712149620056152,-7.667453289031982,0.5455347895622253,-5.699279308319092,-0.13349471986293793,-1.3029754999999998,-0.08460484,202.09167,-164.94498000000002,-52.403420000000004,BSC
16248078000000.0,2.276212215423584,-7.789762496948242,0.6013511419296265,-5.917247772216797,-0.13663515448570251,-0.9477574000000001,-0.16340645,202.17416,-164.95111,-52.536956999999994,BSC
16248084000000.0,2.2812118530273438,-7.904112339019775,0.664763331413269,-6.1120686531066895,-0.13718289136886597,-0.6038403,-0.23976462,202.16023,-164.98521000000002,-52.593803,BSC
16248089000000.0,2.2862138748168945,-8.010358810424805,0.735778272151947,-6.283470153808594,-0.13516217470169067,-0.26908615,-0.3036,202.09933,-165.0167,-52.556107,BSC
16248093000000.0,2.2912113666534424,-8.105338096618652,0.8164129257202148,-6.423315525054932,-0.13220739364624023,-0.0033597588,-0.36957347,201.95268000000002,-165.06874,-52.46013000000001,BSC
16248098000000.0,2.2962136268615723,-8.188535690307617,0.907356858253479,-6.532397747039795,-0.12791256606578827,0.19608775,-0.42852196,201.80244,-165.09735,-52.317337,BSC
16248104000000.0,2.301213264465332,-8.249442100524902,1.016745686531067,-6.611598968505859,-0.12200728058815002,0.31887165,-0.45998153,201.60384,-165.13914,-52.136013,BSC
16248109000000.0,2.306210994720459,-8.287504196166992,1.1425482034683228,-6.663082599639893,-0.1145448088645935,0.35308012,-0.47311515,201.46364,-165.13425,-51.962272999999996,BSC
16248113000000.0,2.311208486557007,-8.289484977722168,1.2745312452316284,-6.693645477294922,-0.10708937793970108,0.3295618,-0.45081854,201.31645,-165.13058,-51.77763,BSC
16248118000000.0,2.31620192527771,-8.257832527160645,1.4121668338775635,-6.70468282699585,-0.09641769528388977,0.19303341,-0.31520647,201.37372,-164.99902,-51.582962,BSC
16248123000000.0,2.321197748184204,-8.19419002532959,1.5283584594726562,-6.693343639373779,-0.08076415956020355,0.027183502999999998,-0.15118915,201.45802,-164.86932,-51.403946000000005,BSC
16248129000000.0,2.326198101043701,-8.101666450500488,1.619801640510559,-6.660391807556152,-0.06024777144193649,-0.12125675400000001,-0.040317107000000005,201.59329,-164.73895,-51.252716,BSC
16248134000000.0,2.331193447113037,-8.002737998962402,1.6842044591903687,-6.611059188842773,-0.03857848793268204,-0.26328292,0.017715093,201.99614,-164.44734,-51.055565,BSC
16248138000000.0,2.3361940383911133,-7.897922992706299,1.7226346731185913,-6.5456719398498535,-0.019773142412304878,-0.38973203,0.044593163,202.40458999999998,-164.1824,-50.89346,BSC
16248143000000.0,2.341188907623291,-7.794437885284424,1.7424936294555664,-6.467496871948242,-0.0053068408742547035,-0.50976706,0.053450707,202.8345,-163.92305,-50.765114000000004,BSC
16248149000000.0,2.3461854457855225,-7.692648887634277,1.7445356845855713,-6.377252578735352,0.004856326151639223,-0.6206391,0.064751714,203.20628,-163.75725,-50.736796999999996,BSC
16248154000000.0,2.3511815071105957,-7.599320411682129,1.7325549125671387,-6.281698226928711,0.011450283229351044,-0.7367035,0.07086037,203.59400000000002,-163.58618,-50.73901,BSC
16248158000000.0,2.3561811447143555,-7.514060020446777,1.7075172662734985,-6.1809163093566895,0.01500706747174263,-0.83077675,0.07147124,203.92873,-163.47336,-50.825829999999996,BSC
16248163000000.0,2.3611764907836914,-7.43650484085083,1.6759097576141357,-6.074891090393066,0.01591642014682293,-0.9233228000000001,0.083383106,204.28787,-163.34955,-50.936440000000005,BSC
16248169000000.0,2.366175889968872,-7.3663411140441895,1.6378415822982788,-5.963578224182129,0.01531235035508871,-1.0186177,0.10354166,204.60408,-163.2772,-51.125107,BSC
16248174000000.0,2.3712074756622314,-7.308391571044922,1.5905295610427856,-5.844700813293457,0.014577699825167656,-1.1374311000000001,0.10629055,204.93927,-163.20323,-51.339706,BSC
16248178000000.0,2.376204013824463,-7.260741710662842,1.5366662740707397,-5.7214579582214355,0.013768259435892105,-1.2550226,0.08063421400000001,205.28789,-163.12775,-51.574524,BSC
16248183000000.0,2.381204128265381,-7.216035842895508,1.4773389101028442,-5.593421459197998,0.01386465597897768,-1.3796391000000001,0.04642576,205.6317,-163.08719,-51.890198,BSC
16248188000000.0,2.3862040042877197,-7.173476219177246,1.4131261110305786,-5.461084365844727,0.014379126019775867,-1.5152513,0.009468411,205.99083000000002,-163.05200000000002,-52.236187,BSC
16248194000000.0,2.391202688217163,-7.136512756347656,1.344809889793396,-5.32720422744751,0.01546844094991684,-1.6811011999999999,-0.008552114,206.34157,-163.06235,-52.682590000000005,BSC
16248199000000.0,2.39619779586792,-7.105812072753906,1.2728118896484375,-5.192631244659424,0.015230069868266582,-1.8270978999999998,-0.057421334000000004,206.69173999999998,-163.08428999999998,-53.15999,BSC
16248203000000.0,2.401198387145996,-7.085260391235352,1.1926624774932861,-5.061028480529785,0.014223089441657066,-1.9037615,-0.12950343,207.02736000000002,-163.14574,-53.70649,BSC
16248208000000.0,2.406195878982544,-7.075209140777588,1.103914499282837,-4.933469295501709,0.012667511589825153,-2.0494528,-0.18173242,207.40493999999998,-163.21078,-54.302130000000005,BSC
16248214000000.0,2.41119647026062,-7.084105014801025,1.001108169555664,-4.819801330566406,0.0106902364641428,-2.176513,-0.32070425,207.71225,-163.33835,-54.970546999999996,BSC
16248219000000.0,2.416194438934326,-7.113528728485107,0.883486807346344,-4.722573757171631,0.008102132938802242,-2.251344,-0.52626044,207.99556,-163.49274,-55.66973,BSC
16248223000000.0,2.421194076538086,-7.174727916717529,0.7495912909507751,-4.643168926239014,0.005310132168233395,-2.2272146,-0.8335256,208.13226,-163.75423,-56.452904000000004,BSC
16248228000000.0,2.426193952560425,-7.273747444152832,0.5991305708885193,-4.581953048706055,0.0026994794607162476,-2.1413882,-1.2577715,208.12721000000002,-164.09448,-57.275645999999995,BSC
16248234000000.0,2.4311938285827637,-7.412773132324219,0.441988080739975,-4.532861709594727,-1.6204392522922717e-05,-2.0158553,-1.7818939999999999,207.78688,-164.62097,-58.180965,BSC
16248239000000.0,2.436195135116577,-7.592060565948486,0.28295257687568665,-4.492742538452148,-0.005663581192493439,-1.8664987000000002,-2.3683245,207.16661000000002,-165.2597,-59.114502,BSC
16248244000000.0,2.4412331581115723,-7.813884735107422,0.13364937901496887,-4.467949867248535,-0.015128163620829582,-1.6875153000000003,-2.9636127999999995,206.06479,-166.12454,-60.140640000000005,BSC
16248248000000.0,2.446229934692383,-8.062116622924805,-0.0009507297654636204,-4.457071781158447,-0.0297365915030241,-1.4703526000000002,-3.5124752999999997,204.5783,-167.10594,-61.163914,BSC
16248253000000.0,2.451226234436035,-8.326642036437988,-0.10564815998077393,-4.464328289031982,-0.048677586019039154,-1.2596041,-3.9413025,202.62573,-168.24867,-62.251630000000006,BSC
16248259000000.0,2.456225633621216,-8.59781551361084,-0.17277325689792633,-4.49069356918335,-0.06975068897008896,-1.0406090000000001,-4.206112999999999,-1.3600943,-169.46200000000002,-63.27495,BSC
16248264000000.0,2.4612247943878174,-8.863618850708008,-0.19322574138641357,-4.5374345779418945,-0.09033556282520294,-0.81306165,-4.2788057,-2.093269,-170.70457,-64.22425,BSC
16248268000000.0,2.4662230014801025,-9.115769386291504,-0.16109921038150787,-4.605251789093018,-0.1073329821228981,-0.5537493,-4.0619483,-2.801632,-171.91107,-65.03419,BSC
16248273000000.0,2.47127103805542,-9.338366508483887,-0.0807492733001709,-4.693511009216309,-0.11945288628339767,-0.28313604,-3.5121697999999997,-3.4182758,-172.92236,-65.62433,BSC
16248279000000.0,2.4762680530548096,-9.53174877166748,0.025478420779109,-4.792146682739258,-0.12404156476259232,0.005192355,-2.7534752,-3.9437995000000003,-173.80418,-66.05163,BSC
16248284000000.0,2.4812657833099365,-9.685436248779297,0.14320534467697144,-4.888362884521484,-0.12272118777036667,0.29718593,-1.9422461,-4.309481,-174.32584,-66.20293000000001,BSC
16248288000000.0,2.4862635135650635,-9.795475006103516,0.25674402713775635,-4.9704132080078125,-0.1187528595328331,0.51068336,-1.14018,-4.565308,-174.64471,-66.23225,BSC
16248293000000.0,2.4912610054016113,-9.861823081970215,0.3588826358318329,-5.026388168334961,-0.11442630738019943,0.5934556,-0.35369098,-4.6510377,-174.59157,-66.04338,BSC
16248299000000.0,2.4962587356567383,-9.882688522338867,0.43740981817245483,-5.035830020904541,-0.11296726018190384,0.48075095,0.20616703,-4.67361,-174.39265,-65.82046,BSC
16248304000000.0,2.5012552738189697,-9.87074089050293,0.48563069105148315,-5.004408836364746,-0.11557392030954361,0.37201694,0.3576616,-4.621914,-174.06944,-65.52797,BSC
16248308000000.0,2.506251811981201,-9.83968448638916,0.4952908754348755,-4.937671184539795,-0.12007632851600647,0.09468412,0.3390302,-4.529803299999999,-173.65958999999998,-65.29165,BSC
16248313000000.0,2.5112626552581787,-9.791054725646973,0.47539958357810974,-4.854596138000488,-0.12819652259349823,-0.1908954,0.15332718,-4.504186,-173.3098,-65.16888399999999,BSC
16248318000000.0,2.516256809234619,-9.72964096069336,0.440753310918808,-4.779902458190918,-0.13708849251270294,-0.37293324,0.093767814,-4.465142299999999,-172.94492,-65.08499,BSC
16248324000000.0,2.521252155303955,-9.656269073486328,0.3951142132282257,-4.717683792114258,-0.14278827607631683,-0.43401974,-0.002443461,-4.519888,-172.79883999999998,-65.18434,BSC
16248329000000.0,2.5262489318847656,-9.575751304626465,0.353289395570755,-4.682275772094727,-0.14247094094753265,-0.41263947,-0.036957346,-4.5673379999999995,-172.65953000000002,-65.3086,BSC
16248333000000.0,2.531245470046997,-9.491683959960938,0.3171684443950653,-4.667164325714111,-0.13473176956176758,-0.30848694,-0.015882496,-4.5807023000000004,-172.61067,-65.41486,BSC
16248338000000.0,2.536243438720703,-9.409574508666992,0.29003337025642395,-4.66294527053833,-0.1219521313905716,-0.19730948,0.023518313,-4.578578,-172.57463,-65.51288000000001,BSC
16248344000000.0,2.541236400604248,-9.331629753112793,0.268882691860199,-4.664430141448975,-0.10736311972141266,-0.12461651,0.07391469,-4.502809,-172.53601,-65.51343,BSC
16248349000000.0,2.5462350845336914,-9.262357711791992,0.24860812723636627,-4.662320613861084,-0.09447941184043884,-0.06017022599999999,0.110872045,-4.4147680000000005,-172.49532,-65.48286999999999,BSC
16248353000000.0,2.551229476928711,-9.203055381774902,0.22784319519996643,-4.655559062957764,-0.08462624996900558,-0.03573562,0.13591751,-4.2912493,-172.41988999999998,-65.39849,BSC
16248358000000.0,2.556227207183838,-9.159040451049805,0.20264874398708344,-4.640194416046143,-0.07804905623197556,-0.03359759,0.16065755,-4.170692,-172.33353,-65.29952,BSC
16248364000000.0,2.561223030090332,-9.132990837097168,0.1706860363483429,-4.616306304931641,-0.07351522892713547,-0.017104227,0.15088372,-4.0642314,-172.2554,-65.2101,BSC
16248369000000.0,2.566220760345459,-9.13295841217041,0.12588395178318024,-4.582901477813721,-0.07015082985162735,-0.009468411,0.15668693,-3.9634154,-172.1644,-65.119225,BSC
16248373000000.0,2.571218490600586,-9.155664443969727,0.07028665393590927,-4.541420936584473,-0.0669657289981842,-0.00580322,0.13988814,-3.9286443556,-172.144024076,-65.0995064445,BSC
16248378000000.0,2.576216459274292,-9.186641693115234,0.014159290120005608,-4.498907566070557,-0.06235519051551819,0.0030543262,0.106901415,-3.8938593999999997,-172.12364,-65.07978,BSC
16248383000000.0,2.5812182426452637,-9.22504997253418,-0.04216039180755615,-4.455598831176758,-0.056850943714380264,0.033292156,0.089186326,-3.8272742999999996,-172.07138,-65.030266,BSC
16248389000000.0,2.586216449737549,-9.264514923095703,-0.09470284730195999,-4.414080619812012,-0.0511842705309391,0.03970624,0.06383542,-3.8152926,-172.10727,-65.08336,BSC
16248394000000.0,2.5912132263183594,-9.30413818359375,-0.14360953867435455,-4.374899387359619,-0.04573820158839226,0.021380282999999996,0.027183502999999998,-3.8145422999999994,-172.1704,-65.166306,BSC
16248398000000.0,2.5962111949920654,-9.33740520477295,-0.18866129219532013,-4.342800617218018,-0.04063120111823082,0.019242255,0.0067195175,-3.8134099999999997,-172.23512,-65.242485,BSC
16248403000000.0,2.601210355758667,-9.364339828491211,-0.22993426024913788,-4.317409515380859,-0.037179943174123764,0.010690141499999998,-0.004581489,-3.8233075,-172.30646000000002,-65.33304,BSC
16248409000000.0,2.6062116622924805,-9.381279945373535,-0.2659868001937866,-4.29840612411499,-0.03479158878326416,0.029932396,-0.016798794,-3.8335226000000002,-172.3824,-65.41673,BSC
16248414000000.0,2.611217498779297,-9.388668060302734,-0.2970978021621704,-4.285289287567139,-0.03410941734910011,0.06811147,-0.01863139,-3.8406303,-172.45178,-65.47398000000001,BSC
16248418000000.0,2.616215229034424,-9.387252807617188,-0.3241479694843292,-4.274072647094727,-0.03543316200375557,0.11026118,-0.010690141499999998,-3.854214,-172.51721,-65.52372,BSC
16248423000000.0,2.6212332248687744,-9.376582145690918,-0.3471008539199829,-4.264705181121826,-0.03763044625520706,0.14630222,-0.015271631,-3.8580105000000002,-172.57425,-65.5339,BSC
16248429000000.0,2.626230478286743,-9.358163833618164,-0.36669209599494934,-4.255124092102051,-0.039954788982868195,0.16004670000000001,-0.01160644,-3.8658623999999997,-172.623,-65.53687,BSC
16248434000000.0,2.6312434673309326,-9.331336975097656,-0.382797509431839,-4.245237350463867,-0.04205759987235069,0.1777618,-0.010079277,-3.8655614999999997,-172.66106000000002,-65.51018,BSC
16248438000000.0,2.6362404823303223,-9.300719261169434,-0.3959936797618866,-4.235131740570068,-0.04396696016192436,0.16126843,-0.0125227375,-3.8662013999999996,-172.69772,-65.48934,BSC
16248443000000.0,2.6412365436553955,-9.266219139099121,-0.4063203036785126,-4.224776744842529,-0.04535135254263878,0.14844026,-0.010079277,-3.8563755,-172.72221000000002,-65.44936,BSC
16248448000000.0,2.6462323665618896,-9.228617668151855,-0.41388678550720215,-4.21409797668457,-0.04666196554899216,0.14263703,-0.013439035,-3.8489056000000006,-172.74753,-65.413185,BSC
16248454000000.0,2.651228427886963,-9.188979148864746,-0.418777197599411,-4.202978134155273,-0.04806550592184067,0.12797627,-0.0012217305,-3.8378447999999996,-172.76805,-65.38179000000001,BSC
16248459000000.0,2.6562252044677734,-9.148062705993652,-0.4216948449611664,-4.191721439361572,-0.04915008693933487,0.10781772,0.007330383,-3.8198733,-172.77858,-65.34414,BSC
16248463000000.0,2.6612279415130615,-9.107002258300781,-0.4236821234226227,-4.180806636810303,-0.051120955497026443,0.08063421400000001,0.016493361,-3.80694,-172.7826,-65.31182,BSC
16248468000000.0,2.666224241256714,-9.06608772277832,-0.4248233139514923,-4.17040491104126,-0.0530519001185894,0.07299839999999999,0.027488936000000002,-3.7784185,-172.77684,-65.27464,BSC
16248474000000.0,2.6713061332702637,-9.02502155303955,-0.4249039888381958,-4.160890579223633,-0.05471716448664665,0.04184427,0.03573562,-3.7528217000000006,-172.76802,-65.251144,BSC
16248479000000.0,2.676297426223755,-8.984938621520996,-0.4246425926685333,-4.152559757232666,-0.05650528892874718,-0.002443461,0.044593163,-3.71978,-172.75365,-65.230255,BSC
16248483000000.0,2.6812896728515625,-8.945188522338867,-0.42416971921920776,-4.1464762687683105,-0.05715636909008026,-0.047036625,0.04886922,-3.6797945,-172.7417,-65.21786999999999,BSC
16248488000000.0,2.686286449432373,-8.906147956848145,-0.42371922731399536,-4.142414569854736,-0.05713793635368347,-0.08155051,0.058948494000000004,-3.6360376000000003,-172.71927,-65.20898000000001,BSC
16248495000000.0,2.692610740661621,-8.891755104064941,-0.4399729073047638,-4.139059543609619,-0.05378362908959389,-0.16646078,0.06414085,-3.2575705000000004,-172.6173,-65.22955999999999,LYI
16248501000000.0,2.698863983154297,-8.885425567626953,-0.45915862917900085,-4.1370086669921875,-0.049794211983680725,-0.16707164,0.049480084,-3.1927464,-172.62048000000001,-65.25559,LYI
16248507000000.0,2.7050509452819824,-8.887465476989746,-0.4813377261161804,-4.1364054679870605,-0.04456872120499611,-0.15241088,0.04337143,-3.1262993999999997,-172.62383,-65.27632,LYI
16248513000000.0,2.71117901802063,-8.89360237121582,-0.5038387775421143,-4.1354570388793945,-0.03908455744385719,-0.13072516,0.03634648,-3.063945,-172.6527,-65.3108,LYI
16248520000000.0,2.7172417640686035,-8.903162002563477,-0.5263906121253967,-4.134058952331543,-0.03346944972872734,-0.10781772,0.03634648,-2.9960105,-172.68343000000002,-65.339745,LYI
16248525000000.0,2.723254442214966,-8.913702964782715,-0.5468997955322266,-4.131986141204834,-0.028251249343156815,-0.09712757,0.036957346,-2.9367166,-172.7313,-65.37756999999999,LYI
16248530000000.0,2.7292063236236572,-8.924901962280273,-0.5653405785560608,-4.129292011260986,-0.024434277787804604,-0.07147124,0.05009095,-2.8797848,-172.77338999999998,-65.40288000000001,LYI
16248536000000.0,2.735109806060791,-8.937434196472168,-0.5820102691650391,-4.1237616539001465,-0.021732255816459656,-0.04795292,0.06017022599999999,-2.8286693,-172.82071000000002,-65.43423,LYI
16248541000000.0,2.7409632205963135,-8.951286315917969,-0.5970461368560791,-4.115295886993408,-0.01987415738403797,-0.02443461,0.04917465,-2.7836293999999997,-172.86702,-65.458275,LYI
16248546000000.0,2.746774196624756,-8.965585708618164,-0.6126807332038879,-4.104812145233154,-0.019221942871809006,-0.0125227375,0.048563786,-2.7501094,-172.90137,-65.47986,LYI
16248551000000.0,2.752596378326416,-8.980375289916992,-0.6295488476753235,-4.092101097106934,-0.01863704062998295,-0.015882496,0.043676864,-2.7169464,-172.9396,-65.49983,LYI
16248556000000.0,2.7583227157592773,-8.995584487915039,-0.6457193493843079,-4.077852725982666,-0.01780659519135952,-0.0036651915999999997,0.044593163,-2.6962435,-172.97156999999999,-65.52524,LYI
16248562000000.0,2.7640063762664795,-9.011463165283203,-0.6612747311592102,-4.06165075302124,-0.01697157323360443,-0.005192355,0.036957346,-2.6807895,-173.0102,-65.56699,LYI
16248567000000.0,2.7696568965911865,-9.026031494140625,-0.6754803657531738,-4.044631481170654,-0.01587178371846676,0.021685716,0.03176499,-2.6625762,-173.04817,-65.596436,LYI
16248572000000.0,2.7752745151519775,-9.038887023925781,-0.688226580619812,-4.027114391326904,-0.014960822649300098,0.038179077,0.02687807,-2.6473963,-173.08633,-65.62884,LYI
16248577000000.0,2.780855894088745,-9.049888610839844,-0.6990466117858887,-4.00869607925415,-0.01434256974607706,0.056199603,0.015271631,-2.6431169999999997,-173.12962,-65.66618000000001,LYI
16248583000000.0,2.786405563354492,-9.058972358703613,-0.7076922059059143,-3.989128828048706,-0.014587409794330597,0.053145275,0.02321288,-2.6407769,-173.1665,-65.70271,LYI
16248588000000.0,2.7919254302978516,-9.065947532653809,-0.7141733169555664,-3.9703197479248047,-0.015161026269197464,0.070249505,0.022602014,-2.6417224,-173.20511000000002,-65.73262,LYI
16248593000000.0,2.797419548034668,-9.070785522460938,-0.7185430526733398,-3.9530177116394043,-0.016241226345300674,0.0693332,0.022296581,-2.646784,-173.23856999999998,-65.766914,LYI
16248598000000.0,2.802887439727783,-9.074444770812988,-0.721076488494873,-3.935608386993408,-0.017573129385709763,0.06841691,0.017715093,-2.654086,-173.26556000000002,-65.79985,LYI
16248604000000.0,2.8083279132843018,-9.07740306854248,-0.7219589352607727,-3.917358160018921,-0.019143320620059967,0.06658431,0.014660766,-2.663871,-173.29062,-65.83259,LYI
16248609000000.0,2.813746452331543,-9.080370903015137,-0.7215899229049683,-3.897765636444092,-0.020743772387504578,0.051923547,0.0076358155,-2.6717632,-173.31032,-65.862854,LYI
16248614000000.0,2.8191425800323486,-9.083694458007812,-0.7202139496803284,-3.876650810241699,-0.022291487082839012,0.01985312,0.00030543262000000003,-2.6811407000000003,-173.33006,-65.89820999999999,LYI
16248619000000.0,2.8245198726654053,-9.085098266601562,-0.7180580496788025,-3.857391595840454,-0.024228762835264206,-0.024740042,-0.0061086523,-2.6969092,-173.3439,-65.94492,LYI
16248625000000.0,2.8298885822296143,-9.083518028259277,-0.7152237296104431,-3.841538906097412,-0.02620929293334484,-0.076052725,-0.004886922,-2.7112164,-173.35797,-66.00149499999999,LYI
16248630000000.0,2.8352274894714355,-9.077588081359863,-0.711532473564148,-3.829871416091919,-0.02881675586104393,-0.10567969,0.0027488936,-2.7355007999999996,-173.36569,-66.07226,LYI
16248635000000.0,2.8405444622039795,-9.066668510437012,-0.7068845629692078,-3.822746992111206,-0.03218051418662071,-0.12217305,-0.004276057,-2.7629514,-173.37613000000002,-66.15323000000001,LYI
16248640000000.0,2.84584379196167,-9.053159713745117,-0.7017512917518616,-3.819385051727295,-0.03531617671251297,-0.14446963,0.002443461,-2.7790062,-173.37808,-66.227425,LYI
16248646000000.0,2.851128578186035,-9.039579391479492,-0.6966279149055481,-3.8189706802368164,-0.03848005831241608,-0.16523905,0.006414085,-2.8018982000000006,-173.3802,-66.3052,LYI
16248651000000.0,2.8563973903656006,-9.025938034057617,-0.6915158033370972,-3.821326971054077,-0.04082423448562622,-0.18600847,0.008552114,-2.8042011000000002,-173.37721000000002,-66.361435,LYI
16248656000000.0,2.8616507053375244,-9.012239456176758,-0.6864147186279297,-3.8263025283813477,-0.0425226055085659,-0.1881465,0.01038471,-2.8079376,-173.37271,-66.41686999999999,LYI
16248661000000.0,2.8669400215148926,-8.999700546264648,-0.679776132106781,-3.827805519104004,-0.043235212564468384,-0.21319197,0.014966198,-2.8063569999999998,-173.36919,-66.482704,LYI
16248667000000.0,2.8721659183502197,-8.988632202148438,-0.6716864705085754,-3.824615955352783,-0.043242473155260086,-0.25961772,0.02107485,-2.803284,-173.36548,-66.55354,LYI
16248672000000.0,2.877380609512329,-8.978898048400879,-0.6633314490318298,-3.819990396499634,-0.04294007644057274,-0.30573806,0.028405233999999998,-2.7797415,-173.36122,-66.60805,LYI
16248677000000.0,2.8825840950012207,-8.970194816589355,-0.6561903953552246,-3.817917585372925,-0.04200270026922226,-0.35338554,0.03176499,-2.7516303,-173.35855,-66.67429,LYI
16248682000000.0,2.887775421142578,-8.962465286254883,-0.6501936316490173,-3.8182461261749268,-0.041717540472745895,-0.36865717,0.026572637000000003,-2.7428630000000003,-173.34566,-66.763115,LYI
16248688000000.0,2.8929567337036133,-8.955659866333008,-0.6452847123146057,-3.820862054824829,-0.040812764316797256,-0.37873647,0.02565634,-2.7247176,-173.33495,-66.86088000000001,LYI
16248693000000.0,2.8981268405914307,-8.950231552124023,-0.6426723599433899,-3.8291873931884766,-0.03969576582312584,-0.38362336,0.016187929,-2.7104702,-173.3259,-66.96069,LYI
16248698000000.0,2.903292655944824,-8.946619987487793,-0.6435081958770752,-3.846487045288086,-0.03806858882308006,-0.33261612,0.014660766,-2.691594,-173.31717,-67.045265,LYI
16248703000000.0,2.9084479808807373,-8.945292472839355,-0.6482493877410889,-3.870363473892212,-0.03602353110909462,-0.27550024,0.014966198,-2.6641376,-173.3172,-67.11473000000001,LYI
16248709000000.0,2.913595199584961,-8.946784973144531,-0.657485842704773,-3.898714780807495,-0.033534031361341476,-0.1908954,0.010690141499999998,-2.6350298,-173.32008000000002,-67.16169000000001,LYI
16248714000000.0,2.9187355041503906,-8.950586318969727,-0.669102668762207,-3.927610158920288,-0.03133997693657875,-0.11759156,-0.0021380284,-2.581816,-173.33818,-67.16826999999999,LYI
16248719000000.0,2.92386794090271,-8.956093788146973,-0.6805776357650757,-3.952340841293335,-0.029913943260908127,-0.053450707,-0.013744468000000001,-2.5294287,-173.35681,-67.1541,LYI
16248724000000.0,2.928995132446289,-8.962549209594727,-0.6910125613212585,-3.972409963607788,-0.029394051060080528,-0.018325957,-0.020158553,-2.4707043,-173.39438,-67.11671,LYI
16248730000000.0,2.9341142177581787,-8.968391418457031,-0.6984676122665405,-3.9865620136260986,-0.029308799654245377,0.01985312,-0.016798794,-2.4139082000000003,-173.43097,-67.06158,LYI
16248735000000.0,2.9392240047454834,-8.973451614379883,-0.7031742334365845,-3.9948391914367676,-0.028788603842258453,0.052534412999999995,-0.014355333500000001,-2.3669794,-173.47111999999998,-67.013565,LYI
16248740000000.0,2.9443299770355225,-8.977471351623535,-0.7053156495094299,-3.9970178604125977,-0.02811707928776741,0.05161811400000001,-0.014660766,-2.323634,-173.5088,-66.96491,LYI
16248745000000.0,2.94942569732666,-8.980234146118164,-0.7050119638442993,-3.9948177337646484,-0.027286013588309288,0.05497787,-0.0027488936,-2.27996,-173.53262,-66.9198,LYI
16248750000000.0,2.9545211791992188,-8.98133373260498,-0.702196478843689,-3.990206718444824,-0.02677595242857933,0.051923547,0.0076358155,-2.2382739,-173.55571,-66.87743,LYI
16248756000000.0,2.9596059322357178,-8.98066520690918,-0.698117733001709,-3.9840903282165527,-0.027269715443253517,0.063224554,0.014966198,-2.2105452999999997,-173.56697,-66.847015,LYI
16248761000000.0,2.964691400527954,-8.977764129638672,-0.6947602033615112,-3.9777960777282715,-0.028127821162343025,0.08704830000000001,0.018936822,-2.1807887999999997,-173.57676999999998,-66.81378000000001,LYI
16248766000000.0,2.9697725772857666,-8.973309516906738,-0.6922869682312012,-3.970202684402466,-0.029265742748975754,0.12492194,0.025961772999999997,-2.1605744,-173.57393000000002,-66.7777,LYI
16248771000000.0,2.974849224090576,-8.968610763549805,-0.69114750623703,-3.9586868286132812,-0.030522072687745094,0.10995574,0.02321288,-2.1423416,-173.57222,-66.75062,LYI
16248777000000.0,2.9799182415008545,-8.963807106018066,-0.6911434531211853,-3.9438421726226807,-0.03104407712817192,0.092240654,0.026572637000000003,-2.1181855,-173.56801000000002,-66.71202,LYI
16248782000000.0,2.984998941421509,-8.959529876708984,-0.6916807293891907,-3.9273533821105957,-0.03139176592230797,0.07269296,0.017715093,-2.0992450000000002,-173.56645,-66.67993,LYI
16248787000000.0,2.990060806274414,-8.955594062805176,-0.6927144527435303,-3.9100396633148193,-0.030858226120471954,0.055283304000000005,0.023518313,-2.0823026000000002,-173.56766000000002,-66.66838,LYI
16248792000000.0,2.995121717453003,-8.951355934143066,-0.6944608688354492,-3.894160509109497,-0.03066238947212696,0.03634648,0.021380282999999996,-2.0724165,-173.57112,-66.66411,LYI
16248798000000.0,3.000178813934326,-8.947163581848145,-0.6967905759811401,-3.879673480987549,-0.030460713431239128,0.015882496,0.01160644,-2.0628517,-173.57928,-66.67449,LYI
16248803000000.0,3.005232572555542,-8.944690704345703,-0.6992455124855042,-3.866706371307373,-0.029830295592546463,0.013133603,0.01160644,-2.052036,-173.58551,-66.68437,LYI
16248808000000.0,3.0102813243865967,-8.943878173828125,-0.7019044160842896,-3.8550000190734863,-0.03003106452524662,0.02107485,0.016493361,-2.0412524,-173.59184,-66.69523000000001,LYI
16248813000000.0,3.0153305530548096,-8.945023536682129,-0.7054850459098816,-3.843066930770874,-0.031035002321004868,0.004886922,0.010690141499999998,-2.0298130000000003,-173.60162,-66.71399,LYI
16248819000000.0,3.020411252975464,-8.948243141174316,-0.7100610733032227,-3.8308207988739014,-0.032017990946769714,-0.008552114,0.013439035,-2.018529,-173.61021000000002,-66.72849000000001,LYI
16248824000000.0,3.025453805923462,-8.9523286819458,-0.7114335894584656,-3.8232736587524414,-0.03296487033367157,-0.018020526000000002,0.0036651915999999997,-2.0133412,-173.62183000000002,-66.74748000000001,LYI
16248829000000.0,3.030491590499878,-8.957194328308105,-0.7082433700561523,-3.8221147060394287,-0.03299858793616295,-0.040011674,0.0009162978999999999,-2.0030057,-173.6324,-66.77241,LYI
16248834000000.0,3.0355303287506104,-8.963170051574707,-0.7050412893295288,-3.8254776000976562,-0.032542191445827484,-0.03390302,-0.004886922,-2.003485,-173.64966,-66.80105,LYI
16248840000000.0,3.0405678749084473,-8.970365524291992,-0.7040605545043945,-3.832249879837036,-0.03186595439910889,-0.02565634,-0.0061086523,-2.0008084999999998,-173.66731000000001,-66.83425,LYI
16248845000000.0,3.0456020832061768,-8.977173805236816,-0.7024579644203186,-3.8403260707855225,-0.03114437125623226,-0.026267206,-0.003970624,-1.982193,-173.66917,-66.84233,LYI
16248850000000.0,3.0506346225738525,-8.982869148254395,-0.6989402174949646,-3.848721981048584,-0.029989199712872505,-0.012217305,0.0018325957999999999,-1.9604384,-173.6717,-66.843735,LYI
16248855000000.0,3.0556724071502686,-8.987129211425781,-0.6946955323219299,-3.856437921524048,-0.029172305017709732,0.0036651915999999997,0.01282817,-1.9349835,-173.67897,-66.83536,LYI
16248861000000.0,3.0607011318206787,-8.989892959594727,-0.6904231905937195,-3.862980842590332,-0.02885471098124981,-0.0015271631,0.015577064,-1.9086914000000001,-173.68726,-66.82911999999999,LYI
16248866000000.0,3.0657265186309814,-8.991923332214355,-0.6867624521255493,-3.8668811321258545,-0.028293604031205177,-0.00030543262000000003,0.024740042,-1.8755573,-173.68393,-66.80945600000001,LYI
16248871000000.0,3.0708231925964355,-8.993545532226562,-0.6841976642608643,-3.8666698932647705,-0.027843786403536797,0.004276057,0.020158553,-1.8479282,-173.68208,-66.79143499999999,LYI
16248876000000.0,3.0758438110351562,-8.995443344116211,-0.682761013507843,-3.8638358116149902,-0.026978453621268272,0.015882496,0.021685716,-1.8162918000000001,-173.67604,-66.77048,LYI
16248882000000.0,3.080864429473877,-8.998061180114746,-0.6830439567565918,-3.8573191165924072,-0.02583368867635727,0.016493361,0.016187929,-1.7872326,-173.67293,-66.752495,LYI
16248887000000.0,3.0858850479125977,-9.0016450881958,-0.6843869090080261,-3.849128007888794,-0.024912705644965172,0.015271631,0.016798794,-1.7657694,-173.6707,-66.74406,LYI
16248892000000.0,3.0909409523010254,-9.0064697265625,-0.6865175366401672,-3.8402278423309326,-0.02438262850046158,0.009162978,0.023518313,-1.7438049999999998,-173.66869,-66.736824,LYI
16248897000000.0,3.0959548950195312,-9.011191368103027,-0.6891817450523376,-3.8310930728912354,-0.024141239002346992,0.010079277,0.021685716,-1.7389047,-173.67442,-66.74404,LYI
16248903000000.0,3.100968599319458,-9.015408515930176,-0.6924645900726318,-3.8216845989227295,-0.023570889607071877,0.004581489,0.013744468000000001,-1.7327549999999998,-173.6805,-66.75447,LYI
16248908000000.0,3.1059796810150146,-9.019149780273438,-0.6963261365890503,-3.812023878097534,-0.023128598928451538,0.014660766,0.012217305,-1.733502,-173.68688999999998,-66.76633000000001,LYI
16248913000000.0,3.1109912395477295,-9.02243709564209,-0.7007437348365784,-3.8021161556243896,-0.023295864462852478,0.014660766,0.0036651915999999997,-1.7366931,-173.69681,-66.78334,LYI
16248918000000.0,3.115999937057495,-9.024459838867188,-0.7059507966041565,-3.7925527095794678,-0.023210054263472557,0.014049901000000002,0.004276057,-1.7350221999999997,-173.70819,-66.797386,LYI
16248923000000.0,3.1210110187530518,-9.024619102478027,-0.712134599685669,-3.783749580383301,-0.022998599335551262,0.015271631,-0.0015271631,-1.7384677,-173.72191999999998,-66.81187,LYI
16248929000000.0,3.126018762588501,-9.0236177444458,-0.718205451965332,-3.776865243911743,-0.022717026993632317,0.008246681,0.0012217305,-1.7419852999999998,-173.73859,-66.83409,LYI
16248934000000.0,3.1310267448425293,-9.022046089172363,-0.7232041358947754,-3.772968292236328,-0.022759729996323586,0.012217305,0.006414085,-1.7471666000000001,-173.75522,-66.85283000000001,LYI
16248938000000.0,3.1360361576080322,-9.019930839538574,-0.7271836996078491,-3.771913528442383,-0.022783879190683365,0.020463986,0.004581489,-1.7485955000000002,-173.77788,-66.869675,LYI
16248943000000.0,3.141047239303589,-9.017300605773926,-0.730197548866272,-3.773552656173706,-0.02324623055756092,0.03634648,0.008246681,-1.7526667,-173.79565,-66.88212,LYI
16248949000000.0,3.1460540294647217,-9.014663696289062,-0.7328329682350159,-3.7764947414398193,-0.023830438032746315,0.052534412999999995,0.008246681,-1.7558056,-173.81506000000002,-66.89233,LYI
16248954000000.0,3.151059865951538,-9.01267147064209,-0.7358322143554688,-3.7790279388427734,-0.02389519102871418,0.070249505,0.014660766,-1.7568244,-173.83178999999998,-66.89674000000001,LYI
16248958000000.0,3.156064987182617,-9.011194229125977,-0.7385720610618591,-3.78045916557312,-0.02480291575193405,0.08368854,0.018020526000000002,-1.751032,-173.84027,-66.87476,LYI
16248963000000.0,3.1610989570617676,-9.01008415222168,-0.7400118708610535,-3.779505968093872,-0.0255808774381876,0.08246681,0.013439035,-1.7384331999999998,-173.85183999999998,-66.85247,LYI
16248969000000.0,3.1661007404327393,-9.009854316711426,-0.7404938340187073,-3.7775418758392334,-0.026252269744873047,0.089186326,0.011301007,-1.7306749,-173.86192,-66.82655,LYI
16248974000000.0,3.17110538482666,-9.011311531066895,-0.7399930953979492,-3.7754433155059814,-0.026448393240571022,0.08979719,0.0018325957999999999,-1.7219476000000002,-173.87585,-66.803986,LYI
16248978000000.0,3.176105499267578,-9.014320373535156,-0.7385879755020142,-3.773223876953125,-0.026829393580555916,0.08704830000000001,0.0027488936,-1.7201796999999999,-173.88237,-66.78730999999999,LYI
16248983000000.0,3.1811089515686035,-9.018843650817871,-0.7363004088401794,-3.770883321762085,-0.026848265901207924,0.06963864,0.0033597588,-1.7146008000000001,-173.89328,-66.77558,LYI
16248988000000.0,3.1861166954040527,-9.024797439575195,-0.7329891920089722,-3.768115520477295,-0.026687080040574074,0.05009095,0.0033597588,-1.7157765651557202,-173.89676882761398,-66.7712744237255,LYI
16248994000000.0,3.1911239624023438,-9.031994819641113,-0.7275120615959167,-3.762892723083496,-0.026892587542533875,0.0421497,-0.004886922,-1.7169328999999998,-173.9002,-66.76704000000001,LYI
16248998000000.0,3.1961252689361572,-9.039986610412598,-0.7202666401863098,-3.755319833755493,-0.027412688359618187,0.008552114,-0.004581489,-1.717239,-173.90503,-66.76453000000001,LYI
16249003000000.0,3.20112681388855,-9.046768188476562,-0.712622880935669,-3.7450122833251953,-0.02795390412211418,-0.03848451,0.0030543262,-1.7217861,-173.90302,-66.77911999999999,LYI
16249008000000.0,3.2061285972595215,-9.05241870880127,-0.7050839066505432,-3.7331576347351074,-0.029361531138420105,-0.070249505,0.0033597588,-1.7403939,-173.89188000000001,-66.808815,LYI
16249014000000.0,3.2111308574676514,-9.057059288024902,-0.6996005773544312,-3.7240610122680664,-0.03105224296450615,-0.09193522,-0.0018325957999999999,-1.7563249,-173.88165,-66.847946,LYI
16249019000000.0,3.21614408493042,-9.060625076293945,-0.6960848569869995,-3.7180368900299072,-0.03247380256652832,-0.116675265,0.00061086525,-1.7794231,-173.86498999999998,-66.90448,LYI
