timestamp,rel_time,acc_x,acc_y,acc_z,gyro_x,gyro_y,gyro_z,azimuth,pitch,roll,label
0.0,0.0,0.0,0.0,0.0,0.0,0.7495316,0.030848695,62.369778,-12.357115,29.508362,STD
8.709497123504661e-09,3.25150321331281e-23,-3.3497279903748664e-20,5.37413233991564e-20,5.655989206102326e-21,-7.458147169494363e-21,0.7489208,0.032375857,62.431953,-12.63126,29.08820200000001,STD
4.300195541873109e-06,2.452168040184214e-20,-1.6539200069673196e-17,2.6534395642427078e-17,2.7848811691963134e-18,-3.702164704718364e-18,0.7724390999999999,0.031154128,62.506863,-12.922195,28.623247,STD
0.00022922556672710925,1.6374574790958045e-18,-8.8165049559431395e-16,1.4144523776860756e-15,1.4815065498153802e-16,-1.9819018513176988e-16,0.7840455,0.038789943,62.58129,-13.220664,28.15520900000001,STD
0.004653648938983679,3.922955671102957e-17,-1.789919022731918e-14,2.871591446617153e-14,3.0022629652801894e-15,-4.044656438522169e-15,0.7678576,0.03970624,62.659935,-13.521598999999998,27.680676,STD
0.053549978882074356,5.165258263729151e-16,-2.059705081188315e-13,3.3043939763263697e-13,3.448822038501151e-14,-4.673417889114982e-14,0.74281216,0.03390302,62.738953,-13.837291,27.198587,STD
0.4200752377510071,4.544884451017405e-15,-1.615766765175608e-12,2.5921675830126167e-12,2.7009690599551217e-13,-3.675204400793025e-13,0.81153446,0.064751714,62.800125,-14.152932,26.691454,STD
2.490957021713257,2.97980905358472e-14,-9.581277611581118e-12,1.5371122777385615e-11,1.599031996223077e-12,-2.184242370306677e-12,0.77121735,0.06261369,62.885567,-14.453438,26.21169,STD
11.911147117614746,1.5582202412059432e-13,-4.5815913563007626e-11,7.350149655582783e-11,7.634074795925816e-12,-1.0470489059111188e-11,0.75625116,0.06047566,62.952866,-14.791405,25.702337,STD
47.97578430175781,6.803806107923138e-13,-1.8453991112998835e-10,2.9605193296866616e-10,3.0700678110839874e-11,-4.228686151241945e-11,0.7470882,0.07147124,63.019676,-15.107952,25.19744,STD
167.8983154296875,2.5628444678960083e-12,-6.458324985914032e-10,1.0360847735313428e-09,1.0727654875530845e-10,-1.483996397988463e-10,0.7324274000000001,0.08216137400000001,63.088566,-15.435282999999998,24.692236,STD
522.4168701171875,8.531945115686224e-12,-2.009537203306877e-09,3.2238087754876688e-09,3.332855935678225e-10,-4.630155703289063e-10,0.7122689,0.099265605,63.15281,-15.762135,24.186996,STD
1470.90673828125,2.5572472958645953e-11,-5.6580824470131574e-09,9.076957852016676e-09,9.369853781748816e-10,-1.3071429494360132e-09,0.6908886,0.112704635,63.215485,-16.094591,23.681395,STD
3799.820556640625,7.001855345523111e-11,-1.4616801990996464e-08,2.3448837538353473e-08,2.416939981486621e-09,-3.3854725689508314e-09,0.6301074999999999,0.108123146,63.28304,-16.434895,23.18681,STD
9107.080078125,1.7718970735103312e-10,-3.503269496718531e-08,5.620053400434699e-08,5.784202450342946e-09,-8.133951290290042e-09,0.56016344,0.11575896,63.34475,-16.785631,22.697884,STD
20435.271484375,4.184000368390173e-10,-7.861037687462158e-08,1.2610858846073825e-07,1.2960218676028035e-08,-1.8293444981054563e-08,0.49754974,0.1133155,63.41482,-17.158216,22.217337,STD
43255.6484375,9.292053237963671e-10,-1.6639768318782444e-07,2.669377749953128e-07,2.7393539880904427e-08,-3.880108678799843e-08,0.4392121,0.11178834,63.48770500000001,-17.556901999999994,21.750565,STD
86920.21875,1.953845973901025e-09,-3.3437223123655713e-07,5.364026947063394e-07,5.4967390639149016e-08,-7.810162117038999e-08,0.4016439000000001,0.10842858,63.564835,-17.984322,21.28987,STD
166707.8125,3.9118872585675035e-09,-6.413133064597787e-07,1.0287952818544e-06,1.0527483595978993e-07,-1.4998298070167948e-07,0.34147367,0.105374254,63.649426,-18.453415,20.846004,STD
306590.09375,7.493943243730428e-09,-1.1794437568823923e-06,1.8920560478363768e-06,1.9333752732109133e-07,-2.760311588190234e-07,0.09254608,0.04520403,63.77414,-18.96958,20.451982,STD
542833.6875,1.3793969522168936e-08,-2.088289420498768e-06,3.3500054996693507e-06,3.418370511099056e-07,-4.887734235126118e-07,0.025961773,0.034513887,63.871662,-19.609037,20.024445,STD
928535.375,2.4485885319336376e-08,-3.572128889572923e-06,5.730334578402108e-06,5.839152095177269e-07,-8.355406748705718e-07,0.050396383,0.03726278,63.99883000000001,-20.189375,19.628939000000006,STD
1539159.375,4.205210402119519e-08,-5.921298907196615e-06,9.4987817647052e-06,9.66581183092785e-07,-1.383032213198021e-06,0.039095376,0.04917465,64.13743000000001,-20.861635,19.254263,STD
2479110.75,7.007098190570105e-08,-9.537488040223252e-06,1.5299703591153957e-05,1.5547417433481314e-06,-2.2225187876756536e-06,0.018325957,0.047036625,64.27698000000001,-21.570883,18.868118,STD
3889343.0,1.1356927842598452e-07,-1.496300956205232e-05,2.400302946625743e-05,2.4358473638130818e-06,-3.4755730666802265e-06,0.008246681,0.056505036,64.409164,-22.272156,18.478834,STD
5955953.5,1.794442852087741e-07,-2.291387863806449e-05,3.675731932162307e-05,3.725120450326358e-06,-5.300174052536022e-06,-0.00030543262000000003,0.05772676700000001,64.54544,-22.964132,18.087788,STD
8919688.0,2.769589571016695e-07,-3.4316384699195623e-05,5.504842192749493e-05,5.571309884544462e-06,-7.89700607128907e-06,-0.014049901000000002,0.06566802,64.67789,-23.65858,17.697203,STD
13086237.0,4.183114015177125e-07,-5.034671994508244e-05,8.076304220594466e-05,8.162895937857684e-06,-1.1515754522406496e-05,-0.019242255,0.06352998,64.81128000000001,-24.353752,17.300392000000002,STD
18837176.0,6.192782961988996e-07,-7.247307803481817e-05,0.00011625626211753115,1.1734647159755696e-05,-1.6461184713989496e-05,-0.032070424,0.06627888,64.942276,-25.045713,16.905762,STD
26641386.0,8.999306260193407e-07,-0.00010249960905639455,0.00016442201740574092,1.6574427718296647e-05,-2.3098809833754785e-05,-0.03604105,0.06261369,65.073204,-25.738543,16.504452,STD
37066756.0,1.2854173974119476e-06,-0.0001426114613423124,0.00022876542061567307,2.303012297488749e-05,-3.185995956300758e-05,-0.034208454,0.06658431,65.200264,-26.425726,16.101889,STD
50791992.0,1.8068122926706565e-06,-0.00019542024529073387,0.0003134755534119904,3.151658165734261e-05,-4.324606925365515e-05,-0.029626964,0.06383542,65.32794,-27.115547,15.694143,STD
68618320.0,2.5020167413458694e-06,-0.00026400902424938977,0.00042349775321781635,4.2522431613178924e-05,-5.783208325738087e-05,-0.031154128,0.061391957,65.45265,-27.796846,15.284208,STD
91480872.0,3.4167117064498598e-06,-0.000351976283127442,0.0005646039498969913,5.6616656365804374e-05,-7.626881415490061e-05,-0.02076942,0.051923547,65.57484000000001,-28.481962,14.865237,STD
120459624.0,4.605348749464611e-06,-0.0004634778597392142,0.0007434601429849863,7.445483061019331e-05,-9.928426152328029e-05,-0.022602014,0.048258353,65.695305,-29.155054,14.4469185,STD
156789632.0,6.132172984507633e-06,-0.0006032664678059518,0.0009676896152086556,9.678486821940169e-05,-0.00012768372835125774,-0.024129177,0.050701816,65.812035,-29.827518,14.02255,STD
201870464.0,8.07226388133131e-06,-0.0007767279748804867,0.0012459312565624714,0.00012445225729607046,-0.00016234887880273163,-0.021685716,0.043066,65.92872,-30.49335300000001,13.592998,STD
257274672.0,1.051259368978208e-05,-0.0009899141732603312,0.0015878917183727026,0.0001584045821800828,-0.00020423562091309577,-0.024740042,0.03756821,66.04201,-31.156984,13.163470000000002,STD
324755168.0,1.3553075405070558e-05,-0.0012495708651840687,0.002004391048103571,0.00019969545246567577,-0.000254370883340016,-0.028405234,0.033292156,66.15319000000001,-31.81009,12.730461,STD
406251360.0,1.7307613234152086e-05,-0.0015631618443876505,0.002507400931790471,0.0002494875225238502,-0.00031384846079163253,-0.040927973,0.028099801,66.26434,-32.462166,12.29751,STD
503894144.0,2.1905127141508274e-05,-0.001938887988217175,0.003110074670985341,0.0003090547688771039,-0.0003838238480966538,-0.04428773,0.025350908,66.37146,-33.104496000000005,11.861401,STD
620009408.0,2.749055238382425e-05,-0.0023857008200138807,0.003826769534498453,0.0003797839453909546,-0.0004655081720557064,-0.06627888,0.017715093,66.48252,-33.747486,11.42973,STD
757120128.0,3.422579902689904e-05,-0.0029133104253560305,0.004673060029745102,0.0004631750925909728,-0.0005601615412160754,-0.07513642,0.019547688,66.592285,-34.401154,10.993308,STD
917947328.0,4.229066689731553e-05,-0.003532189643010497,0.005665742792189121,0.000560841232072562,-0.0006690856534987688,-0.07147124,0.018936822,66.70223,-35.049168,10.556134,STD
1105409152.0,5.188371505937539e-05,-0.0042535699903965,0.006822831928730011,0.0006745070568285882,-0.0007936158799566329,-0.08552113,0.021685716,66.81164,-35.693962,10.124874,STD
1322619008.0,6.32230585324578e-05,-0.0050894347950816154,0.00816354714334011,0.000806006952188909,-0.0009351128828711808,-0.099571034,0.018325957,66.91816999999999,-36.3335,9.690735,STD
1572881920.0,7.654711225768551e-05,-0.006052505224943161,0.009708291850984097,0.000957281852606684,-0.0010949540883302689,-0.10048734,0.019547688,67.01929,-36.966206,9.257409,STD
1859689856.0,9.211524593411013e-05,-0.007156222593039274,0.011478623375296593,0.0011303755454719067,-0.0012745247222483158,-0.1001819,0.023518313,67.11896999999999,-37.594406,8.826455000000003,STD
2186715392.0,0.0001102083915611729,-0.008414722979068756,0.013497213833034039,0.0013274301309138536,-0.0014752090210095048,-0.1020145,0.022602014,67.21618000000001,-38.216755,8.395311999999999,STD
2557804544.0,0.0001311295200139284,-0.009842809289693832,0.01578780636191368,0.0015506803756579757,-0.0016983812674880028,-0.1001819,0.022602014,67.30771999999999,-38.832333,7.9641523,STD
2976967680.0,0.00015520410670433193,-0.011455918662250042,0.018375160172581673,0.0018024479504674673,-0.001945396768860519,-0.08979719,0.02443461,67.39393000000001,-39.44084,7.531931399999999,STD
3448370176.0,0.0001827804371714592,-0.01327008381485939,0.02128499187529087,0.0020851341541856527,-0.0022175833582878113,-0.08032878,0.022296581,67.47697,-40.04294,7.0992966,STD
3976321280.0,0.0002142298617400229,-0.015301892533898354,0.02454390935599804,0.00240121316164732,-0.0025162328965961933,-0.07086037,0.01985312,67.55384000000001,-40.63872,6.665422,STD
4565262848.0,0.0002499469555914402,-0.017568441107869148,0.028179334476590157,0.0027532230596989393,-0.0028425927739590406,-0.07819075,0.019547688,67.62821,-41.224277,6.2341332000000005,STD
5219756544.0,0.0002903495915234089,-0.020087284967303276,0.03221943601965904,0.00314375851303339,-0.003197858575731516,-0.07299839999999999,0.028405234,67.693085,-41.80454,5.80066,STD
5944470016.0,0.0003358788962941617,-0.02287638932466507,0.0366930328309536,0.0035754607524722815,-0.0035831662826240063,-0.07238753,0.027183503,67.75863000000001,-42.377453,5.369195,STD
6744163328.0,0.0003869991924148053,-0.025954073294997215,0.04162951931357384,0.004051008727401495,-0.003999585751444101,-0.073303826,0.020158553,67.819,-42.94261,4.9391440000000015,STD
7623673856.0,0.000444197648903355,-0.029338952153921127,0.04705876484513283,0.0045731086283922195,-0.00444811349734664,-0.06658431,0.023823744,67.871994,-43.497776,4.511061,STD
8587901440.0,0.0005079841939732432,-0.03304987773299217,0.053011033684015274,0.005144485272467136,-0.004929667804390192,-0.07452556,0.027183503,67.92593000000001,-44.051388,4.08678,STD
9641792512.0,0.00057889090385288,-0.03710588067770004,0.059516869485378265,0.00576787069439888,-0.005445082671940327,-0.07238753,0.02687807,67.972824,-44.593185,3.6612308,STD
10790325248.0,0.0006574717699550092,-0.04152610898017883,0.0666070207953453,0.006445994134992361,-0.005995102692395449,-0.073303826,0.03390302,68.01617399999999,-45.133392,3.2424212000000003,STD
12038491136.0,0.0007443020003847778,-0.046329762786626816,0.07431232184171677,0.007181570865213871,-0.006580378860235214,-0.077579886,0.038179077,68.0364756508811,-45.402600049559496,3.03205902301762,STD
13391281152.0,0.000839977350551635,-0.05153603106737137,0.08266360312700272,0.00797729380428791,-0.007201465778052807,-0.077579886,0.040927973,68.056335,-45.665943,2.8262799,STD
14853668864.0,0.0009451136575080454,-0.0571640282869339,0.09169159084558487,0.00883581954985857,-0.007858817465603352,-0.074830994,0.044898596,68.09103,-46.19198,2.4123428,STD
16430593024.0,0.0010603457922115922,-0.06323274224996567,0.10142680257558823,0.009759761393070221,-0.008552785962820053,-0.06505715,0.05100725,68.119934,-46.716858,2.0025084,STD
18126944256.0,0.0011863269610330462,-0.06976094841957092,0.11189944297075272,0.010751677677035332,-0.00928361713886261,-0.056505036,0.05100725,68.14565,-47.229843,1.5948178,STD
19947544576.0,0.0013237276580184698,-0.07676717638969421,0.12313933670520782,0.011814060620963573,-0.010051451623439789,-0.05009095,0.05161811400000002,68.16521999999999,-47.73768,1.1900598999999998,STD
21897138176.0,0.0014732350828126073,-0.08426962792873383,0.13517579436302185,0.012949327006936073,-0.010856322012841702,-0.041233405,0.054367006,68.178894,-48.23908,0.7868196999999999,STD
23980369920.0,0.0016355518018826842,-0.0922861322760582,0.14803753793239594,0.014159809798002243,-0.011698153801262379,-0.043066,0.046731193,68.192215,-48.727486,0.38560292,STD
26201776128.0,0.001811394584365189,-0.10083406418561935,0.1617525964975357,0.015447747893631458,-0.012576763518154621,-0.04184427,0.04734206,68.19785999999999,-49.20921,-0.012094557,STD
28565764096.0,0.002001493703573942,-0.10993032157421112,0.1763482540845871,0.016815276816487312,-0.013491861522197723,-0.04428773,0.041233405,68.20442,-49.679813,-0.40831378,STD
31076603904.0,0.002206591423600912,-0.11959125101566315,0.1918509155511856,0.018264418467879295,-0.014443050138652325,-0.03359759,0.043066,68.2033,-50.143425,-0.80167186,STD
33738412032.0,0.0024274408351629972,-0.12983259558677673,0.20828606188297272,0.019797077402472496,-0.015429828315973282,-0.023518313,0.040927973,68.20186600000001,-50.590595,-1.1929104,STD
36555141120.0,0.0026648049242794514,-0.14066946506500244,0.22567816078662872,0.02141503058373928,-0.01645158976316452,-0.020158553,0.0290161,68.19818000000001,-51.03727,-1.5828004999999998,STD
39530569728.0,0.0029194550588726997,-0.15211625397205353,0.24405059218406677,0.023119919002056122,-0.017507625743746758,-0.014660766,0.031154128,68.18688,-51.470276,-1.9682705000000005,STD
42668281856.0,0.003192169824615121,-0.16418662667274475,0.2634255588054657,0.02491324208676815,-0.018597131595015526,-0.0125227375,0.028710667,68.17585,-51.89032,-2.3533373,STD
45971664896.0,0.0034837338607758284,-0.17689348757266998,0.28382408618927,0.026796352118253708,-0.019719203934073448,-0.025961773,0.02107485,68.16503,-52.30685,-2.7332094,STD
49443901440.0,0.0037949366960674524,-0.19024889171123505,0.3052659034729004,0.0287704486399889,-0.020872846245765686,-0.022602014,0.022296581,68.14625,-52.7144,-3.1107411,STD
53087956992.0,0.004126570653170347,-0.2042640745639801,0.32776939868927,0.030836569145321846,-0.02205697074532509,-0.03268129,0.026572637000000003,68.13198,-53.107277,-3.4804117999999997,STD
56906567680.0,0.004479430615901947,-0.2189493626356125,0.3513515591621399,0.032995592802762985,-0.02327040396630764,-0.034513887,0.03023783,68.11258000000001,-53.496624,-3.8476655,STD
60902236160.0,0.004854312166571617,-0.2343141883611679,0.37602800130844116,0.035248227417469025,-0.02451189048588276,-0.0290161,0.021685716,68.09286,-53.87863,-4.2120123,STD
65077235712.0,0.005252010188996792,-0.25036704540252686,0.4018127918243408,0.03759501129388809,-0.025780094787478447,-0.04642576,0.022907447,68.07446,-54.244457,-4.5648365,STD
69433581568.0,0.005673317704349756,-0.26711544394493103,0.42871856689453125,0.04003630951046944,-0.027073608711361885,-0.032986723,0.019242255,68.06385,-54.66794,-4.896227,STD
73973055488.0,0.006119025405496359,-0.2845659554004669,0.4567564129829407,0.04257231205701828,-0.028390949591994286,-0.038789943,0.008857545999999999,68.06009,-55.07584,-5.21969,STD
78697168896.0,0.006589919328689575,-0.30272412300109863,0.48593583703041077,0.045203033834695816,-0.029730575159192085,-0.035124752999999995,0.013133603,68.046555,-55.474323,-5.5410204000000025,STD
83607191552.0,0.007086779922246933,-0.3215945065021515,0.516264796257019,0.047928303480148315,-0.031090877950191498,-0.035430185,0.0067195175,68.03625,-55.86284000000001,-5.8623915,STD
88704122880.0,0.007610381115227938,-0.3411806523799896,0.5477496385574341,0.05074777826666832,-0.03247019276022911,-0.05467244,0.007330383,68.025406,-56.24157,-6.1752853,STD
93988708352.0,0.00816148892045021,-0.3614850640296936,0.5803951025009155,0.053660932928323746,-0.03386680781841278,-0.03940081,0.00061086525,68.00610999999999,-56.61046999999999,-6.4933777,STD
99461423104.0,0.008740860968828201,-0.3825092017650604,0.6142043471336365,0.056667063385248184,-0.035278964787721634,-0.03970624,0.0015271631,67.991646,-56.969753,-6.800578,STD
105122496512.0,0.009349243715405464,-0.4042535722255707,0.6491789221763611,0.0597652941942215,-0.036704860627651215,-0.04428773,0.0033597588,67.97321,-57.32204399999999,-7.107340299999999,STD
110971887616.0,0.009987372905015945,-0.4267175793647766,0.6853187680244446,0.06295457482337952,-0.03814265504479408,-0.04062254,0.00580322,67.95047,-57.66384,-7.411332000000002,STD
117009293312.0,0.010655972175300121,-0.4498996436595917,0.7226222157478333,0.06623367965221405,-0.03959047794342041,-0.042760565999999986,0.005497787,67.92835,-57.99963,-7.7103899999999985,STD
123234156544.0,0.011355752125382423,-0.47379717230796814,0.7610859870910645,0.06960121542215347,-0.04104643315076828,-0.03573562,0.020158553,67.898476,-58.32838,-8.003424,STD
129645666304.0,0.012087409384548664,-0.4984065592288971,0.8007053136825562,0.07305563986301422,-0.04250860586762428,-0.025961773,0.027794369,67.86766,-58.65107,-8.294645,STD
136242757632.0,0.012851625680923462,-0.5237232446670532,0.8414738178253174,0.076595239341259,-0.04397505894303322,-0.01160644,0.032070424,67.83046,-58.966473,-8.58108,STD
143024128000.0,0.013649065978825092,-0.5497416853904724,0.8833836913108826,0.08021815121173859,-0.04544384405016899,-0.0030543262,0.04337143,67.78844000000001,-59.28159,-8.860732,STD
149988212736.0,0.014480379410088062,-0.5764553546905518,0.9264255166053772,0.0839223712682724,-0.04691300913691521,0.0076358155,0.044593163,67.74143000000001,-59.588207,-9.140395,BSC
157133209600.0,0.015346196480095387,-0.6038568615913391,0.9705884456634521,0.08770575374364853,-0.04838059842586517,0.020158553,0.04642576,67.68854499999999,-59.890427,-9.414765,BSC
164457103360.0,0.016247130930423737,-0.6319378018379211,1.0158601999282837,0.09156602621078491,-0.0498446524143219,0.02321288,0.04428773,67.634224,-60.183792,-9.686198,BSC
171957649408.0,0.017183776944875717,-0.6606889963150024,1.0622272491455078,0.09550078958272934,-0.05130322277545929,0.03756821,0.040927973,67.57229,-60.472298,-9.956893,BSC
179632357376.0,0.018156709149479866,-0.6901003122329712,1.1096744537353516,0.09950754046440125,-0.052754372358322144,0.04917465,0.050396383,67.50745,-60.75277,-10.221021,BSC
187478556672.0,0.019166480749845505,-0.7201607823371887,1.158185601234436,0.10358366370201111,-0.05419617146253586,0.07574729,0.040011674,67.436806,-61.018154,-10.490985,BSC
195493347328.0,0.020213628187775612,-0.750858724117279,1.2077430486679077,0.10772645473480225,-0.05562671273946762,0.105068825,0.05131268,67.35698000000001,-61.28065,-10.75091,BSC
203673632768.0,0.021298661828041077,-0.7821816205978394,1.2583280801773071,0.11193312704563141,-0.05704410746693611,0.11636983,0.054367006,67.27619,-61.535248,-11.01262,BSC
212016136192.0,0.022422073408961296,-0.8141161799430847,1.3099206686019897,0.11620081961154938,-0.0584464892745018,0.112704635,0.04795292,67.19023,-61.775978,-11.271655,BSC
220517384192.0,0.023584332317113876,-0.8466483950614929,1.362499713897705,0.12052660435438156,-0.05983201786875725,0.10476339,0.05589417,67.099106,-62.01265,-11.523016,BSC
229173739520.0,0.024785885587334633,-0.879763662815094,1.4160430431365967,0.12490752339363098,-0.0611988864839077,0.10354166,0.058337633,67.00766999999999,-62.24101999999999,-11.773742,BSC
237981401088.0,0.02602715604007244,-0.9134466648101807,1.4705275297164917,0.12934055924415588,-0.06254531443119049,0.10415252,0.05100725,66.91709,-62.45242,-12.020184,BSC
246936403968.0,0.027308546006679535,-0.9476814866065979,1.5259289741516113,0.13382267951965332,-0.06386956572532654,0.09987647,0.05161811400000002,66.82593,-62.659863,-12.259246,BSC
256034619392.0,0.028630433604121208,-0.9824516773223877,1.58222234249115,0.13835082948207855,-0.06516992300748825,0.08216137400000001,0.04520403,66.7391,-62.851074,-12.496585,BSC
265271803904.0,0.029993174597620964,-1.0177401304244995,1.6393816471099854,0.14292196929454803,-0.06644471734762192,0.06719518,0.04337143,66.65125,-63.03404200000001,-12.728533,BSC
274643566592.0,0.03139709681272507,-1.0535293817520142,1.6973803043365479,0.14753305912017822,-0.06769232451915741,0.062002823,0.03573562,66.56624599999999,-63.204315,-12.958932,BSC
284145418240.0,0.03284251317381859,-1.0898014307022095,1.7561907768249512,0.15218107402324677,-0.06891115754842758,0.030848695,0.025961773,66.492,-63.366455,-13.181936,BSC
293772722176.0,0.03432970494031906,-1.126537799835205,1.8157850503921509,0.1568630337715149,-0.07009966671466827,0.009468411,0.022296581,66.41604,-63.52199,-13.402201000000002,BSC
303520743424.0,0.03585893288254738,-1.163719654083252,1.8761342763900757,0.16157600283622742,-0.07125634700059891,-0.022907447,0.018020526,66.35209,-63.66696500000001,-13.6168785,BSC
313384697856.0,0.03743043169379234,-1.2013278007507324,1.9372090101242065,0.16631710529327393,-0.07237974554300308,-0.043066,0.009773844,66.29094,-63.809002,-13.829065,BSC
323359637504.0,0.039044417440891266,-1.2393428087234497,1.9989795684814453,0.17108352482318878,-0.07346845418214798,-0.07299839999999999,0.008857545999999999,66.24038,-63.9406,-14.032435,BSC
333440614400.0,0.04070108383893967,-1.2777447700500488,2.061415672302246,0.1758725345134735,-0.07452111691236496,-0.099571034,0.011301007,66.194466,-64.06846999999999,-14.231992000000002,BSC
343622582272.0,0.04240059480071068,-1.3165137767791748,2.1244864463806152,0.1806814819574356,-0.07553641498088837,-0.11881329,0.015271631,66.154236,-64.1858,-14.425762,BSC
353900429312.0,0.04414309561252594,-1.3556294441223145,2.1881608963012695,0.18550783395767212,-0.07651308923959732,-0.1337795,0.01985312,66.11938,-64.29741,-14.613262,BSC
364269010944.0,0.045928705483675,-1.3950715065002441,2.2524075508117676,0.19034916162490845,-0.07744993269443512,-0.15974127,0.0076358155,66.093834,-64.3974,-14.79807,BSC
374723117056.0,0.047757524996995926,-1.434819221496582,2.317194938659668,0.19520314037799835,-0.07834578305482864,-0.16982053,0.008857545999999999,66.06574,-64.493546,-14.975292,BSC
385257537536.0,0.04962962865829468,-1.4748519659042358,2.382491111755371,0.20006760954856873,-0.07919953018426895,-0.18295415,0.008857545999999999,66.03364,-64.4912,-15.140768,BSC
395866996736.0,0.051545072346925735,-1.5151488780975342,2.4482643604278564,0.20494051277637482,-0.08001013100147247,-0.18692477,0.007330383,66.002426,-64.48554,-15.302776,BSC
406546219008.0,0.053503889590501785,-1.5556892156600952,2.5144824981689453,0.209819957613945,-0.08077658712863922,-0.18295415,0.009162978,65.97288499999999,-64.47953000000001,-15.459999,BSC
417289961472.0,0.055506087839603424,-1.596452236175537,2.581113338470459,0.21470420062541962,-0.08149795979261398,-0.18051068,0.017715093,65.9449,-64.47173000000001,-15.612015,BSC
428092915712.0,0.057551659643650055,-1.637416958808899,2.648124933242798,0.2195916622877121,-0.08217336237430573,-0.1826487,0.029932396,65.9171,-64.46454,-15.759315,BSC
438949806080.0,0.05964057520031929,-1.6785627603530884,2.7154853343963623,0.22448091208934784,-0.08280197530984879,-0.17348573,0.028405234,65.88653000000001,-64.45295,-15.906306,BSC
449855389696.0,0.06177277863025665,-1.719868779182434,2.7831625938415527,0.22937068343162537,-0.08338302373886108,-0.17348573,0.03145956,65.85791,-64.44323,-16.044736999999998,BSC
460804390912.0,0.06394820660352707,-1.7613145112991333,2.8511247634887695,0.23425990343093872,-0.08391580730676651,-0.17318029999999998,0.03940081,65.8268,-64.42775,-16.180304,BSC
471791632384.0,0.06616675853729248,-1.8028795719146729,2.919340133666992,0.23914767801761627,-0.08439967781305313,-0.18295415,0.04337143,65.7991,-64.407524,-16.312326000000002,BSC
482811936768.0,0.06842833757400513,-1.84454345703125,2.9877774715423584,0.24403327703475952,-0.08483405411243439,-0.1863139,0.048563786,65.76908,-64.38164,-16.439833,BSC
493860159488.0,0.07073280960321426,-1.8862861394882202,3.056405544281006,0.2489161491394043,-0.0852184146642685,-0.16920967,0.05467244,65.73602,-64.35529,-16.564445000000006,BSC
504931188736.0,0.07308002561330795,-1.9280877113342285,3.1251935958862305,0.25379592180252075,-0.08555230498313904,-0.14691310000000002,0.057421334,65.70268,-64.31639,-16.686204999999998,BSC
516020011008.0,0.07546982914209366,-1.9699283838272095,3.1941111087799072,0.25867241621017456,-0.08583533018827438,-0.11636983,0.06169739,65.66186,-64.27538,-16.805889999999998,BSC
527121645568.0,0.07790203392505646,-2.0117886066436768,3.2631278038024902,0.2635456323623657,-0.08606716245412827,-0.087659165,0.06078109,65.61594000000001,-64.22941999999999,-16.925747,BSC
538231144448.0,0.08037644624710083,-2.053649425506592,3.3322136402130127,0.26841574907302856,-0.08624754101037979,-0.06383542,0.06414085,65.562386,-64.18333,-17.043335,BSC
549343657984.0,0.08289285004138947,-2.095491886138916,3.401339530944824,0.27328309416770935,-0.08637627214193344,-0.049785517,0.062002823,65.50459000000001,-64.12804,-17.162027,BSC
560454434816.0,0.08545101433992386,-2.1372971534729004,3.4704766273498535,0.27814817428588867,-0.08645323663949966,-0.058337633,0.06658431,65.44592,-64.08038,-17.275684,BSC
571558723584.0,0.08805070072412491,-2.179047107696533,3.5395960807800293,0.28301167488098145,-0.08647838234901428,-0.08735373,0.064446285,65.39045,-64.02382,-17.38871,BSC
582651936768.0,0.09069164842367172,-2.220723867416382,3.608670234680176,0.2878744304180145,-0.08645172417163849,-0.12583824,0.0711658,65.33919499999999,-63.97259,-17.494072,BSC
593729552384.0,0.09337358921766281,-2.2623097896575928,3.677671432495117,0.2927374243736267,-0.08637335896492004,-0.15210545,0.07299839999999999,65.293816,-63.92054,-17.597507,BSC
604787113984.0,0.0960962325334549,-2.3037877082824707,3.746572971343994,0.29760175943374634,-0.08624345064163208,-0.15424347,0.07544186,65.25213000000001,-63.870472,-17.69554,BSC
615820230656.0,0.0988592803478241,-2.3451406955718994,3.8153481483459473,0.3024686872959137,-0.0860622450709343,-0.16432275,0.08155051,65.21989,-63.820835,-17.786854,BSC
626824642560.0,0.10166242718696594,-2.386352300643921,3.8839712142944336,0.307339608669281,-0.08583006262779236,-0.1695151,0.07819075,65.18786999999999,-63.76773000000001,-17.878439999999994,BSC
637796220928.0,0.10450534522533417,-2.4274063110351562,3.9524171352386475,0.31221604347229004,-0.0855472981929779,-0.17531833,0.0842994,65.1576,-63.72220600000001,-17.963022,BSC
648730902528.0,0.10738769918680191,-2.468287467956543,4.020661354064941,0.31709954142570496,-0.08521442860364914,-0.17989981,0.093767814,65.1287,-63.672142,-18.045458,BSC
659624689664.0,0.11030914634466171,-2.5089802742004395,4.088679313659668,0.32199183106422424,-0.08483201265335083,-0.17837265,0.090713486,65.1006,-63.622772,-18.12797,BSC
670473715712.0,0.11326933652162552,-2.5494699478149414,4.156447887420654,0.3268946707248688,-0.08440069109201431,-0.16096300000000002,0.09101892,65.068214,-63.573704000000006,-18.206505,BSC
681274245120.0,0.11626789718866348,-2.589742422103882,4.223944187164307,0.3318099081516266,-0.08392118662595749,-0.15424347,0.09254608,65.03884000000001,-63.523445,-18.283094,BSC
692022607872.0,0.11930445581674576,-2.6297833919525146,4.291146278381348,0.3367394804954529,-0.08339431136846542,-0.14691310000000002,0.08277224,65.00567,-63.471157,-18.362793,BSC
702715330560.0,0.1223786324262619,-2.6695797443389893,4.358032703399658,0.34168529510498047,-0.08282095193862915,-0.13775012,0.09162979,64.96825,-63.421913,-18.436329,BSC
713348939776.0,0.12549003958702087,-2.709118366241455,4.424582481384277,0.3466493487358093,-0.08220208436250687,-0.1282817,0.08277224,64.93166,-63.36841999999999,-18.516443,BSC
723920158720.0,0.12863826751708984,-2.7483866214752197,4.490775108337402,0.35163363814353943,-0.08153876662254333,-0.13194689,0.08796459400000001,64.89409,-63.314663,-18.588472,BSC
734425710592.0,0.13182292878627777,-2.787372589111328,4.556591510772705,0.35664018988609314,-0.08083215355873108,-0.12705997,0.08582657,64.85325,-63.263493,-18.665049,BSC
744862580736.0,0.13504360616207123,-2.826064348220825,4.622012138366699,0.36167100071907043,-0.08008347451686859,-0.1142318,0.090713486,64.81019,-63.20956999999999,-18.737263,BSC
755227820032.0,0.1382998675107956,-2.8644509315490723,4.687019348144531,0.3667280375957489,-0.07929404079914093,-0.10598512,0.08827003,64.76819,-63.162086,-18.810593,BSC
765518479360.0,0.14159129559993744,-2.9025216102600098,4.7515950202941895,0.37181326746940613,-0.07846526056528091,-0.08246681,0.08002335,64.7185,-63.10911,-18.885412,BSC
775731871744.0,0.14491747319698334,-2.9402661323547363,4.815722465515137,0.3769285976886749,-0.07759860903024673,-0.07360926,0.06994407,64.67130999999999,-63.0618,-18.959354,BSC
785865375744.0,0.14827795326709747,-2.977674722671509,4.879385471343994,0.3820759057998657,-0.07669565826654434,-0.064751714,0.0711658,64.61735999999999,-63.0165,-19.03322,BSC
795916435456.0,0.15167230367660522,-3.014738082885742,4.942568302154541,0.3872569501399994,-0.07575805485248566,-0.06627888,0.058643065,64.56653,-62.96925400000001,-19.111855,BSC
805882691584.0,0.15510007739067078,-3.0514473915100098,5.005255699157715,0.3924734592437744,-0.07478751987218857,-0.07422013,0.064751714,64.51328000000001,-62.92440799999999,-19.183851,BSC
815761850368.0,0.1585608273744583,-3.087794065475464,5.0674333572387695,0.3977270722389221,-0.07378586381673813,-0.100792766,0.063224554,64.45682,-62.90091999999999,-19.278502,BSC
825551683584.0,0.16205410659313202,-3.123770236968994,5.129087448120117,0.4030192792415619,-0.07275495678186417,-0.119729586,0.06566802,64.399445,-62.878296,-19.368824,BSC
835250159616.0,0.16557946801185608,-3.1593685150146484,5.190205097198486,0.40835151076316833,-0.07169675081968307,-0.12614368,0.06627888,64.33758,-62.839985,-19.45613,BSC
844855312384.0,0.16913644969463348,-3.1945817470550537,5.2507734298706055,0.4137250483036041,-0.07061325758695602,-0.13713925,0.07147124,64.28189,-62.804146,-19.53776,BSC
854365306880.0,0.17272460460662842,-3.229403257369995,5.3107805252075195,0.41914108395576477,-0.06950656324625015,-0.15027285,0.08246681,64.21206,-62.760597,-19.624899,BSC
863778373632.0,0.17634347081184387,-3.263826847076416,5.370214939117432,0.42460063099861145,-0.06837881356477737,-0.1563815,0.08063421400000001,64.14444,-62.714443,-19.71195,BSC
873092874240.0,0.17999258637428284,-3.297846555709839,5.429066181182861,0.4301045835018158,-0.06723221391439438,-0.17806722,0.087659165,64.0605,-62.66319,-19.805298,BSC
882307301376.0,0.1836715042591095,-3.3314571380615234,5.487323760986328,0.4356536567211151,-0.06606902182102203,-0.18417588,0.084910266,63.97554399999999,-62.61354,-19.900532,BSC
891420213248.0,0.18737974762916565,-3.3646538257598877,5.544978141784668,0.44124847650527954,-0.06489154696464539,-0.19120082,0.08246681,63.8612,-62.5452,-20.009901,BSC
900430299136.0,0.19111686944961548,-3.3974318504333496,5.602020263671875,0.4468894302845001,-0.06370214372873306,-0.19792034,0.08063421400000001,63.75026,-62.48328000000001,-20.11627,BSC
909336313856.0,0.19488240778446198,-3.4297871589660645,5.65844202041626,0.45257681608200073,-0.06250320374965668,-0.1957823,0.08582657,63.639824,-62.41917,-20.218637,BSC
918137143296.0,0.19867590069770813,-3.4617159366607666,5.714234828948975,0.45831072330474854,-0.06129716336727142,-0.17531833,0.087659165,63.47936600000001,-62.32806,-20.357029,BSC
926831738880.0,0.20249690115451813,-3.4932146072387695,5.769392013549805,0.46409106254577637,-0.060086481273174286,-0.172264,0.08063421400000001,63.32719399999999,-62.23512,-20.490274,BSC
935419183104.0,0.20634494721889496,-3.524280548095703,5.823905944824219,0.4699175953865051,-0.058873649686574936,-0.17684549,0.08124508,63.09130500000001,-62.099106000000006,-20.681461,BSC
943898689536.0,0.2102195769548416,-3.554910898208618,5.877770900726318,0.4757899343967438,-0.05766117945313454,-0.18509217,0.08521569999999999,62.86405600000001,-61.96719,-20.864832,BSC
952269406208.0,0.21412034332752228,-3.5851035118103027,5.930980205535889,0.48170745372772217,-0.056451596319675446,-0.1957823,0.08277224,62.5084,-61.743866,-21.15192,BSC
960530743296.0,0.21804678440093994,-3.614856481552124,5.983529090881348,0.4876694083213806,-0.055247437208890915,-0.20219639,0.08307768,62.17389300000001,-61.538395,-21.418547,BSC
968682110976.0,0.2219984531402588,-3.6441681385040283,6.035412788391113,0.4936748743057251,-0.054051242768764496,-0.19547687,0.07360926,61.654713,-61.19382,-21.868876,BSC
976723050496.0,0.225974902510643,-3.67303729057312,6.0866265296936035,0.49972274899482727,-0.05286555364727974,-0.19242255,0.06872234,61.18533299999999,-60.885933,-22.276325,BSC
984653103104.0,0.22997570037841797,-3.701463222503662,6.137166500091553,0.5058117508888245,-0.0516929067671299,-0.19547687,0.06658431,60.480988,-60.41113000000001,-22.963602,BSC
992471941120.0,0.23400038480758667,-3.729445219039917,6.1870293617248535,0.5119404792785645,-0.05053582787513733,-0.19822577,0.06566802,59.864017,-60.002686,-23.568155,BSC
1000179302400.0,0.2380485236644745,-3.7569832801818848,6.236211776733398,0.5181072950363159,-0.0493968203663826,-0.21288654,0.07360926,59.320854,-59.65234,-24.100225,BSC
1007775055872.0,0.2421196848154068,-3.7840771675109863,6.284711837768555,0.5243104100227356,-0.04827837273478508,-0.21594086,0.07819075,58.811935,-59.33343000000001,-24.66568,BSC
1015259136000.0,0.24621343612670898,-3.810727596282959,6.332526683807373,0.5305479764938354,-0.047182947397232056,-0.2275473,0.0842994,58.349907,-59.05365,-25.171059,BSC
1022631477248.0,0.2503293454647064,-3.836935043334961,6.379654884338379,0.5368178486824036,-0.04611297324299812,-0.23426682,0.08857546,57.932087,-58.80614,-25.657932,BSC
1029892079616.0,0.2544669806957245,-3.8627007007598877,6.426095485687256,0.5431178212165833,-0.045070841908454895,-0.24923302,0.093462385,57.542114,-58.584038,-26.101616,BSC
1037041074176.0,0.25862592458724976,-3.8880257606506348,6.4718475341796875,0.5494455695152283,-0.044058907777071,-0.25320363,0.094989546,57.170506,-58.387505,-26.499184000000003,BSC
1044078657536.0,0.2628057599067688,-3.912911891937256,6.516910552978516,0.5557984709739685,-0.043079476803541183,-0.25778514,0.09254608,56.82084,-58.20776,-26.864935,BSC
1051005091840.0,0.2670060694217682,-3.9373607635498047,6.56128454208374,0.5621739625930786,-0.042134810239076614,-0.25870144,0.09743301,56.491806,-58.04946,-27.192156,BSC
1057820639232.0,0.2712264657020569,-3.9613747596740723,6.604969501495361,0.5685691833496094,-0.04122710973024368,-0.25289822,0.10170906,56.176228,-57.902653,-27.496689,BSC
1064525627392.0,0.2754665017127991,-3.9849560260772705,6.647966384887695,0.5749812126159668,-0.0403585247695446,-0.24770586,0.101098195,55.873634,-57.76542,-27.779707,BSC
1071120515072.0,0.2797258198261261,-4.0081071853637695,6.690276622772217,0.5814070105552673,-0.03953113779425621,-0.25259277,0.09896017,55.589462,-57.64427,-28.031107,BSC
1077605761024.0,0.28400400280952454,-4.030831336975098,6.731901168823242,0.5878434181213379,-0.038746971637010574,-0.27091873,0.105068825,55.317455,-57.531998,-28.262943,BSC
1083981824000.0,0.28830066323280334,-4.053131580352783,6.772841930389404,0.594287097454071,-0.038007982075214386,-0.3023783,0.106595986,55.064247,-57.418285,-28.475185,BSC
1090249359360.0,0.2926154136657715,-4.075010776519775,6.813100814819336,0.6007345914840698,-0.03731604665517807,-0.34330627,0.10995574,54.828518,-57.313225,-28.66922000000001,BSC
1096408891392.0,0.2969478666782379,-4.096473217010498,6.852680683135986,0.6071824431419373,-0.03667297586798668,-0.37140608,0.11178834,54.65321,-57.22206,-28.812103000000004,BSC
1102461140992.0,0.3012976348400116,-4.117522239685059,6.8915839195251465,0.613627016544342,-0.036080501973629,-0.3827071,0.113926366,54.49072,-57.13388000000001,-28.94458400000001,BSC
1108406829056.0,0.30566439032554626,-4.138161659240723,6.929813861846924,0.6200645565986633,-0.035540275275707245,-0.38026363,0.10934488,54.361565,-57.05214,-29.055037,BSC
1114246610944.0,0.3100477159023285,-4.158395767211914,6.967373371124268,0.6264913082122803,-0.03505386412143707,-0.35613444,0.10903945,54.23246999999999,-56.97681400000001,-29.159449,BSC
1119981404160.0,0.314447283744812,-4.178228378295898,7.004266262054443,0.6329033374786377,-0.034622758626937866,-0.32162055,0.10781772,54.10730699999999,-56.89954399999999,-29.259829,BSC
1125611864064.0,0.3188627064228058,-4.197664737701416,7.040496826171875,0.6392967104911804,-0.03424835950136185,-0.28252518,0.10140363,53.97735600000001,-56.82945600000001,-29.3593,BSC
1131138908160.0,0.32329365611076355,-4.216708660125732,7.07606840133667,0.6456673741340637,-0.03393198177218437,-0.27000242,0.09132435,53.832924,-56.7602,-29.459047,BSC
1136563453952.0,0.32773977518081665,-4.235365390777588,7.11098575592041,0.6520112752914429,-0.033674854785203934,-0.2742785,0.08643743400000001,53.686092,-56.696663,-29.555662,BSC
1141886418944.0,0.3322007358074188,-4.2536396980285645,7.145253658294678,0.6583243608474731,-0.03347812220454216,-0.29657507,0.089491755,53.55298000000001,-56.639805,-29.638351,BSC
1147108851712.0,0.3366762101650238,-4.271536350250244,7.178876876831055,0.6646024584770203,-0.03334283083677292,-0.33475417,0.09040806,53.430748,-56.584526,-29.717026,BSC
1152231538688.0,0.34116584062576294,-4.289060592651367,7.211860179901123,0.6708415150642395,-0.03326994925737381,-0.38453966,0.09040806,53.318737,-56.529858,-29.786417,BSC
1157255659520.0,0.34566929936408997,-4.306217193603516,7.244209289550781,0.6770373582839966,-0.03326034918427467,-0.42180246,0.09437868,53.21775,-56.47729,-29.848898,BSC
1162182131712.0,0.350186288356781,-4.32301139831543,7.2759294509887695,0.683185875415802,-0.03331481292843819,-0.47067168,0.09437868,53.18171,-56.418926,-29.885324,BSC
1167012003840.0,0.3547164797782898,-4.339448928833008,7.307025909423828,0.689283013343811,-0.03343404084444046,-0.49877146,0.09621128,53.15172,-56.363388,-29.917482,BSC
1171746455552.0,0.35925957560539246,-4.355534553527832,7.337504863739014,0.6953247785568237,-0.03361864387989044,-0.5885687,0.100792766,53.167515,-56.30662,-29.93184,BSC
1176386404352.0,0.3638152778148651,-4.371273994445801,7.367372512817383,0.7013071775436401,-0.033869143575429916,-0.6230826,0.112704635,53.174377,-56.252834,-29.945133,BSC
1180933029888.0,0.3683832585811615,-4.386672496795654,7.396634578704834,0.7072263360023499,-0.0341859795153141,-0.68936145,0.12522738,53.21518,-56.197456,-29.947401,BSC
1185387511808.0,0.3729632496833801,-4.401735305786133,7.425297737121582,0.713078498840332,-0.03456950560212135,-0.7535023000000001,0.14019357,53.26484,-56.14502,-29.942865,BSC
1189751029760.0,0.3775549530982971,-4.416467666625977,7.453368663787842,0.7188600301742554,-0.03501999005675316,-0.81336707,0.14202617,53.333775,-56.09258000000001,-29.933533,BSC
1194024632320.0,0.3821580708026886,-4.430875301361084,7.48085355758667,0.7245674133300781,-0.03553762659430504,-0.86193085,0.16462818,53.426346,-56.036453,-29.914106,BSC
1198209499136.0,0.3867723345756531,-4.4449639320373535,7.507759094238281,0.7301973104476929,-0.03612252324819565,-0.8854492,0.1863139,53.528625,-55.98118,-29.892075,BSC
1202306940928.0,0.39139747619628906,-4.458738327026367,7.534092426300049,0.735746443271637,-0.03677472099661827,-0.90224797,0.19456059,53.653187,-55.913883,-29.873790000000003,BSC
1206318006272.0,0.39603322744369507,-4.472204208374023,7.5598602294921875,0.7412118315696716,-0.03749417886137962,-0.9450085,0.18936823,53.79091,-55.84834,-29.849817,BSC
1210244005888.0,0.4006793200969696,-4.4853668212890625,7.5850701332092285,0.7465906739234924,-0.03828078880906105,-0.9795224,0.19853121,53.927036,-55.77636,-29.832346,BSC
1214085988352.0,0.40533551573753357,-4.498230934143066,7.609728813171387,0.751880407333374,-0.039134375751018524,-1.0241156,0.20861048,54.078526,-55.7,-29.81199,BSC
1217845264384.0,0.4100015461444855,-4.510802268981934,7.633843421936035,0.7570785880088806,-0.040054693818092346,-1.0711522,0.21502456,54.252842,-55.615627,-29.789824,BSC
1221523013632.0,0.41467714309692383,-4.523086071014404,7.657421588897705,0.7621831893920898,-0.04104144126176834,-1.1276573,0.21868975,54.441177,-55.532196,-29.761648,BSC
1225120546816.0,0.4193620979785919,-4.5350871086120605,7.680470943450928,0.7671923041343689,-0.04209425300359726,-1.1716396,0.21655174,54.64628199999999,-55.442787,-29.728899,BSC
1228639043584.0,0.42405614256858826,-4.546810626983643,7.702998638153076,0.7721043825149536,-0.043212711811065674,-1.1979067,0.21655174,54.86006,-55.35697,-29.69227,BSC
1232079683584.0,0.42875906825065613,-4.558261871337891,7.725012302398682,0.7769181132316589,-0.04439634829759598,-1.212873,0.21777347,55.081066,-55.268612,-29.654173,BSC
1235443646464.0,0.43347063660621643,-4.5694451332092285,7.746519565582275,0.7816325426101685,-0.04564464092254639,-1.258077,0.22296582,55.31625699999999,-55.173332,-29.614502,BSC
1238732242944.0,0.43819060921669006,-4.5803656578063965,7.7675275802612305,0.7862470149993896,-0.046957023441791534,-1.2794572,0.19975294,55.54861999999999,-55.071262,-29.584208,BSC
1241946652672.0,0.4429188072681427,-4.591028213500977,7.788044452667236,0.7907611131668091,-0.04833289235830307,-1.2892311,0.19272798,55.78156,-54.976505,-29.543955,BSC
1245088055296.0,0.44765499234199524,-4.601437568664551,7.808077335357666,0.7951748967170715,-0.04977160319685936,-1.318858,0.19730948,56.025417,-54.8738,-29.504065,BSC
1248157761536.0,0.4523989260196686,-4.611598014831543,7.827634334564209,0.7994886040687561,-0.05127247795462608,-1.3579534,0.19364429,56.268612,-54.76742,-29.46944,BSC
1251156951040.0,0.4571504592895508,-4.621514320373535,7.8467230796813965,0.8037029504776001,-0.05283480882644653,-1.3646729,0.21105394,56.50511,-54.660183,-29.429255,BSC
1254086803456.0,0.46190935373306274,-4.631191253662109,7.865350723266602,0.8078189492225647,-0.05445786193013191,-1.3775011,0.20219639,56.731453,-54.56183000000001,-29.380323,BSC
1256948629504.0,0.46667540073394775,-4.640632629394531,7.8835248947143555,0.8118379712104797,-0.056140877306461334,-1.3836098,0.19914207,56.95215,-54.46646,-29.326841,BSC
1259743477760.0,0.47144845128059387,-4.649843215942383,7.901253700256348,0.8157616257667542,-0.05788307264447212,-1.3811663,0.2049453,57.17114,-54.364758,-29.274536,BSC
1262472658944.0,0.4762282967567444,-4.658827304840088,7.918544292449951,0.8195920586585999,-0.059683654457330704,-1.4049901000000002,0.20891592,57.398026,-54.25822,-29.214756,BSC
1265137352704.0,0.4810147285461426,-4.66758918762207,7.935403823852539,0.8233315944671631,-0.06154181435704231,-1.4556919,0.22143865,57.62754,-54.14951,-29.150242,BSC
1267738607616.0,0.4858075976371765,-4.676132678985596,7.951839923858643,0.8269830346107483,-0.06345672905445099,-1.4608842,0.21105394,57.860126,-54.042423,-29.068073,BSC
1270277734400.0,0.49060672521591187,-4.684462070465088,7.967859745025635,0.8305493593215942,-0.06542757898569107,-1.421178,0.2125811,58.087364,-53.93411,-28.981783,BSC
1272755781632.0,0.4954119324684143,-4.6925811767578125,7.983470439910889,0.8340340256690979,-0.067453533411026,-1.4391985,0.20372356,58.339737,-53.829037,-28.866959,BSC
1275174060032.0,0.5002230405807495,-4.700494289398193,7.998679161071777,0.8374407291412354,-0.06953376531600952,-1.4899003999999998,0.18203785,58.586872,-53.71782,-28.759089000000003,BSC
1277533618176.0,0.5050399303436279,-4.708205223083496,8.013492584228516,0.8407734632492065,-0.07166745513677597,-1.5711454,0.16646078,58.830433,-53.61728000000001,-28.627804,BSC
1279835504640.0,0.5098624229431152,-4.7157182693481445,8.027917861938477,0.8440365195274353,-0.07385378330945969,-1.65911,0.13652839,59.091175,-53.500835,-28.50312000000001,BSC
1282080899072.0,0.5146903395652771,-4.723036766052246,8.041961669921875,0.8472344875335693,-0.0760919526219368,-1.7391333999999998,0.12797627,59.367992,-53.379974,-28.372196,BSC
1284270981120.0,0.519523561000824,-4.730164527893066,8.055630683898926,0.8503722548484802,-0.07838117331266403,-1.7996091,0.12370021,59.7192,-53.23201,-28.19340900000001,BSC
1286406799360.0,0.5243619084358215,-4.737104892730713,8.068931579589844,0.8534548878669739,-0.0807206779718399,-1.8102992,0.09987647,60.07569,-53.069565,-28.02259,BSC
1288489402368.0,0.5292052626609802,-4.743862152099609,8.081871032714844,0.8564877510070801,-0.08310972899198532,-1.7748689999999998,0.1142318,60.439827,-52.89439,-27.834394,BSC
1290519969792.0,0.5340534448623657,-4.750439167022705,8.094453811645508,0.8594763278961182,-0.08554759621620178,-1.704925,0.13011430000000002,60.79221,-52.703453,-27.659187,BSC
1292499550208.0,0.5389063358306885,-4.756839752197266,8.106687545776367,0.8624264597892761,-0.08803360164165497,-1.6603317,0.15424347,61.119278,-52.50897,-27.485958,BSC
1294429061120.0,0.5437638163566589,-4.763067245483398,8.118577003479004,0.8653440475463867,-0.09056709706783295,-1.5793921,0.18509217,61.40586999999999,-52.314785,-27.324898,BSC
1296309682176.0,0.5486257672309875,-4.769124984741211,8.130128860473633,0.8682352900505066,-0.09314747154712677,-1.5540411,0.22632557,61.68270500000001,-52.116764,-27.149841,BSC
1298142330880.0,0.55349200963974,-4.775015830993652,8.141347885131836,0.8711063861846924,-0.09577415883541107,-1.541213,0.26878070000000004,61.92969,-51.91835800000001,-26.980145,BSC
1299928055808.0,0.5583624839782715,-4.78074312210083,8.152239799499512,0.8739638328552246,-0.09844665229320526,-1.4477507,0.2947425,62.13779399999999,-51.715282,-26.823172,BSC
1301667905536.0,0.5632370114326477,-4.786309242248535,8.162809371948242,0.8768141269683838,-0.10116448253393173,-1.2968669,0.33475417,62.333046,-51.50483,-26.63942,BSC
1303362797568.0,0.5681155323982239,-4.791717529296875,8.173062324523926,0.87966388463974,-0.10392725467681885,-1.1432343,0.34483343,62.49699,-51.286022,-26.475435,BSC
1305013780480.0,0.5729978680610657,-4.796970367431641,8.183003425598145,0.8825199604034424,-0.10673464089632034,-0.9282097,0.3680463,62.580208,-51.09286,-26.319437,BSC
1306621771776.0,0.5778839588165283,-4.802070617675781,8.19263744354248,0.8853890895843506,-0.10958636552095413,-0.77854776,0.3735441,62.637886,-50.87925,-26.18301,BSC
1308187688960.0,0.5827736854553223,-4.807020664215088,8.201969146728516,0.8882782459259033,-0.11248224973678589,-0.7886270000000001,0.37110063,62.66800300000001,-50.668297,-26.06427,BSC
1309712580608.0,0.587666928768158,-4.811822414398193,8.211003303527832,0.8911943435668945,-0.11542218178510666,-0.8671232,0.39492437,62.671646,-50.46483,-25.952011,BSC
1311197233152.0,0.5925635695457458,-4.8164777755737305,8.219743728637695,0.8941443562507629,-0.11840613931417465,-0.96761054,0.47586402,62.675854,-50.27093,-25.824333,BSC
1312642564096.0,0.5974635481834412,-4.820988655090332,8.228194236755371,0.897135317325592,-0.12143420428037643,-1.1227703000000002,0.5861251999999999,62.759796,-50.085377,-25.560888,BSC
1314049490944.0,0.6023666858673096,-4.825356960296631,8.236358642578125,0.9001742005348206,-0.12450654059648514,-1.2663236999999998,0.6740898,62.853867,-49.91633,-25.276024,BSC
1315418931200.0,0.6072729825973511,-4.829584121704102,8.244241714477539,0.903268039226532,-0.12762342393398285,-1.3759739,0.73639804,62.9886,-49.774113,-24.886297,BSC
1316751671296.0,0.6121823191642761,-4.8336710929870605,8.251846313476562,0.9064238667488098,-0.13078522682189941,-1.4407257,0.7696901999999999,63.133244,-49.658073,-24.475597,BSC
1318048628736.0,0.6170945763587952,-4.837619304656982,8.259176254272461,0.9096487164497375,-0.13399244844913483,-1.4795157,0.79259765,63.270275,-49.575882,-24.018892,BSC
1319310589952.0,0.6220096945762634,-4.841429233551025,8.2662353515625,0.9129495024681091,-0.13724569976329803,-1.4862351,0.7968736999999999,63.406803,-49.484825,-23.563501,BSC
1320538341376.0,0.6269275546073914,-4.845101833343506,8.273026466369629,0.9163331985473633,-0.14054572582244873,-1.5152513,0.8023715,63.548730000000006,-49.41007000000001,-23.102919,BSC
1321732800512.0,0.6318480968475342,-4.848637104034424,8.279553413391113,0.9198066592216492,-0.14389336109161377,-1.5186110000000002,0.82650065,63.693897,-49.311935,-22.665268,BSC
1322894622720.0,0.6367712616920471,-4.8520355224609375,8.285818099975586,0.9233767986297607,-0.14728958904743195,-1.5519031,0.9025534,63.83712,-49.204792,-22.214748,BSC
1324024594432.0,0.6416969299316406,-4.855296611785889,8.291824340820312,0.9270504117012024,-0.1507355272769928,-1.593442,0.9388999,63.979458,-49.09451,-21.776274,BSC
1325123633152.0,0.6466250419616699,-4.858419895172119,8.297574996948242,0.9308342933654785,-0.15423241257667542,-1.6423112000000002,0.97219205,64.14904,-48.961266,-21.284952,BSC
1326192394240.0,0.6515554785728455,-4.861404895782471,8.303072929382324,0.9347352385520935,-0.15778160095214844,-1.681712,0.98837996,64.31568,-48.829666,-20.794657,BSC
1327231533056.0,0.6564882397651672,-4.864250659942627,8.308320045471191,0.9387599229812622,-0.16138458251953125,-1.702176,0.97402465,64.49504,-48.682205,-20.278091,BSC
1328241836032.0,0.6614232063293457,-4.866955757141113,8.313319206237793,0.9429149627685547,-0.16504298150539398,-1.7046194,0.95081174,64.67049399999999,-48.529675,-19.767626,BSC
1329223958528.0,0.6663603782653809,-4.869518756866455,8.318073272705078,0.9472070336341858,-0.1687585413455963,-1.6413950000000002,0.91813046,64.8315,-48.35808,-19.278013,BSC
1330178686976.0,0.6712996363639832,-4.8719377517700195,8.32258415222168,0.9516426920890808,-0.17253310978412628,-1.5030339,0.8900306999999998,64.971535,-48.186493,-18.817120000000006,BSC
1331106676736.0,0.6762409210205078,-4.874210357666016,8.326854705810547,0.9562285542488098,-0.17636865377426147,-1.3359623,0.86590147,65.099525,-47.981716,-18.392967,BSC
1332008583168.0,0.6811841726303101,-4.876333713531494,8.330886840820312,0.9609711170196533,-0.18026725947856903,-1.181108,0.86651236,65.19283,-47.76805,-18.00258,BSC
1332885061632.0,0.6861292719841003,-4.878305435180664,8.334683418273926,0.9658768773078918,-0.18423110246658325,-1.0769554,0.8454375,65.263,-47.525608,-17.6529,BSC
1333736636416.0,0.6910762190818787,-4.880122184753418,8.33824634552002,0.9709523916244507,-0.1882624626159668,-1.0332786,0.8381071,65.30853,-47.263157,-17.354025,BSC
1334564093952.0,0.6960249543190002,-4.881780624389648,8.341578483581543,0.9762040972709656,-0.1923637092113495,-0.9981538,0.80481493,65.33894000000001,-46.981804,-17.091002,BSC
1335367958528.0,0.7009754180908203,-4.883276462554932,8.344680786132812,0.9816384315490723,-0.19653728604316711,-0.96669424,0.7703011,65.39701,-46.635365,-16.859655,BSC
1336148885504.0,0.7059275507926941,-4.884605884552002,8.347556114196777,0.9872618317604065,-0.20078571140766144,-0.94897914,0.7770206000000001,65.44776,-46.283577,-16.637775,BSC
1336907399168.0,0.7108813524246216,-4.885764122009277,8.350205421447754,0.9930806756019592,-0.205111563205719,-0.9816604,0.8017605999999999,65.531296,-45.89071,-16.42909,BSC
1337644154880.0,0.7158367037773132,-4.886746406555176,8.352631568908691,0.9991014003753662,-0.2095174789428711,-1.0549643,0.8268061,65.6183,-45.490845,-16.221066,BSC
1338359676928.0,0.720793604850769,-4.887547492980957,8.354835510253906,1.0053303241729736,-0.21400612592697144,-1.1151345,0.86437434,65.71694000000001,-45.06283,-15.961789,BSC
1339054489600.0,0.7257519364356995,-4.888161659240723,8.356820106506348,1.0117738246917725,-0.2185802310705185,-1.1523973,0.9077458,65.81854,-44.62595,-15.694721,BSC
1339729248256.0,0.7307116985321045,-4.888583183288574,8.358586311340332,1.0184381008148193,-0.22324253618717194,-1.1749994,0.98349303,65.935074,-44.14718,-15.353535,BSC
1340384346112.0,0.7356728315353394,-4.888805866241455,8.360135078430176,1.025329351425171,-0.22799579799175262,-1.2495248,1.010982,66.067215,-43.657593,-15.005567999999998,BSC
1341020438528.0,0.740635335445404,-4.888823509216309,8.361468315124512,1.0324538946151733,-0.23284278810024261,-1.3341297,1.0555751,66.18257,-43.18221,-14.641829,BSC
1341637918720.0,0.745599091053009,-4.88862943649292,8.362586975097656,1.0398178100585938,-0.23778627812862396,-1.4071281,1.07665,66.28248599999999,-42.734432,-14.223522,BSC
1342237310976.0,0.7505640983581543,-4.888216972351074,8.363492012023926,1.0474271774291992,-0.24282902479171753,-1.4294246000000002,1.0897835,66.37626,-42.299896,-13.803615,BSC
1342819139584.0,0.7555303573608398,-4.887578964233398,8.364184379577637,1.0552879571914673,-0.24797379970550537,-1.3875803999999998,1.1053606000000002,66.46136,-41.872066,-13.390251,BSC
1343383797760.0,0.7604977488517761,-4.886707782745361,8.364665031433105,1.0634061098098755,-0.25322332978248596,-1.3081678999999995,1.1175779,66.51783,-41.506344,-13.028396,BSC
1343931809792.0,0.7654662728309631,-4.885595798492432,8.364933967590332,1.0717874765396118,-0.2585803270339966,-1.1976013,1.1191051,66.53916,-41.186554,-12.713857,BSC
1344463568896.0,0.7704359292984009,-4.884235382080078,8.364991188049316,1.0804378986358643,-0.2640475034713745,-1.1294898000000002,1.1322386999999998,66.54515,-40.878216,-12.413831,BSC
1344979599360.0,0.7754065990447998,-4.8826189041137695,8.364836692810059,1.0893629789352417,-0.2696274518966675,-1.1087204,1.1801916,66.52875999999999,-40.582024,-12.129938,BSC
1345480294400.0,0.7803782820701599,-4.880738258361816,8.364469528198242,1.098568320274353,-0.2753227949142456,-1.1184943,1.1600331,66.52121,-40.22596400000001,-11.834974,BSC
1345966047232.0,0.7853509783744812,-4.8785858154296875,8.363890647888184,1.1080594062805176,-0.28113609552383423,-1.0800097,1.07665,66.50309,-39.863922,-11.56803,BSC
1346437251072.0,0.7903246283531189,-4.876152992248535,8.36309814453125,1.1178416013717651,-0.2870698571205139,-1.0112875,1.0250319,66.531876,-39.394867,-11.293894,BSC
1346894299136.0,0.795299232006073,-4.873432159423828,8.362091064453125,1.127920150756836,-0.29312652349472046,-0.90041536,0.9960158,66.55818000000001,-38.926216,-11.059231,BSC
1347337715712.0,0.8002747297286987,-4.870414733886719,8.360867500305176,1.1383001804351807,-0.2993084788322449,-0.8402450999999999,0.9633345,66.63471,-38.366467,-10.821422,BSC
1347767762944.0,0.8052510619163513,-4.867093086242676,8.359426498413086,1.1489866971969604,-0.3056180477142334,-0.8707884,0.99265605,66.699844,-37.826992,-10.591238,BSC
1348184834048.0,0.8102282285690308,-4.86345911026001,8.357767105102539,1.1599845886230469,-0.3120574951171875,-1.040609,1.0595458,66.83009,-37.22994600000001,-10.311106,BSC
1348589322240.0,0.8152062296867371,-4.8595051765441895,8.355886459350586,1.171298623085022,-0.31862902641296387,-1.2840388,1.1133018999999995,66.97318,-36.66051,-10.015059,BSC
1348981489664.0,0.8201850056648254,-4.855223178863525,8.353781700134277,1.1829332113265991,-0.325334757566452,-1.4052955,1.1291844,67.09466,-36.082275,-9.627008,BSC
1349361729536.0,0.8251644968986511,-4.8506059646606445,8.35145092010498,1.1948928833007812,-0.33217674493789673,-1.3958270000000002,1.1184943,67.22314,-35.518593,-9.224479,BSC
1349730435072.0,0.8301447033882141,-4.845645904541016,8.34889030456543,1.207181692123413,-0.33915695548057556,-1.3805555,1.104139,67.36166999999999,-34.97807,-8.809524,BSC
1350087999488.0,0.8351256251335144,-4.840335845947266,8.346097946166992,1.219803810119629,-0.34627729654312134,-1.3417655000000002,1.0922271,67.452995,-34.462105,-8.380631,BSC
1350434553856.0,0.840107262134552,-4.83466911315918,8.343070030212402,1.2327630519866943,-0.3535395860671997,-1.2702943000000002,1.105666,67.5278,-33.936240000000005,-7.977578599999997,BSC
1350770491392.0,0.8450895547866821,-4.828639030456543,8.339802742004395,1.2460631132125854,-0.36094555258750916,-1.185384,1.1178834,67.55181,-33.447790000000005,-7.5914902999999985,BSC
1351096205312.0,0.85007244348526,-4.822238922119141,8.33629322052002,1.2597075700759888,-0.368496835231781,-1.1746938,1.02717,67.59461,-32.954727,-7.234277,BSC
1351411826688.0,0.8550559282302856,-4.815463542938232,8.332536697387695,1.2736996412277222,-0.3761950135231018,-1.1743883999999998,0.95356065,67.54926,-32.463184000000005,-6.8634179999999985,BSC
1351717748736.0,0.860040009021759,-4.808306694030762,8.32852840423584,1.288042426109314,-0.38404151797294617,-1.1545353,0.8906415000000001,67.51809,-31.962688,-6.5256405,BSC
1352014233600.0,0.8650246858596802,-4.8007636070251465,8.324264526367188,1.3027390241622925,-0.3920377492904663,-1.1881329,0.8549059000000001,67.50593,-31.450638,-6.194703,BSC
1352301674496.0,0.8700098991394043,-4.7928290367126465,8.319740295410156,1.3177920579910278,-0.4001849591732025,-1.248914,0.8185594,67.50528,-30.881868,-5.8521867,BSC
1352580202496.0,0.8749956488609314,-4.784498691558838,8.314949989318848,1.3332041501998901,-0.4084843397140503,-1.2986995,0.7788531999999999,67.51682,-30.301083,-5.522056,BSC
1352850079744.0,0.8799818754196167,-4.775768756866455,8.309889793395996,1.3489775657653809,-0.4169369637966156,-1.2864822,0.7504479000000001,67.53349,-29.72607600000001,-5.208008,BSC
1353111568384.0,0.884968638420105,-4.766634941101074,8.304553985595703,1.3651145696640015,-0.42554381489753723,-1.2620476,0.72051555,67.574066,-29.100597,-4.8594775000000014,BSC
1353364930560.0,0.8899558782577515,-4.757094860076904,8.298935890197754,1.3816171884536743,-0.43430572748184204,-1.2287555,0.6750060999999999,67.62104000000001,-28.477726,-4.536476,BSC
1353610428416.0,0.8949435353279114,-4.747145175933838,8.293031692504883,1.3984872102737427,-0.4432234764099121,-1.2360858,0.61422503,67.671295,-27.805662,-4.195036,BSC
1353848193024.0,0.8999316692352295,-4.736783504486084,8.286834716796875,1.4157260656356812,-0.4522976875305176,-1.2156218,0.5720753000000001,67.71874,-27.137934,-3.8862832,BSC
1354078617600.0,0.904920220375061,-4.726008415222168,8.280339241027832,1.433335304260254,-0.4615289270877838,-1.1777482,0.54275376,67.7423,-26.43476,-3.5942633,BSC
1354301833216.0,0.909909188747406,-4.714818000793457,8.273539543151855,1.451315999031067,-0.47091764211654663,-1.2134838,0.5131268,67.78238,-25.74464,-3.305371,BSC
1354517970944.0,0.9148985147476196,-4.703211307525635,8.26642894744873,1.469669222831726,-0.4804641306400299,-1.282817,0.4352415,67.84079,-25.055525,-3.037432,BSC
1354727424000.0,0.9198882579803467,-4.691187858581543,8.259002685546875,1.4883956909179688,-0.49016863107681274,-1.2986995,0.3820962,67.86906,-24.346115,-2.7475035,BSC
1354930192384.0,0.9248783588409424,-4.678747653961182,8.251254081726074,1.5074961185455322,-0.5000312328338623,-1.2635747,0.344528,67.914185,-23.643091,-2.4710608,BSC
1355126669312.0,0.9298688173294067,-4.665890693664551,8.243176460266113,1.5269707441329956,-0.510051965713501,-1.2455542,0.24251351,67.99245,-22.94928,-2.2097995,BSC
1355316854784.0,0.9348596334457397,-4.652617931365967,8.23476505279541,1.546819806098938,-0.520230770111084,-1.2473868,0.12461651,68.07555,-22.187933,-1.9441296,BSC
1355501142016.0,0.9398507475852966,-4.638930797576904,8.22601318359375,1.5670433044433594,-0.530567467212677,-1.2498302,0.05955936,68.167625,-21.440754,-1.6971788,BSC
1355679531008.0,0.9448422193527222,-4.624830722808838,8.216915130615234,1.5876410007476807,-0.5410617589950562,-1.2797627,-0.0693332,68.36261,-20.546629,-1.4479117,BSC
1355852283904.0,0.9498339891433716,-4.610319137573242,8.207465171813965,1.6086124181747437,-0.5517132878303528,-1.3264938999999998,-0.19394971,68.57196,-19.672115,-1.2068489,BSC
1356019662848.0,0.9548260569572449,-4.595398902893066,8.197657585144043,1.6299570798873901,-0.5625215768814087,-1.3799446000000002,-0.29352075,68.90198000000001,-18.594563,-0.9374298,BSC
1356181667840.0,0.9598183631896973,-4.58007287979126,8.18748664855957,1.6516741514205933,-0.5734861493110657,-1.4966198,-0.35460728,69.25895,-17.535978,-0.65404844,BSC
1356338561024.0,0.9648109674453735,-4.56434440612793,8.176947593688965,1.6737626791000366,-0.584606409072876,-1.5848899,-0.4089743,69.636284,-16.494646,-0.37957004,BSC
1356490473472.0,0.9698038101196289,-4.548216819763184,8.166034698486328,1.6962215900421143,-0.5958816409111023,-1.6019941999999998,-0.45142943,70.02436,-15.469829,-0.07009697,BSC
1356637536256.0,0.9747969508171082,-4.531693935394287,8.154743194580078,1.7190494537353516,-0.6073111891746521,-1.4880677,-0.5329799,70.426025,-14.472692000000002,0.20738246,BSC
1356780011520.0,0.9797903299331665,-4.514780044555664,8.143068313598633,1.7422447204589844,-0.6188942193984985,-1.3793337,-0.58459806,70.75689,-13.564607,0.5094837000000001,BSC
1356917899264.0,0.984783947467804,-4.4974799156188965,8.13100528717041,1.7658056020736694,-0.6306298971176147,-1.3796391,-0.6243043,71.09869,-12.679144,0.7946168,BSC
1357051461632.0,0.9897777438163757,-4.479798316955566,8.118549346923828,1.7897303104400635,-0.6425173282623291,-1.318858,-0.6914994999999999,71.41731,-11.8143015,1.0688725,BSC
1357180698624.0,0.9947717785835266,-4.461740970611572,8.105695724487305,1.8140166997909546,-0.65455561876297,-1.2641857,-0.7305948,71.73358,-10.978368,1.333689,BSC
1357305872384.0,0.9997660517692566,-4.443313121795654,8.092440605163574,1.8386626243591309,-0.666743814945221,-1.2617421,-0.79198676,72.08122,-10.07508,1.6421624,BSC
1357426982912.0,1.004760503768921,-4.424520969390869,8.078779220581055,1.8636655807495117,-0.6790808439254761,-1.2742649,-0.8240572,72.42265,-9.205412,1.9275168000000005,BSC
1357544292352.0,1.0097551345825195,-4.405370235443115,8.06470775604248,1.889022946357727,-0.691565752029419,-1.3665055,-0.79137594,72.76656,-8.283176,2.325477,BSC
1357657800704.0,1.0147500038146973,-4.385868072509766,8.050222396850586,1.9147319793701172,-0.7041974663734436,-1.3811663,-0.78801614,73.11561999999998,-7.398339699999997,2.68766,BSC
1357767770112.0,1.0197449922561646,-4.366021156311035,8.035319328308105,1.9407896995544434,-0.7169749140739441,-1.4321736,-0.7623598,73.42742,-6.5207690000000005,3.2186143,BSC
1357874200576.0,1.024740219116211,-4.345836162567139,8.019994735717773,1.9671931266784668,-0.7298969626426697,-1.4425583,-0.7266241999999999,73.72408,-5.6718736,3.7308362,BSC
1357977223168.0,1.0297355651855469,-4.325320243835449,8.004244804382324,1.99393892288208,-0.7429625391960144,-1.4355333,-0.7104363,74.01042,-4.836853,4.240538,BSC
1358076968960.0,1.034731149673462,-4.304481029510498,7.988065242767334,2.021023750305176,-0.7561704516410828,-1.4309518,-0.70554936,74.293564,-3.9859977,4.870262599999998,BSC
1358173437952.0,1.0397268533706665,-4.283326148986816,7.971452713012695,2.0484440326690674,-0.769519567489624,-1.4165965,-0.6649268,74.55208,-3.1510675,5.4885693,BSC
1358266892288.0,1.0447226762771606,-4.2618632316589355,7.954402923583984,2.0761961936950684,-0.7830087542533875,-1.4972308,-0.58001655,74.81860999999998,-2.248132,6.2403626,BSC
1358357331968.0,1.0497186183929443,-4.240099906921387,7.9369120597839355,2.104276657104492,-0.7966367602348328,-1.5274686000000002,-0.56107974,75.080605,-1.3797373,6.9665613,BSC
1358444888064.0,1.0547146797180176,-4.218043804168701,7.918975830078125,2.132681131362915,-0.8104023337364197,-1.6108516000000002,-0.5458081,75.31132,-0.485251,7.701551400000001,BSC
1358529691648.0,1.05971097946167,-4.195703029632568,7.900590419769287,2.1614058017730713,-0.8243042230606079,-1.6920967,-0.48441613,75.51165999999998,0.3656498,8.436117999999999,BSC
1358611742720.0,1.0647073984146118,-4.173084735870361,7.881751537322998,2.190446615219116,-0.8383411765098572,-1.7330247,-0.47311515,75.69641,1.1677213,9.173053,BSC
1358691172352.0,1.0697039365768433,-4.1501970291137695,7.862454891204834,2.219799041748047,-0.8525118231773376,-1.7812830000000002,-0.4822781,75.8573,1.9386696,9.922955,BSC
1358768111616.0,1.0747005939483643,-4.127047061920166,7.842695713043213,2.2494590282440186,-0.8668147921562195,-1.7779233,-0.4654793,76.0024,2.74249,10.656973,BSC
1358842560512.0,1.0796973705291748,-4.103641510009766,7.822469234466553,2.279421806335449,-0.8812487125396729,-1.7880026000000002,-0.44837508,76.13614,3.5030506,11.393561,BSC
1358914650112.0,1.084694266319275,-4.079987525939941,7.8017706871032715,2.309682846069336,-0.8958120346069336,-1.7641789,-0.44868052,76.25486,4.218812000000002,12.186314,BSC
1358984511488.0,1.0896912813186646,-4.056091785430908,7.780595302581787,2.3402373790740967,-0.9105032086372375,-1.7437148,-0.45814893,76.35871,4.897016000000002,12.968092,BSC
1359052144640.0,1.0946882963180542,-4.0319600105285645,7.758936882019043,2.3710806369781494,-0.9253206253051758,-1.6734653999999998,-0.49541172,76.46705,5.5762105,13.75506,BSC
1359117549568.0,1.0996854305267334,-4.007597923278809,7.736790657043457,2.402207612991333,-0.940262496471405,-1.677436,-0.50854534,76.55729000000002,6.2238503,14.542866,BSC
1359180857344.0,1.1046826839447021,-3.9830105304718018,7.7141499519348145,2.4336130619049072,-0.9553270936012268,-1.7119498,-0.54244834,76.656334,6.901727,15.320003,BSC
1359242199040.0,1.1096800565719604,-3.9582021236419678,7.691009044647217,2.465291738510132,-0.9705124497413635,-1.7281377,-0.593761,76.75168599999998,7.5397906,16.080427,BSC
1359301574656.0,1.1146775484085083,-3.9331765174865723,7.667361736297607,2.4972383975982666,-0.9858165979385376,-1.7385224999999995,-0.6649268,76.84924000000002,8.146125,16.837065,BSC
1359359115264.0,1.1196750402450562,-3.9079368114471436,7.643200874328613,2.529447317123413,-1.001237392425537,-1.7519615000000002,-0.7476991,76.94281,8.741802999999999,17.597412,BSC
1359414820864.0,1.1246726512908936,-3.8824853897094727,7.6185197830200195,2.561913013458252,-1.0167723894119263,-1.8252654,-0.7461719,77.01564,9.313258,18.36209,BSC
1359468822528.0,1.1296703815460205,-3.856823444366455,7.593310832977295,2.5946292877197266,-1.0324193239212036,-2.0094411,-0.73975784,77.085686,9.848087,19.177065,BSC
1359521120256.0,1.1346681118011475,-3.8309519290924072,7.567566394805908,2.6275904178619385,-1.0481754541397095,-1.9727893,-0.72418076,77.14657,10.365816,19.934036,BSC
1359571714048.0,1.139665961265564,-3.804870843887329,7.541278839111328,2.660789728164673,-1.0640380382537842,-1.9630154,-0.72173727,77.18748000000002,10.770097,20.8021,BSC
1359620734976.0,1.14466392993927,-3.778578996658325,7.514439582824707,2.694221019744873,-1.080004096031189,-1.9428569,-0.72021013,77.21461500000002,11.167456,21.639534,BSC
1359668183040.0,1.149661898612976,-3.7520744800567627,7.487040042877197,2.727877378463745,-1.096070408821106,-1.865277,-0.7125743,77.22385,11.473766,22.455502,BSC
1359714189312.0,1.1546599864959717,-3.7253544330596924,7.459071636199951,2.761751651763916,-1.1122336387634277,-1.9040669,-0.64812803,77.19955,11.770698,23.279167,BSC
1359758753792.0,1.1596580743789673,-3.6984152793884277,7.430525302886963,2.795836925506592,-1.1284902095794678,-1.9260582,-0.59986967,77.12934,11.993581,24.036165,BSC
1359802007552.0,1.1646562814712524,-3.6712522506713867,7.401391983032227,2.830125570297241,-1.144836187362671,-1.5070046,-0.3817908,77.01093,12.215051,24.646929,BSC
1359843819520.0,1.1696544885635376,-3.64385986328125,7.37166166305542,2.864609718322754,-1.1612675189971924,-0.9260716999999998,-0.38820487,76.939735,12.379814,25.23596,BSC
1359884451840.0,1.1746528148651123,-3.6162314414978027,7.341324806213379,2.8992810249328613,-1.1777797937393188,-0.89827734,-0.9810496,76.97148,12.402211,25.87288,BSC
1359923773440.0,1.179651141166687,-3.588359832763672,7.310371398925781,2.934131383895874,-1.1943683624267578,-0.28496864,-1.6673566999999998,77.173744,12.113834,25.91573,BSC
1359961915392.0,1.1846495866775513,-3.560236930847168,7.2787909507751465,2.969151735305786,-1.2110282182693481,0.61636305,-2.1856759,77.52897,11.717193,25.892797,BSC
1359998877696.0,1.1896480321884155,-3.531853675842285,7.246573448181152,3.004333019256592,-1.2277542352676392,0.7831292,-2.631913,78.05954,11.099315,25.93805,BSC
1360034660352.0,1.1946465969085693,-3.5032005310058594,7.213708877563477,3.039665937423706,-1.244540810585022,0.42088616,-2.5650232,78.369125,11.412805,26.468653000000003,BSC
1360069394432.0,1.1996451616287231,-3.474266529083252,7.1801862716674805,3.0751404762268066,-1.2613821029663086,0.024740042,-1.7308867,78.58625,11.611191,26.883028000000003,BSC
1360103079936.0,1.2046438455581665,-3.445040702819824,7.145995140075684,3.1107468605041504,-1.2782719135284424,-0.4437936,-0.6160576,78.67931999999998,11.573777,27.466790000000003,BSC
1360135716864.0,1.2096425294876099,-3.415510654449463,7.111125469207764,3.146474838256836,-1.295203685760498,-0.66614854,0.22510384,78.58361,11.55842,28.001776,BSC
1360167436288.0,1.2146412134170532,-3.3856637477874756,7.075566291809082,3.182313919067383,-1.3121706247329712,-0.5928446999999999,0.50579643,78.31038000000002,10.995646,28.705826,BSC
1360198107136.0,1.2196400165557861,-3.3554866313934326,7.039307117462158,3.2182536125183105,-1.3291654586791992,-0.31764993,0.34574974,77.93040500000002,10.59385,29.330868,BSC
1360227860480.0,1.224638819694519,-3.324965000152588,7.002337455749512,3.2542831897735596,-1.3461805582046509,-0.16584991,0.20861048,77.46905,10.420912,30.078161,BSC
1360256827392.0,1.229637622833252,-3.294083833694458,6.964646816253662,3.2903921604156494,-1.3632079362869263,0.09193522,0.01282817,77.11932,10.305669,30.694653,BSC
1360284876800.0,1.2346365451812744,-3.2628276348114014,6.926224708557129,3.3265697956085205,-1.3802392482757568,0.1695151,0.0061086523,76.75411,10.5037155,31.023066,BSC
1360312139776.0,1.2396354675292969,-3.23117995262146,6.887060642242432,3.3628058433532715,-1.3972655534744263,0.09896017,0.16432275,76.41198,10.686841,31.311766,BSC
1360338616320.0,1.2446343898773193,-3.1991238594055176,6.84714412689209,3.39909029006958,-1.4142776727676392,-0.040927973,0.44165558,75.977234,10.652559,31.504747,BSC
1360364306432.0,1.2496333122253418,-3.1666412353515625,6.806465148925781,3.435413360595703,-1.4312658309936523,-0.2144137,0.8426886,75.46285999999998,10.67338,31.698328000000004,BSC
1360389210112.0,1.2546323537826538,-3.133713483810425,6.765013217926025,3.4717657566070557,-1.4482200145721436,-0.2843578,1.0512991000000005,74.94005600000001,10.668765,31.885828000000004,BSC
1360413458432.0,1.2596313953399658,-3.1003212928771973,6.722778797149658,3.508138656616211,-1.4651296138763428,-0.3203988,1.2565498,74.448784,10.396913,32.079066999999995,BSC
1360437051392.0,1.2646304368972778,-3.0664443969726562,6.679751873016357,3.5445239543914795,-1.4819836616516113,-0.4596761,1.3799446000000002,73.921364,10.120768,32.306034000000004,BSC
1360459857920.0,1.2696295976638794,-3.032061815261841,6.635922908782959,3.580914258956909,-1.4987707138061523,-0.7440339,1.4266758,73.37849,9.910183,32.52415,BSC
1360482140160.0,1.274628758430481,-2.9971518516540527,6.591282844543457,3.617302894592285,-1.5154788494110107,-1.3246613,1.3875803999999998,72.80875400000002,9.71679,32.859134999999995,BSC
1360503767040.0,1.2796279191970825,-2.9616918563842773,6.545822620391846,3.65368390083313,-1.5320957899093628,-1.7577647,1.3045027,72.25998,9.637211,33.120743,BSC
1360524738560.0,1.284627079963684,-2.925658941268921,6.499533653259277,3.6900527477264404,-1.5486088991165161,-1.9453003,1.2370021,71.705956,9.583656,33.471825,BSC
1360545185792.0,1.2896262407302856,-2.8890292644500732,6.4524078369140625,3.726405382156372,-1.5650049448013306,-2.0463986000000003,1.2082913999999998,71.164276,9.634503,33.801502,BSC
1360565108736.0,1.2946255207061768,-2.851778268814087,6.40443754196167,3.7627389430999756,-1.581270456314087,-2.2088888,1.2614367,70.60396999999998,9.715915,34.191986,BSC
1360584376320.0,1.2996248006820679,-2.8138811588287354,6.355616092681885,3.7990517616271973,-1.5973914861679077,-2.3948972,1.3710871,70.01836999999999,9.893378,34.549416,BSC
1360603119616.0,1.304624080657959,-2.7753124237060547,6.30593729019165,3.8353431224823,-1.6133538484573364,-2.5369234,1.4947872,69.3994,10.105456,34.92528,BSC
1360621469696.0,1.30962336063385,-2.736046552658081,6.255395412445068,3.8716135025024414,-1.6291428804397583,-2.4959953,1.6120734,68.75921,10.339169,35.21939000000001,BSC
1360639295488.0,1.3146227598190308,-2.6960575580596924,6.203986167907715,3.907864570617676,-1.6447439193725586,-2.2348504,1.7101171999999998,68.08794,10.583743,35.47246,BSC
1360656596992.0,1.3196221590042114,-2.6553194522857666,6.151706218719482,3.944098949432373,-1.6601417064666748,-2.065641,1.7617353,67.431656,10.73048,35.681175,BSC
1360673505280.0,1.324621558189392,-2.6138064861297607,6.098552703857422,3.980320692062378,-1.6753208637237549,-1.740966,1.7589865000000002,66.79713000000001,10.875758,35.76068,BSC
1360690020352.0,1.3296209573745728,-2.571493148803711,6.044524192810059,4.016534328460693,-1.6902660131454468,-1.5128077,1.7330247,66.17941,10.925615,35.874413,BSC
1360706011136.0,1.3346203565597534,-2.5283539295196533,5.989620208740234,4.052745819091797,-1.7049612998962402,-1.2791518,1.6789632,65.6053,10.976087,35.891304,BSC
1360721608704.0,1.339619755744934,-2.4843645095825195,5.933841705322266,4.088962078094482,-1.7193909883499146,-0.9984592,1.5885551000000002,65.00835,11.141531,35.934265,BSC
1360736813056.0,1.3446191549301147,-2.4395010471343994,5.877191543579102,4.125190258026123,-1.73353910446167,-0.81397796,1.4550809999999998,64.463684,11.293377,35.94115,BSC
1360751624192.0,1.349618673324585,-2.393740653991699,5.819672584533691,4.161439418792725,-1.747389793395996,-0.7370089,1.3185526,63.930347,11.575787,35.92753,BSC
1360766173184.0,1.3546181917190552,-2.3470613956451416,5.761290550231934,4.197718143463135,-1.7609272003173828,-0.63071835,1.1921035,63.47064,11.851559,35.861603,BSC
1360780328960.0,1.3596177101135254,-2.299443006515503,5.702052116394043,4.234036922454834,-1.7741353511810303,-0.48533243,1.0671816,63.09529000000001,12.203263,35.89230300000001,BSC
1360794091520.0,1.3646172285079956,-2.250866651535034,5.641964912414551,4.270405292510986,-1.7869985103607178,-0.3747658,0.8921687,62.802914,12.550309,35.91022,BSC
1360807591936.0,1.3696167469024658,-2.201314687728882,5.581038951873779,4.306834697723389,-1.7995010614395142,-0.49388456,0.71593404,62.40933199999999,13.008864,36.118793,BSC
1360820830208.0,1.374616265296936,-2.1507718563079834,5.519285202026367,4.3433356285095215,-1.8116276264190674,-1.1233811000000002,0.505491,62.055542,13.466686,36.442593,BSC
1360833675264.0,1.3796157836914062,-2.099224805831909,5.456716060638428,4.37992000579834,-1.823362946510315,-2.1126773,0.32314770000000004,61.712193000000006,13.842612,36.960716,BSC
1360846258176.0,1.3846153020858765,-2.046661853790283,5.393346309661865,4.416598796844482,-1.834692120552063,-3.071125,0.27091873,61.33205400000001,14.186381,37.62718,BSC
1360858578944.0,1.3896149396896362,-1.99307382106781,5.329191207885742,4.453383445739746,-1.8456004858016968,-3.6551123,0.36987892,60.95847,14.373756,38.4329,BSC
1360870637568.0,1.394614577293396,-1.9384536743164062,5.264268398284912,4.490285396575928,-1.8560738563537598,-3.7803395,0.50335294,60.532272,14.522982999999998,39.329536,BSC
1360882434048.0,1.3996142148971558,-1.8827967643737793,5.198596000671387,4.527315616607666,-1.866098403930664,-3.5121698,0.6065891999999999,59.971737,14.648951,40.373444,BSC
1360893968384.0,1.4046138525009155,-1.8261009454727173,5.132194519042969,4.5644850730896,-1.8756606578826904,-3.043636,0.691194,59.37724,14.751807,41.344486,BSC
1360905240576.0,1.4096134901046753,-1.7683663368225098,5.065084934234619,4.601803779602051,-1.8847477436065674,-2.641992,0.7125743,58.6501,14.962438,42.35469000000001,BSC
1360916250624.0,1.414613127708435,-1.7095954418182373,4.997290134429932,4.639281749725342,-1.8933472633361816,-2.3704627,0.64599,57.958347,15.154426,43.248753,BSC
1360926998528.0,1.4196127653121948,-1.6497933864593506,4.928833484649658,4.676928520202637,-1.9014475345611572,-2.288912,0.6010914,57.20479,15.461919,44.03841,BSC
1360937615360.0,1.4246124029159546,-1.5889674425125122,4.859740257263184,4.714752197265625,-1.9090372323989868,-2.1239784,0.58551437,56.50554,15.771992,44.71808,BSC
1360947970048.0,1.4296120405197144,-1.5271272659301758,4.790035724639893,4.752760887145996,-1.91610586643219,-2.1200078,0.57879484,55.747715,16.126242,45.355938,BSC
1360958193664.0,1.4346117973327637,-1.464284896850586,4.719747066497803,4.790961742401123,-1.9226434230804443,-2.2146919,0.5897904,54.990078,16.492176,45.95693,BSC
1360968155136.0,1.439611554145813,-1.4004544019699097,4.648901462554932,4.829360485076904,-1.9286407232284546,-2.3738225,0.59681535,54.3062,16.777845000000006,46.48743,BSC
1360977985536.0,1.4446113109588623,-1.3356521129608154,4.577527046203613,4.86796236038208,-1.9340893030166626,-2.5332582,0.61208695,53.59771,17.0623,47.02216,BSC
1360987553792.0,1.4496110677719116,-1.2698960304260254,4.50565242767334,4.906771183013916,-1.9389814138412476,-2.6010642,0.60139686,52.98685,17.21135,47.496502,BSC
1360996990976.0,1.454610824584961,-1.2032063007354736,4.43330717086792,4.9457902908325195,-1.9433101415634155,-2.5818220000000003,0.5879578000000001,52.36719,17.355444,47.970596,BSC
1361006297088.0,1.4596105813980103,-1.1356046199798584,4.360520839691162,4.985021114349365,-1.9470692873001099,-2.50638,0.5748241999999999,51.741035,17.442251000000002,48.494823,BSC
1361015341056.0,1.4646103382110596,-1.0671145915985107,4.287323474884033,5.024463653564453,-1.9502533674240112,-2.3952026,0.5467244000000001,51.145603,17.512419,48.9919,BSC
1361024253952.0,1.4696100950241089,-0.9977609515190125,4.2137451171875,5.064117431640625,-1.9528578519821167,-2.2266037,0.5320636,50.4972,17.581635000000002,49.562767,BSC
1361033035776.0,1.4746098518371582,-0.9275700449943542,4.139815807342529,5.10398006439209,-1.9548790454864502,-1.9843957,0.5363397,49.894005,17.636541,50.07331,BSC
1361041686528.0,1.4796096086502075,-0.8565694093704224,4.065566062927246,5.144047737121582,-1.956313967704773,-1.7534887,0.56199604,49.326157,17.672279999999994,50.53037,BSC
1361050206208.0,1.4846093654632568,-0.7847875952720642,3.991025924682617,5.1843156814575195,-1.9571605920791626,-1.6032158,0.57635134,48.667164,17.755537,51.054405,BSC
1361058594816.0,1.4896091222763062,-0.7122542858123779,3.9162254333496094,5.224777698516846,-1.957417607307434,-1.5418239,0.5879578000000001,48.02882,17.833029999999994,51.529583,BSC
1361066852352.0,1.4946088790893555,-0.638999879360199,3.8411948680877686,5.265425205230713,-1.9570846557617188,-1.5482379,0.59803706,47.282448,17.996632,51.995537,BSC
1361074978816.0,1.4996086359024048,-0.5650555491447449,3.765963554382324,5.306249141693115,-1.9561622142791748,-1.534799,0.57818395,46.559704,18.15671,52.43281,BSC
1361082974208.0,1.504608392715454,-0.4904530644416809,3.690561056137085,5.347238540649414,-1.9546515941619873,-1.4043792,0.56382865,45.794502,18.375307,52.79995699999999,BSC
1361090838528.0,1.5096081495285034,-0.41522470116615295,3.615016460418701,5.388381004333496,-1.9525548219680786,-1.1487321,0.5693264,45.06995,18.594666,53.118557,BSC
1361098571776.0,1.5146079063415527,-0.33940303325653076,3.539358139038086,5.429662704467773,-1.9498748779296875,-0.8237518,0.6453791,44.381413,18.822966,53.366924,BSC
1361106305024.0,1.519607663154602,-0.26302090287208557,3.4636144638061523,5.471067905426025,-1.94661545753479,-0.65179324,0.782213,43.65466,19.063334,53.62279,BSC
1361113907200.0,1.5246074199676514,-0.18611125648021698,3.387813091278076,5.512579917907715,-1.9427810907363892,-0.37293324,0.8668178,43.04271,19.300741,53.761784,BSC
1361121378304.0,1.5296071767807007,-0.10870707035064697,3.311981201171875,5.554180145263672,-1.938377022743225,-0.15363261,1.0195341,42.41246,19.552982,53.835564,BSC
1361128718336.0,1.53460693359375,-0.030841225758194923,3.236145496368408,5.59584903717041,-1.933409333229065,0.027794369,1.1313223999999995,41.844627,19.810617,53.840683,BSC
1361136058368.0,1.5396066904067993,0.04745360463857651,3.160331964492798,5.6375651359558105,-1.9278846979141235,0.1777618,1.212873,41.29595,20.09409,53.779118,BSC
1361143267328.0,1.544606328010559,0.12614504992961884,3.0845658779144287,5.679305553436279,-1.9218106269836426,0.34269542,1.3100005,40.825005,20.372784,53.61025,BSC
1361150345216.0,1.5496059656143188,0.2052011489868164,3.0088720321655273,5.721045970916748,-1.9151952266693115,0.40958515,1.3457361,40.377552,20.659136,53.42835,BSC
1361157423104.0,1.5546056032180786,0.2845904231071472,2.933274507522583,5.76276159286499,-1.9080471992492676,0.5564981999999999,1.4239268,40.065075,20.886635,53.133266000000006,BSC
1361164369920.0,1.5596052408218384,0.3642819821834564,2.8577969074249268,5.804425239562988,-1.9003759622573853,0.67256266,1.5231925,39.754234,21.130226,52.82794000000001,BSC
1361171185664.0,1.5646048784255981,0.4442456066608429,2.782461643218994,5.846009254455566,-1.8921916484832764,0.6939429,1.6154331,39.464596,21.33045,52.53017,BSC
1361178001408.0,1.569604516029358,0.5244517922401428,2.7072906494140625,5.887484550476074,-1.8835046291351318,0.5326744999999999,1.6716328,39.144188,21.534563,52.247463,BSC
1361184686080.0,1.5746041536331177,0.6048718094825745,2.632305383682251,5.928821086883545,-1.8743261098861694,0.26847526,1.7336355,38.776768,21.747707,51.977257,BSC
1361191370752.0,1.5796037912368774,0.6854777932167053,2.5575263500213623,5.969987392425537,-1.864667534828186,-0.0125227375,1.7718146,38.405846,21.9192,51.716034,BSC
1361197924352.0,1.5846034288406372,0.7662427425384521,2.482973337173462,6.010951519012451,-1.8545410633087158,-0.22235495,1.8044959,37.976486,22.080645,51.500996,BSC
1361204477952.0,1.589603066444397,0.8471406102180481,2.408665418624878,6.051680564880371,-1.8439592123031616,-0.3323107,1.8002199,37.5142,22.219189,51.337097,BSC
1361210900480.0,1.5946027040481567,0.9281463027000427,2.3346211910247803,6.092141151428223,-1.8329347372055054,-0.3662137,1.7455473999999995,37.02042,22.337423,51.198868,BSC
1361217323008.0,1.5996023416519165,1.0092357397079468,2.2608582973480225,6.132298469543457,-1.8214808702468872,-0.33200526,1.6523905,36.547783,22.425968,51.084515,BSC
1361223745536.0,1.6046019792556763,1.0903856754302979,2.1873939037323,6.172117710113525,-1.8096113204956055,-0.29504790000000003,1.5396858,36.041573,22.530804,50.984074,BSC
1361230036992.0,1.609601616859436,1.1715738773345947,2.1142444610595703,6.211563587188721,-1.797339916229248,-0.20586158,1.421178,35.607227,22.597681,50.885494,BSC
1361236328448.0,1.6146012544631958,1.2527790069580078,2.041426181793213,6.250600337982178,-1.784680724143982,-0.07299839999999999,1.3170254,35.13932,22.81066,50.67031,BSC
1361242488832.0,1.6196008920669556,1.3339807987213135,1.9689542055130005,6.289191722869873,-1.7716481685638428,-0.020158553,1.2730431999999998,34.703335,23.00416,50.46367,BSC
1361248649216.0,1.6246005296707153,1.4151595830917358,1.896843671798706,6.327301025390625,-1.7582567930221558,0.07147124,1.2208142,34.31856,23.247105,50.193607,BSC
1361254809600.0,1.629600167274475,1.4962966442108154,1.8251090049743652,6.36489200592041,-1.7445213794708252,0.1337795,1.1902708999999998,33.956367,23.484703,49.92243,BSC
1361260838912.0,1.6345998048782349,1.5773738622665405,1.7537643909454346,6.401928424835205,-1.730456829071045,0.17592919,1.1640037,33.612247,23.76863,49.616463,BSC
1361266868224.0,1.6395994424819946,1.6583739519119263,1.6828235387802124,6.438373565673828,-1.7160781621932983,0.14172074,1.1456778,33.284576,24.047443,49.31963,BSC
1361272897536.0,1.6445990800857544,1.7392799854278564,1.612299919128418,6.474191188812256,-1.7014002799987793,0.0015271631,1.1487321,32.910942,24.391447,49.01899,BSC
1361278795776.0,1.6495987176895142,1.820075511932373,1.542206883430481,6.509345531463623,-1.6864383220672607,-0.22052236,1.176221,32.523388,24.726116,48.74525,BSC
1361284694016.0,1.654598355293274,1.9007445573806763,1.4725573062896729,6.543800354003906,-1.6712074279785156,-0.52595496,1.2189816,31.904594,25.189804,48.49574000000001,BSC
1361290592256.0,1.6595979928970337,1.9812712669372559,1.4033640623092651,6.577520370483398,-1.6557226181030273,-0.9309586,1.2974777,31.20304,25.65171,48.30104,BSC
1361296490496.0,1.6645976305007935,2.0616400241851807,1.3346399068832397,6.610471248626709,-1.6399987936019897,-1.3775011,1.3665055,30.420643,26.105434,48.17007,BSC
1361302257664.0,1.6695972681045532,2.1418352127075195,1.2663973569869995,6.642618179321289,-1.6240509748458862,-1.6746869999999998,1.1753048,29.56835,26.626476,48.05467,BSC
1361308024832.0,1.674596905708313,2.2218410968780518,1.1986488103866577,6.673927307128906,-1.607893943786621,-1.5876386999999998,0.6093381,28.829653000000004,27.058163,48.003998,BSC
1361313792000.0,1.6795965433120728,2.3016417026519775,1.1314067840576172,6.7043657302856445,-1.5915422439575195,-1.1499538,-0.056199603,28.11877,27.621342,47.846333,BSC
1361319559168.0,1.6845961809158325,2.381220817565918,1.0646835565567017,6.733901023864746,-1.5750104188919067,-0.50579643,-0.59528816,27.66594000000001,28.03637,47.708416,BSC
1361325195264.0,1.6895958185195923,2.460561752319336,0.9984912872314453,6.7625017166137695,-1.5583126544952393,0.10567969,-0.9868528,27.2253,28.71783,47.395996,BSC
1361330831360.0,1.694595456123352,2.5396475791931152,0.9328421950340271,6.79013729095459,-1.541463017463684,0.35735616,-1.3842206,27.062492,29.192635,47.142624,BSC
1361336467456.0,1.6995950937271118,2.6184606552124023,0.8677481412887573,6.81677770614624,-1.524475336074829,0.2003638,-1.8408424,26.974623,29.62493,46.943157,BSC
1361342103552.0,1.7045947313308716,2.6969823837280273,0.8032209277153015,6.84239387512207,-1.507363200187683,-0.28344148,-2.296548,26.996944,29.92238,46.85602,BSC
1361347608576.0,1.7095943689346313,2.775193929672241,0.7392720580101013,6.866958141326904,-1.4901397228240967,-0.8155051,-2.6306913,27.156265,30.06077800000001,46.849022,BSC
1361353113600.0,1.7145940065383911,2.8530755043029785,0.6759126782417297,6.890443325042725,-1.4728178977966309,-1.2189816,-2.722321,27.279667,30.14293300000001,46.974514,BSC
1361358618624.0,1.7195937633514404,2.9306066036224365,0.6131535768508911,6.912823677062988,-1.455410361289978,-1.3271046999999998,-2.5631905,27.472078000000003,29.993517,47.291336,BSC
1361364123648.0,1.7245935201644897,3.007765769958496,0.5510048866271973,6.9340739250183105,-1.4379292726516724,-1.4144584999999998,-2.3979516,27.574038,29.834467,47.702206,BSC
1361369628672.0,1.729593276977539,3.08453106880188,0.4894762337207794,6.9541707038879395,-1.420386552810669,-1.31672,-1.9929478,27.589502000000003,29.789944,48.01487,BSC
1361375133696.0,1.7345930337905884,3.160879611968994,0.4285764694213867,6.9730916023254395,-1.4027936458587646,-1.0754282,-1.5314392,27.500021000000004,28.895016,49.16749,BSC
1361380638720.0,1.7395927906036377,3.236787796020508,0.36831358075141907,6.990815162658691,-1.3851616382598877,-0.7302894,-0.9999864,27.347929,28.155993,50.14526400000001,BSC
1361386012672.0,1.744592547416687,3.3122315406799316,0.30869466066360474,7.007321357727051,-1.367501139640808,-0.35338554,-0.50854534,27.192602,27.306566,51.146233,BSC
1361391386624.0,1.7495923042297363,3.387186050415039,0.24972578883171082,7.0225911140441895,-1.3498224020004272,0.02107485,0.055588737,26.98354,26.64621,51.923187,BSC
1361396760576.0,1.7545920610427856,3.4616262912750244,0.19141191244125366,7.036607265472412,-1.3321353197097778,0.39400807,0.18295415,26.961884,25.975891,52.647537,BSC
1361402134528.0,1.759591817855835,3.535526752471924,0.1337568312883377,7.04935359954834,-1.3144491910934448,0.63316184,0.35308012,26.84541500000001,25.482437,53.182198,BSC
1361407508480.0,1.7645915746688843,3.6088616847991943,0.07676312327384949,7.06081485748291,-1.296772837638855,0.6627888000000001,0.42271876,26.79128,25.00359,53.66558000000001,BSC
1361412882432.0,1.7695913314819336,3.681605577468872,0.0204321201890707,7.070978164672852,-1.2791147232055664,0.66431594,0.43585235,26.733154,24.667463,53.963306,BSC
1361418256384.0,1.774591088294983,3.753732681274414,-0.03523610159754753,7.079831123352051,-1.2614829540252686,0.68294734,0.41050145,26.687672,24.330154,54.24322,BSC
1361423630336.0,1.7795908451080322,3.8252174854278564,-0.09024273604154587,7.087363243103027,-1.2438850402832031,0.70280045,0.32650748,26.589483,24.156483,54.31685,BSC
1361428873216.0,1.7845906019210815,3.8960349559783936,-0.14459021389484406,7.093564987182617,-1.2263280153274536,0.7687739,0.21685717,26.534445,23.945517,54.39402800000001,BSC
1361434116096.0,1.7895903587341309,3.966160535812378,-0.1982821822166443,7.098429203033447,-1.2088185548782349,0.8790351000000001,0.08857546,26.538872,23.68937,54.48489,BSC
1361439358976.0,1.7945901155471802,4.03557014465332,-0.2513234615325928,7.101949214935303,-1.191362977027893,0.9669997,-0.046731193,26.51965,23.689907,54.4289,BSC
1361444601856.0,1.7995898723602295,4.104240894317627,-0.30371996760368347,7.104119777679443,-1.1739671230316162,0.9999864,-0.19730948,26.56488,23.646673,54.393097,BSC
1361449844736.0,1.8045896291732788,4.172150611877441,-0.3554786145687103,7.10493803024292,-1.1566364765167236,1.0155635,-0.30909783,26.584404,23.705923,54.283527,BSC
1361455087616.0,1.8095893859863281,4.239278316497803,-0.40660735964775085,7.104401111602783,-1.139375925064087,1.0656544,-0.40317106,26.667044,23.732183,54.18815,BSC
1361460330496.0,1.8145891427993774,4.305603981018066,-0.45711496472358704,7.102508544921875,-1.122190237045288,1.1313223999999995,-0.49235737,26.790651,23.739204,54.10909300000001,BSC
1361465573376.0,1.8195888996124268,4.371108531951904,-0.5070109963417053,7.0992608070373535,-1.1050838232040405,1.3426818,-0.5366451,26.962173,23.809296,53.942047,BSC
1361470816256.0,1.8245887756347656,4.435774803161621,-0.5563057661056519,7.094659805297852,-1.0880604982376099,1.5745052,-0.6053675000000001,27.195238,23.856491,53.780647,BSC
1361475928064.0,1.8295886516571045,4.499587059020996,-0.6050100922584534,7.088708877563477,-1.0711240768432617,1.7159204,-0.6423248,27.456598,23.939762,53.580630000000006,BSC
1361481039872.0,1.8345885276794434,4.562530517578125,-0.6531354188919067,7.081411838531494,-1.054277777671814,1.7504343999999998,-0.65301496,27.765547,24.023104,53.36495600000001,BSC
1361486151680.0,1.8395884037017822,4.624592304229736,-0.7006935477256775,7.072774410247803,-1.037524700164795,1.7174476000000003,-0.61666846,28.086044,24.12568,53.134197,BSC
1361491263488.0,1.844588279724121,4.685760974884033,-0.7476966977119446,7.062802791595459,-1.0208675861358643,1.6468927,-0.5506949999999999,28.527641,24.133886,52.89789200000001,BSC
1361496375296.0,1.84958815574646,4.746026992797852,-0.7941573262214661,7.051505088806152,-1.004309058189392,1.5873333,-0.43890667,28.9206,24.175142,52.653072,BSC
1361501487104.0,1.8545880317687988,4.805381774902344,-0.8400880098342896,7.038890361785889,-0.9878513216972351,1.5500705,-0.29168814,29.326824,24.136166,52.451557,BSC
1361506598912.0,1.8595879077911377,4.863818645477295,-0.8855016231536865,7.024967670440674,-0.9714964628219604,1.4999796,-0.12003502,29.649849,24.130959,52.24195,BSC
1361511710720.0,1.8645877838134766,4.921332836151123,-0.9304109215736389,7.009748458862305,-0.9552463889122009,1.4349225,0.032375857,29.94132,24.065657,52.084766,BSC
1361516822528.0,1.8695876598358154,4.9779205322265625,-0.9748287200927734,6.99324369430542,-0.9391027688980103,1.4138476,0.15027285,30.17241,24.024858,51.906155,BSC
1361521934336.0,1.8745876550674438,5.0335798263549805,-1.0187678337097168,6.975466728210449,-0.9230671525001526,1.4660766,0.25503623,30.37418,24.000591,51.701336,BSC
1361527046144.0,1.8795876502990723,5.088310718536377,-1.0622408390045166,6.956430435180664,-0.9071409106254578,1.5723672,0.31642818,30.551737,23.990086,51.479908,BSC
1361532157952.0,1.8845876455307007,5.142114162445068,-1.1052603721618652,6.9361491203308105,-0.8913252949714661,1.7012596999999998,0.34177909999999995,30.724823,24.024246,51.20888,BSC
1361537269760.0,1.889587640762329,5.194993019104004,-1.1478385925292969,6.914638042449951,-0.8756213784217834,1.8316795,0.32803464,30.914799,24.063202,50.916515,BSC
1361542381568.0,1.8945876359939575,5.246951103210449,-1.1899875402450562,6.891913414001465,-0.8600301742553711,1.9529362,0.30940324,31.103987,24.176146,50.55141,BSC
1361547493376.0,1.899587631225586,5.297994136810303,-1.2317190170288086,6.8679914474487305,-0.8445526361465454,2.0662518,0.27122417,31.333038,24.28181,50.173233,BSC
1361552605184.0,1.9045876264572144,5.348128795623779,-1.273044466972351,6.842889308929443,-0.829189658164978,2.16399,0.2489276,31.554276,24.454325,49.746243,BSC
1361557716992.0,1.9095876216888428,5.397363185882568,-1.3139750957489014,6.816625595092773,-0.8139419555664062,2.2067506000000003,0.22602014,31.798296,24.615616,49.321323,BSC
1361562828800.0,1.9145876169204712,5.445706844329834,-1.3545217514038086,6.789219379425049,-0.7988102436065674,2.2702806,0.20769419,32.06028,24.81515,48.860153,BSC
1361567940608.0,1.9195876121520996,5.493170261383057,-1.3946948051452637,6.760689735412598,-0.7837952375411987,2.2876904,0.17715092,32.326458,25.004484,48.41369,BSC
1361573052416.0,1.9245877265930176,5.539764404296875,-1.4345043897628784,6.731057167053223,-0.7688975930213928,2.2779164,0.14905111,32.609512,25.214455,47.940727,BSC
1361578164224.0,1.9295878410339355,5.585502624511719,-1.473960280418396,6.700342178344727,-0.7541179656982422,2.2473733,0.118202426,32.89617,25.413918,47.482155,BSC
1361583276032.0,1.9345879554748535,5.630397796630859,-1.5130716562271118,6.668566703796387,-0.7394570112228394,2.1743748,0.08796459400000001,33.192955,25.61606,47.00628,BSC
1361588256768.0,1.9395880699157715,5.674465179443359,-1.5518475770950317,6.6357526779174805,-0.7249152660369873,2.085494,0.059864793,33.480198,25.802065,46.553562,BSC
1361593237504.0,1.9445881843566895,5.717719554901123,-1.5902966260910034,6.601922988891602,-0.7104933857917786,1.9517145,0.03573562,33.73881,25.97296,46.139065,BSC
1361598218240.0,1.9495882987976074,5.760176658630371,-1.6284271478652954,6.567101001739502,-0.6961920261383057,1.7986927,0.031154128,34.055946,26.118029,45.654724,BSC
1361603198976.0,1.9545884132385254,5.801853656768799,-1.666247010231018,6.53131103515625,-0.6820118427276611,1.6328428,0.03756821,34.33075,26.249117,45.214172,BSC
1361608179712.0,1.9595885276794434,5.842767715454102,-1.703763723373413,6.494577407836914,-0.6679534316062927,1.4895949,0.051923547,34.647587,26.33701,44.725357,BSC
1361613291520.0,1.9645886421203613,5.882936477661133,-1.740984559059143,6.456925392150879,-0.654017448425293,1.3808608999999998,0.07696902,34.91514,26.415924,44.273804,BSC
1361618272256.0,1.9695887565612793,5.9223785400390625,-1.777916431427002,6.4183807373046875,-0.640204668045044,1.3213016000000002,0.10140363,35.226948,26.419165000000003,43.793175,BSC
1361623252992.0,1.9745889902114868,5.961112022399902,-1.8145660161972046,6.378970146179199,-0.6265157461166382,1.2922854,0.12675454,35.49669,26.416407,43.34052,BSC
1361628233728.0,1.9795892238616943,5.9991559982299805,-1.8509396314620972,6.338719844818115,-0.6129514575004578,1.2794572,0.14477506,35.78358,26.373014,42.881508,BSC
1361633345536.0,1.9845894575119019,6.036529064178467,-1.8870434761047363,6.297657012939453,-0.59951251745224,1.2235631,0.17195857,36.02705,26.32629600000001,42.44901,BSC
1361638326272.0,1.9895896911621094,6.0732502937316895,-1.92288339138031,6.255809783935547,-0.5861997008323669,1.1319333,0.19853121,36.294388,26.213863,42.036602,BSC
1361643307008.0,1.994589924812317,6.109338760375977,-1.9584650993347168,6.213206768035889,-0.5730137825012207,1.0436633,0.24831672,36.517418,26.11122300000001,41.643627,BSC
1361648287744.0,1.9995901584625244,6.144813537597656,-1.9937939643859863,6.169876575469971,-0.5599555373191833,0.9810496,0.3051272,36.729733,25.959404,41.284424,BSC
1361653399552.0,2.0045902729034424,6.179693222045898,-2.0288751125335693,6.125848293304443,-0.5470257997512817,0.9663888,0.35216382,36.906124,25.818537,40.94222,BSC
1361658380288.0,2.0095906257629395,6.213995933532715,-2.063713550567627,6.081151962280273,-0.534225344657898,0.9605856,0.37843102,37.0659,25.66555,40.62648400000001,BSC
1361663361024.0,2.0145909786224365,6.247740268707275,-2.098314046859741,6.035817623138428,-0.5215550065040588,0.9944886,0.38515055,37.211014,25.523924,40.313396,BSC
1361668341760.0,2.0195913314819336,6.280943393707275,-2.132681369781494,5.989876747131348,-0.5090155005455017,1.0769554,0.3885103,37.34013,25.420242,39.97668,BSC
1361673322496.0,2.0245916843414307,6.313622951507568,-2.1668198108673096,5.943359851837158,-0.49660760164260864,1.1844677,0.3830125,37.474174,25.324942,39.63764000000001,BSC
1361678303232.0,2.0295920372009277,6.345795631408691,-2.2007334232330322,5.896299362182617,-0.48433202505111694,1.3240504,0.36651915,37.62595,25.225973,39.283806,BSC
1361683283968.0,2.034592390060425,6.377477169036865,-2.234426259994507,5.848727226257324,-0.47218945622444153,1.4123205,0.35460728,37.78505300000001,25.171045,38.887604,BSC
1361688264704.0,2.0395925045013428,6.4086833000183105,-2.267902135848999,5.8006768226623535,-0.46018052101135254,1.4462235,0.34391713,37.958107,25.106892,38.484715,BSC
1361693245440.0,2.0445926189422607,6.439428806304932,-2.3011646270751953,5.752180576324463,-0.44830578565597534,1.4285084,0.32803464,38.138744,25.085314,38.035988,BSC
1361698226176.0,2.0495927333831787,6.469727039337158,-2.3342173099517822,5.703272819519043,-0.43656572699546814,1.3924674,0.30909783,38.31926,25.052862,37.597366,BSC
1361703206912.0,2.0545928478240967,6.49959135055542,-2.367063045501709,5.653987884521484,-0.42496079206466675,1.3542882,0.29993483,38.51308,25.031775,37.126884,BSC
1361708318720.0,2.0595929622650146,6.529033660888672,-2.399704933166504,5.604360103607178,-0.41349130868911743,1.3170254,0.2751948,38.703335,25.000282,36.68265,BSC
1361713299456.0,2.0645930767059326,6.558065414428711,-2.432145595550537,5.55442476272583,-0.4021575450897217,1.2675453,0.25473082,38.89236,24.972918,36.23663,BSC
1361718280192.0,2.0695931911468506,6.586697101593018,-2.4643876552581787,5.504217624664307,-0.39095959067344666,1.2165382,0.22724187,39.076965,24.94012,35.816486,BSC
1361723392000.0,2.0745933055877686,6.614938259124756,-2.4964334964752197,5.453774452209473,-0.37989750504493713,1.1591167,0.19211712,39.279915,24.88597900000001,35.390587,BSC
1361728372736.0,2.0795934200286865,6.642796993255615,-2.528284788131714,5.40313196182251,-0.36897119879722595,1.138042,0.16096300000000002,39.48002,24.830719,34.983543,BSC
1361733353472.0,2.0845935344696045,6.670280933380127,-2.559943675994873,5.3523268699646,-0.358180433511734,1.1621711,0.13316862,39.71534000000001,24.74457,34.5611,BSC
1361738334208.0,2.0895936489105225,6.697396755218506,-2.591411590576172,5.301396369934082,-0.34752488136291504,1.1957687,0.12950343,39.941265,24.65881700000001,34.155205,BSC
1361743314944.0,2.0945937633514404,6.724149227142334,-2.622689723968506,5.250378131866455,-0.33700403571128845,1.2220358999999998,0.13683382,40.165928,24.569645,33.75971,BSC
1361748295680.0,2.0995938777923584,6.750543594360352,-2.6537792682647705,5.199309825897217,-0.3266172707080841,1.208597,0.14508049,40.402386,24.436604,33.34905,BSC
1361753276416.0,2.1045939922332764,6.776582717895508,-2.6846811771392822,5.148229598999023,-0.3163638114929199,1.1334605,0.1518,40.621357,24.305246,32.957912,BSC
1361758388224.0,2.1095941066741943,6.802268981933594,-2.715395927429199,5.097175598144531,-0.3062427341938019,1.0180069,0.17715092,40.82984,24.120655,32.576256,BSC
1361763368960.0,2.1145942211151123,6.827604293823242,-2.7459237575531006,5.0461859703063965,-0.296252965927124,0.95722586,0.19608775,41.02613,23.937521,32.20903,BSC
1361768349696.0,2.1195943355560303,6.852588653564453,-2.7762649059295654,4.995299339294434,-0.28639328479766846,0.8585710999999999,0.21471913,41.192898,23.693893,31.885845,BSC
1361773330432.0,2.1245944499969482,6.877221584320068,-2.8064191341400146,4.944554805755615,-0.27666229009628296,0.7675522,0.24220806,41.33625,23.44681,31.578623,BSC
1361778311168.0,2.129594564437866,6.901501178741455,-2.836386203765869,4.893990516662598,-0.26705846190452576,0.66859204,0.26022860000000003,41.466793,23.126404,31.313864,BSC
1361783291904.0,2.134594678878784,6.925425052642822,-2.8661651611328125,4.8436455726623535,-0.25758010149002075,0.45906523,0.26083946,41.557636,22.823723,31.1035,BSC
1361788272640.0,2.139594793319702,6.9489898681640625,-2.8957552909851074,4.793558120727539,-0.2482254058122635,0.119729586,0.27855456,41.59899,22.558495,30.951456,BSC
1361793384448.0,2.14459490776062,6.972191333770752,-2.9251551628112793,4.743767261505127,-0.2389923632144928,-0.33475417,0.20616703,41.635998,22.28552,30.874786,BSC
1361798365184.0,2.149595022201538,6.995023727416992,-2.9543635845184326,4.694311141967773,-0.22987885773181915,-0.25625798,0.14019357,41.692413,22.13111,30.746101,BSC
1361803345920.0,2.154595136642456,7.017481327056885,-2.9833786487579346,4.645228385925293,-0.2208826243877411,0.28527406,0.047647487,41.82706,21.857016,30.560457,BSC
1361808326656.0,2.159595251083374,7.039556980133057,-3.0121982097625732,4.596556663513184,-0.2120012640953064,0.97158116,-0.002443461,41.999054,21.741743,30.317547,BSC
1361813307392.0,2.164595365524292,7.061243057250977,-3.0408196449279785,4.54833459854126,-0.20323225855827332,1.4046847,0.031154128,42.21097,21.631042,30.002047,BSC
1361818288128.0,2.16959547996521,7.082530975341797,-3.0692405700683594,4.500599384307861,-0.19457295536994934,1.3747523,0.116980694,42.490486,21.428316,29.59672,BSC
1361823268864.0,2.174595594406128,7.103411674499512,-3.0974578857421875,4.453388214111328,-0.1860206127166748,1.0888673,0.24556783,42.765686,21.255802,29.138748,BSC
1361828249600.0,2.179595708847046,7.123874664306641,-3.1254680156707764,4.406738758087158,-0.1775723695755005,0.81336707,0.398895,43.0086,21.011755,28.712132,BSC
1361833230336.0,2.184595823287964,7.143909454345703,-3.1532671451568604,4.360687732696533,-0.1692252904176712,0.6805039,0.54733527,43.190174,20.769165,28.309385,BSC
1361838211072.0,2.189595937728882,7.1635050773620605,-3.1808509826660156,4.315271377563477,-0.160976380109787,0.70707655,0.6960809,43.306458,20.53622,27.919996,BSC
1361843322880.0,2.1945960521698,7.182649612426758,-3.2082149982452393,4.270525932312012,-0.1528225541114807,0.795652,0.80970186,43.34642,20.339855,27.611712,BSC
1361848303616.0,2.1995961666107178,7.201330661773682,-3.235353946685791,4.226487636566162,-0.14476072788238525,0.79168135,0.87598073,43.34527,20.14767,27.31171,BSC
1361853284352.0,2.2045962810516357,7.219535827636719,-3.2622623443603516,4.183191299438477,-0.1367877572774887,0.6582073,0.86529064,43.22741,20.292814,27.055817,BSC
1361858265088.0,2.2095963954925537,7.237251281738281,-3.2889342308044434,4.14067268371582,-0.12890052795410156,0.56138515,0.8341365,43.10611,20.436028,26.795843,BSC
1361863376896.0,2.2145965099334717,7.254463195800781,-3.3153626918792725,4.098966121673584,-0.12109590321779251,0.23915374,0.64843345,42.994343,20.557951,26.65698,BSC
1361868357632.0,2.2195966243743896,7.271158218383789,-3.341540813446045,4.058105945587158,-0.11337081342935562,0.12614368,0.5824600000000001,42.849945,20.819141,26.42695800000001,BSC
1361873338368.0,2.2245967388153076,7.2873215675354,-3.3674609661102295,4.018126487731934,-0.10572222620248795,-0.10842858,0.4578435,42.73085800000001,21.031279,26.346146,BSC
1361878450176.0,2.2295968532562256,7.302938461303711,-3.3931148052215576,3.979060649871826,-0.0981471911072731,-0.35796702,0.35308012,42.5969,21.311413,26.27049,BSC
1361883430912.0,2.2345969676971436,7.317994594573975,-3.4184937477111816,3.94094181060791,-0.09064283967018127,-0.6218608,0.28160888,42.465782,21.564106,26.271889,BSC
1361888411648.0,2.2395970821380615,7.332474231719971,-3.4435884952545166,3.9038023948669434,-0.0832064300775528,-0.87995136,0.2501493,42.302437,21.808859,26.351276,BSC
1361893392384.0,2.2445971965789795,7.346363067626953,-3.4683895111083984,3.8676743507385254,-0.07583533972501755,-1.0671816,0.19303341,42.147015,22.014624,26.48917800000001,BSC
1361898373120.0,2.2495973110198975,7.359645843505859,-3.4928863048553467,3.8325891494750977,-0.06852709501981735,-1.1591167,0.11728613,41.989075,22.194809,26.67039500000001,BSC
1361903353856.0,2.2545974254608154,7.372307300567627,-3.517068386077881,3.7985775470733643,-0.06127939745783806,-1.1502593,0.04642576,41.84131,22.284336,26.90108,BSC
1361908334592.0,2.2595975399017334,7.384332180023193,-3.540924549102783,3.76567006111145,-0.054090119898319244,-1.0503827,0.02321288,41.70427,22.346098,27.12803,BSC
1361913315328.0,2.2645976543426514,7.3957061767578125,-3.564443588256836,3.733896017074585,-0.046957336366176605,-0.8576548,0.055283304000000005,41.58981,22.280954,27.388922,BSC
1361918296064.0,2.2695977687835693,7.40641450881958,-3.587613582611084,3.70328426361084,-0.03987932577729225,-0.65057147,0.099265605,41.49463,22.203339,27.615297,BSC
1361923276800.0,2.2745978832244873,7.41644287109375,-3.6104228496551514,3.673862934112549,-0.0328545905649662,-0.4343252,0.15668693,41.398167,22.093155,27.82983,BSC
1361928257536.0,2.2795979976654053,7.425776958465576,-3.632859230041504,3.6456592082977295,-0.02588186040520668,-0.24923302,0.17256944,41.325157,21.979738,27.99552000000001,BSC
1361933369344.0,2.2845981121063232,7.434403419494629,-3.6549103260040283,3.618699550628662,-0.018960101529955864,-0.06078109,0.16584991,41.266518,21.866528,28.103981,BSC
1361938350080.0,2.289598226547241,7.4423089027404785,-3.6765637397766113,3.5930092334747314,-0.012088526971638203,0.11301007,0.1386664,41.23228,21.751347,28.16821,BSC
1361943330816.0,2.294598340988159,7.4494805335998535,-3.6978073120117188,3.568612575531006,-0.005266593769192696,0.24220806,0.11056661,41.2207,21.670774,28.152756,BSC
1361948311552.0,2.299598455429077,7.455906391143799,-3.7186288833618164,3.545532703399658,0.0015059920260682702,0.32375857,0.09987647,41.22846,21.58626700000001,28.107069,BSC
1361953292288.0,2.304598569869995,7.461575031280518,-3.739016056060791,3.523791790008545,0.008229274302721024,0.35796702,0.073303826,41.259106,21.494308,28.047207,BSC
1361958273024.0,2.309598684310913,7.466475486755371,-3.7589569091796875,3.503410577774048,0.014903049916028976,0.42394048,0.059864793,41.30993,21.419392,27.922323,BSC
1361963384832.0,2.314598798751831,7.470597267150879,-3.77843976020813,3.4844086170196533,0.021526871249079704,0.48349985,0.0061086523,41.382576,21.334524,27.801008000000003,BSC
1361968365568.0,2.319598913192749,7.473931312561035,-3.7974531650543213,3.466803789138794,0.02810005284845829,0.48624873,-0.07880162,41.46828,21.273413,27.644165,BSC
1361973346304.0,2.324599027633667,7.476469039916992,-3.815985918045044,3.450612783432007,0.03462167829275131,0.44226643,-0.18112154,41.57497,21.2051,27.496454,BSC
1361978327040.0,2.329599142074585,7.478202819824219,-3.8340272903442383,3.4358506202697754,0.04109060764312744,0.36682457,-0.26572640000000003,41.69925300000001,21.173681,27.310625,BSC
1361983307776.0,2.334599256515503,7.479125499725342,-3.851567029953003,3.42253041267395,0.04750548675656319,0.3042109000000001,-0.31184670000000003,41.83609000000001,21.125425,27.14496,BSC
1361988288512.0,2.339599370956421,7.479230880737305,-3.8685953617095947,3.4106640815734863,0.05386476591229439,0.22785273,-0.34422258,41.99100000000001,21.095898,26.95058,BSC
1361993269248.0,2.344599485397339,7.478514194488525,-3.8851027488708496,3.400261402130127,0.060166701674461365,0.15882497,-0.36010507,42.14461,21.056627,26.779985,BSC
1361998249984.0,2.349599599838257,7.476970672607422,-3.90108060836792,3.3913304805755615,0.06640937924385071,0.06841691,-0.37659842,42.295437,20.986788,26.629759000000004,BSC
1362003361792.0,2.354599714279175,7.474597454071045,-3.916520833969116,3.3838772773742676,0.07259071618318558,-0.03176499,-0.3827071,42.43438,20.917347,26.505875,BSC
1362008342528.0,2.3595998287200928,7.471391677856445,-3.9314157962799072,3.377906322479248,0.07870849221944809,-0.12980886,-0.38148534,42.551956,20.782404,26.445341,BSC
1362013323264.0,2.3645999431610107,7.467352390289307,-3.945758581161499,3.373420000076294,0.08476036041975021,-0.23426682,-0.3567453,42.647064,20.651384,26.413439,BSC
1362018304000.0,2.3696000576019287,7.4624786376953125,-3.959542989730835,3.3704187870025635,0.09074386209249496,-0.31398472,-0.34483343,42.72642000000001,20.44821,26.43530800000001,BSC
1362023284736.0,2.3746001720428467,7.456770896911621,-3.972763776779175,3.368901014328003,0.0966564491391182,-0.37018433,-0.33261612,42.784607,20.244814,26.476316,BSC
1362028265472.0,2.3796002864837646,7.450231075286865,-3.9854161739349365,3.368863105773926,0.10249548405408859,-0.3747658,-0.31856623,42.826733,20.000183,26.549242,BSC
1362033246208.0,2.3846004009246826,7.4428606033325195,-3.9974963665008545,3.3702995777130127,0.10825828462839127,-0.37384954,-0.30207285,42.85515,19.756315,26.633041,BSC
1362038226944.0,2.3896005153656006,7.43466329574585,-4.009000778198242,3.3732030391693115,0.11394212394952774,-0.36560285,-0.29168814,42.878708,19.517382,26.714434000000004,BSC
1362043338752.0,2.3946006298065186,7.425642967224121,-4.019927501678467,3.377563953399658,0.11954425275325775,-0.3549127,-0.2779437,42.896996,19.228933,26.841059,BSC
1362048450560.0,2.3996007442474365,7.415804862976074,-4.030274868011475,3.383371114730835,0.12506192922592163,-0.34483343,-0.26206118,42.909546,18.952583,26.962332,BSC
1362053431296.0,2.4046008586883545,7.405154705047607,-4.040041923522949,3.390611410140991,0.1304924041032791,-0.33658674,-0.25595254,42.91942,18.661205,27.099888,BSC
1362058412032.0,2.4096009731292725,7.3936991691589355,-4.049228191375732,3.3992700576782227,0.1358329951763153,-0.33261612,-0.24831672,42.92239,18.390446,27.23175,BSC
1362063392768.0,2.4146010875701904,7.38144588470459,-4.057835102081299,3.409330129623413,0.1410810500383377,-0.31734450000000003,-0.22479841,42.917786,18.115746,27.372955,BSC
1362068373504.0,2.4196012020111084,7.36840295791626,-4.065863609313965,3.4207732677459717,0.14623399078845978,-0.27091873,-0.19486602,42.910748,17.865524,27.500687,BSC
1362073354240.0,2.4246013164520264,7.354579925537109,-4.07331657409668,3.433579683303833,0.15128931403160095,-0.20616703,-0.14446963,42.8764,17.62764,27.635952000000003,BSC
1362078334976.0,2.4296014308929443,7.339986801147461,-4.080196380615234,3.447727680206299,0.15624463558197021,-0.14905111,-0.09437868,42.835686,17.409727,27.755663,BSC
1362083446784.0,2.4346015453338623,7.324634075164795,-4.0865068435668945,3.4631941318511963,0.1610976755619049,-0.096516706,-0.040927973,42.77627,17.210272,27.886478000000004,BSC
1362088427520.0,2.4396016597747803,7.308533191680908,-4.092252254486084,3.479954957962036,0.16584627330303192,-0.08216137400000001,0.016493361,42.701687,17.037817,28.005024,BSC
1362093408256.0,2.4446017742156982,7.291696548461914,-4.097437381744385,3.4979844093322754,0.1704884171485901,-0.098043874,0.06169739,42.612038,16.882181,28.129622,BSC
1362098388992.0,2.449601888656616,7.274137020111084,-4.102067947387695,3.5172557830810547,0.17502225935459137,-0.13836098,0.10323623,42.505325,16.749976999999998,28.250088,BSC
1362103500800.0,2.454602003097534,7.255868434906006,-4.106150150299072,3.53774094581604,0.17944610118865967,-0.18142697,0.14538592,42.383614,16.641742999999998,28.369476,BSC
1362108481536.0,2.459602117538452,7.236905097961426,-4.109690189361572,3.55941104888916,0.1837584227323532,-0.22632557,0.16187929,42.263058,16.54593,28.482914,BSC
1362113462272.0,2.46460223197937,7.217262268066406,-4.112695693969727,3.5822362899780273,0.18795789778232574,-0.26297748,0.19975294,42.121185,16.46639,28.59788,BSC
1362118574080.0,2.469602346420288,7.19695520401001,-4.115174293518066,3.6061859130859375,0.19204334914684296,-0.28924468,0.23548855,41.985996,16.407885,28.69559000000001,BSC
1362123554816.0,2.474602460861206,7.176000595092773,-4.117133617401123,3.631228446960449,0.19601382315158844,-0.30176744,0.25289822,41.84468,16.351264999999998,28.796059000000003,BSC
1362128535552.0,2.479602575302124,7.154415130615234,-4.118582248687744,3.657332181930542,0.19986854493618011,-0.29046643,0.2678644,41.69546500000001,16.298810999999993,28.892475,BSC
1362133516288.0,2.484602689743042,7.132216453552246,-4.119528293609619,3.684464454650879,0.20360693335533142,-0.26878070000000004,0.28802297,41.545,16.276705,28.96373,BSC
1362138497024.0,2.48960280418396,7.10942268371582,-4.119981288909912,3.712592124938965,0.2072286158800125,-0.25167647,0.26572640000000003,41.406754,16.245628,29.034874,BSC
1362143477760.0,2.494602918624878,7.086052894592285,-4.119950294494629,3.7416820526123047,0.21073339879512787,-0.22815818,0.25778514,41.2684,16.292246,29.073616,BSC
1362148458496.0,2.499603033065796,7.062126159667969,-4.119444847106934,3.771700382232666,0.21412129700183868,-0.20708331,0.23335053,41.146282,16.327965,29.111355,BSC
1362153439232.0,2.504603385925293,7.037662506103516,-4.11847448348999,3.8026134967803955,0.21739248931407928,-0.20250183,0.20433442,41.02852,16.397013,29.145191,BSC
1362158419968.0,2.50960373878479,7.01268196105957,-4.117049217224121,3.8343875408172607,0.2205473631620407,-0.16768251,0.19120082,40.92075300000001,16.462904,29.165375,BSC
1362163400704.0,2.514604091644287,6.987205982208252,-4.11517858505249,3.86698842048645,0.22358645498752594,-0.12156218,0.172264,40.827267,16.522886,29.183931,BSC
1362168381440.0,2.519604444503784,6.9612555503845215,-4.11287260055542,3.9003822803497314,0.22651049494743347,-0.07299839999999999,0.13958271,40.74277,16.59346,29.194344,BSC
1362173362176.0,2.5246047973632812,6.9348530769348145,-4.110141277313232,3.934535026550293,0.22932036221027374,-0.043066,0.099571034,40.67084000000001,16.665073,29.199545,BSC
1362178342912.0,2.5296051502227783,6.908020496368408,-4.10699462890625,3.9694132804870605,0.23201709985733032,-0.034513887,0.07360926,40.608833,16.727316000000002,29.199135,BSC
1362183323648.0,2.5346055030822754,6.880780220031738,-4.103443145751953,4.004983425140381,0.23460189998149872,-0.026267206,0.059864793,40.550823,16.777681,29.228647,BSC
1362188435456.0,2.5396058559417725,6.853155612945557,-4.099496364593506,4.0412116050720215,0.237076073884964,-0.020463986,0.043676864,40.50282,16.824368,29.258884,BSC
1362193416192.0,2.5446062088012695,6.825170040130615,-4.095164775848389,4.078065395355225,0.23944106698036194,-0.030848695,0.028710667,40.454838,16.844105,29.314144,BSC
1362198396928.0,2.5496065616607666,6.796846866607666,-4.090458393096924,4.115511894226074,0.24169844388961792,-0.035430185,0.008246681,40.41514,16.857333999999998,29.36778300000001,BSC
1362203377664.0,2.5546069145202637,6.768210411071777,-4.085387706756592,4.153518199920654,0.24384985864162445,-0.06658431,-0.01160644,40.3803,16.840431,29.447132,BSC
1362208358400.0,2.5596072673797607,6.739284992218018,-4.079962253570557,4.192052364349365,0.2458970844745636,-0.084910266,-0.03726278,40.35449000000001,16.822031,29.525785,BSC
1362213339136.0,2.564607620239258,6.710094451904297,-4.074192523956299,4.231082916259766,0.2478419691324234,-0.103847094,-0.06169739,40.33515,16.783459,29.61109,BSC
1362218319872.0,2.569607973098755,6.680663585662842,-4.068088531494141,4.270577907562256,0.24968641996383667,-0.11362094,-0.08063421400000001,40.320835,16.75329,29.699299,BSC
1362223300608.0,2.574608325958252,6.651016712188721,-4.061660289764404,4.310506820678711,0.2514324486255646,-0.11301007,-0.09773844,40.31991,16.711192999999998,29.777552000000004,BSC
1362228281344.0,2.579608678817749,6.62117862701416,-4.054917812347412,4.350838661193848,0.2530820667743683,-0.09712757,-0.10903945,40.323162,16.67099,29.853888,BSC
1362233262080.0,2.584609031677246,6.591174125671387,-4.047871112823486,4.391543388366699,0.25463736057281494,-0.06841691,-0.118202426,40.340538,16.633572,29.91284000000001,BSC
1362238242816.0,2.589609384536743,6.561028003692627,-4.040530204772949,4.432590484619141,0.25610044598579407,-0.03940081,-0.12492194,40.361694,16.59508,29.966803,BSC
1362243354624.0,2.5946097373962402,6.530764579772949,-4.032905101776123,4.4739508628845215,0.25747349858283997,-0.0076358155,-0.12308934,40.38846,16.561914,29.99967,BSC
1362248335360.0,2.5996100902557373,6.50040864944458,-4.02500581741333,4.515595436096191,0.25875866413116455,0.006414085,-0.1255328,40.418957,16.528233,30.029665,BSC
1362253447168.0,2.6046102046966553,6.469984531402588,-4.016842365264893,4.557495594024658,0.2599581182003021,0.016493361,-0.12461651,40.4499,16.495949,30.051033,BSC
1362258427904.0,2.6096103191375732,6.439516544342041,-4.008424758911133,4.59962272644043,0.261074036359787,0.015577064,-0.13011430000000002,40.480854,16.466785,30.071707,BSC
1362263408640.0,2.614610433578491,6.40902853012085,-3.999763250350952,4.641948699951172,0.26210859417915344,0.01863139,-0.13408493,40.510883,16.447226999999998,30.08162,BSC
1362268389376.0,2.619610548019409,6.378544330596924,-3.990867853164673,4.684445858001709,0.2630639672279358,0.003970624,-0.11728613,40.533356,16.43083,30.094776,BSC
1362273370112.0,2.624610662460327,6.348087310791016,-3.981748580932617,4.727087020874023,0.26394230127334595,-0.008246681,-0.1142318,40.561184,16.410829999999994,30.107767,BSC
1362278350848.0,2.629610776901245,6.317680835723877,-3.9724154472351074,4.769845485687256,0.26474571228027344,-0.03390302,-0.122478485,40.59362,16.387585,30.109419,BSC
1362283331584.0,2.634610891342163,6.287347316741943,-3.962878704071045,4.812695026397705,0.2654763162136078,-0.06169739,-0.12614368,40.6214,16.368134,30.114246,BSC
1362288312320.0,2.639611005783081,6.257109642028809,-3.953148126602173,4.855608940124512,0.26613613963127136,-0.09896017,-0.1328632,40.654453,16.33651,30.109585,BSC
1362293293056.0,2.644611120223999,6.22698974609375,-3.9432342052459717,4.898561954498291,0.2667272388935089,-0.13041973,-0.13194689,40.68291,16.305654999999998,30.11089,BSC
1362298273792.0,2.649611234664917,6.197009086608887,-3.9331469535827637,4.9415283203125,0.267251580953598,-0.15027285,-0.13041973,40.706787,16.261189,30.111315,BSC
1362303254528.0,2.654611349105835,6.16718864440918,-3.922896385192871,4.984483242034912,0.2677111327648163,-0.1518,-0.13316862,40.7294,16.221268,30.11596500000001,BSC
1362308235264.0,2.659611463546753,6.13754940032959,-3.9124927520751953,5.027402400970459,0.2681077718734741,-0.16676621,-0.13316862,40.747463,16.15975,30.143936,BSC
1362313216000.0,2.664611577987671,6.1081109046936035,-3.9019463062286377,5.070261478424072,0.2684433162212372,-0.18417588,-0.13255776,40.764645,16.09955,30.17305,BSC
1362318327808.0,2.669611692428589,6.078893184661865,-3.8912668228149414,5.113036632537842,0.2687195837497711,-0.19364429,-0.124005646,40.76874,16.02145,30.231709,BSC
1362323308544.0,2.674611806869507,6.049914836883545,-3.880464553833008,5.155704975128174,0.2689383029937744,-0.19120082,-0.12064589,40.77267,15.941653,30.291212,BSC
1362328289280.0,2.679611921310425,6.021193981170654,-3.8695497512817383,5.198243141174316,0.2691011428833008,-0.17379116,-0.105068825,40.769768,15.866047,30.346237,BSC
1362333270016.0,2.6846120357513428,5.992748260498047,-3.858532190322876,5.240629196166992,0.26920971274375916,-0.14355333,-0.093767814,40.761707,15.766085999999998,30.435873,BSC
1362338250752.0,2.6896121501922607,5.964594841003418,-3.847421646118164,5.282841205596924,0.2692655920982361,-0.11148291,-0.07849618,40.748627,15.670573,30.516691,BSC
1362343362560.0,2.6946122646331787,5.9367499351501465,-3.836228132247925,5.324857711791992,0.26927030086517334,-0.08124508,-0.06780604,40.727448,15.556947,30.630281,BSC
1362348343296.0,2.6996123790740967,5.909229278564453,-3.8249616622924805,5.3666582107543945,0.26922526955604553,-0.06566802,-0.06780604,40.70602,15.44653,30.736464,BSC
1362353324032.0,2.7046124935150146,5.8820481300354,-3.813631534576416,5.40822172164917,0.2691318988800049,-0.038179077,-0.05955936,40.67472,15.32269,30.861347,BSC
1362358304768.0,2.7096126079559326,5.855220317840576,-3.8022475242614746,5.44952917098999,0.26899152994155884,-0.0070249503,-0.070249505,40.65091,15.204076999999998,30.980085,BSC
