timestamp,rel_time,acc_x,acc_y,acc_z,gyro_x,gyro_y,gyro_z,azimuth,pitch,roll,label
0.0,0.0,0.0,0.0,0.0,0.0,0.34666604,0.087659165,165.74796,-150.33829,-37.422996999999995,STD
1.2063158631725468e-11,9.596966228556741e-26,2.7137559824297335e-23,1.8844046771010272e-22,-3.669726105255234e-24,-1.176821120686895e-23,0.14660765,0.040317107000000005,166.20035,-149.53775,-36.862534000000004,STD
1.1870882055120546e-08,1.4576373644814465e-22,2.6697501454980454e-20,1.8543608310182477e-19,-3.611218118916848e-21,-8.02922248620203e-21,-0.0061086523,0.0030543262,166.63396,-148.80588,-36.287341999999995,STD
9.539219263388077e-07,1.4639637967006685e-20,2.1449328882946636e-18,1.4901250107920192e-17,-2.901898739840222e-19,-4.511450298694573e-19,0.002443461,0.006414085,167.05905,-148.0839,-35.723217,STD
2.623463842610363e-05,4.738039883891224e-19,5.897924822445175e-17,4.0981105702410196e-16,-7.980741120307568e-18,-9.208067045460672e-18,0.02076942,0.008246681,167.49309,-147.38547,-35.199047,STD
0.00038597630918957293,7.952052015122391e-18,8.675867840545772e-16,6.029318161410039e-15,-1.1741611742997494e-16,-1.0553074963744961e-16,0.028099801,0.008857545999999999,167.91613999999996,-146.74417,-34.677242,STD
0.003729212796315551,8.591514741004472e-17,8.381091163417974e-15,5.825371516545927e-14,-1.1344443552683669e-15,-8.255635207776008e-16,0.02076942,0.0036651915999999997,168.32545,-146.10588,-34.157771999999994,STD
0.026517631486058235,6.735400591076487e-16,5.958697212949185e-14,4.142286828216074e-13,-8.066769942186112e-15,-4.890906727333206e-15,0.019242255,0.0061086523,168.72215,-145.46843,-33.63637,STD
0.14898726344108582,4.127509389774322e-15,3.3473454585410123e-13,2.327306533253526e-12,-4.53224223016975e-14,-2.3390201586573692e-14,0.015577064,0.014355333500000001,169.10983000000004,-144.82352,-33.11933,STD
0.6937448978424072,2.0785607461018714e-14,1.5584299259061019e-12,1.0836855718343585e-11,-2.1103905840751114e-13,-9.423850046673399e-14,0.012217305,0.010995574,169.4845,-144.19146999999995,-32.60702,STD
2.7696471214294434,8.912730715135778e-14,6.2208428512622316e-12,4.3264031246437185e-11,-8.425322614059871e-13,-3.29743665098553e-13,0.019547688,0.00580322,169.84836,-143.55673000000004,-32.09479,STD
9.721684455871582,3.34077519337575e-13,2.1832553126488463e-11,1.5185991353305894e-10,-2.957349642951357e-12,-1.0249164798109556e-12,0.01038471,0.01160644,170.2083,-142.92693,-31.58796,STD
30.58500099182129,1.1168685334211892e-12,6.867688362444113e-11,4.777593320959284e-10,-9.303979461861012e-12,-2.8792107586994575e-12,0.008857545999999999,0.009773844,170.55147,-142.30176,-31.083662,STD
87.55752563476562,3.3832385677723398e-12,1.965782120416648e-10,1.3677075028084573e-09,-2.663500323074608e-11,-7.410822823461505e-12,0.0061086523,0.008857545999999999,170.88881999999995,-141.67526,-30.583197,STD
230.87181091308594,9.404707915217081e-12,5.18266984883553e-10,3.6063656505547215e-09,-7.023107789771998e-11,-1.7672188365458474e-11,0.004581489,0.009468411,171.21657,-141.05637,-30.086042,STD
566.3095092773438,2.4240592172430908e-11,1.2710946739602491e-09,8.84609896445454e-09,-1.7227068382918986e-10,-3.940340068120385e-11,0.0036651915999999997,0.004276057,171.53396999999995,-140.44124,-29.59398,STD
1302.9361572265625,5.843402844929457e-11,2.924080089172776e-09,2.035261204014205e-08,-3.9635078552535674e-10,-8.278187163535122e-11,0.007941248,0.010995574,171.84416000000004,-139.82437,-29.101941999999998,STD
2831.330078125,1.3269643717173096e-10,6.3533009964089615e-09,4.422691191052763e-08,-8.612836555066394e-10,-1.6493720278454305e-10,0.004276057,0.010079277,172.14481999999995,-139.21631000000002,-28.61779000000001,STD
5845.44189453125,2.85627077545314e-10,1.3115042385436482e-08,9.130878453333935e-08,-1.7781653927073648e-09,-3.133976411717754e-10,0.01038471,0.004276057,172.43388000000004,-138.61068999999998,-28.134159999999998,STD
11523.9951171875,5.858468155039986e-10,2.585231761997875e-08,1.8001033197379002e-07,-3.5055569558295474e-09,-5.706191630316937e-10,0.010079277,0.0018325957999999999,172.71758,-138.00891000000001,-27.655602000000002,STD
21789.73046875,1.1502782060190953e-09,4.887569460265695e-08,3.4036537499559927e-07,-6.628343207637499e-09,-9.997225269842147e-10,0.0033597588,0.009773844,172.99416000000005,-137.41003,-27.179838,STD
39666.5546875,2.1706567654433684e-09,8.896328296259526e-08,6.196082154019678e-07,-1.2066374566188642e-08,-1.6915280287577161e-09,0.010690141499999998,0.0061086523,173.25655,-136.8198,-26.708426,STD
69755.515625,3.950679783315536e-09,1.5642660855519352e-07,1.0896083040279336e-06,-2.1219248580450767e-08,-2.772936769090961e-09,0.018325957,0.0030543262,173.51459,-136.22961,-26.24028400000001,STD
118850.3125,6.956470954833094e-09,2.664886267211841e-07,1.8564848005553358e-06,-3.6153551263851114e-08,-4.416668364370935e-09,0.01160644,0.0012217305,173.76643,-135.64711,-25.777977,STD
196711.984375,1.1883241946009093e-08,4.410176188685e-07,3.0727064768143464e-06,-5.983849149515663e-08,-6.852331591034044e-09,0.0125227375,-0.0009162978999999999,174.00664,-135.07003999999998,-25.317774,STD
317019.8125,1.9741120738103746e-08,7.106548878255126e-07,4.951945811626501e-06,-9.643516563073717e-08,-1.0378779613517963e-08,0.008857545999999999,0.004276057,174.24368,-134.49516,-24.86252,STD
498512.46875,3.1963150348701674e-08,1.117367446568096e-06,7.78690264269244e-06,-1.5164366118369799e-07,-1.5377686679585167e-08,0.01038471,0.010079277,174.47212,-133.9269,-24.41074200000001,STD
766329.5,5.053835394619455e-08,1.7174480717585539e-06,1.1970256309723482e-05,-2.3311112329338357e-07,-2.2328284998707204e-08,0.01038471,0.012217305,174.69551,-133.36569,-23.963816,STD
1153558.125,7.817252622999149e-08,2.58497266258928e-06,1.8018828995991498e-05,-3.5090224059786124e-07,-3.182315566618854e-08,0.018325957,0.008552114,174.91011,-132.80716,-23.519614999999998,STD
1702986.125,1.1847922820606982e-07,3.815719082922442e-06,2.6600966521073133e-05,-5.180324933462543e-07,-4.458500768578233e-08,0.0125227375,0.0036651915999999997,175.12212,-132.2557,-23.082003,STD
2469056.5,1.7620298820020253e-07,5.531532224267721e-06,3.856706462102011e-05,-7.510626005569065e-07,-6.148432163399775e-08,0.018936822,0.008552114,175.32416,-131.70911999999998,-22.64404,STD
3520013.75,2.5747633003447845e-07,7.885118066042196e-06,5.498308746609837e-05,-1.0707514093155623e-06,-8.355772962431729e-08,0.01038471,0.00580322,175.5233,-131.1705,-22.216982,STD
4940227.5,3.7011176345913555e-07,1.1065231774409767e-05,7.716687832726166e-05,-1.5027629842734314e-06,-1.1202705962887194e-07,0.012217305,0.01282817,175.593498627002,-130.973528000254,-22.058808701627306,STD
6832677.0,5.239294864622934e-07,1.5302221072488464e-05,0.00010672695498215035,-2.0784218577318825e-06,-1.4831891803623876e-07,0.016187929,0.008246681,175.71338,-130.63715,-21.788689,STD
9321573.0,7.311207923521579e-07,2.087387110805139e-05,0.00014560345152858645,-2.835510485965642e-06,-1.9408464879688836e-07,0.01740966,0.005497787,175.89986000000005,-130.10733000000002,-21.369022,STD
12555090.0,1.0066469258163124e-06,2.8111504434491508e-05,0.00019611082097981125,-3.819100584223634e-06,-2.5122045599346166e-07,0.016798794,0.005192355,176.08092,-129.58852,-20.952208,STD
16708186.0,1.3686722013517283e-06,3.740625470527448e-05,0.00026098181842826307,-5.082411462353775e-06,-3.21887654308739e-07,0.017104227,0.006414085,176.2561,-129.0719,-20.539998999999998,STD
21985476.0,1.8390305740467738e-06,4.921547224512324e-05,0.0003434124810155481,-6.6876823439088184e-06,-4.085326281710877e-07,0.01740966,0.0036651915999999997,176.42577,-128.5653,-20.13361,STD
28624132.0,2.4437231331830844e-06,6.406917236745358e-05,0.00044710730435326695,-8.707055712875444e-06,-5.139064001014049e-07,0.021380282999999996,0.0061086523,176.59073,-128.06027,-19.729788,STD
36896768.0,3.2134448701981455e-06,8.257645822595805e-05,0.0005763244116678834,-1.12234547486878e-05,-6.410833748304867e-07,0.011301007,0.0012217305,176.7529,-127.566025,-19.335266,STD
47114300.0,4.18413719671662e-06,0.00010543187818257138,0.0007359201554208994,-1.4331453712657094e-05,-7.934794439279358e-07,0.014355333500000001,0.0067195175,176.90836000000004,-127.073975,-18.939754,STD
59628728.0,5.397565473685972e-06,0.00013342159218154848,0.0009313925402238965,-1.8138121959054843e-05,-9.748682714416645e-07,0.024740042,0.0033597588,177.05795,-126.59175,-18.552742000000002,STD
74835808.0,6.901913820911432e-06,0.0001674293162068352,0.0011689231032505631,-2.2763837478123605e-05,-1.1893970395249198e-06,0.02321288,0.0061086523,177.19418000000005,-126.09303,-18.159487,STD
93177624.0,8.752398571232334e-06,0.00020844201208092272,0.0014554167864844203,-2.8343067242531106e-05,-1.4416000340133905e-06,0.013133603,0.004581489,177.32455,-125.609406,-17.772465,STD
115144960.0,1.1011895367118996e-05,0.00025755513343028724,0.001798539306037128,-3.502508479868993e-05,-1.7364112636641948e-06,0.021991148999999998,0.0076358155,177.44754,-125.124954,-17.385752,STD
141279520.0,1.3751571714237798e-05,0.00031597752240486443,0.0022067518439143896,-4.297463965485804e-05,-2.0791753740923014e-06,0.025350908,0.008246681,177.56999,-124.64788999999999,-17.006996,STD
172175952.0,1.7051526810973883e-05,0.00038503584801219404,0.0026893417816609144,-5.237255754764192e-05,-2.4756577658990864e-06,0.028099801,0.006414085,177.6866,-124.177444,-16.631592,STD
208483568.0,2.1001435015932657e-05,0.00046617852058261633,0.003256451338529587,-6.34162497590296e-05,-2.9320538033061894e-06,0.017715093,0.004886922,177.80222,-123.71471000000001,-16.262094,STD
250907936.0,2.570117976574693e-05,0.0005609790096059442,0.003919100388884544,-7.63201605877839e-05,-3.454996885920991e-06,0.018325957,0.0076358155,177.91109,-123.25538999999999,-15.894739000000001,STD
300212064.0,3.1261482945410535e-05,0.000671138521283865,0.004689206834882498,-9.131608385359868e-05,-4.0515660657547414e-06,0.014660766,0.008552114,178.01984,-122.80765,-15.534995,STD
357217440.0,3.780452971113846e-05,0.0007984882686287165,0.005579601041972637,-0.00010865341027965769,-4.729292868432822e-06,0.020463986,0.00580322,178.12254,-122.36028999999999,-15.178773999999999,STD
422804704.0,4.5464559661922976e-05,0.000944990839343518,0.006604037247598171,-0.00012859923299401999,-5.496170160768088e-06,0.020463986,0.004581489,178.22488,-121.924774,-14.827945000000001,STD
497913952.0,5.4388463468058035e-05,0.0011127409525215626,0.007777199149131775,-0.0001514383766334504,-6.360656698234379e-06,0.026572637000000003,0.003970624,178.32074,-121.492966,-14.480703,STD
583544896.0,6.473633402492851e-05,0.0013039655750617385,0.009114700369536877,-0.00017747322272043675,-7.331685537792509e-06,0.020158553,0.009162978,178.41756,-121.06711999999999,-14.138662,STD
680756608.0,7.668200851185247e-05,0.0015210233395919204,0.010633082129061222,-0.0002070234768325463,-8.418670404353179e-06,0.020158553,0.006414085,178.50708,-120.6485,-13.801758,STD
790666944.0,9.041356679517776e-05,0.00176640332210809,0.012349803000688553,-0.0002404257538728416,-9.631512511987239e-06,0.02687807,0.003970624,178.59453,-120.23782,-13.468088,STD
914451584.0,0.00010613380436552688,0.002042722888290882,0.014283225871622562,-0.0002780330542009324,-1.0980606930388603e-05,0.014660766,0.0070249503,178.68468000000001,-119.82871999999999,-13.140817000000002,STD
1053342976.0,0.0001240606652572751,0.002352725248783827,0.016452597454190254,-0.00032021396327763796,-1.2476847587095108e-05,0.021685716,0.009468411,178.76508,-119.43008,-12.815535,STD
1208628736.0,0.00014442764222621918,0.0026992757339030504,0.01887802965939045,-0.0003673519240692258,-1.4131633179204073e-05,0.023518313,0.0018325957999999999,178.84666,-119.03751000000001,-12.498877,STD
1381649920.0,0.00016748411871958524,0.0030853580683469772,0.021580465137958527,-0.0004198441456537694,-1.5956873539835215e-05,0.01985312,0.007330383,178.92754,-118.649055,-12.182575,STD
1573798912.0,0.00019349571084603667,0.0035140695981681347,0.024581648409366608,-0.0004781004099640995,-1.7964988728635944e-05,0.01985312,0.007941248,179.0031,-118.26982,-11.873294999999999,STD
1786516864.0,0.00022274449293036014,0.003988615702837706,0.02790408581495285,-0.0005425417912192643,-2.0168916307738982e-05,0.022907447,0.0015271631,179.07646,-117.89513000000001,-11.568987,STD
2021291392.0,0.00025552924489602447,0.0045123049058020115,0.03157100826501846,-0.0006135991425253451,-2.2582109522772953e-05,0.02565634,0.008246681,179.14958000000001,-117.5248,-11.265634,STD
2279653376.0,0.00029216561233624816,0.005088540725409985,0.035606324672698975,-0.0006917114369571209,-2.521853821235709e-05,0.014355333500000001,0.0070249503,179.22182,-117.162476,-10.971733,STD
2563174144.0,0.00033298623748123646,0.005720816552639008,0.040034566074609756,-0.0007773239631205797,-2.809268335113302e-05,0.020463986,0.012217305,179.28842,-116.8076,-10.676378999999999,STD
2873461248.0,0.00037834077375009656,0.006412707269191742,0.04488084465265274,-0.0008708863169886172,-3.121952977380715e-05,0.019547688,0.013439035,179.35738999999995,-116.450294,-10.388912,STD
3212156160.0,0.0004285959876142442,0.0071678608655929565,0.05017078295350075,-0.0009728504810482264,-3.461456799414009e-05,0.02321288,0.00580322,179.42133,-116.10852,-10.10547,STD
3580929536.0,0.00048413564218208194,0.007989990524947643,0.05593046545982361,-0.0010836683213710785,-3.8293772377073765e-05,0.01038471,0.009162978,179.48963999999995,-115.766594,-9.825164,STD
3981477376.0,0.000545360438991338,0.00888286717236042,0.06218637898564339,-0.0012037893757224083,-4.2273601138731465e-05,0.011911871999999999,0.012217305,179.55061,-115.43558,-9.549054,STD
4415517696.0,0.0006126879598014057,0.00985030923038721,0.06896533817052841,-0.0013336584670469165,-4.657096724258736e-05,0.01863139,0.008246681,179.61163,-115.10807,-9.278979,STD
4884784640.0,0.0006865523755550385,0.010896172374486923,0.0762944221496582,-0.001473712851293385,-5.120323476148769e-05,0.01985312,0.011301007,179.67338999999996,-114.786446,-9.010862,STD
5391026176.0,0.0007674042135477066,0.012024342082440853,0.0842009112238884,-0.0016243797726929188,-5.618819341179915e-05,0.016493361,0.011301007,179.73235,-114.47268999999999,-8.748453,STD
5935998464.0,0.0008557100663892925,0.013238722458481789,0.09271221607923508,-0.0017860733205452561,-6.154403672553599e-05,0.0125227375,0.009468411,179.78996,-114.16497,-8.489727,STD
6521461248.0,0.000951952300965786,0.014543227851390839,0.1018558070063591,-0.001959191868081689,-6.728934386046603e-05,0.01160644,0.015882496,179.84726,-113.85875,-8.23288,STD
7149173760.0,0.0010566286509856582,0.015941770747303963,0.11165913939476013,-0.002144114812836051,-7.344303594436496e-05,0.022907447,0.0067195175,179.8992,-113.56296,-7.9837190000000025,STD
7820890112.0,0.001170251751318574,0.0174382533878088,0.12214957922697067,-0.0023412001319229603,-8.002436516107991e-05,0.018936822,0.010079277,179.95638,-113.26706000000001,-7.735247,STD
8538353664.0,0.0012933487305417657,0.019036557525396347,0.1333543360233307,-0.002550780773162842,-8.705286745680496e-05,0.027794369,0.014966198,180.00511,-112.98136000000001,-7.4900947,STD
9303293952.0,0.0014264605706557631,0.020740533247590065,0.14530040323734283,-0.002773161744698882,-9.45483407122083e-05,0.019242255,0.0076358155,180.05759,-112.697685,-7.253425599999999,STD
10117422080.0,0.0015701416414231062,0.02255399152636528,0.1580144464969635,-0.003008617088198662,-0.00010253079381072894,0.014355333500000001,0.009162978,180.10715,-112.418945,-7.0156097000000015,STD
10982424576.0,0.0017249592347070575,0.02448069304227829,0.17152279615402222,-0.0032573866192251444,-0.00011102042481070384,0.0125227375,0.009162978,180.1563,-112.14992,-6.784477000000001,STD
11899960320.0,0.001891492516733706,0.026524337008595467,0.1858513057231903,-0.0035196731332689524,-0.00012003757001366466,0.023518313,0.008857545999999999,180.2025,-111.87845,-6.555905,STD
12871654400.0,0.0020703324116766453,0.028688551858067513,0.2010253369808197,-0.00379563937895,-0.00012960266030859202,0.022907447,0.007330383,180.25131000000002,-111.62191999999999,-6.332689,STD
13899098112.0,0.0022620803210884333,0.03097689151763916,0.21706965565681458,-0.004085404798388481,-0.00013973617751616985,0.02076942,0.0027488936,180.29518000000002,-111.27708999999999,-6.1013684,STD
14983838720.0,0.002467347774654627,0.03339281678199768,0.23400840163230896,-0.004389042034745216,-0.00015045863983687013,0.025045475,0.005497787,180.3362,-110.94358999999999,-5.870964,STD
16127379456.0,0.0026867554988712072,0.035939693450927734,0.2518649995326996,-0.0047065760008990765,-0.00016179050726350397,0.022907447,0.008552114,180.37729,-110.61068,-5.645576,STD
17331175424.0,0.002920932834967971,0.038620784878730774,0.2706620991230011,-0.005037978757172823,-0.00017375218158122152,0.018936822,0.0061086523,180.41574,-110.28688999999999,-5.4237230000000025,STD
18596628480.0,0.0031705168075859547,0.041439238935709,0.2904215455055237,-0.005383167881518602,-0.00018636394815985113,0.013133603,0.008857545999999999,180.4544,-109.96695,-5.20306,STD
19925084160.0,0.0034361511934548616,0.04439808055758476,0.3111642599105835,-0.005742004606872797,-0.00019964593229815364,0.017104227,0.007330383,180.48932,-109.65353999999999,-4.986683,STD
21317826560.0,0.0037184858229011297,0.047500208020210266,0.3329102694988251,-0.0061142900958657265,-0.00021361808467190713,0.021380282999999996,0.008246681,180.52472,-109.34485,-4.772435,STD
22776080384.0,0.004018175881356001,0.05074838548898697,0.35567858815193176,-0.006499764043837786,-0.00022830009402241558,0.015882496,0.004886922,180.55977,-109.04056000000001,-4.5632887,STD
24301000704.0,0.004335880279541016,0.05414523184299469,0.37948718667030334,-0.006898101884871721,-0.00024371141626033932,0.015882496,0.0030543262,180.59102,-108.747025,-4.3555813,STD
25893675008.0,0.0046722618862986565,0.057693224400281906,0.40435293316841125,-0.0073089138604700565,-0.00025987118715420365,0.009773844,0.009773844,180.6246,-108.45683999999999,-4.1504517,STD
27555119104.0,0.005027986131608486,0.06139467656612396,0.43029162287712097,-0.007731742691248655,-0.00027679820777848363,0.021991148999999998,-0.00061086525,180.65027,-108.17185,-3.9517995999999997,STD
29286275072.0,0.005403719376772642,0.06525175273418427,0.45731785893440247,-0.008166061714291573,-0.0002945109154097736,0.015882496,0.004276057,180.68336000000002,-107.8938,-3.7522259,STD
31088009216.0,0.005800129845738411,0.06926644593477249,0.4854450225830078,-0.008611274883151054,-0.00031302738352678716,0.014660766,0.002443461,180.70918,-107.61946999999999,-3.5587207999999997,STD
32961105920.0,0.006217884831130505,0.07344058156013489,0.514685332775116,-0.009066713973879814,-0.0003323652781546116,0.011301007,0.00580322,180.73706,-107.35257,-3.3660412,STD
34906271744.0,0.0066576506942510605,0.07777581363916397,0.5450496673583984,-0.009531640447676182,-0.00035254182876087725,0.023518313,0.005192355,180.75948,-107.08785,-3.176602,STD
36924133376.0,0.007120092399418354,0.08227361738681793,0.5765476226806641,-0.010005243122577667,-0.0003735738282557577,0.011301007,0.008246681,180.78912,-106.82883500000001,-2.9903687999999997,STD
39015231488.0,0.0076058716513216496,0.08693529665470123,0.6091876029968262,-0.010486637242138386,-0.00039547760388813913,0.0067195175,0.005192355,180.81186,-106.57632,-2.8071627999999995,STD
41180020736.0,0.008115646429359913,0.09176197648048401,0.6429765224456787,-0.010974868200719357,-0.00041826898814179003,0.008246681,0.0030543262,180.8357,-106.32695,-2.6261601000000003,STD
43418873856.0,0.008650070987641811,0.09675458073616028,0.6779201030731201,-0.011468908749520779,-0.00044196334783919156,0.011301007,0.00061086525,180.85927,-106.0855,-2.4490755,STD
45732077568.0,0.009209793992340565,0.10191386193037033,0.7140226364135742,-0.01196766085922718,-0.0004665755550377071,0.0018325957999999999,0.009468411,180.88577,-105.84700000000001,-2.2730281000000003,STD
48119832576.0,0.009795457124710083,0.10724039375782013,0.7512871026992798,-0.012469957582652569,-0.0004921199288219213,-0.004886922,-0.0015271631,180.9082,-105.61578999999999,-2.1053421,STD
50582245376.0,0.010407696478068829,0.11273454129695892,0.789715051651001,-0.012974563986063004,-0.0005186103517189622,-0.004581489,0.0067195175,180.93274,-105.39025,-1.9327602,STD
53119344640.0,0.011047139763832092,0.11839649826288223,0.8293067812919617,-0.013480180874466896,-0.0005460601532831788,-0.00061086525,0.0070249503,180.956,-105.16996,-1.7682256999999997,STD
55731068928.0,0.011714406311511993,0.12422626465559006,0.8700610995292664,-0.01398544292896986,-0.0005744820809923112,0.004581489,0.0070249503,180.96605426136398,-105.077492883523,-1.6979230101704499,STD
58417270784.0,0.01241010706871748,0.13022366166114807,0.9119755029678345,-0.014488925226032734,-0.0006038884166628122,0.0021380284,0.007941248,180.9795,-104.95383500000001,-1.603906,STD
61177712640.0,0.013134841807186604,0.13638831675052643,0.9550462365150452,-0.014989144168794155,-0.0006342909182421863,-0.002443461,0.015882496,181.00386,-104.74539,-1.4403683999999999,STD
64012079104.0,0.013889199122786522,0.14271967113018036,0.9992680549621582,-0.015484563075006008,-0.0006657007033936679,0.003970624,0.011301007,181.02296,-104.53409599999999,-1.2816018999999998,STD
66919964672.0,0.01467375922948122,0.14921697974205017,1.044634461402893,-0.015973592177033424,-0.0006981284241192043,0.003970624,0.00580322,181.04506999999998,-104.33626,-1.1242383999999999,STD
69900877824.0,0.01548908744007349,0.15587933361530304,1.0911377668380737,-0.01645459420979023,-0.0007315842085517943,0.013133603,0.0076358155,181.06253,-104.137276,-0.9675234,STD
72954249216.0,0.016335738822817802,0.16270563006401062,1.1387687921524048,-0.016925891861319542,-0.0007660776027478278,0.013439035,0.012217305,181.08176,-103.94160500000001,-0.81465423,STD
76079431680.0,0.017214253544807434,0.16969460248947144,1.1875171661376953,-0.01738576404750347,-0.0008016175124794245,0.008552114,0.009468411,181.09906,-103.75178000000001,-0.6654857,STD
79275696128.0,0.018125157803297043,0.17684480547904968,1.2373714447021484,-0.01783246174454689,-0.0008382123778574169,0.005192355,0.004886922,181.11562,-103.56765,-0.5178702000000001,STD
82542231552.0,0.019068967550992966,0.18415461480617523,1.2883187532424927,-0.018264202401041985,-0.0008758700569160283,-0.0015271631,0.0076358155,181.13437,-103.38710999999999,-0.3719211,STD
85878153216.0,0.020046178251504898,0.19162224233150482,1.340345025062561,-0.0186791829764843,-0.000914597709197551,0.0030543262,0.005497787,181.14992,-103.207924,-0.23041868,STD
89282510848.0,0.02105727419257164,0.19924575090408325,1.3934352397918701,-0.019075579941272736,-0.0009544020285829902,-0.004581489,0.004276057,181.17061999999999,-103.0364,-0.09144106,STD
92754272256.0,0.022102724760770798,0.2070230394601822,1.4475730657577515,-0.019451558589935303,-0.000995288952253759,-0.008552114,0.00030543262000000003,181.1884,-102.86709,0.044446018,STD
96292331520.0,0.023182978853583336,0.21495184302330017,1.5027412176132202,-0.01980527676641941,-0.001037264009937644,-0.009468411,0.0009162978999999999,181.20737,-102.70326,0.17875539,STD
99895533568.0,0.024298474192619324,0.22302976250648499,1.558921217918396,-0.02013489045202732,-0.0010803319746628404,-0.015577064,0.0018325957999999999,181.22836,-102.54579,0.309302,STD
103562641408.0,0.02544962801039219,0.2312542349100113,1.6160937547683716,-0.02043856307864189,-0.001124496920965612,-0.027488936000000002,0.00580322,181.2512,-102.38932,0.43833312,STD
107292360704.0,0.026636842638254166,0.239622563123703,1.6742384433746338,-0.020714469254016876,-0.0011697623413056135,-0.02107485,0.009773844,181.27043,-102.23933000000001,0.56627023,STD
111083339776.0,0.027860501781105995,0.24813193082809448,1.733333945274353,-0.020960798487067223,-0.0012161311460658908,-0.018020526000000002,0.004886922,181.26425,-102.14696500000001,0.69671035,STD
114934161408.0,0.029120972380042076,0.25677937269210815,1.7933580875396729,-0.021175764501094818,-0.0012636056635528803,-0.0033597588,0.011911871999999999,181.25432,-102.05726999999999,0.83022696,STD
118843367424.0,0.030418602749705315,0.2655618190765381,1.8542877435684204,-0.021357614547014236,-0.001312187290750444,0.005192355,0.008552114,181.24464,-101.968544,0.9568892,STD
122809434112.0,0.031753722578287125,0.2744760513305664,1.916099190711975,-0.021504627540707588,-0.0013618770753964782,-0.005497787,-0.0015271631,181.23663,-101.8879,1.0809729,STD
126830796800.0,0.033126648515462875,0.2835187315940857,1.9787677526474,-0.021615125238895416,-0.0014126752503216267,-0.005497787,0.00580322,181.2244,-101.80725,1.2077852,STD
130905841664.0,0.034537672996520996,0.29268646240234375,2.0422680377960205,-0.021687481552362442,-0.001464581466279924,-0.0061086523,0.004276057,181.21458,-101.726776,1.3263848999999999,STD
135032905728.0,0.03598707169294357,0.30197572708129883,2.106574058532715,-0.021720120683312416,-0.0015175947919487953,-0.0009162978999999999,0.008857545999999999,181.20427,-101.65252,1.4468566999999999,STD
139210293248.0,0.0374751016497612,0.31138285994529724,2.171659231185913,-0.021711526438593864,-0.0015717134810984135,-0.00030543262000000003,0.0076358155,181.19533,-101.57689,1.5627904,STD
143436267520.0,0.03900200501084328,0.3209041655063629,2.2374961376190186,-0.021660253405570984,-0.0016269353218376637,0.00061086525,0.009468411,181.18563999999998,-101.503525,1.6790133000000005,STD
147709050880.0,0.04056800156831741,0.3305358588695526,2.3040571212768555,-0.021564921364188194,-0.001683257520198822,-0.00580322,0.004581489,181.17773,-101.43353,1.7905058999999997,STD
152026841088.0,0.042173292487859726,0.34027403593063354,2.37131404876709,-0.02142423205077648,-0.001740676467306912,-0.0021380284,0.0067195175,181.16756999999998,-101.3674,1.9030122999999999,STD
156387803136.0,0.04381806030869484,0.35011473298072815,2.4392380714416504,-0.0212369654327631,-0.0017991879722103477,0.003970624,0.009468411,181.15863000000002,-101.30346999999999,2.0120726,STD
160790085632.0,0.045502472668886185,0.3600539267063141,2.5078001022338867,-0.021001990884542465,-0.001858787378296256,-0.0030543262,0.014355333500000001,181.15291000000002,-101.24201,2.1198182,STD
165231788032.0,0.0472266748547554,0.37008753418922424,2.5769705772399902,-0.02071826532483101,-0.0019194693304598331,-0.0036651915999999997,0.013439035,181.14383,-101.188156,2.2254167000000002,STD
169711026176.0,0.04899079352617264,0.38021141290664673,2.6467199325561523,-0.02038484439253807,-0.0019812278915196657,0.008552114,0.014355333500000001,181.13382,-101.1323,2.331257,STD
174225850368.0,0.05079494044184685,0.3904213607311249,2.717017889022827,-0.02000088058412075,-0.002044056309387088,0.0018325957999999999,0.010995574,181.12935,-101.07833000000001,2.4326632000000004,STD
178774343680.0,0.05263920873403549,0.40071314573287964,2.787834405899048,-0.019565628841519356,-0.002107947366312146,-0.00061086525,0.004276057,181.12044,-101.0323,2.5323746,STD
183354540032.0,0.05452367290854454,0.4110824763774872,2.8591387271881104,-0.01907845214009285,-0.0021728933788836002,-0.0021380284,0.009773844,181.11397,-100.9793,2.632432,STD
187964489728.0,0.05644838884472847,0.4215250611305237,2.9309005737304688,-0.0185388196259737,-0.0022388859651982784,-0.007941248,0.011911871999999999,181.10915,-100.93396,2.7275317,STD
192602210304.0,0.05841339752078056,0.43203651905059814,3.00308895111084,-0.017946312204003334,-0.0023059158120304346,0.0015271631,0.0076358155,181.10072,-100.8925,2.8213387,STD
197265735680.0,0.06041871756315231,0.44261252880096436,3.0756733417510986,-0.017300622537732124,-0.002373973373323679,0.0015271631,0.009162978,181.0973,-100.84399,2.9148517000000003,STD
201953083392.0,0.062464356422424316,0.45324867963790894,3.148622751235962,-0.01660156063735485,-0.002443048171699047,-0.0012217305,0.0076358155,181.09193,-100.80819,3.0049669999999997,STD
206662287360.0,0.06455030292272568,0.4639405906200409,3.2219064235687256,-0.015849048271775246,-0.0025131290312856436,-0.01282817,0.013439035,181.08981,-100.767365,3.0954642000000003,STD
211391365120.0,0.06667652726173401,0.47468382120132446,3.2954938411712646,-0.015043127350509167,-0.0025842043105512857,-0.0027488936,0.014355333500000001,181.0823,-100.73516,3.1835067,STD
216138334208.0,0.06884298473596573,0.48547399044036865,3.369354248046875,-0.014183953404426575,-0.00265626166947186,-0.005497787,0.018020526000000002,181.0824,-100.69881,3.2711072,STD
220901244928.0,0.07104961574077606,0.49630671739578247,3.4434571266174316,-0.013271799311041832,-0.002729287836700678,0.002443461,0.024129177,181.07707,-100.671364,3.3591193999999995,STD
225678147584.0,0.07329634577035904,0.5071775913238525,3.5177719593048096,-0.012307054363191128,-0.0028032688423991203,-0.0067195175,0.015577064,181.07709,-100.63853,3.4414546,STD
230467108864.0,0.0755830779671669,0.5180822014808655,3.592268943786621,-0.011290221475064754,-0.002878190018236637,-0.0021380284,0.015882496,181.072,-100.61475,3.5275142,STD
235266179072.0,0.07790970802307129,0.5290161967277527,3.6669180393218994,-0.010221916250884533,-0.0029540357645601034,-0.007330383,0.01863139,181.07224,-100.58827,3.6094038,STD
240073474048.0,0.08027611672878265,0.5399752259254456,3.741689443588257,-0.009102867916226387,-0.0030307897832244635,0.004276057,0.01740966,181.0665,-100.56326,3.6898377,STD
244887076864.0,0.08268216997385025,0.5509549975395203,3.816554069519043,-0.007933913730084896,-0.003108434844762087,0.0021380284,0.014660766,181.06644,-100.541534,3.7682178,STD
249705119744.0,0.08512771874666214,0.561951220035553,3.8914825916290283,-0.0067159985192120075,-0.0031869527883827686,-0.0067195175,0.013133603,181.06526000000002,-100.51801999999999,3.8454008,STD
254525734912.0,0.0876125916838646,0.5729596018791199,3.9664463996887207,-0.0054501695558428764,-0.0032663242891430855,-0.004581489,0.023823743999999997,181.06232,-100.500755,3.924292,STD
259347103744.0,0.09013661742210388,0.5839759707450867,4.041417121887207,-0.004137575160712004,-0.003346528857946396,0.0015271631,0.02076942,181.06024,-100.48106999999999,3.9972765,STD
264167424000.0,0.09269960969686508,0.5949960947036743,4.116366863250732,-0.0027794602792710066,-0.003427545540034771,-0.010690141499999998,0.01740966,181.06349,-100.46335,4.071029,STD
268984909824.0,0.09530135989189148,0.6060159206390381,4.191267967224121,-0.0013771632220596075,-0.0035093517508357763,-0.009468411,0.02565634,181.06187,-100.44933,4.146788,STD
273797791744.0,0.09794165939092636,0.6170312762260437,4.266093730926514,6.788990867789835e-05,-0.0035919235087931156,-0.01160644,0.022602014,181.06418,-100.43434,4.2163644,STD
278604349440.0,0.10062028467655182,0.6280381679534912,4.340816974639893,0.0015541885513812304,-0.0036752361338585615,-0.014355333500000001,0.019242255,181.06693,-100.42543,4.2869005,STD
283402895360.0,0.10333699733018875,0.6390326619148254,4.415411949157715,0.003080142894759774,-0.003759263316169381,-0.015882496,0.02321288,181.07034,-100.40968000000001,4.35733,STD
288191774720.0,0.10609154403209686,0.6500107645988464,4.489852428436279,0.004644089378416538,-0.003843977116048336,-0.019242255,0.018936822,181.0747,-100.40403,4.423036,STD
292969316352.0,0.10888367146253586,0.6609686613082886,4.564114093780518,0.006244294811040163,-0.003929348196834326,-0.026572637000000003,0.025045475,181.0547,-100.3572,4.4970784,STD
297733947392.0,0.11171311140060425,0.671902596950531,4.638171672821045,0.007878962904214859,-0.004015346057713032,-0.03145956,0.026572637000000003,181.03462,-100.31111999999999,4.567323,STD
302484127744.0,0.11457958072423935,0.6828087568283081,4.712001323699951,0.009546237997710705,-0.004101938102394342,-0.03023783,0.02687807,181.0152,-100.2704,4.6376395,STD
307218284544.0,0.11748279631137848,0.6936835646629333,4.785579681396484,0.01124421413987875,-0.004189090337604284,-0.029932396,0.028099801,180.9976,-100.23255999999999,4.7071457,BSC
311934943232.0,0.12042246013879776,0.7045233845710754,4.858883380889893,0.01297093741595745,-0.004276766441762447,-0.029932396,0.026267206,180.9797,-100.19306,4.774700599999999,BSC
316632629248.0,0.12339827418327332,0.7153246998786926,4.931890487670898,0.014724413864314556,-0.00436492869630456,-0.031154128,0.027488936000000002,180.96233999999998,-100.16069,4.8422227,BSC
321309933568.0,0.12640991806983948,0.7260841131210327,5.004578590393066,0.016502613201737404,-0.0044535375200212,-0.023823743999999997,0.03481932,180.94281,-100.13003499999999,4.9101615,BSC
325965479936.0,0.12945707142353058,0.7367982268333435,5.076927185058594,0.01830347813665867,-0.004542550537735224,-0.027794369,0.032070424,180.92651,-100.0972,4.973882700000001,BSC
330597924864.0,0.13253940641880035,0.7474637627601624,5.1489152908325195,0.020124929025769234,-0.0046319239772856236,-0.026572637000000003,0.03390302,180.90726999999998,-100.073616,5.0403438,BSC
335205924864.0,0.13565658032894135,0.7580775022506714,5.220523357391357,0.021964866667985916,-0.004721611272543669,-0.02565634,0.028099801,180.8889,-100.046074,5.1025314,BSC
339788267520.0,0.1388082653284073,0.7686363458633423,5.291731834411621,0.023821184411644936,-0.004811563994735479,-0.039095376,0.040317107000000005,180.8752,-100.02538,5.168645400000001,BSC
344343674880.0,0.14199410378932953,0.7791373133659363,5.362521648406982,0.025691766291856766,-0.0049017309211194515,-0.035430185,0.045814894,180.85594,-100.0059,5.2308993,BSC
348871000064.0,0.1452137529850006,0.7895773649215698,5.432875156402588,0.027574501931667328,-0.004992058500647545,-0.041233405,0.046120327,180.84358,-99.99173,5.293051,BSC
353369096192.0,0.14846684038639069,0.7999536395072937,5.502774715423584,0.029467284679412842,-0.0050824908539652824,-0.03970624,0.050701816,180.82858000000002,-99.97849000000001,5.357312,BSC
357836849152.0,0.1517530083656311,0.8102633953094482,5.572203636169434,0.03136802092194557,-0.005172968842089176,-0.03176499,0.05161811400000002,180.81333999999998,-99.971954,5.4195400000000005,BSC
362273177600.0,0.15507188439369202,0.8205039501190186,5.6411452293396,0.033274635672569275,-0.005263431463390589,-0.02107485,0.058643065,180.7974,-99.9667,5.4838634000000015,BSC
366677065728.0,0.15842309594154358,0.8306726217269897,5.709584712982178,0.0351850725710392,-0.005353813525289297,-0.01282817,0.058948494000000004,180.77974,-99.96545,5.5456657,BSC
371047530496.0,0.16180625557899475,0.840766966342926,5.777506351470947,0.03709730878472328,-0.005444047972559929,-0.016187929,0.058948494000000004,180.76273,-99.964874,5.6082067,BSC
375383654400.0,0.16522099077701569,0.8507844805717468,5.84489631652832,0.039009351283311844,-0.005534064024686813,-0.02076942,0.056199603,180.74374,-99.96569000000001,5.6692247,BSC
379684487168.0,0.16866691410541534,0.8607228398323059,5.911740779876709,0.04091924801468849,-0.0056237876415252686,-0.022602014,0.05009095,180.72491000000002,-99.966606,5.728168,BSC
383949209600.0,0.17214363813400269,0.8705797791481018,5.978026866912842,0.042825087904930115,-0.005713141988962889,-0.025350908,0.05222898,180.70798,-99.96970999999999,5.787387,BSC
388176969728.0,0.17565077543258667,0.8803531527519226,6.0437421798706055,0.04472500458359718,-0.00580204650759697,-0.031154128,0.04917465,180.69211,-99.968506,5.8421974,BSC
392366981120.0,0.17918793857097626,0.8900408148765564,6.108874320983887,0.046617183834314346,-0.0058904169127345085,-0.03756821,0.044898596,180.67732,-99.96847,5.896135,BSC
396518490112.0,0.18275471031665802,0.8996407985687256,6.173412799835205,0.04849986732006073,-0.005978165194392204,-0.044898596,0.046731193,180.66468999999998,-99.96984,5.949711,BSC
400630808576.0,0.1863507181406021,0.9091511964797974,6.237346649169922,0.050371356308460236,-0.006065199617296457,-0.048563786,0.042455133,180.65251,-99.970955,5.9993167000000005,BSC
404703281152.0,0.1899755448102951,0.9185701608657837,6.300665855407715,0.05223001167178154,-0.006151424255222082,-0.04276056599999999,0.04184427,180.64003,-99.96719,6.049665,BSC
408735252480.0,0.19362880289554596,0.9278959035873413,6.36336088180542,0.05407426133751869,-0.006236738990992308,-0.054367005999999996,0.03970624,180.63339,-99.96961,6.0966724999999995,BSC
412726165504.0,0.19731009006500244,0.9371268153190613,6.4254231452941895,0.05590260028839111,-0.006321039516478777,-0.044898596,0.039095376,180.61921999999998,-99.9703,6.144150700000001,BSC
416675430400.0,0.20101898908615112,0.9462612867355347,6.486844539642334,0.057713594287633896,-0.006404215935617685,-0.043066,0.04550946,180.6108,-99.970825,6.1914496,BSC
420582555648.0,0.20475511252880096,0.9552978277206421,6.547616958618164,0.0595058836042881,-0.006486155092716217,-0.03848451,0.04642576,180.59872,-99.97118,6.2366852999999995,BSC
424447016960.0,0.20851805806159973,0.9642350077629089,6.607733249664307,0.06127818301320076,-0.006566737312823534,-0.04276056599999999,0.04153884,180.58876,-99.97665,6.2809997000000015,BSC
428268421120.0,0.2123074233531952,0.9730714559555054,6.667187213897705,0.06302928179502487,-0.006645838730037212,-0.036957346,0.043066,180.575,-99.98231,6.3271422,BSC
432046342144.0,0.2161228060722351,0.9818059206008911,6.725972652435303,0.0647580549120903,-0.006723330356180668,-0.032986722999999996,0.046731193,180.56296,-99.987175,6.371494,BSC
435780386816.0,0.21996378898620605,0.9904372096061707,6.784083843231201,0.06646344810724258,-0.006799076683819294,-0.030848695,0.049785517,180.54991,-100.00094,6.4154805999999995,BSC
439470227456.0,0.223829984664917,0.9989641904830933,6.841516017913818,0.06814450025558472,-0.006872937548905611,-0.032070424,0.052534412999999995,180.53693,-100.00994,6.459664,BSC
443115569152.0,0.22772100567817688,1.0073857307434082,6.8982648849487305,0.06980031728744507,-0.006944766268134117,-0.040927973,0.056199603,180.52573999999998,-100.02561,6.503979,BSC
446716116992.0,0.2316364347934723,1.0157009363174438,6.954326152801514,0.07143010199069977,-0.007014410570263863,-0.03604105,0.062308256,180.51129,-100.04635,6.5494585,BSC
450271641600.0,0.23557588458061218,1.0239088535308838,7.0096964836120605,0.07303313165903091,-0.007081712130457163,-0.031154128,0.05467244,180.49907,-100.06003,6.5909576,BSC
453781913600.0,0.23953895270824432,1.0320086479187012,7.064372539520264,0.07460877299308777,-0.007146506104618311,-0.02565634,0.062308256,180.48616,-100.08445,6.6379304,BSC
457246769152.0,0.24352525174617767,1.0399994850158691,7.118351936340332,0.07615646719932556,-0.007208621595054865,-0.012217305,0.058948494000000004,180.46898000000002,-100.10738,6.679342699999999,BSC
460666044416.0,0.24753437936306,1.0478806495666504,7.171632766723633,0.07767575234174728,-0.0072678811848163605,-0.015577064,0.06811147,180.43066000000002,-100.08995,6.699839599999999,BSC
464039641088.0,0.25156596302986145,1.0556515455245972,7.224213600158691,0.0791662335395813,-0.007324100937694311,-0.010079277,0.0693332,180.3855,-100.07769,6.7176933000000005,BSC
467367428096.0,0.255619615316391,1.0633114576339722,7.276092529296875,0.08062759786844254,-0.007377089932560921,0.008246681,0.0693332,180.33792,-100.066574,6.737838000000001,BSC
470649372672.0,0.2596949338912964,1.0708599090576172,7.327269554138184,0.08205962926149368,-0.007426651194691658,0.007941248,0.07880162,180.29451,-100.05888,6.7602057,BSC
473885409280.0,0.2637915313243866,1.0782963037490845,7.377743721008301,0.0834621787071228,-0.00747258123010397,0.014966198,0.079107046,180.24342,-100.05305,6.780589599999999,BSC
477075537920.0,0.26790904998779297,1.0856201648712158,7.427515029907227,0.08483517169952393,-0.007514669094234705,0.013439035,0.08002335,180.19528,-100.05013000000001,6.803133,BSC
480219791360.0,0.27204710245132446,1.0928311347961426,7.476584434509277,0.08617862313985825,-0.0075526973232626915,0.003970624,0.07391469,180.14717,-100.04558,6.8233539999999975,BSC
483318169600.0,0.2762053310871124,1.099928855895996,7.524952411651611,0.08749261498451233,-0.007586441934108734,0.009468411,0.08032878,180.09575,-100.04704,6.8475100000000015,BSC
486370738176.0,0.2803833484649658,1.1069129705429077,7.572619915008545,0.08877730369567871,-0.0076156724244356155,-0.0009162978999999999,0.08124508,180.05118000000004,-100.04414,6.867108,BSC
489377595392.0,0.2845807671546936,1.1137832403182983,7.619588375091553,0.0900329202413559,-0.0076401508413255215,-0.007330383,0.077579886,180.00401000000005,-100.04632600000001,6.8872089999999995,BSC
492338839552.0,0.2887972593307495,1.1205393075942993,7.665860176086426,0.09125976264476776,-0.007659632712602615,-0.021685716,0.08521569999999999,179.96257,-100.04769,6.9097614,BSC
495254634496.0,0.2930324673652649,1.127181053161621,7.711437225341797,0.09245819598436356,-0.007673866581171751,-0.02107485,0.086132,179.91832,-100.05117,6.929347999999999,BSC
498125078528.0,0.2972860038280487,1.1337083578109741,7.756321907043457,0.0936286523938179,-0.007682594005018473,-0.031154128,0.07666359,179.88115,-100.05456,6.9469009999999995,BSC
500950368256.0,0.3015575408935547,1.1401209831237793,7.800516605377197,0.0947716236114502,-0.0076855504885315895,-0.03176499,0.081855945,179.84166000000005,-100.06076,6.9688997000000015,BSC
503730700288.0,0.3058467209339142,1.1464189291000366,7.844025135040283,0.09588766098022461,-0.0076824636198580265,-0.04795292,0.08735373,179.80919,-100.06738,6.9870853,BSC
506466271232.0,0.31015318632125854,1.1526020765304565,7.886850357055664,0.09697737544775009,-0.007673054467886686,-0.05681047,0.09468412,179.77504,-100.07791,7.007204499999999,BSC
509157310464.0,0.3144766092300415,1.158670425415039,7.9289960861206055,0.09804143756628036,-0.007657037582248449,-0.061086524,0.101098195,179.74435,-100.09013,7.027892,BSC
511804047360.0,0.3188166320323944,1.1646238565444946,7.970466136932373,0.09908055514097214,-0.007634120061993599,-0.05772676700000001,0.109650314,179.71431,-100.10469,7.0508880000000005,BSC
514406744064.0,0.3231729567050934,1.1704623699188232,8.01126480102539,0.1000954881310463,-0.007604002486914396,-0.05925392700000001,0.10842858,179.68674,-100.12571,7.072236,BSC
516965695488.0,0.3275452256202698,1.1761860847473145,8.051396369934082,0.1010870561003685,-0.007566377986222506,-0.050396382999999996,0.11484267,179.65576000000001,-100.14872,7.098275699999999,BSC
519481163776.0,0.3319331109523773,1.1817950010299683,8.090865135192871,0.1020561009645462,-0.007520932704210281,-0.032375857,0.12461651,179.62265,-100.17799000000001,7.1248107,BSC
521953476608.0,0.33633631467819214,1.1872892379760742,8.12967586517334,0.10300351679325104,-0.007467345800250769,-0.02107485,0.13225232,179.58907,-100.20871,7.152217,BSC
524382928896.0,0.34075450897216797,1.1926687955856323,8.16783332824707,0.10393022745847702,-0.007405289448797703,-0.0070249503,0.13652839,179.54977,-100.24471,7.181720299999999,BSC
526769881088.0,0.34518736600875854,1.1979337930679321,8.205343246459961,0.10483718663454056,-0.007334429305046797,-0.011911871999999999,0.1423316,179.51305,-100.279854,7.213036,BSC
529114660864.0,0.34963458776474,1.2030843496322632,8.24221134185791,0.10572537779808044,-0.007254422642290592,-0.016798794,0.13255776,179.47194,-100.31685999999999,7.2411065,BSC
531417628672.0,0.3540958762168884,1.2081207036972046,8.2784423828125,0.10659581422805786,-0.007164920214563608,-0.034513887,0.124005646,179.43623,-100.35191999999999,7.269971000000001,BSC
533679177728.0,0.35857093334198,1.2130428552627563,8.314043045043945,0.10744952410459518,-0.007065565790981054,-0.04520403,0.1255328,179.39998,-100.38802,7.298501499999999,BSC
535899668480.0,0.36305946111679077,1.2178510427474976,8.349018096923828,0.10828755795955658,-0.006955995690077543,-0.058948494000000004,0.11759156,179.36902,-100.41933,7.3207207,BSC
538079461376.0,0.3675611615180969,1.2225453853607178,8.383374214172363,0.10911097377538681,-0.0068358383141458035,-0.08277224,0.119729586,179.34445,-100.45411,7.345046000000001,BSC
540218982400.0,0.37207573652267456,1.227126121520996,8.41711711883545,0.10992084443569183,-0.006704715080559254,-0.09407325,0.12125675400000001,179.3199,-100.48956,7.3665270000000005,BSC
542318624768.0,0.3766029179096222,1.231593370437622,8.4502534866333,0.1107182502746582,-0.006562240421772003,-0.09621128,0.11728613,179.29936,-100.52264,7.386162,BSC
544378814464.0,0.38114243745803833,1.2359473705291748,8.482789993286133,0.11150426417589188,-0.0064080203883349895,-0.12736541,0.11759156,179.2905,-100.56228,7.4055940000000025,BSC
546399977472.0,0.3856939971446991,1.2401882410049438,8.514732360839844,0.1122799664735794,-0.006241654045879841,-0.14202617,0.1160644,179.2772,-100.597786,7.4235883000000005,BSC
548382539776.0,0.390257328748703,1.2443162202835083,8.546088218688965,0.11304643750190735,-0.006062732078135014,-0.14660765,0.13103059,179.27045,-100.64115,7.4452669999999985,BSC
550326960128.0,0.39483219385147095,1.2483315467834473,8.576863288879395,0.11380474269390106,-0.005870837718248367,-0.14294247,0.13775012,179.26495,-100.68354000000001,7.4636593,BSC
552233598976.0,0.39941832423210144,1.2522344589233398,8.607064247131348,0.11455592513084412,-0.005665546748787165,-0.1432479,0.13439035,179.26192,-100.72405,7.4827785,BSC
554103013376.0,0.404015451669693,1.2560251951217651,8.636698722839355,0.11530103534460068,-0.005446426570415497,-0.12125675400000001,0.1386664,179.25182,-100.77374,7.5065913,BSC
555935596544.0,0.4086233079433441,1.2597039937973022,8.665773391723633,0.11604107916355133,-0.005213036201894283,-0.09682214,0.15149458,179.24112,-100.82095,7.531623,BSC
557731807232.0,0.4132416546344757,1.2632709741592407,8.694294929504395,0.11677706241607666,-0.004964927211403847,-0.05467244,0.15913039999999998,179.2189,-100.87374,7.55755,BSC
559492104192.0,0.41787028312683105,1.2667264938354492,8.722270011901855,0.11750995367765427,-0.004701643250882626,-0.016798794,0.16554448,179.19128,-100.92895,7.5871070000000005,BSC
561216946176.0,0.42250892519950867,1.2700707912445068,8.749706268310547,0.11824068427085876,-0.004422718659043312,0.010995574,0.16401732,179.12028999999995,-100.99134000000001,7.595789999999999,BSC
562906791936.0,0.42715734243392944,1.2733039855957031,8.776611328125,0.11897017061710358,-0.004127680789679289,0.048563786,0.16065755,179.03603999999999,-101.057,7.6074147,BSC
564562165760.0,0.4318152964115143,1.2764264345169067,8.802990913391113,0.11969928443431854,-0.003816047916188836,0.056505035999999995,0.15454891,178.88116000000005,-101.13235999999999,7.6394615,BSC
566183460864.0,0.43648257851600647,1.2794383764266968,8.828853607177734,0.12042885273694992,-0.003487330162897706,0.062002823,0.14844026,178.71724,-101.20925,7.6710762999999975,BSC
567771201536.0,0.4411589801311493,1.2823400497436523,8.854206085205078,0.12115967273712158,-0.0031410292722284794,0.06627888,0.13805555,178.55211,-101.28374000000001,7.6991906000000006,BSC
569325846528.0,0.44584426283836365,1.2851316928863525,8.87905502319336,0.12189248204231262,-0.0027766390703618526,0.061391957000000004,0.11636983,178.27042,-101.38183000000001,7.777039999999999,BSC
570847920128.0,0.4505382180213928,1.2878135442733765,8.90340805053711,0.12262798845767975,-0.0023936445359140635,0.050396382999999996,0.110872045,177.99272,-101.4834,7.8541565,BSC
572337881088.0,0.4552406072616577,1.2903858423233032,8.92727279663086,0.1233668401837349,-0.0019915224984288216,0.02565634,0.095294975,177.52386,-101.594376,7.9903179999999985,BSC
573796188160.0,0.459951251745224,1.2928489446640015,8.950655937194824,0.12410963326692581,-0.0015697414055466652,0.004886922,0.0693332,177.06476999999995,-101.70233,8.1164465,BSC
575223300096.0,0.46466994285583496,1.2952030897140503,8.973565101623535,0.12485691159963608,-0.0011277615558356047,-0.03268129,0.052534412999999995,176.62537,-101.806786,8.234059,BSC
576619741184.0,0.4693965017795563,1.2974485158920288,8.996006965637207,0.1256091594696045,-0.0006650350987911224,-0.04642576,0.038179077,175.98128,-101.9032,8.402467999999999,BSC
577985970176.0,0.4741307199001312,1.2995854616165161,9.017989158630371,0.12636680901050568,-0.00018100593297276646,-0.07788532,0.034513887,175.36706999999996,-101.99542,8.558117,BSC
579322445824.0,0.4788723886013031,1.3016142845153809,9.039518356323242,0.12713022530078888,0.0003248901921324432,-0.11759156,0.043066,174.73508,-102.08076,8.7204275,BSC
580629692416.0,0.48362135887145996,1.3035352230072021,9.060602188110352,0.12789970636367798,0.0008532254141755402,-0.13683382,0.05681047,174.11855,-102.16469000000001,8.874004,BSC
581908168704.0,0.4883774220943451,1.3053486347198486,9.081247329711914,0.12867549061775208,0.0014045798452571034,-0.14599679999999998,0.07391469,173.45297,-102.2541,9.047431,BSC
583158333440.0,0.49314039945602417,1.3070547580718994,9.101461410522461,0.1294577568769455,0.001979541266337037,-0.13316862,0.10476339,172.80031,-102.352295,9.218834,BSC
584380645376.0,0.49791011214256287,1.3086539506912231,9.121251106262207,0.1302466094493866,0.0025787053164094687,-0.09132435,0.13164146,172.04466000000005,-102.467804,9.420746000000001,BSC
585575563264.0,0.5026863813400269,1.3101465702056885,9.140623092651367,0.13104207813739777,0.00320267491042614,-0.03145956,0.15302174,171.29668,-102.59604,9.618125,BSC
586743611392.0,0.5074690580368042,1.3115328550338745,9.159584045410156,0.13184413313865662,0.003852060530334711,0.02107485,0.17745635,170.555,-102.71909000000001,9.8129225,BSC
587885182976.0,0.512257993221283,1.31281316280365,9.178140640258789,0.1326526701450348,0.004527479875832796,0.077579886,0.18570304,169.5949,-102.82081600000001,10.027331,BSC
589000802304.0,0.5170530080795288,1.3139879703521729,9.19629955291748,0.13346751034259796,0.005229557864367962,0.10354166,0.19883664,168.65263000000004,-102.91648,10.233145,BSC
590090928128.0,0.5218539237976074,1.315057635307312,9.214068412780762,0.13428840041160583,0.00595892546698451,0.11545353400000001,0.20922135,167.36421,-102.962845,10.469756,BSC
591155953664.0,0.5266606211662292,1.316022515296936,9.231452941894531,0.13511499762535095,0.006716222036629915,0.13011430000000002,0.19639318,166.10889,-102.9933,10.676599000000001,BSC
592196403200.0,0.53147292137146,1.3168830871582031,9.248458862304688,0.13594689965248108,0.0075020925141870975,0.11362094,0.183565,164.90176,-103.020195,10.867227,BSC
593212669952.0,0.53629070520401,1.3176398277282715,9.265093803405762,0.136783629655838,0.008317188359797001,0.096516706,0.15821409,163.72773999999995,-103.03347,11.027667,BSC
594205212672.0,0.5411137938499451,1.3182933330535889,9.281363487243652,0.1376246064901352,0.009162168018519878,0.09682214,0.14141529999999994,162.63557,-103.06145,11.168786,BSC
595174490112.0,0.5459420680999756,1.3188440799713135,9.297273635864258,0.13846918940544128,0.010037696920335293,0.09407325,0.12797627,161.58006,-103.07854499999999,11.284676,BSC
596120895488.0,0.550775408744812,1.3192925453186035,9.312830924987793,0.1393166333436966,0.010944445617496967,0.093462385,0.12125675400000001,160.56519,-103.11044,11.385614,BSC
597044887552.0,0.55561363697052,1.3196395635604858,9.328041076660156,0.14016613364219666,0.011883091181516647,0.09407325,0.11362094,159.57835,-103.13228000000001,11.467258000000001,BSC
597946925056.0,0.5604566931724548,1.3198857307434082,9.34290885925293,0.14101678133010864,0.0128543172031641,0.07819075,0.12308934,158.65295,-103.17407,11.546172,BSC
598827401216.0,0.5653043985366821,1.320031762123108,9.357440948486328,0.14186757802963257,0.013858812861144543,0.07788532,0.16310102,157.74751,-103.22147,11.619797,BSC
599686774784.0,0.5701565742492676,1.3200783729553223,9.371642112731934,0.14271743595600128,0.014897274784743786,0.08093964,0.16096300000000002,156.86208,-103.25891,11.669092,BSC
600525373440.0,0.5750131607055664,1.3200265169143677,9.385518074035645,0.14356517791748047,0.01597040332853794,0.06872234,0.14385876,156.00401000000005,-103.301765,11.714126,BSC
601343655936.0,0.5798740386962891,1.3198771476745605,9.39907455444336,0.14440953731536865,0.017078908160328865,0.07727446,0.16279559,155.16103999999999,-103.349594,11.759436,BSC
602142081024.0,0.584739089012146,1.3196312189102173,9.412315368652344,0.145249143242836,0.01822350174188614,0.089491755,0.19822577,154.3169,-103.38816,11.780606,BSC
602920976384.0,0.5896081924438477,1.3192898035049438,9.425246238708496,0.1460825502872467,0.019404903054237366,0.10079276599999999,0.20586158,153.49059,-103.42201999999999,11.79043,BSC
603680735232.0,0.5944812297821045,1.3188540935516357,9.437871932983398,0.14690817892551422,0.020623836666345596,0.103847094,0.2171626,152.68173000000004,-103.47060400000001,11.799906,BSC
604421816320.0,0.599358081817627,1.3183252811431885,9.450196266174316,0.14772436022758484,0.02188103459775448,0.1133155,0.26236662,151.88762,-103.525925,11.813711999999999,BSC
605144547328.0,0.6042386889457703,1.3177047967910767,9.462224006652832,0.1485293209552765,0.023177234455943108,0.09315695,0.26206118,151.12921,-103.58856999999999,11.811972,BSC
605849321472.0,0.6091228723526001,1.3169939517974854,9.473959922790527,0.14932119846343994,0.02451317571103573,0.06994407,0.27122417,150.38698,-103.66660999999999,11.818842,BSC
606536531968.0,0.6140106320381165,1.3161942958831787,9.485407829284668,0.15009799599647522,0.025889607146382332,0.07544186,0.27000242,149.69661000000005,-103.77229,11.837571,BSC
607206506496.0,0.618901789188385,1.315307378768921,9.49657154083252,0.15085762739181519,0.027307283133268356,0.07422013,0.27672195,149.02864,-103.88543,11.854203,BSC
607859638272.0,0.623796284198761,1.3143349885940552,9.507454872131348,0.15159788727760315,0.02876695990562439,0.06627888,0.31490102,148.3747,-104.00851,11.873878999999999,BSC
608496254976.0,0.6286939978599548,1.3132789134979248,9.518061637878418,0.15231645107269287,0.030269401147961617,0.043066,0.30268374,147.75412,-104.151054,11.888859,BSC
609116749824.0,0.633594810962677,1.3121410608291626,9.52839469909668,0.15301087498664856,0.03181537613272667,0.03145956,0.27397305,147.14394,-104.29961999999999,11.905039,BSC
609721516032.0,0.6384987235069275,1.3109235763549805,9.538457870483398,0.15367861092090607,0.03340565785765648,-0.00061086525,0.28588495,146.59564,-104.49529,11.948916,BSC
610310815744.0,0.643405556678772,1.3096284866333008,9.548254013061523,0.1543169617652893,0.03504102677106857,-0.025045475,0.2773328,146.05487,-104.67559,11.9741745,BSC
610885042176.0,0.6483153104782104,1.308258056640625,9.557785987854004,0.15492311120033264,0.03672226518392563,-0.06169739,0.26022860000000003,145.57291999999995,-104.88351000000002,12.036047,BSC
611444457472.0,0.6532278656959534,1.3068146705627441,9.567057609558105,0.15549413859844208,0.03845015913248062,-0.084910266,0.28527406,145.10243,-105.09782,12.102653,BSC
611989454848.0,0.6581431031227112,1.3053007125854492,9.576070785522461,0.1560269594192505,0.04022550582885742,-0.10079276599999999,0.27152961,144.64678999999995,-105.28751000000001,12.160161,BSC
612520361984.0,0.6630609631538391,1.3037189245224,9.58482837677002,0.1565183848142624,0.0420490987598896,-0.15790866,0.25534168,144.21736,-105.48055,12.217044,BSC
613037441024.0,0.6679813861846924,1.3020719289779663,9.593332290649414,0.15696506202220917,0.04392174631357193,-0.20677789,0.2648101,143.78813,-105.65855,12.263073,BSC
613541085184.0,0.6729043126106262,1.300362467765808,9.601585388183594,0.15736353397369385,0.04584425315260887,-0.21655174,0.28863382,143.37042,-105.82956999999999,12.304247,BSC
614031556608.0,0.6778296828269958,1.298593521118164,9.609589576721191,0.15771017968654633,0.04781743511557579,-0.20769419,0.28008172,142.96625,-105.99411,12.334203,BSC
614509117440.0,0.6827573776245117,1.2967681884765625,9.617347717285156,0.15800124406814575,0.04984210804104805,-0.2134974,0.29718593,142.54216,-106.17137,12.332483,BSC
614974095360.0,0.687687337398529,1.2948895692825317,9.624860763549805,0.15823282301425934,0.05191909894347191,-0.19242255,0.31001409999999996,142.11327,-106.34463500000001,12.325833,BSC
615426818048.0,0.6926195025444031,1.2929608821868896,9.632131576538086,0.15840087831020355,0.054049234837293625,-0.1685988,0.34116822,141.69644,-106.52903,12.319188,BSC
615867547648.0,0.697553813457489,1.2909855842590332,9.639161109924316,0.15850122272968292,0.056233346462249756,-0.15851954,0.39858958,141.28545,-106.71959,12.320924,BSC
616296546304.0,0.7024902105331421,1.2889671325683594,9.645951271057129,0.15852953493595123,0.05847227945923805,-0.14385876,0.40103304,140.8714,-106.91811000000001,12.319033000000001,BSC
616714141696.0,0.7074286341667175,1.2869091033935547,9.652503967285156,0.15848134458065033,0.06076687201857567,-0.13836098,0.42210788,140.46724,-107.1307,12.335147000000001,BSC
617120530432.0,0.7123690247535706,1.2848151922225952,9.658820152282715,0.15835203230381012,0.06311798095703125,-0.15913039999999998,0.43096542,140.08337,-107.35651000000001,12.358386,BSC
617516040192.0,0.7173113226890564,1.2826892137527466,9.664901733398438,0.15813685953617096,0.06552645564079285,-0.19028452,0.4990769000000001,139.71126,-107.60136999999999,12.400124,BSC
617900867584.0,0.7222554087638855,1.2805349826812744,9.670750617980957,0.15783090889453888,0.0679931566119194,-0.20830505,0.48349985,139.36731,-107.83871,12.439332,BSC
618275340288.0,0.7272013425827026,1.2783565521240234,9.676366806030273,0.15742917358875275,0.07051895558834076,-0.29565877,0.49235737,139.0624,-108.092766,12.494114,BSC
618639654912.0,0.7321490049362183,1.276158094406128,9.68175220489502,0.1569264680147171,0.07310470938682556,-0.25381452,0.5112942,138.7295,-108.336395,12.550877,BSC
618994073600.0,0.7370983362197876,1.2739436626434326,9.686908721923828,0.15631750226020813,0.07575129717588425,-0.28405234,0.50915617,138.46698,-108.59548000000001,12.611485,BSC
619338858496.0,0.7420492768287659,1.2717175483703613,9.6918363571167,0.15559685230255127,0.07845959812402725,-0.3436117,0.57787853,138.21056000000002,-108.8642,12.694067,BSC
619674271744.0,0.7470018267631531,1.2694841623306274,9.69653606414795,0.1547589749097824,0.08123048394918442,-0.36957347,0.5925393,137.93708999999998,-109.13611000000002,12.73522,BSC
620000509952.0,0.7519559264183044,1.2672479152679443,9.701009750366211,0.1537981927394867,0.08406483381986618,-0.42271876,0.5183192,137.68983,-109.40635,12.760945,BSC
620317769728.0,0.7569115161895752,1.265013337135315,9.7052583694458,0.1527087241411209,0.08696352690458298,-0.462425,0.49296826,137.44096000000002,-109.64488,12.789659,BSC
620626313216.0,0.7618685364723206,1.2627849578857422,9.709281921386719,0.1514846682548523,0.08992744237184525,-0.48808134,0.48838675,137.2025,-109.88463600000001,12.798099,BSC
620926337024.0,0.7668269276618958,1.260567545890808,9.713082313537598,0.15012003481388092,0.09295745193958282,-0.5207626000000001,0.47616947,136.97945,-110.14577,12.788506,BSC
621218037760.0,0.7717866897583008,1.2583656311035156,9.716659545898438,0.1486087441444397,0.09605443477630615,-0.5491679,0.4822781,136.766,-110.42993999999999,12.778572,BSC
621501677568.0,0.7767477631568909,1.2561841011047363,9.720014572143555,0.14694459736347198,0.09921925514936447,-0.6346890000000001,0.5213734999999999,136.57037,-110.75809,12.752637,BSC
621777453056.0,0.781710147857666,1.2540277242660522,9.723148345947266,0.14512132108211517,0.10245276987552643,-0.6249151,0.46517387,136.35046,-111.08313999999999,12.705084,BSC
622045560832.0,0.7866737246513367,1.2519012689590454,9.726061820983887,0.14313258230686188,0.10575582832098007,-0.57848936,0.44990227,136.15247,-111.42523999999999,12.673413,BSC
622306131968.0,0.7916385531425476,1.249809741973877,9.728754997253418,0.14097197353839874,0.10912927240133286,-0.5467244000000001,0.453262,135.9541,-111.774506,12.629138000000001,BSC
622559428608.0,0.7966045141220093,1.247757911682129,9.731228828430176,0.13863301277160645,0.11257393658161163,-0.516792,0.4642576,135.72683999999998,-112.200226,12.569158,BSC
622805647360.0,0.8015716075897217,1.245750904083252,9.73348331451416,0.13610918819904327,0.11609062552452087,-0.48838675,0.47433686,135.4928,-112.63151,12.510158,BSC
623044919296.0,0.80653977394104,1.2437934875488281,9.735519409179688,0.13339391350746155,0.11968013644218445,-0.5555819000000001,0.5357288,135.29843,-113.10181399999999,12.4691515,BSC
623277441024.0,0.8115090131759644,1.2418906688690186,9.737338066101074,0.1304805874824524,0.12334325164556503,-0.5564981999999999,0.5177083,135.07246,-113.57683600000001,12.415351,BSC
623503409152.0,0.8164792656898499,1.2400474548339844,9.73893928527832,0.12736256420612335,0.12708072364330292,-0.47800204,0.47769663,134.87537,-114.05996999999999,12.392299000000001,BSC
623723020288.0,0.8214505314826965,1.2382687330245972,9.740323066711426,0.12403319031000137,0.1308932900428772,-0.41508293,0.46914452,134.6848,-114.53818999999999,12.3685,BSC
623936405504.0,0.8264227509498596,1.236559510231018,9.741490364074707,0.12048579007387161,0.13478165864944458,-0.41722095,0.4569272,134.51549,-115.03998,12.366825,BSC
624143695872.0,0.8313959240913391,1.2349246740341187,9.742441177368164,0.11671368032693863,0.13874651491641998,-0.42424592,0.44776422,134.33037,-115.52564,12.366337,BSC
624345088000.0,0.8363699913024902,1.233368992805481,9.743175506591797,0.11271018534898758,0.14278851449489594,-0.44837508,0.44593164,134.15053,-115.98978999999999,12.359283999999999,BSC
624540712960.0,0.841344952583313,1.2318973541259766,9.743693351745605,0.10846863687038422,0.14690829813480377,-0.47922380000000003,0.43493605,133.99628,-116.43128999999999,12.371723,BSC
624730767360.0,0.8463207483291626,1.230514645576477,9.743995666503906,0.10398237407207489,0.15110646188259125,-0.5186246,0.43096542,133.85173,-116.8616,12.378716,BSC
624915382272.0,0.8512973785400391,1.229225516319275,9.7440824508667,0.09924475848674774,0.15538357198238373,-0.54458636,0.43249258,133.71983,-117.28935,12.391542,BSC
625094688768.0,0.8562747836112976,1.2280346155166626,9.743953704833984,0.0942491888999939,0.1597401648759842,-0.5699373000000001,0.42607849999999997,133.59683,-117.70752,12.393777,BSC
625268883456.0,0.8612529635429382,1.2269465923309326,9.743609428405762,0.08898908644914627,0.16417676210403442,-0.5885687,0.43157628,133.49298000000002,-118.13593999999999,12.400162,BSC
625438031872.0,0.8662318587303162,1.225965976715088,9.743048667907715,0.08345792442560196,0.16869382560253143,-0.61117065,0.4465425,133.39696999999998,-118.55673,12.400877000000001,BSC
625602330624.0,0.8712114691734314,1.2250972986221313,9.74227237701416,0.07764921337366104,0.17329180240631104,-0.6462954000000001,0.45356745,133.29567,-118.9832,12.379399000000001,BSC
625761910784.0,0.8761917948722839,1.2243447303771973,9.741280555725098,0.07155653089284897,0.17797109484672546,-0.6545420999999999,0.46517387,133.1955,-119.41435,12.360714999999999,BSC
625916837888.0,0.881172776222229,1.223712682723999,9.740073204040527,0.06517349183559418,0.18273209035396576,-0.66675943,0.49266282,133.10822,-119.848694,12.340271000000001,BSC
626067308544.0,0.8861544132232666,1.2232052087783813,9.738649368286133,0.05849379673600197,0.18757511675357819,-0.7492262,0.548557,133.03769,-120.290535,12.29915,BSC
626213388288.0,0.8911367058753967,1.222826361656189,9.737009048461914,0.05151120945811272,0.192500501871109,-0.6817255999999999,0.51343226,132.92231999999998,-120.73603999999999,12.257750999999999,BSC
626355273728.0,0.8961195945739746,1.222580075263977,9.735152244567871,0.044219572097063065,0.1975085288286209,-0.66523224,0.5204572000000001,132.84224,-121.23633999999998,12.210986,BSC
626493030400.0,0.9011030793190002,1.2224701642990112,9.733078002929688,0.03661280497908592,0.202599436044693,-0.625526,0.5348125,132.7344,-121.74417,12.166834,BSC
626626789376.0,0.9060871005058289,1.2225003242492676,9.730786323547363,0.02868492715060711,0.20777344703674316,-0.6383542,0.54458636,132.63484,-122.21686000000001,12.094386,BSC
626756616192.0,0.9110717177391052,1.2226741313934326,9.728277206420898,0.02043004520237446,0.21303075551986694,-0.75533485,0.54702985,132.5523,-122.68501,12.01205,BSC
626882641920.0,0.9160568118095398,1.2229949235916138,9.725549697875977,0.01184237003326416,0.21837152540683746,-0.6102544,0.55741453,132.42836,-123.13119499999999,11.978867,BSC
627004997632.0,0.9210424423217773,1.2234660387039185,9.722602844238281,0.002916216617450118,0.22379587590694427,-0.5852089,0.5732970000000001,132.36469,-123.58957,11.911545,BSC
627123814400.0,0.9260285496711731,1.224090576171875,9.719436645507812,-0.006353986915200949,0.22930392622947693,-0.58001655,0.59406644,132.27194,-124.01375,11.852910000000001,BSC
627239157760.0,0.9310151934623718,1.2248715162277222,9.716050148010254,-0.01597369648516178,0.2348957359790802,-0.56596667,0.6041456999999999,132.17183,-124.43664,11.7988405,BSC
627351093248.0,0.936002254486084,1.2258117198944092,9.712442398071289,-0.025948243215680122,0.24057137966156006,-0.5479460999999999,0.6160576,132.07329,-124.85452,11.749914,BSC
627459751936.0,0.9409897923469543,1.2269139289855957,9.708613395690918,-0.03628283366560936,0.2463308721780777,-0.5381723,0.6246096999999999,131.9658,-125.224724,11.6687765,BSC
627565199360.0,0.9459777474403381,1.2281806468963623,9.704561233520508,-0.0469825379550457,0.2521741986274719,-0.516792,0.6365215999999999,131.85445,-125.58823000000001,11.595038,BSC
627667566592.0,0.9509661197662354,1.2296142578125,9.700285911560059,-0.058052290230989456,0.25810137391090393,-0.49968776,0.63621616,131.73116000000002,-125.93161,11.480789999999999,BSC
627766919168.0,0.955954909324646,1.2312170267105103,9.695786476135254,-0.06949688494205475,0.26411232352256775,-0.48349985,0.6469063,131.60793,-126.26404,11.375149,BSC
627863388160.0,0.9609441161155701,1.232991099357605,9.691061019897461,-0.08132097125053406,0.2702069878578186,-0.48533243,0.64721173,131.47066999999998,-126.592545,11.214675,BSC
627956973568.0,0.9659336805343628,1.234938383102417,9.68610954284668,-0.09352904558181763,0.27638527750968933,-0.46914452,0.65270954,131.3292,-126.914185,11.064442,BSC
628047806464.0,0.9709236025810242,1.237060546875,9.680930137634277,-0.10612544417381287,0.2826470732688904,-0.44318274,0.6603453,131.18764,-127.23203999999998,10.91708,BSC
628136017920.0,0.9759138822555542,1.2393593788146973,9.675521850585938,-0.11911434680223465,0.2889922559261322,-0.42119157,0.6630941999999999,131.06026,-127.58263000000001,10.783035,BSC
628221607936.0,0.9809045195579529,1.2418361902236938,9.669883728027344,-0.13249976933002472,0.29542067646980286,-0.3933972,0.6612616,130.92696,-127.93285,10.655339,BSC
628304707584.0,0.9858954548835754,1.2444924116134644,9.66401481628418,-0.14628556370735168,0.30193212628364563,-0.36621370000000003,0.66339964,130.81648,-128.31403999999998,10.556187,BSC
628385316864.0,0.9908867478370667,1.2473291158676147,9.657914161682129,-0.16047541797161102,0.3085264563560486,-0.34941490000000003,0.6621779000000001,130.7018,-128.68923999999998,10.458223,BSC
628463566848.0,0.9958783388137817,1.2503472566604614,9.651579856872559,-0.1750728189945221,0.3152034282684326,-0.33383787,0.6582073,130.62517,-129.09462,10.396124,BSC
628539523072.0,1.0008702278137207,1.2535476684570312,9.645010948181152,-0.19008110463619232,0.321962833404541,-0.33292156,0.6658430999999999,130.55002,-129.4834,10.335268,BSC
628613251072.0,1.0058623552322388,1.2569310665130615,9.638205528259277,-0.2055034190416336,0.3288044035434723,-0.33964106,0.6563747,130.49817,-129.89452,10.302827,BSC
628684750848.0,1.0108548402786255,1.2604979276657104,9.631162643432617,-0.22134272754192352,0.33572787046432495,-0.35521814,0.66339964,130.45233000000002,-130.29306,10.272157,BSC
628754153472.0,1.0158475637435913,1.2642484903335571,9.623881340026855,-0.23760180175304413,0.3427329361438751,-0.36438109999999996,0.66614854,130.40382,-130.67366,10.236344,BSC
628821524480.0,1.0208405256271362,1.2681829929351807,9.61635971069336,-0.25428321957588196,0.3498193025588989,-0.3753767,0.66706485,130.39719,-131.0755,10.231099,BSC
628886929408.0,1.0258337259292603,1.272301435470581,9.608597755432129,-0.271389365196228,0.3569866418838501,-0.39370266,0.6728681,130.39485,-131.4675,10.222016,BSC
628950433792.0,1.0308271646499634,1.2766035795211792,9.600592613220215,-0.2889224588871002,0.3642345666885376,-0.40683624,0.66431594,130.39043,-131.84749,10.206603999999999,BSC
629012037632.0,1.0358208417892456,1.2810890674591064,9.592344284057617,-0.3068844676017761,0.3715627193450928,-0.48044549999999997,0.6844745,130.43332,-132.28488000000002,10.233272,BSC
629071872000.0,1.040814757347107,1.285757303237915,9.58385181427002,-0.3252772092819214,0.3789707124233246,-0.48349985,0.65270954,130.45096,-132.72383,10.254453999999999,BSC
629129936896.0,1.0458089113235474,1.2906076908111572,9.575113296508789,-0.34410226345062256,0.3864580988883972,-0.5002986,0.63041294,130.49193,-133.13948,10.262771,BSC
629186297856.0,1.0508031845092773,1.2956392765045166,9.56612777709961,-0.36336103081703186,0.39402443170547485,-0.52839845,0.61117065,130.53679,-133.57156,10.257567,BSC
629241020416.0,1.0557976961135864,1.3008509874343872,9.556894302368164,-0.3830546736717224,0.4016692340373993,-0.5448918,0.6062838,130.57953,-133.99341,10.24715,BSC
629294104576.0,1.0607924461364746,1.306241512298584,9.547411918640137,-0.4031842052936554,0.40939199924468994,-0.5708536,0.5897904,130.6276,-134.42085,10.2101755,BSC
629345681408.0,1.0657873153686523,1.3118095397949219,9.537679672241211,-0.4237503707408905,0.4171921908855438,-0.6053675000000001,0.5910121,130.68141,-134.84554,10.168832,BSC
629395750912.0,1.0707824230194092,1.3175534009933472,9.527697563171387,-0.4447537064552307,0.42506924271583557,-0.61300325,0.591623,130.73831,-135.27481,10.102307000000001,BSC
629444313088.0,1.0757776498794556,1.3234713077545166,9.517463684082031,-0.4661945700645447,0.43302255868911743,-0.6221663000000001,0.59040123,130.80002,-135.69955,10.026999,BSC
629491499008.0,1.080773115158081,1.3295613527297974,9.506978034973145,-0.48807308077812195,0.44105151295661926,-0.6441574000000001,0.5864305999999999,130.86283999999998,-136.12509,9.9457,BSC
629537308672.0,1.085768699645996,1.3358213901519775,9.49623966217041,-0.5103891491889954,0.44915542006492615,-0.7318166,0.6200281999999999,130.95218,-136.55164,9.842757,BSC
629581807616.0,1.0907644033432007,1.3422491550445557,9.485248565673828,-0.5331424474716187,0.45733359456062317,-0.66553766,0.59589905,130.99893,-136.98221,9.753483000000001,BSC
629624995840.0,1.0957602262496948,1.3488420248031616,9.474003791809082,-0.5563324093818665,0.46558526158332825,-0.62980205,0.59528816,131.07843,-137.3869,9.65105,BSC
629666938880.0,1.100756287574768,1.3555974960327148,9.462505340576172,-0.5799583196640015,0.4739096462726593,-0.61391956,0.6041456999999999,131.1712,-137.69315,9.5439205,BSC
629707702272.0,1.1057524681091309,1.3625127077102661,9.450752258300781,-0.6040192246437073,0.4823059141635895,-0.6053675000000001,0.6032294,131.25366,-137.9879,9.441424000000001,BSC
629747286016.0,1.1107487678527832,1.3695846796035767,9.438745498657227,-0.6285139322280884,0.49077320098876953,-0.6075055,0.61453044,131.33926,-138.3576,9.352243,BSC
629785690112.0,1.115745186805725,1.3768103122711182,9.426484107971191,-0.6534409523010254,0.49931055307388306,-0.60994893,0.6249151,131.4203,-138.72318,9.264049,BSC
629823045632.0,1.1207417249679565,1.3841862678527832,9.413968086242676,-0.6787986755371094,0.507917046546936,-0.6068946,0.6243043,131.51376000000002,-139.10039,9.173303,BSC
629859287040.0,1.1257383823394775,1.3917092084884644,9.40119743347168,-0.7045852541923523,0.5165916085243225,-0.5852089,0.63041294,131.60501000000002,-139.47061000000002,9.088878999999999,BSC
629894545408.0,1.130735158920288,1.3993756771087646,9.38817310333252,-0.7307985424995422,0.5253332257270813,-0.56107974,0.63621616,131.68932,-139.87541000000002,8.970207,BSC
629928755200.0,1.1357320547103882,1.4071818590164185,9.374894142150879,-0.757436215877533,0.5341407060623169,-0.5412266,0.6444628000000001,131.76907,-140.27745,8.856711,BSC
629962047488.0,1.1407290697097778,1.4151239395141602,9.361361503601074,-0.7844957709312439,0.5430129170417786,-0.52870387,0.6450737,131.84236,-140.67113,8.746291000000001,BSC
629994356736.0,1.145726203918457,1.4231981039047241,9.347575187683105,-0.8119744062423706,0.551948606967926,-0.5119051,0.66889745,131.92308,-141.10779,8.634679,BSC
630025748480.0,1.1507234573364258,1.431400179862976,9.333536148071289,-0.8398691415786743,0.5609464645385742,-0.56291234,0.6954701,132.01176,-141.54384,8.51091,BSC
630056288256.0,1.155720829963684,1.4397261142730713,9.319243431091309,-0.8681767582893372,0.5700051784515381,-0.5152648,0.657291,132.05817,-142.01357,8.381841,BSC
630085976064.0,1.1607182025909424,1.448171615600586,9.304698944091797,-0.8968937993049622,0.579123318195343,-0.5149594,0.6612616,132.13475,-142.48093,8.243257,BSC
630114811904.0,1.1657156944274902,1.4567323923110962,9.289902687072754,-0.926016628742218,0.5882994532585144,-0.52748215,0.6713409,132.18698,-143.07135,8.119304,BSC
630142861312.0,1.1707133054733276,1.4654040336608887,9.274855613708496,-0.9555414319038391,0.5975320339202881,-0.5143485,0.6704246,132.23047,-143.65266,7.9986863,BSC
630170189824.0,1.1757110357284546,1.4741820096969604,9.259557723999023,-0.9854640364646912,0.6068195104598999,-0.49754974,0.677755,132.27723999999998,-144.241,7.878062700000001,BSC
630196731904.0,1.1807087659835815,1.4830617904663086,9.244009971618652,-1.0157802104949951,0.6161602735519409,-0.50732356,0.6969972,132.36082,-144.79617,7.7931075,BSC
630222553088.0,1.185706615447998,1.492038607597351,9.2282133102417,-1.046485424041748,0.6255525946617126,-0.5314528000000001,0.69913524,132.43933,-145.3501,7.705299,BSC
630247653376.0,1.190704584121704,1.501107931137085,9.21216869354248,-1.0775750875473022,0.6349947452545166,-0.5323690999999999,0.7180721,132.5387,-145.89223,7.6482058,BSC
630272098304.0,1.1957025527954102,1.5102649927139282,9.195876121520996,-1.1090441942214966,0.6444849371910095,-0.5580254,0.72143185,132.64056000000002,-146.41852,7.575609700000001,BSC
630295887872.0,1.2007006406784058,1.5195049047470093,9.179337501525879,-1.1408876180648804,0.6540213227272034,-0.61178154,0.7281514,132.75911000000002,-146.9651,7.5030009999999985,BSC
630319022080.0,1.205698847770691,1.528822898864746,9.162552833557129,-1.173100233078003,0.6636019945144653,-0.6630941999999999,0.7272350999999999,132.8776,-147.49763000000004,7.4223766000000015,BSC
630341566464.0,1.210697054862976,1.538214087486267,9.145523071289062,-1.205676555633545,0.6732250452041626,-0.743423,0.8029824000000001,133.04285,-148.04692,7.370882000000001,BSC
630363521024.0,1.2156953811645508,1.5476735830307007,9.128250122070312,-1.2386109828948975,0.6828884482383728,-0.7452555999999999,0.74220127,133.16743,-148.59208999999996,7.302581,BSC
630384885760.0,1.2206937074661255,1.5571963787078857,9.110733985900879,-1.271897792816162,0.6925901770591736,-0.79443026,0.72326446,133.34735,-149.18791000000004,7.253475999999999,BSC
630405726208.0,1.2256921529769897,1.5667775869369507,9.092976570129395,-1.3055310249328613,0.7023281455039978,-0.84329945,0.72234815,133.51352,-149.77487,7.194637299999999,BSC
630426042368.0,1.230690598487854,1.5764122009277344,9.07497787475586,-1.339504599571228,0.7121002674102783,-0.8894198,0.71837753,133.69455,-150.35445,7.135652,BSC
630445834240.0,1.2356891632080078,1.5860953330993652,9.056739807128906,-1.3738124370574951,0.7219043970108032,-0.93767816,0.6985244,133.875,-150.91023,7.05951,BSC
630465101824.0,1.2406877279281616,1.5958218574523926,9.038263320922852,-1.4084482192993164,0.7317383289337158,-0.9660834,0.68691796,134.07141000000001,-151.45334,6.976864,BSC
630483845120.0,1.245686411857605,1.6055868864059448,9.019549369812012,-1.4434056282043457,0.7415998578071594,-1.0396926,0.6621779000000001,134.26837,-151.99518,6.864745,BSC
630502129664.0,1.2506850957870483,1.6153854131698608,9.000598907470703,-1.4786779880523682,0.7514867782592773,-1.1640037,0.6453791,134.47646,-152.53928,6.7199173,BSC
630519955456.0,1.2556838989257812,1.6252124309539795,8.981412887573242,-1.514258861541748,0.7613968849182129,-1.3078625,0.59773165,134.67781000000002,-153.0881,6.5431256,BSC
630537388032.0,1.2606827020645142,1.6350630521774292,8.961992263793945,-1.5501415729522705,0.7713278532028198,-1.2455542,0.5742133,134.88583,-153.65884,6.4243855000000005,BSC
630554361856.0,1.2656816244125366,1.6449323892593384,8.942338943481445,-1.5863194465637207,0.7812774181365967,-1.2767084,0.5338961999999999,135.10266000000001,-154.2104,6.2368054000000015,BSC
630570942464.0,1.270680546760559,1.6548155546188354,8.922453880310059,-1.6227856874465942,0.791243314743042,-1.2745703000000002,0.5158757,135.32332,-154.68912,6.0503607000000015,BSC
630587129856.0,1.2756794691085815,1.6647075414657593,8.902337074279785,-1.6595335006713867,0.8012232184410095,-1.2986995000000001,0.50701815,135.53769,-155.16367,5.8461514,BSC
630602924032.0,1.2806785106658936,1.6746037006378174,8.881991386413574,-1.6965560913085938,0.8112149238586426,-1.3267993,0.48014009999999996,135.74388000000002,-155.65027,5.6238730000000015,BSC
630618324992.0,1.2856775522232056,1.6844992637634277,8.861416816711426,-1.733846664428711,0.8212161064147949,-1.3411547,0.48838675,135.95285,-156.12022,5.403616,BSC
630633398272.0,1.2906767129898071,1.6943894624710083,8.840615272521973,-1.7713983058929443,0.8312245011329651,-1.3209959999999998,0.49693888,136.15399,-156.59923,5.1552258,BSC
630648078336.0,1.2956758737564087,1.7042696475982666,8.819586753845215,-1.8092042207717896,0.8412379026412964,-1.3353515,0.49571714,136.35483,-157.06946000000005,4.8961916,BSC
630662430720.0,1.3006750345230103,1.7141352891921997,8.798333168029785,-1.8472574949264526,0.8512540459632874,-1.3359623,0.43157628,136.55818,-157.49075,4.6557055,BSC
630676455424.0,1.3056743144989014,1.7239819765090942,8.77685546875,-1.8855514526367188,0.8612707853317261,-1.425454,0.42943826,136.78383,-157.9117,4.3973,BSC
630690152448.0,1.3106735944747925,1.7338051795959473,8.755155563354492,-1.924079179763794,0.8712859153747559,-1.5070046000000001,0.38606682,136.96559,-158.38156,4.1026644999999995,BSC
630703587328.0,1.3156728744506836,1.7436007261276245,8.733233451843262,-1.9628340005874634,0.8812973499298096,-1.35551,0.41599923,137.14546,-158.85468999999995,3.8572161,BSC
630716694528.0,1.3206722736358643,1.7533644437789917,8.711091041564941,-2.0018091201782227,0.8913029432296753,-1.2629639,0.45142943,137.28609,-159.46048000000005,3.514758,BSC
630729539584.0,1.325671672821045,1.7630921602249146,8.688728332519531,-2.0409979820251465,0.9013006687164307,-1.2049317,0.46822822,137.41162,-160.0441,3.2074075,BSC
630742122496.0,1.3306710720062256,1.7727800607681274,8.666147232055664,-2.0803937911987305,0.9112884998321533,-1.2400563999999998,0.47250426,137.53763999999998,-160.6251,2.9043495999999998,BSC
630754443264.0,1.3356705904006958,1.7824242115020752,8.643348693847656,-2.119990110397339,0.9212645292282104,-1.2776246,0.46792278,137.75365,-160.95051999999995,2.6715023999999996,BSC
630766501888.0,1.340670108795166,1.7920209169387817,8.620332717895508,-2.159780263900757,0.9312268495559692,-1.2825116,0.44837508,137.96251,-161.261,2.4408157000000004,BSC
630778298368.0,1.3456696271896362,1.80156672000885,8.597101211547852,-2.1997578144073486,0.9411736130714417,-1.2916746000000001,0.45173484,138.17595,-161.56067,2.2044945,BSC
630789832704.0,1.3506691455841064,1.8110581636428833,8.573655128479004,-2.2399163246154785,0.9511030316352844,-1.2464706,0.45020768,138.37418,-161.84972,1.9832853,BSC
630801170432.0,1.3556687831878662,1.8204920291900635,8.549995422363281,-2.28024959564209,0.9610134363174438,-1.1795808,0.48533243,138.57834,-162.13249,1.7730535,BSC
630812246016.0,1.360668420791626,1.8298652172088623,8.526122093200684,-2.320751190185547,0.9709031581878662,-1.1615603,0.48288897,138.78433,-162.4074,1.5801874,BSC
630823124992.0,1.3656680583953857,1.839174747467041,8.502037048339844,-2.361414670944214,0.9807706475257874,-1.1108584,0.50793445,138.99521000000001,-162.68588,1.4227078000000002,BSC
630833807360.0,1.370667815208435,1.8484179973602295,8.477741241455078,-2.4022340774536133,0.9906144142150879,-1.1667526000000001,0.5393939999999999,139.2279,-162.92792,1.2165953999999999,BSC
630844293120.0,1.3756675720214844,1.857592225074768,8.453234672546387,-2.4432034492492676,1.0004329681396484,-1.2076806,0.5513059,139.45262,-163.16199,1.0321171999999998,BSC
630854582272.0,1.3806673288345337,1.8666950464248657,8.428518295288086,-2.484316349029541,1.0102250576019287,-1.2629639,0.56688297,139.68907,-163.39189,0.83486587,BSC
630864674816.0,1.385667085647583,1.875724196434021,8.403594017028809,-2.525567054748535,1.0199893712997437,-1.2696834,0.559858,139.94243,-163.55296,0.6037734,BSC
630874570752.0,1.3906668424606323,1.884677529335022,8.378461837768555,-2.5669493675231934,1.0297248363494873,-1.3112222,0.54244834,140.19988999999998,-163.7008,0.35427347,BSC
630884335616.0,1.3956667184829712,1.8935531377792358,8.35312271118164,-2.608457565307617,1.0394302606582642,-1.289842,0.5503895999999999,140.48718,-163.83865,0.18271765,BSC
630893903872.0,1.40066659450531,1.9023493528366089,8.327577590942383,-2.650085926055908,1.0491046905517578,-1.244027,0.52870387,140.7593,-163.96126999999996,0.0076677413,BSC
630903341056.0,1.405666470527649,1.9110645055770874,8.301826477050781,-2.691828489303589,1.0587470531463623,-1.2596041,0.5128214,140.99992,-164.15195,-0.31628376,BSC
630912581632.0,1.4106663465499878,1.9196972846984863,8.275871276855469,-2.7336795330047607,1.0683566331863403,-1.2415836,0.49938235,141.22246,-164.32413,-0.6127313,BSC
630921691136.0,1.4156662225723267,1.9282463788986206,8.249712944030762,-2.7756330966949463,1.077932596206665,-1.2034045,0.50885075,141.43431,-164.643,-0.85050493,BSC
630930669568.0,1.420666217803955,1.9367107152938843,8.22335147857666,-2.8176839351654053,1.0874743461608887,-1.1685851999999999,0.45814893,141.62038,-164.94261,-1.0862379,BSC
630939451392.0,1.4256662130355835,1.9450894594192505,8.196788787841797,-2.85982608795166,1.096981167793274,-1.2324207,0.38423425,141.80296,-165.21811,-1.336066,BSC
630948102144.0,1.430666208267212,1.9533817768096924,8.170025825500488,-2.9020540714263916,1.1064527034759521,-1.2202033,0.29443705,141.97711,-165.48576,-1.5255003,BSC
630956621824.0,1.4356662034988403,1.9615870714187622,8.143062591552734,-2.9443624019622803,1.1158883571624756,-1.1838568,0.22937989,142.13733,-165.73969,-1.7259755,BSC
630965010432.0,1.4406661987304688,1.9697048664093018,8.115900993347168,-2.986745595932007,1.1252877712249756,-1.1636983,0.16890424,142.31378,-165.90842,-1.8862994,BSC
630973333504.0,1.4456661939620972,1.977734923362732,8.088541984558105,-3.029197931289673,1.134650707244873,-1.0958921999999998,0.12889257,142.46965,-166.04787,-2.0230403000000003,BSC
630981525504.0,1.4506661891937256,1.9856770038604736,8.06098747253418,-3.071713924407959,1.1439769268035889,-0.9831876,0.03145956,142.59225,-166.2195,-2.1071699,BSC
630989586432.0,1.455666184425354,1.9935309886932373,8.03323745727539,-3.114288330078125,1.1532663106918335,-0.7877107,0.029932396,142.71909,-166.29153,-2.1431248,BSC
630997516288.0,1.4606661796569824,2.0012969970703125,8.005294799804688,-3.1569154262542725,1.1625187397003174,-0.5543602,0.051923547,142.78576999999999,-166.51227,-2.176678,BSC
631005380608.0,1.4656661748886108,2.008975028991699,7.9771599769592285,-3.199589729309082,1.1717342138290405,-0.3323107,0.07544186,142.84018,-166.61813,-2.1577057999999996,BSC
631013113856.0,1.4706662893295288,2.0165655612945557,7.948835372924805,-3.2423057556152344,1.180912733078003,-0.12003502,0.10659598599999999,142.88826,-166.71161,-2.0743408,BSC
631020781568.0,1.4756664037704468,2.024068832397461,7.920321941375732,-3.285057783126831,1.1900542974472046,-0.13408493,0.08857546,142.74075,-167.02438,-2.46917,BSC
631028318208.0,1.4806665182113647,2.0314853191375732,7.891622066497803,-3.327840566635132,1.1991591453552246,0.10476339,0.005192355,142.55098,-167.30446,-2.7285132,BSC
631035789312.0,1.4856666326522827,2.03881573677063,7.86273717880249,-3.3706483840942383,1.2082273960113525,0.43279803,-0.0061086523,142.2719,-167.68759,-3.2265706,BSC
631043129344.0,1.4906667470932007,2.04606032371521,7.833669662475586,-3.413475751876831,1.217259168624878,0.55741453,-0.022907447,141.96434,-168.03758,-3.6998889999999998,BSC
631050403840.0,1.4956668615341187,2.05322003364563,7.804421901702881,-3.456317186355591,1.2262548208236694,0.6169739000000001,-0.0693332,141.63072,-168.38977,-4.0855517,BSC
631057612800.0,1.5006669759750366,2.060295343399048,7.774995803833008,-3.499166965484619,1.2352145910263062,0.67073005,-0.06169739,141.3052,-168.864,-4.336082,BSC
631064756224.0,1.5056670904159546,2.067286968231201,7.745393753051758,-3.5420196056365967,1.2441387176513672,0.72265357,0.020158553,140.99156000000005,-169.3079,-4.562287,BSC
631071768576.0,1.5106672048568726,2.074195623397827,7.715618133544922,-3.584869384765625,1.2530274391174316,0.72204274,0.08460484,140.68185,-169.8642,-4.665294,BSC
631078715392.0,1.5156673192977905,2.081022024154663,7.685671806335449,-3.6277105808258057,1.2618811130523682,0.6044512,0.08521569999999999,140.38934,-170.39536,-4.7848554000000005,BSC
631085596672.0,1.5206674337387085,2.0877668857574463,7.655557632446289,-3.6705377101898193,1.2706999778747559,0.45662177,0.008552114,140.10204,-170.91326999999995,-4.912846,BSC
631092412416.0,1.5256675481796265,2.094430685043335,7.625277996063232,-3.7133450508117676,1.2794843912124634,0.34025195,-0.022296581,139.88201999999998,-171.41753,-4.9252486,BSC
631099162624.0,1.5306676626205444,2.1010141372680664,7.5948357582092285,-3.756126880645752,1.2882344722747803,0.25289822,-0.052839845,139.65059,-171.91111999999995,-4.975537,BSC
631105847296.0,1.5356677770614624,2.1075174808502197,7.564234256744385,-3.798877716064453,1.2969505786895752,0.20799962,-0.08399397,139.40701,-172.43526,-5.0604553,BSC
631112466432.0,1.5406678915023804,2.113941192626953,7.533475875854492,-3.8415920734405518,1.3056328296661377,0.20738874,-0.1255328,139.15718,-172.94582,-5.1588199999999995,BSC
631119020032.0,1.5456680059432983,2.1202855110168457,7.502563953399658,-3.8842642307281494,1.3142814636230469,0.19150625,0.09285152,138.95546000000002,-173.49059,-5.3129787,BSC
631125508096.0,1.5506681203842163,2.1265504360198975,7.471501350402832,-3.926888942718506,1.3228964805603027,0.17989981,0.054061572999999995,138.6714,-173.99536,-5.4753404,BSC
631131996160.0,1.5556682348251343,2.1327359676361084,7.440290927886963,-3.969460964202881,1.3314778804779053,0.25992316,0.011911871999999999,138.44899999999998,-174.46573999999995,-5.607996,BSC
631138418688.0,1.5606683492660522,2.138841390609741,7.408935546875,-4.011974811553955,1.3400256633758545,0.29657507,0.0030543262,138.24278,-174.85193,-5.806925,BSC
631144775680.0,1.5656684637069702,2.1448662281036377,7.377438068389893,-4.0544257164001465,1.3485397100448608,0.32467487,0.014660766,138.02855,-175.18336000000005,-5.9860916,BSC
631151067136.0,1.5706684589385986,2.1508095264434814,7.34580135345459,-4.096808910369873,1.3570197820663452,0.18478674,0.049480084,137.79141,-175.59097,-6.205499,BSC
631157293056.0,1.575668454170227,2.156670093536377,7.314028263092041,-4.1391191482543945,1.3654656410217285,0.16829337,0.06566802,137.54973999999999,-175.94676,-6.3817105000000005,BSC
631163518976.0,1.5806684494018555,2.1624462604522705,7.282121181488037,-4.181352138519287,1.3738768100738525,0.27947086,-0.0580322,137.29001,-176.26228,-6.54253,BSC
631169679360.0,1.5856684446334839,2.1681363582611084,7.250082015991211,-4.223503589630127,1.382252812385559,0.31031954,-0.13683382,137.04973,-176.53781,-6.729156,BSC
631175774208.0,1.5906684398651123,2.1737380027770996,7.2179131507873535,-4.26556921005249,1.3905929327011108,0.010690141499999998,0.18173242,136.8921,-176.73868000000004,-6.9743056,BSC
631181869056.0,1.5956684350967407,2.179248571395874,7.185616493225098,-4.307545185089111,1.398896336555481,0.007941248,1.0369438,136.88228,-176.86649,-6.9893675,BSC
631187898368.0,1.6006684303283691,2.184664726257324,7.15319299697876,-4.349427700042725,1.4071623086929321,0.12339478,1.6997325,136.912,-176.86858,-7.055308999999999,BSC
631193927680.0,1.6056684255599976,2.1899831295013428,7.120644569396973,-4.391213893890381,1.4153896570205688,0.45142943,1.9168952000000001,137.14491,-176.43405,-7.166972,BSC
631199891456.0,1.610668420791626,2.195199966430664,7.0879716873168945,-4.432900428771973,1.4235771894454956,0.6444628000000001,1.6994271,137.4359,-175.98792,-7.2702155,BSC
631205789696.0,1.6156684160232544,2.200310468673706,7.055175304412842,-4.474483966827393,1.4317234754562378,0.33292156,1.3478742,137.74671999999998,-175.58208,-7.4141088,BSC
631211687936.0,1.6206684112548828,2.2053098678588867,7.022254943847656,-4.515962600708008,1.4398270845413208,0.079107046,0.9104946,137.69722,-175.50658,-8.045792,BSC
631217520640.0,1.6256684064865112,2.210192918777466,6.989210605621338,-4.557333946228027,1.4478862285614014,0.09040806,0.5946773,137.58472,-175.64247,-8.653286,BSC
631223353344.0,1.6306684017181396,2.2149534225463867,6.95604133605957,-4.598596572875977,1.4558991193771362,0.29168814,0.48716503,137.12355,-176.57661000000004,-9.448423,BSC
631229120512.0,1.6356682777404785,2.2195849418640137,6.922745704650879,-4.639748573303223,1.4638636112213135,0.43004912,0.58368176,136.67268,-177.64246,-10.20063,BSC
631234887680.0,1.6406681537628174,2.224080801010132,6.889322280883789,-4.680788516998291,1.4717775583267212,0.41325033,0.7134906,136.26526,-179.05386000000001,-10.561202,BSC
631240654848.0,1.6456680297851562,2.22843337059021,6.855768203735352,-4.721715927124023,1.4796384572982788,0.23823744,0.929126,135.94563,179.55463999999995,-10.905481,BSC
631246356480.0,1.6506679058074951,2.2326345443725586,6.822080612182617,-4.762530326843262,1.4874438047409058,-0.17531833,0.9850201999999999,135.64243000000002,178.27985,-11.305269000000001,BSC
631252058112.0,1.655667781829834,2.236675977706909,6.7882561683654785,-4.803231716156006,1.4951906204223633,-0.71593404,0.9495899999999999,135.62991,177.0029,-11.224397999999999,BSC
631257694208.0,1.6606676578521729,2.240548610687256,6.754290580749512,-4.843820095062256,1.5028760433197021,-1.0968086000000001,0.84238315,135.59846000000002,175.88599,-11.228121,BSC
631263330304.0,1.6656675338745117,2.2442426681518555,6.720179080963135,-4.884296417236328,1.510496735572815,-1.3112222,0.782213,135.50345,175.06513999999999,-11.477528,BSC
631268900864.0,1.6706674098968506,2.247748374938965,6.685916423797607,-4.924661636352539,1.5180493593215942,-1.4935656000000002,0.74097955,135.35747,174.38301,-11.828453999999999,BSC
631274471424.0,1.6756672859191895,2.2510547637939453,6.651496410369873,-4.964916706085205,1.525530219078064,-1.5778649,0.7360926,135.23865,174.08667,-12.324741,BSC
631280041984.0,1.6806670427322388,2.2541511058807373,6.616911888122559,-5.005064010620117,1.532935619354248,-1.611768,0.72509706,135.08783,173.80014,-12.856714,BSC
631285547008.0,1.685666799545288,2.2570254802703857,6.582155227661133,-5.045105457305908,1.5402613878250122,-1.7406605,0.6786713000000001,135.09951999999998,173.92506,-13.458153,BSC
631291052032.0,1.6906665563583374,2.2596659660339355,6.547218322753906,-5.085043430328369,1.5475033521652222,-1.915368,0.57848936,135.08789,173.97556,-14.075787,BSC
631296557056.0,1.6956663131713867,2.2620599269866943,6.512091636657715,-5.124881267547607,1.5546571016311646,-2.064419,0.43066000000000004,135.20175,174.43027,-14.724751000000001,BSC
631302062080.0,1.700666069984436,2.2641944885253906,6.4767656326293945,-5.1646223068237305,1.5617179870605469,-1.8329011000000002,0.31031954,135.31486999999998,174.82623,-15.299404000000001,BSC
631307501568.0,1.7056658267974854,2.2660562992095947,6.441229343414307,-5.204270362854004,1.5686813592910767,-1.4590516000000002,0.34972036,135.44461,175.21812,-15.862382,BSC
631312941056.0,1.7106655836105347,2.2676312923431396,6.405471324920654,-5.243829250335693,1.5755420923233032,-1.2385293,0.42455134,135.71768,175.7219,-16.294106,BSC
631318380544.0,1.715665340423584,2.2689056396484375,6.369478702545166,-5.283303737640381,1.5822951793670654,-0.99387777,0.50488013,136.02441000000002,176.2293,-16.602903,BSC
631323754496.0,1.7206650972366333,2.269864797592163,6.3332390785217285,-5.322698593139648,1.5889352560043335,-0.7244862,0.6065891999999999,136.4532,176.96387,-16.633017000000002,BSC
631329128448.0,1.7256648540496826,2.270493745803833,6.2967376708984375,-5.362018585205078,1.595456838607788,-0.47555858,0.68783426,136.9072,177.70094,-16.588417,BSC
631334502400.0,1.7306644916534424,2.270777702331543,6.259960174560547,-5.40126895904541,1.6018544435501099,-0.31703907,0.7021896,137.39122,178.38898,-16.444706,BSC
631339876352.0,1.7356641292572021,2.2707016468048096,6.222890377044678,-5.440455436706543,1.6081223487854004,-0.27580565,0.6621779000000001,137.88246,179.10406,-16.255177,BSC
631345250304.0,1.740663766860962,2.270249843597412,6.185512542724609,-5.479584217071533,1.6142547130584717,-0.19975294,0.6441574000000001,138.38208,179.83778,-16.002192,BSC
631350558720.0,1.7456634044647217,2.269407033920288,6.147809028625488,-5.518660545349121,1.6202455759048462,-0.09285152,0.6203337,138.77796999999998,-179.58524,-15.899617000000001,BSC
631355867136.0,1.7506630420684814,2.268157958984375,6.109762668609619,-5.5576910972595215,1.626089096069336,0.07452556,0.6426301999999999,139.18132,-178.98763,-15.750176999999999,BSC
631361175552.0,1.7556626796722412,2.266486883163452,6.071354866027832,-5.596681594848633,1.6317790746688843,0.2678644,0.7834346999999999,139.4668,-178.57224,-15.765529999999998,BSC
631366483968.0,1.760662317276001,2.264378309249878,6.032566547393799,-5.635638236999512,1.6373094320297241,0.31001409999999996,0.7641924,139.71161,-178.17207,-15.771997,BSC
631371792384.0,1.7656619548797607,2.26181697845459,5.993378162384033,-5.674567222595215,1.6426739692687988,0.37995818,0.72173727,139.84575,-177.89643999999996,-15.968221,BSC
631377100800.0,1.7706615924835205,2.2587878704071045,5.953770160675049,-5.713474750518799,1.6478664875030518,0.44440445,0.7318166,139.98807,-177.646,-16.145508,BSC
631382343680.0,1.7756612300872803,2.2552759647369385,5.913722515106201,-5.752366065979004,1.6528807878494263,0.559858,0.5729916,140.06444,-177.42786,-16.283695,BSC
631387586560.0,1.78066086769104,2.2512667179107666,5.873215198516846,-5.791247367858887,1.6577105522155762,0.61086524,0.3753767,139.83209,-177.68497,-16.746183,BSC
631392829440.0,1.7856605052947998,2.246746063232422,5.83222770690918,-5.8301239013671875,1.6623497009277344,0.5693264,0.20066923,139.55952,-177.9684,-17.178898,BSC
631398072320.0,1.7906601428985596,2.2417001724243164,5.790740013122559,-5.8690009117126465,1.6667921543121338,0.54275376,0.079107046,139.24524,-178.2787,-17.57234,BSC
631403315200.0,1.7956596612930298,2.2361156940460205,5.74873161315918,-5.9078826904296875,1.6710317134857178,0.56169057,-0.015882496,138.82126,-178.96866,-17.818732999999995,BSC
631408558080.0,1.8006591796875,2.2299797534942627,5.706182956695557,-5.946773529052734,1.6750622987747192,0.5503895999999999,-0.11178834,138.36958,-179.66624,-18.068026,BSC
631413735424.0,1.8056586980819702,2.223280429840088,5.663074493408203,-5.985677242279053,1.6788780689239502,0.52442783,-0.21533000000000002,137.89137,179.47751,-18.135754000000002,BSC
631418912768.0,1.8106582164764404,2.216005802154541,5.619387149810791,-6.02459716796875,1.682473063468933,0.44715336,-0.29382620000000004,137.40135,178.61853,-18.214062,BSC
631424090112.0,1.8156577348709106,2.2081451416015625,5.575102806091309,-6.063536167144775,1.685841679573059,0.37690386,-0.31978795,136.90489,177.74802,-18.290526999999997,BSC
631429267456.0,1.8206572532653809,2.199688196182251,5.530203342437744,-6.102496147155762,1.6889781951904297,0.32070425,-0.33017266,136.44641000000001,176.9088,-18.294249,BSC
631434444800.0,1.825656771659851,2.1906256675720215,5.4846720695495605,-6.141478061676025,1.6918771266937256,0.30176744,-0.31612277,135.99018999999998,176.06235,-18.304527,BSC
631439622144.0,1.8306562900543213,2.1809487342834473,5.438493251800537,-6.180482864379883,1.6945332288742065,0.36468655,-0.29840767,135.56757,175.32398999999995,-18.356192,BSC
631444799488.0,1.8356558084487915,2.170649290084839,5.391651630401611,-6.219510555267334,1.6969413757324219,0.40378192,-0.31215215,135.13872,174.60622,-18.417510999999998,BSC
631449976832.0,1.8406553268432617,2.1597204208374023,5.3441338539123535,-6.2585601806640625,1.6990965604782104,0.47983465,-0.33322698,134.72797,173.96098,-18.494915,BSC
631455154176.0,1.845654845237732,2.148155927658081,5.295927047729492,-6.297630310058594,1.7009941339492798,0.6404922,-0.42394048,134.29666,173.329,-18.532904000000002,BSC
631460265984.0,1.8506543636322021,2.1359503269195557,5.247020244598389,-6.336718559265137,1.7026294469833374,0.70157874,-0.45875978,133.8756,172.77829,-18.577747,BSC
631465377792.0,1.8556538820266724,2.1230990886688232,5.1974029541015625,-6.375821590423584,1.7039982080459595,0.8063421,-0.5131268,133.43788,172.21962,-18.571396,BSC
631470489600.0,1.8606534004211426,2.109598398208618,5.147066593170166,-6.41493558883667,1.7050963640213013,0.8555168,-0.56688297,132.99275,171.70961,-18.561838,BSC
631475601408.0,1.8656529188156128,2.095445394515991,5.096004009246826,-6.4540557861328125,1.7059199810028076,0.9315694999999999,-0.56291234,132.55789,171.18733,-18.51549,BSC
631480713216.0,1.870652437210083,2.0806379318237305,5.0442094802856445,-6.493176460266113,1.706465482711792,1.0268645,-0.51343226,132.2488,170.80418,-18.330847,BSC
631485825024.0,1.8756519556045532,2.0651750564575195,4.991678714752197,-6.532291412353516,1.7067296504974365,1.1074986,-0.43096542,131.95703,170.40808,-18.134071,BSC
631490936832.0,1.8806514739990234,2.049056053161621,4.938408374786377,-6.5713934898376465,1.706709384918213,1.1759156000000002,-0.35643986,131.7332,170.08807,-17.911373,BSC
631496048640.0,1.8856509923934937,2.0322813987731934,4.884397029876709,-6.610474586486816,1.7064018249511719,1.2260065,-0.30482176,131.5328,169.75691,-17.678669,BSC
631501160448.0,1.8906505107879639,2.014852285385132,4.829645156860352,-6.649526596069336,1.7058045864105225,1.2611313,-0.2312125,131.36638,169.41896,-17.440825,BSC
631506272256.0,1.895650029182434,1.9967707395553589,4.774153709411621,-6.688539981842041,1.7049154043197632,1.3054191000000002,-0.18387043,131.19193,169.09079,-17.260170000000002,BSC
631511384064.0,1.9006495475769043,1.9780393838882446,4.717926025390625,-6.727505207061768,1.7037324905395508,1.3616186000000001,-0.14508049,131.04147,168.76852,-17.07452,BSC
631516495872.0,1.9056490659713745,1.9586615562438965,4.660965919494629,-6.766411304473877,1.702254295349121,1.4052955,-0.14630222,130.7974,168.41977,-17.048859,BSC
631521607680.0,1.9106485843658447,1.9386413097381592,4.603279113769531,-6.8052473068237305,1.700479507446289,1.4184291,-0.16615535,130.56226999999998,168.0811,-17.020012,BSC
631526719488.0,1.915648102760315,1.9179834127426147,4.544872760772705,-6.844001293182373,1.6984071731567383,1.4156802,-0.2556471,130.18112,167.72069,-17.171677,BSC
631531765760.0,1.9206476211547852,1.896693229675293,4.48575496673584,-6.88266134262085,1.6960368156433105,1.4193453999999999,-0.40072759999999996,129.78044,167.38467,-17.31054,BSC
631536812032.0,1.9256471395492554,1.874776840209961,4.425934791564941,-6.9212141036987305,1.6933680772781372,1.3735305,-0.56046885,129.34743,167.08595,-17.454792,BSC
631541858304.0,1.9306467771530151,1.8522406816482544,4.365423202514648,-6.959647178649902,1.6904010772705078,1.2315042999999999,-0.66981375,128.80568,166.48712,-17.488443,BSC
631546904576.0,1.935646414756775,1.829092025756836,4.3042311668396,-6.997946262359619,1.687136173248291,1.1090258,-0.6982189999999999,128.24849,165.91876000000005,-17.521278,BSC
631551950848.0,1.9406460523605347,1.8053383827209473,4.242371559143066,-7.036097526550293,1.6835740804672241,0.91538155,-0.70341134,127.74127,165.3404,-17.384035,BSC
631556997120.0,1.9456456899642944,1.7809878587722778,4.179858207702637,-7.074086666107178,1.6797159910202026,0.91874135,-0.68539083,127.247955,164.7529,-17.227253,BSC
631562043392.0,1.9506453275680542,1.7560491561889648,4.116705417633057,-7.111898899078369,1.6755632162094116,1.1172725000000001,-0.63804877,126.90808999999999,164.26683,-16.865343,BSC
631567089664.0,1.955644965171814,1.730531096458435,4.052928447723389,-7.149519443511963,1.6711175441741943,1.3029754999999998,-0.5748241999999999,126.58408,163.7683,-16.514301,BSC
631572135936.0,1.9606446027755737,1.7044432163238525,3.9885430335998535,-7.186933517456055,1.6663810014724731,1.488984,-0.3753767,126.47045,163.41687,-15.975463000000001,BSC
631577182208.0,1.9656442403793335,1.6777952909469604,3.9235661029815674,-7.224125385284424,1.6613560914993286,1.4773777,-0.24037547,126.35888999999999,163.01953,-15.450441,BSC
631582228480.0,1.9706438779830933,1.6505974531173706,3.8580148220062256,-7.26107931137085,1.6560454368591309,1.4269812,-0.14935656,126.35578999999998,162.74893,-14.927315,BSC
631587274752.0,1.975643515586853,1.622860074043274,3.79190731048584,-7.2977800369262695,1.6504521369934082,1.3735305,-0.10079276599999999,126.37801,162.4833,-14.424725,BSC
631592321024.0,1.9806431531906128,1.5945940017700195,3.7252614498138428,-7.334212303161621,1.644579529762268,1.353372,-0.110872045,126.354,162.20712,-14.069536,BSC
631597367296.0,1.9856427907943726,1.5658100843429565,3.6580963134765625,-7.370359897613525,1.6384313106536865,1.3414601000000002,-0.13622294,126.33613000000001,161.94416999999999,-13.73526,BSC
631602413568.0,1.9906424283981323,1.5365196466445923,3.590430498123169,-7.40620756149292,1.6320114135742188,1.3133603,-0.1423316,126.318184,161.71116999999995,-13.417288000000001,BSC
631607459840.0,1.995642066001892,1.5067341327667236,3.5222835540771484,-7.441739082336426,1.6253241300582886,1.2565498,-0.15088372,126.17187,161.4096,-13.265938,BSC
631612506112.0,2.0006418228149414,1.4764652252197266,3.453674793243408,-7.476939678192139,1.618373990058899,1.1801916000000001,-0.17501289,126.01566000000001,161.15411,-13.130242,BSC
631617552384.0,2.005641460418701,1.4457247257232666,3.3846237659454346,-7.511793613433838,1.6111658811569214,1.0751228000000002,-0.19333886,125.767075,160.76936,-13.024952,BSC
631622598656.0,2.010641098022461,1.4145246744155884,3.315150022506714,-7.546285152435303,1.6037049293518066,0.95539325,-0.22235495,125.50126000000002,160.42488,-12.944992,BSC
631627644928.0,2.0156407356262207,1.382877230644226,3.2452731132507324,-7.580399513244629,1.5959964990615845,0.8155051,-0.26358834,125.24781000000002,160.06393,-12.767577000000001,BSC
631632691200.0,2.0206403732299805,1.350794792175293,3.1750128269195557,-7.614121913909912,1.5880460739135742,0.6206391,-0.35277468,124.95733,159.72421,-12.633655000000001,BSC
631637737472.0,2.0256400108337402,1.3182897567749023,3.104388475418091,-7.647437572479248,1.5798596143722534,0.55955255,-0.34483343,124.68323999999998,159.41266000000005,-12.510950999999999,BSC
631642783744.0,2.0306396484375,1.2853748798370361,3.033419609069824,-7.680332183837891,1.5714430809020996,0.50976706,-0.36346483,124.38321,159.04955,-12.316446000000001,BSC
631647830016.0,2.035639524459839,1.2520627975463867,2.962125062942505,-7.712791442871094,1.562802791595459,0.40866885,-0.36254853,124.080505,158.70093,-12.158942,BSC
631652810752.0,2.0406394004821777,1.218366265296936,2.89052414894104,-7.744801998138428,1.5539453029632568,0.31887165,-0.36438109999999996,123.86908999999999,158.41629,-11.836285,BSC
631657791488.0,2.0456392765045166,1.1842983961105347,2.8186352252960205,-7.776350021362305,1.5448771715164185,0.2312125,-0.34941490000000003,123.65321999999999,158.12268,-11.548178,BSC
631662772224.0,2.0506391525268555,1.1498723030090332,2.746476650238037,-7.807422161102295,1.5356053113937378,0.06352998,-0.41447207,123.49353,157.92018000000004,-11.15353,BSC
631667818496.0,2.0556390285491943,1.1151012182235718,2.6740665435791016,-7.838005542755127,1.5261366367340088,0.04520403,-0.39828414,123.367,157.73203,-10.761072,BSC
631672799232.0,2.060638904571533,1.0799983739852905,2.6014225482940674,-7.868088245391846,1.5164783000946045,0.19792034,-0.29504790000000003,123.29938,157.61288000000005,-10.315692,BSC
631677845504.0,2.065638780593872,1.0445773601531982,2.528562068939209,-7.897658348083496,1.5066375732421875,0.23609942,-0.23854288,123.20811,157.49527,-9.909619000000001,BSC
631682891776.0,2.070638656616211,1.0088516473770142,2.4555017948150635,-7.926703929901123,1.49662184715271,0.2773328,-0.17043139999999998,123.18346399999999,157.46042,-9.488876,BSC
631687872512.0,2.07563853263855,0.972835123538971,2.382258176803589,-7.955214023590088,1.486438512802124,0.34513888,-0.1554652,123.16618000000001,157.43576000000004,-9.058738,BSC
631692853248.0,2.0806384086608887,0.9365416765213013,2.308847427368164,-7.983177661895752,1.476095199584961,0.4083634,-0.13225232,123.13665,157.40313999999995,-8.704599,BSC
631697833984.0,2.0856382846832275,0.8999853730201721,2.2352848052978516,-8.010584831237793,1.465599536895752,0.35399640000000004,-0.18997909,123.083626,157.38565,-8.361744999999999,BSC
631702814720.0,2.0906381607055664,0.8631805181503296,2.161585569381714,-8.037425994873047,1.4549591541290283,0.44868052,-0.15363261,123.08561,157.3909,-7.981657000000001,BSC
631707795456.0,2.0956380367279053,0.8261415362358093,2.087764024734497,-8.063691139221191,1.4441817998886108,0.5720753000000001,-0.1160644,122.95763000000001,157.3231,-7.824255,BSC
631712776192.0,2.100637912750244,0.7888831496238708,2.0138344764709473,-8.089371681213379,1.4332752227783203,0.59437186,-0.11301007,122.82964,157.27388,-7.6718535,BSC
631717822464.0,2.105637788772583,0.7514201998710632,1.9398106336593628,-8.114459991455078,1.422247052192688,0.5766568,-0.13255776,122.71529,157.23468,-7.502666499999999,BSC
631722803200.0,2.110637664794922,0.7137678265571594,1.8657054901123047,-8.138947486877441,1.4111051559448242,0.5174029,-0.17256944,122.5758,157.20009,-7.377147,BSC
631727783936.0,2.1156375408172607,0.6759414672851562,1.7915316820144653,-8.162827491760254,1.3998570442199707,0.40286562,-0.21899518,122.42142,157.17262,-7.2711573000000005,BSC
631732830208.0,2.1206376552581787,0.6379567384719849,1.717301368713379,-8.186092376708984,1.3885104656219482,0.27947086,-0.27091873,122.22425,157.11043,-7.1867895000000015,BSC
631737810944.0,2.1256377696990967,0.5998296141624451,1.6430262327194214,-8.208736419677734,1.377073049545288,0.172264,-0.31887165,122.005104,157.05884,-7.1261253,BSC
631742857216.0,2.1306378841400146,0.5615763664245605,1.5687174797058105,-8.230752944946289,1.365552306175232,0.07727446,-0.36621370000000003,121.7666,156.99278,-7.055986999999999,BSC
631747903488.0,2.1356379985809326,0.5232136249542236,1.4943859577178955,-8.252137184143066,1.353955626487732,0.033292156,-0.39461896,121.51458000000001,156.93466,-6.999613,BSC
631752884224.0,2.1406381130218506,0.4847582280635834,1.420041799545288,-8.272884368896484,1.3422902822494507,-0.008857545999999999,-0.4156938,121.2706,156.88683999999995,-6.9040027,BSC
631757864960.0,2.1456382274627686,0.44622746109962463,1.3456950187683105,-8.292990684509277,1.3305635452270508,-0.044898596,-0.44318274,121.013756,156.84077,-6.817052,BSC
631762845696.0,2.1506383419036865,0.40763890743255615,1.2713550329208374,-8.31245231628418,1.3187824487686157,-0.08216137400000001,-0.49693888,120.74013000000001,156.77968,-6.7385197,BSC
631767891968.0,2.1556384563446045,0.3690105378627777,1.1970309019088745,-8.331265449523926,1.3069539070129395,-0.08704830000000001,-0.50640726,120.57101000000002,156.81929,-6.5144730000000015,BSC
631772872704.0,2.1606385707855225,0.33036068081855774,1.122731328010559,-8.349428176879883,1.2950847148895264,-0.09162979,-0.50976706,120.38548999999999,156.84467,-6.299519999999999,BSC
631777853440.0,2.1656386852264404,0.2917080223560333,1.0484645366668701,-8.366937637329102,1.2831814289093018,-0.09560041,-0.52198434,120.19511399999999,156.86691000000005,-6.088337999999999,BSC
631782899712.0,2.1706387996673584,0.2530715763568878,0.9742385149002075,-8.383792877197266,1.2712504863739014,-0.05925392700000001,-0.50885075,120.06098,156.95802,-5.8323474000000015,BSC
631787880448.0,2.1756389141082764,0.2144707888364792,0.9000608921051025,-8.399992942810059,1.2592982053756714,-0.019242255,-0.48258355,119.92714,157.06036,-5.5817533,BSC
631792861184.0,2.1806390285491943,0.17592541873455048,0.8259390592575073,-8.415536880493164,1.2473305463790894,-0.010690141499999998,-0.4474588,119.799774,157.16486,-5.337599,BSC
631797841920.0,2.1856391429901123,0.13745559751987457,0.7518799901008606,-8.430424690246582,1.2353532314300537,-0.00030543262000000003,-0.42455134,119.67741000000001,157.29755,-5.10904,BSC
631802822656.0,2.1906392574310303,0.09908178448677063,0.6778905391693115,-8.444657325744629,1.2233718633651733,0.04642576,-0.37934732,119.575516,157.44548,-4.8794913,BSC
631807868928.0,2.1956393718719482,0.06082477793097496,0.6039772033691406,-8.458234786987305,1.2113919258117676,0.09407325,-0.36682457,119.48691000000001,157.72777,-4.735945,BSC
631812849664.0,2.200639486312866,0.022705696523189545,0.5301463007926941,-8.471159934997559,1.1994184255599976,0.14294247,-0.32620203,119.42378000000001,158.01563000000004,-4.590049,BSC
631817830400.0,2.205639600753784,-0.015254039317369461,0.4564039409160614,-8.483433723449707,1.1874562501907349,0.19272798,-0.29932398,119.36627,158.31078,-4.433523,BSC
631822811136.0,2.2106399536132812,-0.05303272232413292,0.3827560842037201,-8.495059967041016,1.1755099296569824,0.23579398,-0.33567044,119.289185,158.65149,-4.345833,BSC
631827791872.0,2.2156403064727783,-0.0906083881855011,0.30920857191085815,-8.506040573120117,1.1635838747024536,0.2415972,-0.38484509999999994,119.2181,158.99629,-4.257903,BSC
631832772608.0,2.2206406593322754,-0.12795880436897278,0.23576706647872925,-8.516380310058594,1.1516822576522827,0.36132678,-0.30176744,119.23835,159.48022,-4.153302,BSC
631837818880.0,2.2256410121917725,-0.16506154835224152,0.16243718564510345,-8.526082992553711,1.1398087739944458,0.41355577,-0.2593123,119.22944,159.93575,-4.0567303,BSC
631842799616.0,2.2306413650512695,-0.20189398527145386,0.0892244353890419,-8.535152435302734,1.127967119216919,0.40775254,-0.26083946,119.2766,160.47757,-3.9314902000000003,BSC
631847780352.0,2.2356417179107666,-0.23843331634998322,0.01613430120050907,-8.543594360351562,1.11616051197052,0.42302418,-0.2611449,119.34279,161.00151,-3.7922627999999996,BSC
631852826624.0,2.2406420707702637,-0.27465659379959106,-0.05682775750756264,-8.551414489746094,1.1043919324874878,0.43554693,-0.2742785,119.4042,161.49483,-3.6554623,BSC
631857807360.0,2.2456424236297607,-0.3105407953262329,-0.12965627014636993,-8.558618545532227,1.092664122581482,0.45814893,-0.28863382,119.45573999999999,161.87418,-3.4038867999999995,BSC
631862788096.0,2.250642776489258,-0.3460628092288971,-0.20234572887420654,-8.565213203430176,1.080979585647583,0.45020768,-0.34391713,119.489746,162.24414,-3.156838,BSC
631867768832.0,2.255643129348755,-0.3811994791030884,-0.27489057183265686,-8.571206092834473,1.0693405866622925,0.43371433,-0.37598756,119.44765500000001,162.47473,-2.961043,BSC
631872749568.0,2.260643482208252,-0.41592761874198914,-0.34728509187698364,-8.576603889465332,1.0577489137649536,0.4538729,-0.36163223,119.405754,162.70863,-2.7603505,BSC
631877795840.0,2.265643835067749,-0.4502241313457489,-0.41952353715896606,-8.581414222717285,1.0462063550949097,0.45814893,-0.38240165,119.31116999999999,162.91698,-2.6030042,BSC
631882776576.0,2.270644187927246,-0.4840659499168396,-0.4915999472141266,-8.58564567565918,1.0347142219543457,0.49418998,-0.3717115,119.23396000000001,163.14043999999996,-2.43856,BSC
631887757312.0,2.275644540786743,-0.5174301266670227,-0.5635082125663757,-8.58930778503418,1.0232735872268677,0.5360342,-0.36957347,119.11835,163.35925,-2.3169858,BSC
631892803584.0,2.2806448936462402,-0.5502938628196716,-0.6352419853210449,-8.592409133911133,1.011885404586792,0.50518554,-0.41447207,118.99035,163.58575,-2.2052982000000005,BSC
631897784320.0,2.2856452465057373,-0.5826345682144165,-0.706794798374176,-8.594959259033203,1.0005502700805664,0.59620446,-0.33353242,118.91143000000001,163.83706999999995,-2.0620596,BSC
631902765056.0,2.2906455993652344,-0.6144298315048218,-0.7781597375869751,-8.596967697143555,0.9892686605453491,0.6542366999999999,-0.26511553,118.83434,164.15984,-1.9420313000000002,BSC
631907745792.0,2.2956459522247314,-0.6456575393676758,-0.8493297696113586,-8.598444938659668,0.9780406355857849,0.68569624,-0.23487769,118.77429,164.49542,-1.8103565,BSC
631912726528.0,2.3006463050842285,-0.6762958765029907,-0.9202975034713745,-8.59940242767334,0.9668660759925842,0.7489208,-0.2321288,118.79738600000002,165.00061000000005,-1.6495045,BSC
631917707264.0,2.3056466579437256,-0.7063233256340027,-0.9910552501678467,-8.59985065460205,0.9557446241378784,0.83016586,-0.2724459,118.81948999999999,165.50263999999999,-1.4763986999999998,BSC
631922753536.0,2.3106470108032227,-0.735718846321106,-1.061594843864441,-8.599802017211914,0.9446758031845093,0.8542950999999999,-0.32253686,118.88859,166.1446,-1.3247947,BSC
631927734272.0,2.3156473636627197,-0.7644618153572083,-1.1319079399108887,-8.59926700592041,0.9336588382720947,0.86437434,-0.35094208,118.95591999999999,166.78083999999996,-1.154978,BSC
631932715008.0,2.320647716522217,-0.7925319671630859,-1.2019857168197632,-8.598258018493652,0.9226927757263184,0.82527894,-0.398895,119.05531,167.54363999999995,-0.9893719000000001,BSC
631937761280.0,2.325648069381714,-0.8199096918106079,-1.271818995475769,-8.59678840637207,0.9117764234542847,0.8558222,-0.43982297,119.15233,168.24507,-0.80132663,BSC
631942742016.0,2.330648422241211,-0.8465757966041565,-1.3413982391357422,-8.594869613647461,0.9009084701538086,0.8295549999999999,-0.46395215,119.23358,168.89925,-0.639529,BSC
631947722752.0,2.335648775100708,-0.8725117444992065,-1.4107133150100708,-8.59251594543457,0.890087366104126,0.7367035,-0.48930305,119.42008999999999,169.79341000000005,-0.4287264,BSC
631952769024.0,2.340649127960205,-0.8976995944976807,-1.4797537326812744,-8.589739799499512,0.8793114423751831,0.75441855,-0.37384954,119.64136,170.58226000000005,-0.20156907,BSC
631957749760.0,2.345649480819702,-0.9221220016479492,-1.548508644104004,-8.586554527282715,0.8685788512229919,0.75869465,-0.3023783,119.83533500000001,171.33118000000005,-0.001956422,BSC
631962730496.0,2.350649833679199,-0.9457623362541199,-1.6169666051864624,-8.582974433898926,0.8578876256942749,0.7519751,-0.26145032,119.98583,171.87278999999995,0.2898416,BSC
631967776768.0,2.3556501865386963,-0.9686047434806824,-1.6851158142089844,-8.57901382446289,0.8472356200218201,0.68936145,-0.24190263,120.1455,172.39088,0.5598533,BSC
631972757504.0,2.3606505393981934,-0.990634024143219,-1.752943992614746,-8.574687004089355,0.8366205096244812,0.6105598000000001,-0.26572640000000003,120.23006000000001,172.74857,0.8062273,BSC
631977738240.0,2.3656508922576904,-1.0118358135223389,-1.8204383850097656,-8.57000732421875,0.8260399699211121,0.4822781,-0.21777347,120.33519,173.1037,1.0131099000000001,BSC
631982784512.0,2.3706512451171875,-1.0321965217590332,-1.8875857591629028,-8.564990997314453,0.8154914975166321,0.34574974,-0.18906279,120.35675,173.31833999999995,1.1656761999999998,BSC
631987765248.0,2.3756515979766846,-1.0517033338546753,-1.9543722867965698,-8.559651374816895,0.8049724698066711,0.19883664,-0.20861048,120.37371,173.52045,1.2760891,BSC
631992811520.0,2.3806519508361816,-1.07034432888031,-2.0207839012145996,-8.554004669189453,0.7944802045822144,0.16920967,-0.12767084,120.38757,173.64223,1.3446747,BSC
631997792256.0,2.3856523036956787,-1.0881084203720093,-2.086805820465088,-8.548065185546875,0.784011960029602,0.17012598,-0.079107046,120.38344599999999,173.74289,1.3811206,BSC
632002838528.0,2.390652656555176,-1.1049853563308716,-2.1524229049682617,-8.541849136352539,0.773564875125885,0.21624629,-0.029321532999999997,120.40353999999999,173.81366,1.4189558999999998,BSC
632007819264.0,2.395653009414673,-1.1209659576416016,-2.2176194190979004,-8.535371780395508,0.763136088848114,0.27275133,-0.0018325957999999999,120.48068,173.99489,1.4919943000000002,BSC
632012800000.0,2.40065336227417,-1.1360417604446411,-2.282379150390625,-8.528648376464844,0.7527226209640503,0.34147367,0.032070424,120.575226,174.13928,1.5787733999999998,BSC
632017780736.0,2.405653715133667,-1.1502052545547485,-2.3466856479644775,-8.521695137023926,0.7423214912414551,0.39645153,0.060170225999999986,120.70805,174.35405,1.687153,BSC
632022761472.0,2.410654067993164,-1.1634498834609985,-2.4105217456817627,-8.514527320861816,0.7319297790527344,0.42546764,0.07941248,120.84788999999999,174.53302,1.8047078,BSC
632027742208.0,2.415654420852661,-1.1757699251174927,-2.473869800567627,-8.507161140441895,0.7215443849563599,0.44837508,0.09560041,120.99457,174.68951,1.9328718999999996,BSC
632032788480.0,2.420654773712158,-1.1871607303619385,-2.5367119312286377,-8.499612808227539,0.7111623287200928,0.4605924,0.095294975,121.16448000000001,174.89072,2.0829221999999996,BSC
632037834752.0,2.4256551265716553,-1.1976184844970703,-2.599029779434204,-8.491897583007812,0.7007806301116943,0.46944994,0.074830994,121.33123,175.07465,2.2349916000000003,BSC
632042815488.0,2.4306554794311523,-1.2071404457092285,-2.660804271697998,-8.48403263092041,0.690396249294281,0.462425,0.06719518,121.49588999999999,175.23486,2.4249847,BSC
632047796224.0,2.4356558322906494,-1.2157244682312012,-2.7220163345336914,-8.476033210754395,0.6800062656402588,0.45723262,0.05497787,121.65111499999999,175.38978999999995,2.613876,BSC
632052776960.0,2.4406561851501465,-1.2233697175979614,-2.782646417617798,-8.467916488647461,0.6696077585220337,0.45662177,0.032070424,121.79863999999999,175.55055,2.7979830000000003,BSC
632057757696.0,2.4456565380096436,-1.2300759553909302,-2.8426742553710938,-8.459697723388672,0.6591979265213013,0.44043383,0.01740966,121.93609,175.68643,3.0140748,BSC
632062738432.0,2.4506568908691406,-1.2358438968658447,-2.9020798206329346,-8.451393127441406,0.6487739682197571,0.4297437,0.005497787,122.06594,175.8302,3.2272694,BSC
632067719168.0,2.4556572437286377,-1.2406752109527588,-2.9608421325683594,-8.443018913269043,0.6383331418037415,0.43279803,-0.00061086525,122.17806000000002,175.93303,3.473815,BSC
632072765440.0,2.4606575965881348,-1.2445725202560425,-3.0189404487609863,-8.434591293334961,0.627872884273529,0.42821655,0.0076358155,122.28928,176.04783999999995,3.7108672,BSC
632077746176.0,2.465657949447632,-1.2475390434265137,-3.0763535499572754,-8.426126480102539,0.6173906922340393,0.44257188,0.017104227,122.38016999999999,176.11308,3.9644282,BSC
632082792448.0,2.470658302307129,-1.2495789527893066,-3.1330599784851074,-8.41763973236084,0.606884241104126,0.4361577999999999,0.01282817,122.46833000000001,176.19693,4.207236,BSC
632087773184.0,2.475658416748047,-1.2506972551345825,-3.189038038253784,-8.409148216247559,0.5963512063026428,0.42485678,0.02107485,122.53955,176.23238,4.4480553,BSC
632092753920.0,2.480658531188965,-1.2508997917175293,-3.2442660331726074,-8.400667190551758,0.5857895612716675,0.38759398,0.03940081,122.61165,176.28159,4.6762795,BSC
632097734656.0,2.485658645629883,-1.2501929998397827,-3.2987217903137207,-8.3922119140625,0.5751972794532776,0.33536503,0.021991148999999998,122.64975,176.28429,4.880866999999999,BSC
632102715392.0,2.490658760070801,-1.2485841512680054,-3.352383613586426,-8.383797645568848,0.5645725727081299,0.26389378,0.017715093,122.695885,176.2971,5.065946,BSC
632107761664.0,2.4956588745117188,-1.2460811138153076,-3.405229091644287,-8.37544059753418,0.5539138913154602,0.18051068,0.017104227,122.72318,176.29198,5.2166866999999995,BSC
632112742400.0,2.5006589889526367,-1.2426925897598267,-3.4572362899780273,-8.367156028747559,0.5432197451591492,0.09101892,0.013439035,122.74708000000001,176.28636,5.3432827000000005,BSC
632117788672.0,2.5056591033935547,-1.238427758216858,-3.508382797241211,-8.358959197998047,0.5324889421463013,0.008552114,0.015882496,122.7672,176.29225,5.4439263,BSC
