timestamp,rel_time,acc_x,acc_y,acc_z,gyro_x,gyro_y,gyro_z,azimuth,pitch,roll,label
0.0,0.0,0.0,0.0,0.0,0.0,-0.11636983,-0.077579886,33.94659,-50.57425,4.3421080000000005,STD
753.4517211914062,4.1930467344769573e-13,1.2737953053454376e-11,7.943360413875666e-10,-4.7917652484796847e-11,-4.9624115580626516e-12,-0.12308934,-0.071776666,34.016106,-51.16431,4.3627660000000015,STD
22962.603515625,1.8653110306354748e-11,3.84554194043929e-10,2.4199330539431685e-08,-1.4586772900671008e-09,-1.439375146849997e-10,-0.12644911,-0.07513642,34.090378,-51.748646,4.380516,STD
217874.265625,2.2817045475242992e-10,3.6168916750511926e-09,2.2952771416839823e-07,-1.3825553146773473e-08,-1.3181659097583065e-09,-0.13255776,-0.07574729,34.165165,-52.32497,4.399499400000002,STD
1195949.5,1.5233243555456966e-09,1.9685234775579374e-08,1.2594894087669672e-06,-7.581306249448971e-08,-7.0730465928647845e-09,-0.13744467,-0.07452556,34.240524,-52.89448,4.416233999999998,STD
4719266.5,7.05807279288706e-09,7.70274013461858e-08,4.968342636857415e-06,-2.988607832321577e-07,-2.7548717085323915e-08,-0.13805555,-0.06658431,34.315014,-53.45680600000001,4.432492,STD
14880822.0,2.5519971913467998e-08,2.408524153452163e-07,1.5661053112125956e-05,-9.414323471901298e-07,-8.640659387992855e-08,-0.13194689,-0.06872234,34.39025,-54.011635,4.4442797,STD
39833648.0,7.69744445960896e-08,6.393358376044489e-07,4.190851541352458e-05,-2.5175804694299586e-06,-2.3026059636777063e-07,-0.13744467,-0.069027774,34.46631,-54.56031,4.458298,STD
94047440.0,2.0205007444928924e-07,1.4968376262913807e-06,9.891411173157394e-05,-5.938185950071784e-06,-5.407277967606205e-07,-0.13316862,-0.05955936,34.536972,-55.099453,4.469537,STD
200978432.0,4.7494319233010174e-07,3.1718727768748067e-06,0.00021131025278009474,-1.2677446648012847e-05,-1.1499693073346862e-06,-0.13439035,-0.060170225999999986,34.611427,-55.6315,4.478259,STD
395957856.0,1.0203174269918236e-06,6.196431513671996e-06,0.0004161794204264879,-2.4952185412985273e-05,-2.2501601506519364e-06,-0.13041973,-0.05925392700000001,34.68132,-56.16076700000001,4.4862347,STD
729051392.0,2.033612418017583e-06,1.1312673450447619e-05,0.000766039069276303,-4.5898323151050135e-05,-4.101249942323193e-06,-0.11911872,-0.053145275,34.74843,-56.67904300000001,4.492655,STD
1267623040.0,3.8039452192606404e-06,1.9502916984492913e-05,0.001331510953605175,-7.972777530085295e-05,-7.038181138341315e-06,-0.121256754,-0.04886922,34.817337,-57.192253,4.498717,STD
2098356224.0,6.738343472534325e-06,3.200942956027575e-05,0.0022034153807908297,-0.0001318503636866808,-1.1463782357168384e-05,-0.11881329,-0.049785517,34.881584000000004,-57.70216800000001,4.5009995,STD
3328531456.0,1.1385775906092022e-05,5.03415176353883e-05,0.0034940806217491627,-0.0002089483168674633,-1.7821712390286848e-05,-0.103847094,-0.04337143,34.94082,-58.20604,4.5030932,STD
5086430720.0,1.8460004866938107e-05,7.626829756191e-05,0.005337734706699848,-0.0003189955896232277,-2.6588051696307957e-05,-0.09560041,-0.036651913,35.000435,-58.699783,4.504353,STD
7520815616.0,2.8858181394753046e-05,0.00011179810098838061,0.007889924570918083,-0.0004712191584985703,-3.8222122384468094e-05,-0.089186326,-0.030543262,35.055195,-59.196342,4.503836,STD
10799504384.0,4.367551446193829e-05,0.00015914483810774982,0.011325991712510586,-0.0006760042160749435,-5.315371527103707e-05,-0.105068825,-0.024740042,35.111717,-59.678387,4.5057297,STD
15107136512.0,6.421464786399156e-05,0.000220683534280397,0.01583869755268097,-0.0009447486372664571,-7.176373765105382e-05,-0.08704830000000001,-0.00580322,35.154682,-60.158436,4.5055246,STD
20642260992.0,9.198958287015557e-05,0.00029889773577451706,0.0216351468116045,-0.0012896766420453787,-9.435178071726114e-05,-0.061391957,0.0070249503,35.198936,-60.631653,4.5054120000000015,STD
27613921280.0,0.00012872366642113775,0.00039632178959436715,0.028933189809322357,-0.0017236212734133005,-0.00012107917427783832,-0.05955936,0.015577064,35.241833,-61.09929,4.508751,STD
36237926400.0,0.00017634154937695712,0.0005154815153218806,0.03795748949050903,-0.002259789267554879,-0.00015197310131043196,-0.06688975,0.015271631,35.27927800000001,-61.556458,4.5098343000000005,STD
46732972032.0,0.00023695648997090757,0.0006588351679965854,0.04893546551465988,-0.0029115171637386084,-0.0001868833787739277,-0.06047566,0.025961773,35.30937,-62.013275,4.5128617,STD
59316785152.0,0.00031285322620533407,0.000828717602416873,0.062093235552310944,-0.003692030208185315,-0.0002255361614516005,-0.06658431,0.031154128,35.34454,-62.456013,4.51622,STD
74202439680.0,0.0004064675886183977,0.001027289661578834,0.07765178382396698,-0.004614214412868023,-0.0002675237483344972,-0.064446285,0.030543262,35.37456500000001,-62.89884,4.518043,STD
91594956800.0,0.0005203631590120494,0.0012564960634335876,0.09582339972257614,-0.005690392572432756,-0.00031227173167280853,-0.06566802,0.034513887,35.405006,-63.332405,4.5227675000000005,STD
111688245248.0,0.0006572068086825311,0.0015180347254499793,0.11680858582258224,-0.006932110525667667,-0.00035907194251194596,-0.076358154,0.040317107000000005,35.43646,-63.75674,4.527951,STD
134662479872.0,0.0008197429124265909,0.0018133327830582857,0.14079336822032928,-0.008349953219294548,-0.0004070377326570451,-0.08216137400000001,0.04337143,35.45175,-64.17581,4.504002,STD
160681918464.0,0.0010107675334438682,0.002143530175089836,0.16794706881046295,-0.009953388944268227,-0.0004551013116724789,-0.079107046,0.044898596,35.46609,-64.58601,4.4811516,STD
189893181440.0,0.001233104383572936,0.0025094698648899794,0.19842061400413513,-0.011750645935535431,-0.0005020220996811986,-0.07696902,0.043066,35.48133499999999,-64.99331,4.4588203,STD
222423941120.0,0.0014895795611664653,0.0029116941150277853,0.23234520852565765,-0.013748621568083763,-0.0005464236601255834,-0.09040806,0.03756821,35.499226,-65.39504000000001,4.437196299999999,STD
258382118912.0,0.0017829989083111286,0.0033504473976790905,0.26983150839805603,-0.01595282554626465,-0.0005868228035978973,-0.08460484,0.03176499,35.51085300000001,-65.79245,4.412308,STD
297855320064.0,0.002116127172484994,0.0038256824482232332,0.31096914410591125,-0.0183673407882452,-0.0006217556656338274,-0.098043874,0.03481932,35.529686,-66.179474,4.391875700000001,STD
340910800896.0,0.002491668565198779,0.004337070509791374,0.35582664608955383,-0.020994821563363075,-0.0006497628637589514,-0.09468412,0.03023783,35.54312,-66.56718000000001,4.3651705000000005,STD
387595599872.0,0.002912251278758049,0.0048840162344276905,0.4044516682624817,-0.02383650839328766,-0.0006694009643979371,-0.08216137400000001,0.022296581,35.556675,-66.94412,4.3387346,STD
437936914432.0,0.0033804113045334816,0.005465672817081213,0.4568714499473572,-0.02689225785434246,-0.000679287884850055,-0.08277224,0.015271631,35.572193,-67.315605,4.3122997000000005,STD
491942871040.0,0.003898581024259329,0.006080960389226675,0.5130935311317444,-0.03016059286892414,-0.0006781542324461043,-0.086132,0.0036651916,35.585453,-67.68205999999999,4.2814403,STD
549603246080.0,0.004469078034162521,0.006728584878146648,0.573106586933136,-0.03363877162337303,-0.0006648629205301404,-0.08216137400000001,0.0061086523,35.595108,-68.04244,4.251776,STD
610890547200.0,0.0050940969958901405,0.007407058961689472,0.6368814706802368,-0.03732285276055336,-0.0006384893204085529,-0.07544186,-0.008246681,35.60684600000001,-68.394806,4.2147317000000015,STD
675760898048.0,0.005775701720267534,0.00811472162604332,0.7043723464012146,-0.04120778292417526,-0.0005983844166621566,-0.06627888,-0.025045475,35.61574,-68.74121,4.1771464,STD
744155447296.0,0.0065158214420080185,0.008849757723510265,0.7755178809165955,-0.04528747498989105,-0.0005441885441541672,-0.058948494,-0.04550946,35.624046,-69.08151,4.134478,STD
816001318912.0,0.007316258270293474,0.00961021613329649,0.8502424359321594,-0.049554888159036636,-0.0004759463481605053,-0.050701816,-0.05375614,35.62895200000001,-69.40961999999999,4.089921,STD
891212922880.0,0.008178670890629292,0.01039403211325407,0.9284573793411255,-0.05400213971734047,-0.00039415384526364505,-0.053450707,-0.05467244,35.635025,-69.73321999999999,4.0426836,STD
969693200384.0,0.009104573167860508,0.011199047788977623,1.010062336921692,-0.05862058699131012,-0.00029971179901622236,-0.05161811400000002,-0.06261369,35.63797,-70.04974,3.9906273,STD
1051334868992.0,0.010095333680510521,0.012023028917610645,1.0949463844299316,-0.06340092420578003,-0.00019392656395211816,-0.046120327,-0.07086037,35.63963,-70.35553,3.9387217,STD
1136021471232.0,0.011152178049087524,0.01286368165165186,1.182989239692688,-0.06833327561616898,-7.8491801104974e-05,-0.042455133,-0.07727446,35.640724,-70.65594,3.8857903,STD
1223628685312.0,0.012276191264390945,0.013718669302761555,1.2740627527236938,-0.07340727001428604,4.452408029465005e-05,-0.03940081,-0.08643743400000001,35.64038,-70.94890600000002,3.8300989,STD
1314025242624.0,0.013468320481479168,0.014585626311600208,1.368031620979309,-0.07861212641000748,0.00017274012498091906,-0.036651913,-0.08979719,35.638058,-71.2363,3.7746537,STD
1407074304000.0,0.014729376882314682,0.015462172217667103,1.4647548198699951,-0.08393673598766327,0.00030345621053129435,-0.04062254,-0.08674286,35.635883,-71.514046,3.719572,STD
1502634180608.0,0.01606004312634468,0.016345923766493797,1.5640863180160522,-0.08936972171068192,0.0004337515274528414,-0.054367006,-0.09621128,35.63596300000001,-71.79045,3.6615658,STD
1600559251456.0,0.01746087335050106,0.017234506085515022,1.6658763885498047,-0.09489953517913818,0.0005604868056252599,-0.05375614,-0.09162979,35.630623,-72.05488000000003,3.6080756,STD
1700701143040.0,0.018932299688458443,0.018125565722584724,1.769972324371338,-0.1005144938826561,0.0006804140866734087,-0.063224554,-0.09407325,35.63218300000001,-72.31952,3.5529335,STD
1802909384704.0,0.020474642515182495,0.019016774371266365,1.8762192726135254,-0.10620284080505371,0.0007902987417764962,-0.06566802,-0.09193522,35.629837,-72.57735,3.5003884,STD
1907032195072.0,0.022088106721639633,0.01990584284067154,1.9844611883163452,-0.11195283383131027,0.000886984053067863,-0.06261369,-0.08460484,35.62734000000001,-72.83013000000003,3.4496932,STD
2012917137408.0,0.023772791028022766,0.020790528506040573,2.094541311264038,-0.11775276064872742,0.0009674035827629268,-0.07360926,-0.07788532,35.62824600000001,-73.07884,3.4015093000000003,STD
2120412037120.0,0.025528686121106148,0.02166863903403282,2.206303358078003,-0.12359101325273514,0.0010287145851179957,-0.07727446,-0.08277224,35.62567,-73.3284,3.3519833,STD
2229365112832.0,0.02735568955540657,0.022538041695952415,2.3195912837982178,-0.12945611774921417,0.001068225596100092,-0.095294975,-0.08246681,35.628174,-73.56578,3.3084023,STD
2339626287104.0,0.029253602027893066,0.02339666709303856,2.434250831604004,-0.135336771607399,0.0010834551649168134,-0.069027774,-0.07086037,35.618023,-73.806206,3.2640290000000003,STD
2451046662144.0,0.031222140416502953,0.02424251288175583,2.5501291751861572,-0.14122189581394196,0.001072171377018094,-0.07422013,-0.06352998,35.620914,-74.03959,3.2230897,STD
2563479961600.0,0.03326093778014183,0.025073649361729622,2.6670761108398438,-0.14710062742233276,0.0010323448805138469,-0.07086037,-0.06505715,35.61309,-74.2674,3.1808080000000003,STD
2676782268416.0,0.035369548946619034,0.025888219475746155,2.7849438190460205,-0.15296238660812378,0.0009621170465834439,-0.076358154,-0.05925392700000001,35.607166,-74.491615,3.1442213,STD
2790812811264.0,0.037547457963228226,0.026684442535042763,2.903587579727173,-0.15879689157009125,0.0008598483400419354,-0.07147124,-0.061086524,35.597282,-74.71348,3.1046531,STD
2905433964544.0,0.039794083684682846,0.027460617944598198,3.0228660106658936,-0.16459417343139648,0.000724076759070158,-0.06750060599999999,-0.062308256,35.58787,-74.926994,3.0678947,STD
3020511510528.0,0.04210878163576126,0.02821512706577778,3.142641544342041,-0.17034457623958588,0.0005535341915674508,-0.070554934,-0.06291912,35.578342,-75.13988,3.0315096,STD
3135915163648.0,0.04449084401130676,0.02894642949104309,3.2627806663513184,-0.17603880167007446,0.00034710581530816853,-0.06811147,-0.069027774,35.565872,-75.34615,2.9931598,STD
3251518832640.0,0.04693951830267906,0.029653027653694153,3.3831534385681152,-0.18166790902614594,0.00010398237645858899,-0.056505036,-0.06780604,35.550434,-75.55521,2.9568272,STD
3367200096256.0,0.04945400357246399,0.0303333792835474,3.5036346912384033,-0.18722334504127502,-0.00017645186744630337,-0.043676864,-0.06872234,35.53379,-75.75164000000002,2.9185743,STD
3482841513984.0,0.052033450454473495,0.030985845252871513,3.624103546142578,-0.1926969587802887,-0.0004946478875353932,-0.03940081,-0.07391469,35.49044,-75.939514,2.8525434,STD
3598329315328.0,0.05467696860432625,0.031608644872903824,3.744443655014038,-0.19808100163936615,-0.0008509047911502421,-0.042455133,-0.08552113,35.44557000000001,-76.12165,2.7854493,STD
3713554972672.0,0.05738363787531853,0.03219982236623764,3.864543914794922,-0.2033681422472,-0.0012453258968889713,-0.034208454,-0.08093964,35.395138,-76.30082,2.7217457,STD
3828413890560.0,0.06015249714255333,0.032757218927145004,3.984297275543213,-0.20855149626731873,-0.00167782511562109,-0.029626964,-0.083383106,35.34738,-76.475876,2.654719,STD
3942806454272.0,0.06298255920410156,0.03327846899628639,4.103601932525635,-0.21362459659576416,-0.002148110419511795,-0.0143553335,-0.08796459400000001,35.293716,-76.64984,2.5885026,STD
4056637767680.0,0.06587281078100204,0.033760979771614075,4.222361087799072,-0.21858137845993042,-0.0026558558456599712,-0.016493361,-0.09896017,35.24375,-76.81480400000002,2.5220165,STD
4169817391104.0,0.0688222125172615,0.03420194983482361,4.340482234954834,-0.22341623902320862,-0.0032006718683987856,-0.006414085,-0.1001819,35.185345,-76.98309,2.456605,STD
4282259341312.0,0.07182971388101578,0.03459835425019264,4.457878112792969,-0.2281239628791809,-0.0037821533624082804,0.006414085,-0.10415252,35.127228,-77.14126,2.3887496,STD
4393882615808.0,0.07489423453807831,0.034946974366903305,4.574466228485107,-0.23269976675510406,-0.004399862140417099,0.009773844,-0.10598512,35.06848,-77.29868,2.322528,STD
4504610668544.0,0.07801469415426254,0.035244397819042206,4.690168857574463,-0.2371392697095871,-0.005053369328379631,0.0143553335,-0.11178834,35.005936,-77.44974,2.2546432000000003,STD
4614371409920.0,0.08118999004364014,0.035487040877342224,4.80491304397583,-0.24143847823143005,-0.005742276087403297,0.01985312,-0.121256754,34.942165,-77.59853000000003,2.1863842,STD
4723096682496.0,0.08441901952028275,0.035671163350343704,4.918630123138428,-0.24559377133846283,-0.006466250866651535,0.02565634,-0.1255328,34.876736,-77.74180600000003,2.119081,STD
4830723571712.0,0.08770066499710083,0.035792890936136246,5.031256198883057,-0.24960193037986755,-0.007225035689771175,0.021991149,-0.129198,34.812626,-77.88207,2.0509987,STD
4937193357312.0,0.09103380888700485,0.035848233848810196,5.1427321434021,-0.2534600794315338,-0.008018392138183117,0.021685716,-0.12736541,34.74558,-78.01928000000002,1.9841648,STD
5042450989056.0,0.09441734850406647,0.035833075642585754,5.253002166748047,-0.25716570019721985,-0.00884618517011404,0.029626964,-0.12858713,34.67734,-78.14826,1.9166232,STD
5146445611008.0,0.09785017371177673,0.03574323281645775,5.362016201019287,-0.26071661710739136,-0.009708293713629246,0.025350908,-0.12675454,34.61206,-78.28041999999998,1.8525827,STD
5249130561536.0,0.10133117437362671,0.03557448461651802,5.469727039337158,-0.2641109228134155,-0.010604641400277615,0.02565634,-0.12461651,34.54305,-78.40266,1.788948,STD
5350462849024.0,0.10485924780368805,0.03532258793711662,5.576091766357422,-0.2673470973968506,-0.011535221710801125,0.027794369,-0.13775012,34.47523,-78.524376,1.7230226999999998,STD
5450403676160.0,0.10843328386545181,0.03498329222202301,5.6810712814331055,-0.27042388916015625,-0.012499943375587463,0.023518313,-0.13255776,34.40772,-78.64695,1.6644880000000002,STD
5548917391360.0,0.11205217987298965,0.03455236926674843,5.78463077545166,-0.2733403146266937,-0.01349869929254055,0.025045475,-0.1255328,34.33837,-78.75884,1.6036798,STD
5645972013056.0,0.11571484059095383,0.03402562439441681,5.8867387771606445,-0.2760956883430481,-0.014531373046338558,0.021991149,-0.12583824,34.271393,-78.87399,1.5440488,STD
5741538705408.0,0.11942018568515778,0.03339891508221626,5.987366676330566,-0.27868959307670593,-0.015597744844853878,0.02107485,-0.13347405,34.203156,-78.98784,1.4853446,STD
5835592826880.0,0.12316712737083435,0.03266816586256027,6.086490154266357,-0.2811218202114105,-0.01669744774699211,0.023518313,-0.12675454,34.133835,-79.0967,1.4317703000000002,STD
5928111833088.0,0.1269546002149582,0.031829386949539185,6.184087753295898,-0.28339242935180664,-0.017830105498433113,0.0070249503,-0.1282817,34.07073,-79.20040999999998,1.3759867,STD
6019076849664.0,0.13078154623508453,0.03087868168950081,6.280140399932861,-0.2855016887187958,-0.018995359539985657,0.01282817,-0.11453723,33.999245,-79.305565,1.326227,STD
6108471623680.0,0.134646937251091,0.029812268912792206,6.374633312225342,-0.28745004534721375,-0.02019292488694191,0.005497787,-0.10934488,33.93639,-79.40323000000002,1.2763007,STD
6196283047936.0,0.13854973018169403,0.028626486659049988,6.46755313873291,-0.28923818469047546,-0.021422596648335457,0.0009162979,-0.10842858,33.8704,-79.498,1.2295931999999998,BSC
6282500112384.0,0.14248891174793243,0.02731780707836151,6.558890342712402,-0.2908669412136078,-0.022684192284941673,0.006414085,-0.10842858,33.803177000000005,-79.59035,1.1848983999999998,BSC
6367114428416.0,0.14646346867084503,0.025882843881845474,6.648637294769287,-0.2923373281955719,-0.02397758513689041,0.008246681,-0.106595986,33.73792,-79.676315,1.1423256000000002,BSC
6450120228864.0,0.15047243237495422,0.024318363517522812,6.736788749694824,-0.2936505079269409,-0.025302724912762642,0.003970624,-0.115453534,33.67317,-79.76156,1.0976734,BSC
6531514368000.0,0.1545148342847824,0.022621287032961845,6.823342323303223,-0.2948077917098999,-0.02665957808494568,0.016798794,-0.1160644,33.60238,-79.84524,1.0557935,BSC
6611295797248.0,0.158589705824852,0.020788701251149178,6.908297061920166,-0.29581061005592346,-0.02804812230169773,0.018020526,-0.118202426,33.5364,-79.92414000000002,1.0126898000000002,BSC
6689465040896.0,0.16269612312316895,0.018817860633134842,6.991654872894287,-0.29666057229042053,-0.02946825511753559,0.02076942,-0.11728613,33.46609,-80.00484,0.9704626,BSC
6766024720384.0,0.16683316230773926,0.0167061910033226,7.073419094085693,-0.2973593473434448,-0.030919866636395454,0.016798794,-0.12705997,33.39783,-80.07831,0.92579544,BSC
6840979030016.0,0.1709999442100525,0.014451297000050545,7.153594970703125,-0.297908753156662,-0.0324028879404068,0.01740966,-0.13530666,33.327220000000004,-80.15266,0.88233817,BSC
6914334785536.0,0.17519555985927582,0.012050961144268513,7.232189655303955,-0.29831066727638245,-0.03391728177666664,0.015271631,-0.13927728,33.25865,-80.22424000000002,0.83857405,BSC
6986099851264.0,0.1794191598892212,0.00950315035879612,7.309211730957031,-0.2985670566558838,-0.03546309471130371,0.027183503,-0.14538592,33.186325,-80.28984,0.79210013,BSC
7056283664384.0,0.18366990983486176,0.006806008517742157,7.384671688079834,-0.29868000745773315,-0.0370405912399292,0.020463986,-0.14996742,33.119877,-80.34963,0.7468716,BSC
7124897234944.0,0.18794696033000946,0.00395788811147213,7.458580493927002,-0.2986516058444977,-0.03865016996860504,0.03634648,-0.15454891,33.04388400000001,-80.41229,0.6992323,BSC
7191953145856.0,0.19224952161312103,0.0009573932620696723,7.530950546264648,-0.2984839975833893,-0.04029223695397377,0.04184427,-0.16615535,32.9732,-80.4684,0.6500789,BSC
7257464504320.0,0.196576789021492,-0.0021965797059237957,7.601794719696045,-0.29817935824394226,-0.041967250406742096,0.035430185,-0.17409660000000002,32.85158,-80.51294,0.5250729999999999,BSC
7321445990400.0,0.2009280025959015,-0.0055048177018761635,7.671125888824463,-0.29773980379104614,-0.04367571696639061,0.022602014,-0.18417588,32.731846000000004,-80.55676,0.39911333,BSC
7383913332736.0,0.2053024023771286,-0.008967773988842964,7.738957405090332,-0.29716742038726807,-0.045418281108140945,0.015882496,-0.1863139,32.613147999999995,-80.59371999999998,0.27601412,BSC
7444882784256.0,0.20969925820827484,-0.012585554271936417,7.805302143096924,-0.2964642643928528,-0.047195740044116974,0.009468411,-0.19272798,32.499588,-80.62718000000002,0.1522451,BSC
7504372695040.0,0.2141178548336029,-0.016357913613319397,7.87017297744751,-0.29563233256340027,-0.04900900274515152,0.0076358155,-0.20861048,32.38807,-80.6557,0.02801573,BSC
7562400890880.0,0.21855749189853668,-0.0202842578291893,7.933582305908203,-0.2946735620498657,-0.05085910111665726,-0.008857545999999999,-0.21105394,32.283047,-80.67779,-0.090578586,BSC
7618986770432.0,0.22301748394966125,-0.024363646283745766,7.995542049407959,-0.29358983039855957,-0.05274714529514313,-0.013439035,-0.20586158,32.1764,-80.69759,-0.20928599,BSC
7674150780928.0,0.2274971753358841,-0.02859480306506157,8.056063652038574,-0.2923829257488251,-0.05467434599995613,-0.014660766,-0.22357668,32.075447,-80.710915,-0.33194903,BSC
7727912845312.0,0.23199591040611267,-0.03297612816095352,8.115159034729004,-0.2910546064376831,-0.056642040610313416,-0.01863139,-0.22327125,31.976273,-80.72044,-0.44520473,BSC
7780293935104.0,0.23651307821273804,-0.03750571608543396,8.17283821105957,-0.289606511592865,-0.05865173414349556,-0.03970624,-0.22937989,31.884176,-80.72457,-0.56190985,BSC
7831315546112.0,0.24104805290699005,-0.04218137264251709,8.229111671447754,-0.2880402207374573,-0.060705047100782394,-0.053450707,-0.22815818,31.79154,-80.72579,-0.6741518,BSC
7881000222720.0,0.24560025334358215,-0.04700062796473503,8.283987998962402,-0.2863572835922241,-0.062803715467453,-0.060170225999999986,-0.23457226,31.704233,-80.71993,-0.78723294,BSC
7929369460736.0,0.2501690983772278,-0.05196075513958931,8.337477684020996,-0.28455913066864014,-0.06494960933923721,-0.08093964,-0.24678956,31.62567,-80.70987,-0.8980196,BSC
7976446328832.0,0.25475403666496277,-0.05705878883600235,8.389589309692383,-0.28264716267585754,-0.0671447217464447,-0.09407325,-0.26297748,31.547989,-80.6956,-1.0094936,BSC
8022253895680.0,0.25935450196266174,-0.062291551381349564,8.44033145904541,-0.2806227207183838,-0.06939105689525604,-0.10140363,-0.2855795,31.476028000000003,-80.68033,-1.1232836000000002,BSC
8066815229952.0,0.2639699876308441,-0.06765566766262054,8.48971176147461,-0.27848711609840393,-0.07169052213430405,-0.11362094,-0.30024028,31.410131,-80.65948,-1.2362953,BSC
8110153924608.0,0.2685999572277069,-0.07314758747816086,8.537738800048828,-0.27624157071113586,-0.07404480129480362,-0.12522738,-0.3213151,31.348068,-80.64008000000003,-1.3548573999999998,BSC
8152293048320.0,0.2732439339160919,-0.07876361161470413,8.584421157836914,-0.2738872766494751,-0.07645530998706818,-0.12858713,-0.3286455,31.287737,-80.61654,-1.4711383999999998,BSC
8193256194048.0,0.27790141105651855,-0.08449989557266235,8.629765510559082,-0.27142542600631714,-0.07892322540283203,-0.15851954,-0.35430184,31.240532,-80.592316,-1.5943992,BSC
8233066954752.0,0.2825719118118286,-0.09035249054431915,8.673779487609863,-0.26885712146759033,-0.08144952356815338,-0.17073683,-0.37659842,31.189974,-80.56453,-1.7170436000000002,BSC
8271748923392.0,0.2872549891471863,-0.0963173434138298,8.716470718383789,-0.266183465719223,-0.08403509110212326,-0.18570304,-0.39370266,31.150078000000004,-80.531975,-1.8415353,BSC
8309325692928.0,0.29195019602775574,-0.10239031910896301,8.75784683227539,-0.26340553164482117,-0.08668072521686554,-0.17562376,-0.40439278,31.10773,-80.497025,-1.9686105,BSC
8345820856320.0,0.29665708541870117,-0.1085672378540039,8.7979154586792,-0.26052436232566833,-0.08938712626695633,-0.17898351,-0.4129449000000001,31.074553,-80.456055,-2.0961015,BSC
8381258006528.0,0.30137526988983154,-0.11484386026859283,8.836684226989746,-0.2575409710407257,-0.09215491265058517,-0.17531833,-0.42332962,31.037554,-80.41125500000003,-2.2254002,BSC
8415660736512.0,0.3061043322086334,-0.12121593952178955,8.874160766601562,-0.25445637106895447,-0.09498471766710281,-0.18753563,-0.4343252,31.006863,-80.35969,-2.3538833,BSC
8449051590656.0,0.31084388494491577,-0.12767919898033142,8.91035270690918,-0.251271516084671,-0.0978771522641182,-0.19914207,-0.44012842,30.975641,-80.31012,-2.481521,BSC
8481454161920.0,0.31559357047080994,-0.1342293620109558,8.945267677307129,-0.24798740446567535,-0.10083294659852982,-0.21074851,-0.4596761,30.949461,-80.24575,-2.6130688,BSC
8512891518976.0,0.3203530013561249,-0.14086218178272247,8.978913307189941,-0.24460501968860626,-0.10385307669639587,-0.22143865,-0.48655418,30.927313,-80.17911,-2.7453597000000003,BSC
8543385681920.0,0.32512184977531433,-0.14757341146469116,9.011299133300781,-0.24112531542778015,-0.10693900287151337,-0.22418754,-0.5299255999999999,30.90829,-80.09711999999998,-2.8851497000000004,BSC
8572959719424.0,0.32989975810050964,-0.1543588489294052,9.04243278503418,-0.23754927515983582,-0.11009272933006287,-0.21227567,-0.5546656,30.888935,-80.01068000000002,-3.0248742,BSC
8601635651584.0,0.33468639850616455,-0.16121432185173035,9.0723237991333,-0.23387786746025085,-0.11331695318222046,-0.19486602,-0.5702427,30.870848,-79.90559,-3.1716383,BSC
8629436022784.0,0.3394814431667328,-0.16813574731349945,9.100981712341309,-0.23011206090450287,-0.11661489307880402,-0.17654006,-0.5907066999999999,30.850998,-79.79919,-3.3245477999999995,BSC
8656381804544.0,0.3442845642566681,-0.1751190721988678,9.12841510772705,-0.22625283896923065,-0.11998996883630753,-0.17287487,-0.59589905,30.830914,-79.68746,-3.4748013,BSC
8682495016960.0,0.34909549355506897,-0.18216031789779663,9.154633522033691,-0.222301185131073,-0.12344560027122498,-0.17928895,-0.6084218000000001,30.810387,-79.568855,-3.6303382000000006,BSC
8707796631552.0,0.35391393303871155,-0.18925559520721436,9.179647445678711,-0.2182580977678299,-0.12698496878147125,-0.20769419,-0.59956425,30.79479000000001,-79.45879000000002,-3.7774925,BSC
8732307095552.0,0.35873961448669434,-0.19640110433101654,9.20346736907959,-0.21412457525730133,-0.13061071932315826,-0.24678956,-0.593761,30.785282,-79.351036,-3.925281,BSC
8756047380480.0,0.36357223987579346,-0.20359310507774353,9.226103782653809,-0.2099016159772873,-0.13432486355304718,-0.26725355,-0.57360244,30.77782,-79.249054,-4.0632386,BSC
8779037933568.0,0.3684115707874298,-0.21082797646522522,9.247568130493164,-0.20559026300907135,-0.13812857866287231,-0.32925636,-0.569021,30.79396,-79.15343,-4.1973157,BSC
8801298153472.0,0.3732573390007019,-0.2181020826101303,9.267870903015137,-0.20119161903858185,-0.14202216267585754,-0.37690386,-0.5479460999999999,30.810247,-79.065186,-4.318249,BSC
8822848487424.0,0.37810927629470825,-0.22541160881519318,9.287027359008789,-0.19670702517032623,-0.1460050493478775,-0.41599923,-0.5177083,30.841063,-78.98521,-4.4303089999999985,BSC
8843706761216.0,0.38296717405319214,-0.23275233805179596,9.305052757263184,-0.1921381801366806,-0.15007559955120087,-0.4370741,-0.4822781,30.817993,-78.84347,-4.594946,BSC
8863892897792.0,0.38783082365989685,-0.24011927843093872,9.321968078613281,-0.18748722970485687,-0.15423119068145752,-0.47128254,-0.43310347,30.808512,-78.70944,-4.741515,BSC
8883425771520.0,0.3926999568939209,-0.24750635027885437,9.337797164916992,-0.18275684118270874,-0.15846823155879974,-0.49480084,-0.3817908,30.720505,-78.5874,-4.9078155,BSC
8902323208192.0,0.39757439494132996,-0.2549062669277191,9.352570533752441,-0.17795050144195557,-0.16278225183486938,-0.51068336,-0.34025195,30.63986400000001,-78.47649,-5.058154599999999,BSC
8920601985024.0,0.4024539291858673,-0.2623104453086853,9.36632251739502,-0.1730724722146988,-0.1671680063009262,-0.51159966,-0.29993483,30.443832,-78.37710600000003,-5.2397327,BSC
8938280976384.0,0.40733835101127625,-0.26970914006233215,9.379091262817383,-0.16812732815742493,-0.17161940038204193,-0.5320636,-0.23793201,30.258476,-78.29414,-5.3967304,BSC
8955376959488.0,0.41222745180130005,-0.27709144353866577,9.390920639038086,-0.16311973333358765,-0.17612963914871216,-0.52687126,-0.19456059,29.880194,-78.21673,-5.6332707000000015,BSC
8971906711552.0,0.4171210825443268,-0.28444549441337585,9.401856422424316,-0.1580544412136078,-0.18069134652614594,-0.50976706,-0.16554448,29.51055,-78.14998,-5.847066000000001,BSC
8987885961216.0,0.42201903462409973,-0.2917587161064148,9.411947250366211,-0.152936190366745,-0.185296893119812,-0.4908302,-0.14080444,28.827303000000004,-78.06159,-6.204386,BSC
9003331485696.0,0.42692115902900696,-0.29901838302612305,9.421245574951172,-0.14776919782161713,-0.18993860483169556,-0.4822781,-0.12156218,28.163390000000003,-77.97882,-6.5351954,BSC
9018259013632.0,0.43182727694511414,-0.30621209740638733,9.429803848266602,-0.14255674183368683,-0.19460900127887726,-0.46761733,-0.10567969,27.08026,-77.87301,-7.0700903,BSC
9032684273664.0,0.43673720955848694,-0.3133283257484436,9.437677383422852,-0.13730093836784363,-0.19930094480514526,-0.45814893,-0.09621128,26.042824,-77.76285,-7.5596814,BSC
9046620897280.0,0.4416508674621582,-0.32035717368125916,9.444920539855957,-0.13200226426124573,-0.2040081024169922,-0.4569272,-0.07849618,23.797415,-77.53562,-8.607933000000001,BSC
9060084613120.0,0.44656819105148315,-0.3272906243801117,9.45158863067627,-0.12665952742099762,-0.20872490108013153,-0.45234573,-0.08979719,22.482382,-77.39256,-9.215117,BSC
9073090101248.0,0.451489120721817,-0.33412259817123413,9.457734107971191,-0.1212698444724083,-0.2134464979171753,-0.44806966,-0.1001819,21.22441,-77.2415,-9.765368,BSC
9085649944576.0,0.4564136266708374,-0.3408491909503937,9.463411331176758,-0.11582857370376587,-0.21816861629486084,-0.4392121,-0.09682214,20.018696,-77.09326999999998,-10.262935,BSC
9097778823168.0,0.4613417088985443,-0.34746837615966797,9.468670845031738,-0.11032970249652863,-0.22288748621940613,-0.43066,-0.0888809,18.476107,-76.89341,-10.912357,BSC
9109490368512.0,0.46627336740493774,-0.3539797067642212,9.473563194274902,-0.10476639866828918,-0.2275996059179306,-0.41874814,-0.084910266,17.010157,-76.69606,-11.488037,BSC
9120796114944.0,0.4712086021900177,-0.3603842556476593,9.478137016296387,-0.09913144260644913,-0.2323015332221985,-0.410196,-0.07513642,15.477757,-76.48833,-12.065408,BSC
9131709693952.0,0.47614747285842896,-0.3666844367980957,9.482437133789062,-0.09341753274202347,-0.2369895726442337,-0.39492437,-0.06047566,14.016879,-76.28811,-12.57052,BSC
9142243688448.0,0.4810899794101715,-0.37288376688957214,9.4865083694458,-0.08761697262525558,-0.2416597604751587,-0.39858958,-0.03481932,12.940984,-76.157974,-12.898819,BSC
9152409632768.0,0.48603612184524536,-0.37898653745651245,9.49039077758789,-0.08172112703323364,-0.24630773067474365,-0.41050145,0.012217305,11.897932,-76.04503000000003,-13.183608,BSC
9162219061248.0,0.4909859597682953,-0.38499805331230164,9.494120597839355,-0.07572047412395477,-0.25092872977256775,-0.4297437,0.05375614,10.866971,-75.93578000000002,-13.440682,BSC
9171683508224.0,0.4959394633769989,-0.39092496037483215,9.497730255126953,-0.06960494816303253,-0.25551772117614746,-0.44135013,0.084910266,9.870495,-75.84206999999998,-13.65858,BSC
9180813459456.0,0.500896692276001,-0.3967755138874054,9.501250267028809,-0.0633644387125969,-0.26006948947906494,-0.4447099,0.10598512,8.905509,-75.751564,-13.846945000000002,BSC
9189620449280.0,0.5058575868606567,-0.4025595486164093,9.50471019744873,-0.05698961764574051,-0.26457902789115906,-0.44257188,0.12889257,7.9720955,-75.676865,-14.002783,BSC
9198114963456.0,0.5108221769332886,-0.40828821063041687,9.508136749267578,-0.05047233775258064,-0.26904159784317017,-0.43860126,0.15393804,7.059827,-75.59984,-14.145889000000002,BSC
9206306439168.0,0.5157904624938965,-0.4139735996723175,9.51155948638916,-0.04380582645535469,-0.2734527885913849,-0.41233405,0.16737708,6.168721700000001,-75.53400400000002,-14.266443,BSC
9214205362176.0,0.5207624435424805,-0.4196282923221588,9.51500415802002,-0.036984845995903015,-0.27780860662460327,-0.40103304,0.16554448,5.2224545,-75.45758000000002,-14.390917000000002,BSC
9221821169664.0,0.5257380604743958,-0.4252648651599884,9.518498420715332,-0.03000582754611969,-0.28210559487342834,-0.3930918,0.15027285,4.3014235,-75.391754,-14.496108,BSC
9229163298816.0,0.5307173132896423,-0.4308953285217285,9.52206802368164,-0.02286677248775959,-0.28634074330329895,-0.38728857,0.12705997,3.3697555,-75.327614,-14.592439,BSC
9236240138240.0,0.5357001423835754,-0.4365302622318268,9.525734901428223,-0.015566756017506123,-0.2905115783214569,-0.36377025,0.09712757,2.4620578,-75.2679,-14.677494,BSC
9243062173696.0,0.5406865477561951,-0.44217798113822937,9.52951717376709,-0.00810571201145649,-0.2946160137653351,-0.3387248,0.058643065,1.5508592,-75.20770999999998,-14.757941,BSC
9249636745216.0,0.5456764101982117,-0.4478435516357422,9.533429145812988,-0.0004845014482270926,-0.2986524701118469,-0.31612277,0.02565634,0.6639866,-75.15102399999998,-14.829249,BSC
9255972241408.0,0.5506697297096252,-0.4535282254219055,9.537479400634766,0.007295326795428991,-0.3026198148727417,-0.30390546,-0.013744468,359.79245,-75.09551,-14.894815,BSC
9262076002304.0,0.5556663870811462,-0.4592292904853821,9.54167366027832,0.015231856144964695,-0.3065173923969269,-0.2574797,-0.035430185,358.93176,-75.045975,-14.950608,BSC
9267957465088.0,0.5606663823127747,-0.46494027972221375,9.546012878417969,0.023323096334934235,-0.3103448450565338,-0.19211712,-0.06597344599999999,357.99954,-74.99659,-15.003218,BSC
9273622921216.0,0.565669596195221,-0.47065141797065735,9.550493240356445,0.031567178666591644,-0.31410202383995056,-0.14141529999999994,-0.093462385,357.0896,-105.046745,-15.045951,BSC
9279080759296.0,0.5706759095191956,-0.47635018825531006,9.555106163024902,0.039962537586688995,-0.31778886914253235,-0.06505715,-0.106595986,356.11917,-105.08178999999998,-15.076673,BSC
9284337270784.0,0.5756853222846985,-0.48202183842658997,9.55984115600586,0.04850807413458824,-0.32140547037124634,0.0070249503,-0.1151481,355.1687,-105.11119,-15.098399,BSC
9289399795712.0,0.5806976556777954,-0.4876503646373749,9.564682960510254,0.05720338597893715,-0.32495224475860596,0.109650314,-0.13439035,354.20557,-105.13535,-15.112062,BSC
9294274625536.0,0.5857128500938416,-0.49321961402893066,9.569616317749023,0.06604909896850586,-0.3284298777580261,0.16707164,-0.13652839,353.26654,-105.14532,-15.1091,BSC
9298969100288.0,0.5907308459281921,-0.4987145662307739,9.574623107910156,0.07504650950431824,-0.3318394124507904,0.18020524,-0.13439035,352.35016,-105.14431,-15.094346,BSC
9303488462848.0,0.5957515239715576,-0.5041223764419556,9.57968521118164,0.08419643342494965,-0.335182249546051,0.1826487,-0.13927728,351.4483,-105.134735,-15.069797,BSC
9307839004672.0,0.6007747650146484,-0.5094334483146667,9.584784507751465,0.09349846839904785,-0.33846017718315125,0.21013765,-0.12370021,350.60834,-105.11242,-15.035733,BSC
9312027017216.0,0.605800449848175,-0.514642059803009,9.589902877807617,0.10295061767101288,-0.34167540073394775,0.25259277,-0.1441642,349.78564,-105.092,-15.003913,BSC
9316058791936.0,0.6108284592628479,-0.5197470188140869,9.595022201538086,0.11254920065402985,-0.3448304533958435,0.2724459,-0.15668693,349.00482,-105.07844,-14.978968,BSC
9319938523136.0,0.6158587336540222,-0.5247518420219421,9.60012435913086,0.12228894233703613,-0.3479282855987549,0.2968805,-0.17012598,348.23062000000016,-105.06218,-14.951666,BSC
9323672502272.0,0.6208910942077637,-0.5296648740768433,9.60519027709961,0.13216336071491241,-0.3509722352027893,0.29901853,-0.17256944,347.51865,-105.05908,-14.939784,BSC
9327265972224.0,0.6259254813194275,-0.5344987511634827,9.610199928283691,0.1421654224395752,-0.35396602749824524,0.30909783,-0.1872302,346.81424,-105.055725,-14.928139000000002,BSC
9330723127296.0,0.6309617757797241,-0.5392699241638184,9.615130424499512,0.15228815376758575,-0.3569137454032898,0.34025195,-0.20708331,346.1646,-105.067085,-14.933948,BSC
9334049210368.0,0.6359999179840088,-0.5439983010292053,9.619956970214844,0.16252516210079193,-0.3598197400569916,0.3594942,-0.20738874,345.52936,-105.07067,-14.932672,BSC
9337249464320.0,0.6410397291183472,-0.5487067699432373,9.624651908874512,0.17287103831768036,-0.36268872022628784,0.3652974,-0.17654006,344.90237,-105.06419,-14.92237,BSC
9340328083456.0,0.6460811495780945,-0.5534201860427856,9.629182815551758,0.18332195281982422,-0.3655259609222412,0.35277468,-0.12461651,344.2884,-105.044785,-14.900759,BSC
9343289262080.0,0.6511240601539612,-0.5581650733947754,9.633515357971191,0.19387565553188324,-0.368337482213974,0.34972036,-0.06811147,343.76266,-105.03422,-14.897776,BSC
9346137194496.0,0.6561684012413025,-0.5629703998565674,9.63760757446289,0.20453143119812012,-0.37112995982170105,0.33994650000000004,-0.040011674,343.2512,-105.01298,-14.88461,BSC
9348876075008.0,0.6612140536308289,-0.5678678750991821,9.6414155960083,0.21529002487659454,-0.37391096353530884,0.32620203,0.011911872,342.78122,-104.9696,-14.855206,BSC
9351510097920.0,0.6662608981132507,-0.5728908181190491,9.64489459991455,0.226153165102005,-0.3766889274120331,0.2941316,0.058337633,342.326,-104.917435,-14.81693,BSC
9354042408960.0,0.6713088154792786,-0.5780735611915588,9.648000717163086,0.2371232956647873,-0.3794732093811035,0.26847526,0.09590584,341.9305700000001,-104.8892,-14.806047,BSC
9356477202432.0,0.6763577461242676,-0.5834516286849976,9.6506929397583,0.24820329248905182,-0.3822740316390991,0.22449298,0.12492194,341.5542,-104.849205,-14.782864000000002,BSC
9358818672640.0,0.6814075708389282,-0.5890620350837708,9.652932167053223,0.25939643383026123,-0.38510245084762573,0.16157386,0.13958271,341.18396,-104.79608,-14.745817,BSC
9361069965312.0,0.6864582300186157,-0.5949426293373108,9.654685020446777,0.2707071602344513,-0.3879702687263489,0.08582657,0.112704635,340.83395,-104.746895,-14.711162,BSC
9363234226176.0,0.6915096044540405,-0.6011320352554321,9.655920028686523,0.2821415662765503,-0.39088988304138184,0.0061086523,0.08582657,340.52954,-104.71459,-14.692232999999998,BSC
9365314600960.0,0.6965616345405579,-0.6076684594154358,9.65661334991455,0.293707013130188,-0.39387431740760803,-0.046731193,0.013439035,340.2414,-104.704384,-14.692683,BSC
9367313186816.0,0.7016142010688782,-0.6145891547203064,9.656747817993164,0.30541205406188965,-0.3969371020793915,-0.06963864,-0.049785517,339.9878,-104.712364,-14.708857,BSC
9369234178048.0,0.7066672444343567,-0.6219297647476196,9.656312942504883,0.3172667622566223,-0.40009215474128723,-0.110872045,-0.12522738,339.75616,-104.74738,-14.747301,BSC
9371080720384.0,0.7117207050323486,-0.6297237277030945,9.655303001403809,0.3292829990386963,-0.4033535122871399,-0.15577064,-0.2312125,339.52127,-75.19322,-14.80481,BSC
9372854910976.0,0.7167744636535645,-0.6380014419555664,9.653718948364258,0.34147509932518005,-0.4067349433898926,-0.20830505,-0.3100141,339.30243,-75.11752,-14.873097,BSC
9374559895552.0,0.7218284606933594,-0.6467893123626709,9.65156364440918,0.35386019945144653,-0.4102497398853302,-0.2724459,-0.35705075,339.11002,-75.01945500000002,-14.956631,BSC
9376197771264.0,0.7268825769424438,-0.6561083197593689,9.648843765258789,0.3664579391479492,-0.4139106869697571,-0.3136793,-0.38148534,338.92764,-74.903,-15.052276999999998,BSC
9377771683840.0,0.7319368124008179,-0.6659728288650513,9.645566940307617,0.37929025292396545,-0.4177301526069641,-0.31215215,-0.39278635,338.75272,-74.77479,-15.153564,BSC
9379283730432.0,0.7369910478591919,-0.6763902306556702,9.641743659973145,0.39238065481185913,-0.42171987891197205,-0.27122417,-0.38515055,338.58368,-74.651985,-15.239954999999998,BSC
9380736008192.0,0.7420452237129211,-0.6873608231544495,9.637384414672852,0.4057539105415344,-0.42589065432548523,-0.2415972,-0.408058,338.3901,-74.53466999999998,-15.311349,BSC
9382130614272.0,0.7470993399620056,-0.698879063129425,9.632501602172852,0.41943541169166565,-0.4302521049976349,-0.21288654,-0.41263947,338.1856,-74.42081,-15.372048,BSC
9383470694400.0,0.7521532773971558,-0.710934579372406,9.62710952758789,0.4334505796432495,-0.43481266498565674,-0.2180789,-0.42821655,337.9638,-74.31209,-15.420473,BSC
9384757297152.0,0.7572070360183716,-0.7235145568847656,9.621225357055664,0.44782567024230957,-0.439579576253891,-0.21288654,-0.43860126,337.73233,-74.20147,-15.465563,BSC
9385993568256.0,0.7622605562210083,-0.7366052269935608,9.614869117736816,0.46258828043937683,-0.4445590376853943,-0.2764165,-0.47158796,337.5253,-74.076996,-15.516687,BSC
9387180556288.0,0.7673137187957764,-0.7501935958862305,9.608060836791992,0.47776734828948975,-0.4497567117214203,-0.38453966,-0.48991394,337.3370700000001,-73.94574,-15.563772,BSC
9388320358400.0,0.7723665237426758,-0.7642684578895569,9.600820541381836,0.4933929145336151,-0.45517846941947937,-0.50854534,-0.50243664,337.1744,-73.79995,-15.613058,BSC
9389415071744.0,0.7774189710617065,-0.7788204550743103,9.593164443969727,0.5094941854476929,-0.46083083748817444,-0.54153204,-0.5830709,337.05014,-73.5864,-15.709371,BSC
9390465744896.0,0.7824709415435791,-0.7938416600227356,9.585105895996094,0.5260978937149048,-0.4667210876941681,-0.52687126,-0.64751714,336.9482700000001,-73.36529,-15.798856,BSC
9391474475008.0,0.7875224351882935,-0.8093236684799194,9.576653480529785,0.543228030204773,-0.47285711765289307,-0.50793445,-0.6948592,336.89938,-73.06813000000002,-15.940612,BSC
9392443359232.0,0.7925734519958496,-0.8252555131912231,9.56781005859375,0.5609060525894165,-0.4792473614215851,-0.52106804,-0.7703011,336.8578,-72.73935999999998,-16.10274,BSC
9393373446144.0,0.797623872756958,-0.8416219353675842,9.558572769165039,0.5791504979133606,-0.48590049147605896,-0.50488013,-0.7644979000000001,336.81143,-72.400566,-16.271812,BSC
9394265784320.0,0.8026737570762634,-0.8584020137786865,9.548930168151855,0.5979768633842468,-0.4928251802921295,-0.49663344,-0.7339545999999999,336.7726,-72.044525,-16.448507,BSC
9395122470912.0,0.8077229857444763,-0.8755679726600647,9.538861274719238,0.6173974275588989,-0.5000297427177429,-0.46639562,-0.68661255,336.70035,-71.71136,-16.590965,BSC
9395944554496.0,0.8127716183662415,-0.8930846452713013,9.528338432312012,0.6374213695526123,-0.5075219869613647,-0.45234573,-0.6426301999999999,336.62912,-71.38349000000002,-16.719881,BSC
9396734132224.0,0.8178195357322693,-0.9109089970588684,9.517326354980469,0.658053994178772,-0.5153087973594666,-0.4196644000000001,-0.6084218000000001,336.53287,-71.08574,-16.810238000000002,BSC
9397492252672.0,0.8228667974472046,-0.928989827632904,9.50578498840332,0.6792962551116943,-0.5233957767486572,-0.3662137,-0.5705481,336.42383,-70.79895,-16.884024,BSC
9398218915840.0,0.8279133439064026,-0.9472687840461731,9.493669509887695,0.7011446952819824,-0.5317869782447815,-0.34025195,-0.5531385,336.28384,-70.55328,-16.916014,BSC
9398917267456.0,0.8329591751098633,-0.9656814932823181,9.480931282043457,0.7235916256904602,-0.5404844880104065,-0.30482176,-0.5338961999999999,336.1233200000001,-70.31926,-16.935717,BSC
9399587307520.0,0.8380042910575867,-0.9841602444648743,9.467517852783203,0.7466244697570801,-0.5494886040687561,-0.21777347,-0.5112942,335.88516,-70.15080999999999,-16.909115,BSC
9400230084608.0,0.843048632144928,-1.0026366710662842,9.453372955322266,0.7702255249023438,-0.5587978363037109,-0.098043874,-0.46944994,335.62613,-69.993095,-16.871864000000002,BSC
9400846647296.0,0.8480921983718872,-1.0210444927215576,9.43844223022461,0.7943726778030396,-0.5684093236923218,0.041233405,-0.4129449000000001,335.30518,-69.846924,-16.822742,BSC
9401438044160.0,0.8531349897384644,-1.0393226146697998,9.422670364379883,0.8190415501594543,-0.5783193707466125,0.1151481,-0.41080686,334.97305,-69.695,-16.776297,BSC
9402005323776.0,0.8581770062446594,-1.0574179887771606,9.40600872039795,0.8442068696022034,-0.5885234475135803,0.25686884,-0.42210788,334.6103,-69.51442,-16.770756,BSC
9402549534720.0,0.8632182478904724,-1.0752888917922974,9.38841438293457,0.8698445558547974,-0.5990169644355774,0.3585779000000001,-0.46853364,334.2446,-69.313354,-16.772470000000002,BSC
9403071725568.0,0.8682586550712585,-1.0929065942764282,9.369853019714355,0.8959328532218933,-0.6097955703735352,0.46211955,-0.52442783,333.9127,-69.031715,-16.83484,BSC
9403572944896.0,0.8732982873916626,-1.1102559566497803,9.350299835205078,0.9224534630775452,-0.6208556294441223,0.5002986,-0.5161811,333.5725,-68.74831400000001,-16.890210999999994,BSC
9404054241280.0,0.8783370852470398,-1.1273351907730103,9.329739570617676,0.9493919014930725,-0.6321942210197449,0.50885075,-0.5491679,333.28644,-68.32769,-17.05304,BSC
9404515614720.0,0.8833751082420349,-1.1441551446914673,9.308165550231934,0.9767377376556396,-0.6438093185424805,0.48808134,-0.59650993,333.0015,-67.908455,-17.213032000000002,BSC
9404958113792.0,0.888412356376648,-1.1607381105422974,9.285578727722168,1.00448477268219,-0.6556995511054993,0.4111123,-0.63407815,332.7635,-67.417885,-17.414867,BSC
9405382787072.0,0.8934487700462341,-1.177115797996521,9.261984825134277,1.032631278038025,-0.6678638458251953,0.39614612,-0.6084218000000001,332.51486,-66.94388000000001,-17.609211,BSC
9405789634560.0,0.8984844088554382,-1.1933265924453735,9.237394332885742,1.0611798763275146,-0.680300772190094,0.3894266,-0.559858,332.31543,-66.41464,-17.84094,BSC
9406179704832.0,0.9035192728042603,-1.209412932395935,9.211820602416992,1.0901367664337158,-0.6930082440376282,0.33200526,-0.5561928,332.13843,-65.88877,-18.066515,BSC
9406554046464.0,0.9085533022880554,-1.2254184484481812,9.185279846191406,1.1195110082626343,-0.70598304271698,0.3051272,-0.5891795,331.9729,-65.34483,-18.299145000000006,BSC
9406913708032.0,0.9135865569114685,-1.2413867712020874,9.157792091369629,1.1493136882781982,-0.7192202210426331,0.29779682,-0.61941737,331.81903,-64.821556,-18.520996,BSC
9407258689536.0,0.9186190366744995,-1.2573599815368652,9.129378318786621,1.1795575618743896,-0.7327126860618591,0.31978795,-0.64965516,331.66068,-64.31289,-18.72486,BSC
9407588990976.0,0.9236507415771484,-1.2733778953552246,9.10006332397461,1.2102564573287964,-0.7464509010314941,0.34300083,-0.6444628000000001,331.5046700000001,-63.82806,-18.921103,BSC
9407905660928.0,0.9286816716194153,-1.2894762754440308,9.069873809814453,1.2414250373840332,-0.7604231834411621,0.35338554,-0.6783658,331.3538200000001,-63.34591,-19.131193,BSC
9408209747968.0,0.9337118268013,-1.305684208869934,9.03884220123291,1.273078203201294,-0.7746155261993408,0.37598756,-0.75594574,331.1981,-62.87980699999999,-19.34914,BSC
9408501252096.0,0.9387412667274475,-1.3220231533050537,9.007007598876953,1.3052312135696411,-0.7890118956565857,0.37934732,-0.75411314,331.04428,-62.399063,-19.541088,BSC
9408781221888.0,0.9437699317932129,-1.3385090827941895,8.974416732788086,1.3378986120224,-0.8035944700241089,0.32192600000000005,-0.7984009,330.9167,-61.90921,-19.75589,BSC
9409049657344.0,0.948797881603241,-1.3551547527313232,8.94112491607666,1.3710945844650269,-0.8183438777923584,0.27947086,-0.8558222,330.73465,-61.513012,-19.883675,BSC
9409306558464.0,0.9538251161575317,-1.3719700574874878,8.907195091247559,1.4048329591751099,-0.8332393169403076,0.2556471,-0.85154617,330.5641,-61.138447,-19.997051000000006,BSC
9409552973824.0,0.9588516354560852,-1.3889633417129517,8.872696876525879,1.4391282796859741,-0.8482590317726135,0.15241088,-0.8613200000000001,330.4389,-60.75603,-20.120968,BSC
9409788903424.0,0.9638774991035461,-1.4061408042907715,8.837705612182617,1.4739960432052612,-0.863380491733551,0.10781772,-0.9071349,330.30914,-60.388786,-20.251083,BSC
9410015395840.0,0.9689026474952698,-1.423506736755371,8.802305221557617,1.509453296661377,-0.8785808086395264,0.021685716,-0.8970556000000001,330.2245,-59.984238,-20.372389,BSC
9410232451072.0,0.9739271402359009,-1.4410662651062012,8.766581535339355,1.5455167293548584,-0.8938373923301697,-0.058643065,-0.83291477,330.15088,-59.587177,-20.480743,BSC
9410441117696.0,0.9789509773254395,-1.4588267803192139,8.730620384216309,1.5822008848190308,-0.9091284275054932,-0.08857546,-0.8408559999999999,330.0753200000001,-59.18654300000001,-20.571777,BSC
9410640347136.0,0.9839742183685303,-1.476798176765442,8.694507598876953,1.619518756866455,-0.9244330525398254,-0.054367006,-0.8509353000000001,329.99677,-58.8026,-20.639788,BSC
9410832236544.0,0.9889968037605286,-1.4949917793273926,8.658323287963867,1.65748131275177,-0.9397317171096802,-0.06872234,-0.86437434,329.9818,-58.36634,-20.76592,BSC
9411015737344.0,0.9940187931060791,-1.5134193897247314,8.62214469909668,1.696097493171692,-0.9550060033798218,-0.050396383,-0.9761627,329.96155,-57.92131800000001,-20.92197,BSC
9411191898112.0,0.9990401864051819,-1.5320916175842285,8.586043357849121,1.7353733777999878,-0.9702386260032654,-0.06750060599999999,-1.0228939,329.96234,-57.438236,-21.084505,BSC
9411360718848.0,1.004060983657837,-1.5510156154632568,8.550085067749023,1.7753130197525024,-0.9854129552841187,-0.06719518,-1.0064004999999998,329.95935,-56.95738000000001,-21.256311,BSC
9411522199552.0,1.009081244468689,-1.5701922178268433,8.514328956604004,1.8159180879592896,-1.0005133152008057,-0.037873644,-0.8729264000000001,329.9414700000001,-56.49394,-21.401157,BSC
9411677388800.0,1.0141009092330933,-1.5896165370941162,8.4788236618042,1.8571889400482178,-1.0155248641967773,-0.01740966,-0.8072583999999999,329.9324299999999,-56.03158000000001,-21.551035,BSC
9411826286592.0,1.0191200971603394,-1.6092770099639893,8.443608283996582,1.8991248607635498,-1.030434250831604,-0.027183503,-0.7611380999999999,329.87485,-55.609768,-21.62457,BSC
9411968892928.0,1.0241386890411377,-1.629156470298767,8.408711433410645,1.9417202472686768,-1.0452290773391724,0.030543262,-0.7724390999999999,329.79205,-55.199127,-21.701918,BSC
9412106256384.0,1.0291568040847778,-1.6492314338684082,8.374152183532715,1.9849611520767212,-1.0598981380462646,0.23701571,-0.8155051,329.68085,-54.735283,-21.794786,BSC
9412237328384.0,1.0341744422912598,-1.6694731712341309,8.339942932128906,2.028829574584961,-1.0744305849075317,0.18692477,-0.7452555999999999,329.60852,-54.316357,-21.829388,BSC
9412363157504.0,1.0391916036605835,-1.6898473501205444,8.306090354919434,2.0733063220977783,-1.0888161659240723,0.14385876,-0.64721173,329.45035,-53.933907,-21.896069,BSC
9412483743744.0,1.044208288192749,-1.7103163003921509,8.272597312927246,2.1183724403381348,-1.1030453443527222,0.1151481,-0.5830709,329.29926,-53.584816,-21.942837,BSC
9412600135680.0,1.0492244958877563,-1.7308413982391357,8.239462852478027,2.1640100479125977,-1.1171094179153442,0.106595986,-0.57360244,329.1500200000001,-53.247974,-21.970533,BSC
9412711284736.0,1.0542402267456055,-1.7513848543167114,8.206683158874512,2.210202217102051,-1.1310005187988281,0.1020145,-0.5867361,328.9914,-52.89455400000001,-21.946135,BSC
9412818239488.0,1.0592554807662964,-1.771911382675171,8.174253463745117,2.2569327354431152,-1.1447117328643799,0.19486602,-0.6081163,328.81003,-52.540222,-21.930378,BSC
9412920999936.0,1.0642703771591187,-1.792389154434204,8.142166137695312,2.304187536239624,-1.1582368612289429,0.3277292,-0.7360926,328.67383,-52.113914,-21.981682,BSC
9413019566080.0,1.0692847967147827,-1.8127892017364502,8.1104154586792,2.351957082748413,-1.1715701818466187,0.21838433,-0.8194756999999999,328.5744,-51.70476,-21.999575,BSC
9413113937920.0,1.0742988586425781,-1.8330861330032349,8.078994750976562,2.4002349376678467,-1.1847059726715088,0.172264,-0.79320854,328.44888,-51.266987,-22.079203,BSC
9413204115456.0,1.0793124437332153,-1.8532580137252808,8.047897338867188,2.449016571044922,-1.197638988494873,0.15027285,-0.6960809,328.34845,-50.847286,-22.142673,BSC
9413290098688.0,1.0843256711959839,-1.8732879161834717,8.017115592956543,2.4982964992523193,-1.2103643417358398,0.11942416,-0.5732970000000001,328.2645,-50.40204,-22.169804,BSC
9413372936192.0,1.0893384218215942,-1.8931653499603271,7.986640453338623,2.5480661392211914,-1.2228782176971436,0.15515977,-0.62858033,328.182,-49.94964,-22.218428,BSC
9413452627968.0,1.094350814819336,-1.9128860235214233,7.956460475921631,2.598313570022583,-1.2351772785186768,0.14569137,-0.64599,328.08353,-49.51556400000001,-22.245396,BSC
9413529174016.0,1.099362850189209,-1.932450532913208,7.926563262939453,2.6490225791931152,-1.2472590208053589,0.17012598,-0.66553766,327.97742,-49.06982,-22.291775,BSC
9413602574336.0,1.1043745279312134,-1.951863169670105,7.896934509277344,2.700174331665039,-1.2591214179992676,0.19639318,-0.6936375,327.90903,-48.590744,-22.414503,BSC
9413672828928.0,1.1093858480453491,-1.9711304903030396,7.86755895614624,2.7517480850219727,-1.2707628011703491,0.31429017,-0.7870999,327.8275799999999,-48.109898,-22.569843,BSC
9413739937792.0,1.1143968105316162,-1.9902604818344116,7.8384199142456055,2.8037235736846924,-1.2821813821792603,0.33994650000000004,-0.8219192,327.7634,-47.63953400000001,-22.71612,BSC
9413804949504.0,1.1194074153900146,-2.0092618465423584,7.809500694274902,2.8560807704925537,-1.2933756113052368,0.22937989,-0.7498371,327.70294,-47.17081500000001,-22.848207,BSC
9413866815488.0,1.1244176626205444,-2.0281426906585693,7.780782222747803,2.908801794052124,-1.3043447732925415,0.11636983,-0.6243043,327.63458,-46.725586,-22.972229,BSC
9413926584320.0,1.1294276714324951,-2.0469095706939697,7.752242565155029,2.9618706703186035,-1.3150886297225952,0.103847094,-0.6591236,327.58624,-46.274776,-23.107836,BSC
9413984256000.0,1.1344373226165771,-2.0655672550201416,7.723855972290039,3.015272617340088,-1.3256076574325562,0.12705997,-0.729984,327.54425,-45.809772,-23.18021400000001,BSC
9414039830528.0,1.1394466161727905,-2.084120512008667,7.695593357086182,3.068992853164673,-1.3359031677246094,0.11178834,-0.7449501999999999,327.50925,-45.344315,-23.23343,BSC
9414093307904.0,1.1444556713104248,-2.102574586868286,7.667423725128174,3.123015880584717,-1.3459771871566772,0.11636983,-0.7492262,327.48724,-44.842667,-23.292793,BSC
9414144688128.0,1.1494643688201904,-2.120936393737793,7.6393141746521,3.17732572555542,-1.3558320999145508,0.11575896,-0.7495316,327.47012,-44.341152,-23.345303,BSC
9414193971200.0,1.154472827911377,-2.139214277267456,7.611231803894043,3.231903553009033,-1.3654707670211792,0.06261369,-0.6395759,327.4797700000001,-43.80743,-23.418081,BSC
9414241157120.0,1.1594809293746948,-2.157417058944702,7.583143711090088,3.2867255210876465,-1.3748959302902222,0.07971791,-0.65209866,327.49588,-43.27583,-23.523424,BSC
9414286245888.0,1.1644887924194336,-2.175554037094116,7.555019378662109,3.3417601585388184,-1.3841102123260498,0.23426682,-0.7733554,327.51407,-42.715103000000006,-23.66982,BSC
9414329237504.0,1.1694964170455933,-2.193634033203125,7.526830673217773,3.3969664573669434,-1.3931163549423218,0.21655174,-0.8237518,327.5544700000001,-42.172695,-23.767311,BSC
9414371180544.0,1.1745036840438843,-2.211665153503418,7.4985527992248535,3.452296257019043,-1.4019174575805664,0.25289822,-0.8848383,327.57367,-41.63733,-23.925318,BSC
9414411026432.0,1.1795107126235962,-2.2296528816223145,7.4701619148254395,3.5076982975006104,-1.410516381263733,0.35155296,-0.9236283000000002,327.5878600000001,-41.115303,-24.090628,BSC
9414449823744.0,1.184517502784729,-2.2476000785827637,7.441635608673096,3.5631215572357178,-1.4189156293869019,0.27122417,-0.8399397,327.5868,-40.718597,-24.2273,BSC
9414486523904.0,1.1895240545272827,-2.2655060291290283,7.4129533767700195,3.6185171604156494,-1.4271175861358643,0.2593123,-0.81153446,327.56998,-40.31311,-24.408709,BSC
9414522175488.0,1.1945303678512573,-2.283367156982422,7.384096145629883,3.673839569091797,-1.4351246356964111,0.2782491,-0.8005389,327.56052,-39.89487,-24.528694,BSC
9414556778496.0,1.1995364427566528,-2.301178455352783,7.35504674911499,3.7290475368499756,-1.442939281463623,0.29260445,-0.79443026,327.5489,-39.4802,-24.634388,BSC
9414590332928.0,1.2045422792434692,-2.318934917449951,7.325788497924805,3.784104108810425,-1.4505635499954224,0.31490102,-0.7910705,327.57693,-39.00242,-24.748295,BSC
9414621790208.0,1.2095478773117065,-2.3366358280181885,7.2963056564331055,3.838977336883545,-1.4579997062683105,0.29565877,-0.7333437,327.5955,-38.547913,-24.837181,BSC
9414652198912.0,1.2145532369613647,-2.3542847633361816,7.266582012176514,3.8936405181884766,-1.4652496576309204,0.33169982,-0.7663304,327.6278700000001,-38.067394,-24.959198,BSC
9414681559040.0,1.2195583581924438,-2.371887445449829,7.236603736877441,3.9480743408203125,-1.4723156690597534,0.36254853,-0.8026769,327.6514,-37.60387,-25.058842,BSC
9414709870592.0,1.2245633602142334,-2.3894479274749756,7.206358432769775,4.0022687911987305,-1.479200005531311,0.37720928,-0.82863873,327.73813,-37.05222,-25.253143,BSC
9414737133568.0,1.2295681238174438,-2.406967878341675,7.175836563110352,4.0562238693237305,-1.4859055280685425,0.52290064,-0.96669424,327.8246200000001,-36.494816,-25.501913,BSC
9414763347968.0,1.2345726490020752,-2.424445152282715,7.145031929016113,4.109949111938477,-1.4924347400665283,0.48808134,-1.0613784,327.94403,-35.952557,-25.71227,BSC
9414788513792.0,1.239577054977417,-2.4418764114379883,7.113940238952637,4.163460731506348,-1.4987897872924805,0.32925636,-0.9761627,328.04773,-35.416737,-25.909153,BSC
9414813679616.0,1.2445812225341797,-2.4592573642730713,7.0825581550598145,4.216778755187988,-1.5049726963043213,0.32314770000000004,-0.8414669,328.1099200000001,-34.868744,-26.009716,BSC
9414837796864.0,1.2495852708816528,-2.476578712463379,7.050887107849121,4.269924163818359,-1.5109859704971313,0.32436943,-0.8231409,328.2057,-34.339813,-26.075788,BSC
9414860865536.0,1.2545890808105469,-2.4938254356384277,7.0189313888549805,4.3229193687438965,-1.516832947731018,0.30268374,-0.79809546,328.2907,-33.787094,-26.15744,BSC
9414882885632.0,1.2595927715301514,-2.5109832286834717,6.986696243286133,4.375785827636719,-1.522517442703247,0.31642818,-0.8017605999999999,328.36688,-33.26185,-26.241732,BSC
9414903857152.0,1.2645963430404663,-2.528040885925293,6.954185962677002,4.428544521331787,-1.5280433893203735,0.32742378,-0.8671232,328.4151,-32.78265,-26.25014,BSC
9414924828672.0,1.2695997953414917,-2.544991970062256,6.9214043617248535,4.481215953826904,-1.5334155559539795,0.31703907,-0.8848383,328.44815,-32.320274,-26.243362,BSC
9414944751616.0,1.2746031284332275,-2.5618348121643066,6.888352394104004,4.533819198608398,-1.5386390686035156,0.31612277,-0.8909469999999999,328.5657,-31.760523,-26.350489000000003,BSC
9414963625984.0,1.2796063423156738,-2.5785720348358154,6.855029582977295,4.5863728523254395,-1.5437196493148804,0.30970868,-0.88697636,328.68335,-31.21102,-26.447273,BSC
9414982500352.0,1.2846095561981201,-2.5952112674713135,6.821432590484619,4.638893127441406,-1.5486634969711304,0.30543262,-0.9062186,328.82227,-30.63153,-26.565456,BSC
9415000326144.0,1.2896126508712769,-2.611764669418335,6.787558078765869,4.691397190093994,-1.553477168083191,0.3286455,-0.94042706,328.95578,-30.068995,-26.682695,BSC
9415018151936.0,1.294615626335144,-2.628249406814575,6.753401279449463,4.74390172958374,-1.5581674575805664,0.5363397,-1.0894781,329.12204,-29.43955,-26.900085,BSC
9415034929152.0,1.2996186017990112,-2.6446850299835205,6.718956470489502,4.79642391204834,-1.562740683555603,0.4184427,-1.0607675,329.2997,-28.85797,-27.013575,BSC
9415051706368.0,1.3046214580535889,-2.6610910892486572,6.6842169761657715,4.84898042678833,-1.567203164100647,0.3491095,-1.0699303999999998,329.48785,-28.227402,-27.217041,BSC
9415067435008.0,1.3096243143081665,-2.677485942840576,6.64917516708374,4.90158748626709,-1.5715610980987549,0.33444872,-0.93645644,329.63617,-27.664871,-27.370173,BSC
9415083163648.0,1.3146270513534546,-2.69388484954834,6.6138224601745605,4.954259872436523,-1.5758211612701416,0.31673363,-0.88361657,329.8189700000001,-27.055908,-27.498775,BSC
9415097843712.0,1.3196297883987427,-2.7102982997894287,6.578151226043701,5.0070109367370605,-1.579990267753601,0.29077184,-0.84482664,329.9678,-26.4941,-27.596565,BSC
9415112523776.0,1.3246324062347412,-2.72672963142395,6.542157173156738,5.05985164642334,-1.584075689315796,0.29504790000000003,-0.8454375,330.13535,-25.881847,-27.686195,BSC
9415126155264.0,1.3296350240707397,-2.7431793212890625,6.5058369636535645,5.112789154052734,-1.5880851745605469,0.3191771,-0.9120218,330.30518,-25.27819,-27.770155,BSC
9415139786752.0,1.3346375226974487,-2.759648084640503,6.469188213348389,5.165828227996826,-1.5920264720916748,0.31978795,-0.9294315,330.42715,-24.735575,-27.785522,BSC
9415153418240.0,1.3396400213241577,-2.776137351989746,6.432209491729736,5.21897029876709,-1.5959075689315796,0.32162055,-0.94959,330.55707,-24.200289,-27.8102,BSC
9415166001152.0,1.3446425199508667,-2.7926511764526367,6.394900321960449,5.272215366363525,-1.5997365713119507,0.32406402,-0.9786061,330.73962,-23.59846700000001,-27.907349,BSC
9415178584064.0,1.3496448993682861,-2.8091959953308105,6.357262134552002,5.325560092926025,-1.6035218238830566,0.36743546,-1.0048733,330.91403,-23.007568,-28.00921,BSC
9415191166976.0,1.3546472787857056,-2.8257815837860107,6.319299221038818,5.378996849060059,-1.607271432876587,0.38698313,-1.1175779,331.11835,-22.419182,-28.112066,BSC
9415202701312.0,1.359649658203125,-2.842419385910034,6.281016826629639,5.4325151443481445,-1.6109932661056519,0.32986724,-1.0888673,331.3082,-21.831347,-28.216705,BSC
9415214235648.0,1.3646520376205444,-2.8591208457946777,6.2424187660217285,5.486103534698486,-1.6146948337554932,0.20708331,-0.9975429,331.51138,-21.235415,-28.306444,BSC
9415225769984.0,1.3696542978286743,-2.8758957386016846,6.203508377075195,5.539748191833496,-1.618383765220642,0.15913039999999998,-0.9630291,331.71854,-20.665216,-28.43316,BSC
9415236255744.0,1.3746565580368042,-2.8927502632141113,6.164287567138672,5.593435287475586,-1.6220674514770508,0.14660765,-0.9211848,331.90048,-20.133184,-28.517605,BSC
9415246741504.0,1.379658818244934,-2.9096877574920654,6.124759674072266,5.647148609161377,-1.6257531642913818,0.15699236,-0.93584555,332.1192,-19.51945,-28.583096,BSC
9415257227264.0,1.384661078453064,-2.9267098903656006,6.084927082061768,5.700872421264648,-1.6294479370117188,0.14172074,-0.93584555,332.31735,-18.931267,-28.624926,BSC
9415267713024.0,1.3896632194519043,-2.9438154697418213,6.04479455947876,5.754591464996338,-1.6331590414047241,0.18081611,-0.91538155,332.49896,-18.349220000000006,-28.65756,BSC
9415278198784.0,1.3946653604507446,-2.960999011993408,6.004368305206299,5.808292388916016,-1.636893630027771,0.06627888,-0.88056225,332.68634,-17.778008,-28.636814,BSC
9415287635968.0,1.399667501449585,-2.978252410888672,5.963655471801758,5.861961364746094,-1.6406590938568115,0.013133603,-0.8924741,332.88422,-17.180564999999998,-28.65626,BSC
9415297073152.0,1.4046695232391357,-2.99556565284729,5.922664642333984,5.915584564208984,-1.644463062286377,-0.0061086523,-0.8872818000000001,333.06522,-16.607897,-28.642622,BSC
9415306510336.0,1.4096715450286865,-3.0129270553588867,5.881404876708984,5.969146728515625,-1.6483135223388672,0.0888809,-0.9975429,333.26654,-16.007273,-28.622206,BSC
9415315947520.0,1.4146735668182373,-3.0303232669830322,5.839886665344238,6.022633075714111,-1.652217984199524,-0.04520403,-1.2275337,333.51758,-15.421546,-28.538784000000003,BSC
9415325384704.0,1.4196754693984985,-3.0477404594421387,5.798120498657227,6.076028347015381,-1.656182885169983,-0.20097467,-1.0775663,333.7071200000001,-14.864486,-28.477783,BSC
9415333773312.0,1.4246773719787598,-3.0651657581329346,5.756115913391113,6.129314422607422,-1.6602141857147217,-0.1957823,-0.91599244,333.9462,-14.255098,-28.43782,BSC
9415342161920.0,1.4296791553497314,-3.0825889110565186,5.7138776779174805,6.18247127532959,-1.6643186807632446,-0.17470746,-0.8872818000000001,334.2015,-13.662564,-28.346436,BSC
9415350550528.0,1.4346809387207031,-3.100004196166992,5.671407699584961,6.235474586486816,-1.6685035228729248,-0.17928895,-0.88422745,334.40244,-13.097674,-28.234787,BSC
9415358939136.0,1.4396827220916748,-3.1174120903015137,5.628701686859131,6.288296222686768,-1.6727765798568726,-0.14874569,-0.9502009,335.0490000000001,-11.248278,-28.031942,BSC
9415367327744.0,1.4446847438812256,-3.1348154544830322,5.585750579833984,6.3409037590026855,-1.6771461963653564,-0.129198,-1.1032226,335.31686,-10.598533,-27.980469,BSC
9415375716352.0,1.449687123298645,-3.1522176265716553,5.542543888092041,6.393261432647705,-1.6816200017929077,-0.26450464,-1.2568552,335.6763,-9.911318,-27.977661,BSC
9415383056384.0,1.4546900987625122,-3.169620990753174,5.4990692138671875,6.445332050323486,-1.686203956604004,-0.21930063,-1.1117748,335.9643,-9.248131,-28.015554,BSC
9415390396416.0,1.4596939086914062,-3.187023878097534,5.455313682556152,6.497074604034424,-1.6909034252166748,-0.0842994,-1.0433578,336.3072,-8.557014,-28.008995,BSC
9415397736448.0,1.4646989107131958,-3.204418182373047,5.411263465881348,6.548446178436279,-1.6957236528396606,-0.041233405,-1.040609,336.61426,-7.9431148,-27.980162,BSC
9415405076480.0,1.46970534324646,-3.221787929534912,5.366904258728027,6.599401473999023,-1.7006691694259644,0.017715093,-1.0143417,336.88312,-7.3258734,-27.972797,BSC
9415412416512.0,1.4747134447097778,-3.239109516143799,5.322219371795654,6.649896144866943,-1.7057445049285889,0.03756821,-0.9828822,337.13705,-6.6963873,-27.960302,BSC
9415419756544.0,1.4797234535217285,-3.256354808807373,5.2771897315979,6.699886322021484,-1.710953712463379,0.041233405,-1.0500773,337.40674,-6.053136,-27.9238,BSC
9415427096576.0,1.4847356081008911,-3.273496150970459,5.231792449951172,6.749327659606934,-1.716300368309021,0.0027488936,-1.0128145,337.62134,-5.4518676,-27.87003300000001,BSC
9415434436608.0,1.4897502660751343,-3.2905080318450928,5.186001300811768,6.798174858093262,-1.721787452697754,0.04062254,-0.9230174,337.8512,-4.794066,-27.801504,BSC
9415441776640.0,1.4947675466537476,-3.307368040084839,5.139788627624512,6.8463850021362305,-1.7274178266525269,0.06597344599999999,-1.0076222,338.1134600000001,-4.128207,-27.717192,BSC
9415448068096.0,1.4997878074645996,-3.3240582942962646,5.093125820159912,6.89391565322876,-1.7331937551498413,0.0015271631,-1.0665708,338.39838,-3.441834,-27.684366,BSC
9415454359552.0,1.5048110485076904,-3.340567111968994,5.045981407165527,6.940724849700928,-1.7391167879104614,-0.048258353,-0.98471475,338.65253,-2.7707272,-27.655592,BSC
9415460651008.0,1.5098376274108887,-3.356889247894287,4.9983229637146,6.986771106719971,-1.7451876401901245,-0.015882496,-0.95264435,338.95685,-2.066605,-27.641947,BSC
9415466942464.0,1.5148675441741943,-3.3730249404907227,4.950116157531738,7.032014846801758,-1.7514069080352783,-0.06078109,-1.1010846,339.2832,-1.373485,-27.587194,BSC
9415473233920.0,1.5199010372161865,-3.3889782428741455,4.901324272155762,7.076419353485107,-1.7577747106552124,-0.1151481,-1.138042,339.60187,-0.6734302,-27.58471,BSC
9415479525376.0,1.5249381065368652,-3.404755115509033,4.851904392242432,7.119949817657471,-1.7642899751663208,-0.15363261,-1.1548406999999998,339.95047,0.035265543,-27.568785,BSC
9415485816832.0,1.52997887134552,-3.420361280441284,4.801808834075928,7.1625752449035645,-1.770951271057129,-0.18600847,-1.1133018999999995,340.30566,0.7722376999999999,-27.532259000000003,BSC
9415492108288.0,1.5350234508514404,-3.4358019828796387,4.750986576080322,7.204266548156738,-1.7777559757232666,-0.2556471,-1.063211,340.6503,1.4759374,-27.469013,BSC
9415498399744.0,1.5400718450546265,-3.4510819911956787,4.699387550354004,7.244997501373291,-1.784700870513916,-0.30268374,-1.0858129,341.02533,2.2760282000000003,-27.372292,BSC
9415504691200.0,1.5451240539550781,-3.4662039279937744,4.646961212158203,7.2847442626953125,-1.7917817831039429,-0.36071593,-1.0781771999999998,341.36148,3.0415347,-27.248661,BSC
9415510982656.0,1.5501800775527954,-3.481168746948242,4.593656539916992,7.323485851287842,-1.7989938259124756,-0.37690386,-1.0641272,341.69745,3.7828102,-27.117949,BSC
9415517274112.0,1.5552400350570679,-3.4959769248962402,4.539422512054443,7.361204147338867,-1.8063312768936157,-0.37415496,-1.0592403,342.01996,4.516758,-26.972685,BSC
9415523565568.0,1.5603036880493164,-3.5106287002563477,4.484206199645996,7.397881984710693,-1.8137876987457275,-0.37934732,-0.9636399,342.31836,5.2552650000000005,-26.804512,BSC
9415529857024.0,1.5653711557388306,-3.5251240730285645,4.427955627441406,7.433503150939941,-1.8213560581207275,-0.35460728,-1.0161743,342.6504,5.998492,-26.639011,BSC
9415536148480.0,1.5704423189163208,-3.539461374282837,4.370619773864746,7.468052864074707,-1.829028844833374,-0.3378085,-0.947452,342.93448,6.7569466,-26.492455,BSC
9415542439936.0,1.5755170583724976,-3.5536348819732666,4.312149524688721,7.501516819000244,-1.8367977142333984,-0.26878070000000004,-0.9816604,343.25946,7.513559,-26.359503000000004,BSC
9415548731392.0,1.5805953741073608,-3.567634105682373,4.252499580383301,7.533884525299072,-1.844653606414795,-0.23426682,-1.0549643,343.58365,8.279764,-26.213274,BSC
9415553974272.0,1.5856770277023315,-3.5814456939697266,4.191625595092773,7.565145015716553,-1.8525866270065308,-0.2648101,-1.0961976999999998,343.89722,9.027685,-26.064772,BSC
9415559217152.0,1.5907620191574097,-3.5950546264648438,4.129485607147217,7.595287322998047,-1.8605862855911255,-0.22968534,-0.97097033,344.17886,9.7637005,-25.89781,BSC
9415564460032.0,1.5958502292633057,-3.608447551727295,4.0660400390625,7.624300003051758,-1.8686418533325195,-0.17073683,-1.0005972,344.50946,10.516661,-25.716805,BSC
9415569702912.0,1.60094153881073,-3.621614694595337,4.001254558563232,7.652170181274414,-1.8767427206039429,-0.20708331,-0.8912524,344.7782,11.277243,-25.55412,BSC
9415574945792.0,1.606035828590393,-3.6345489025115967,3.9351003170013428,7.678884029388428,-1.884878158569336,-0.17470746,-0.84940815,345.0751,12.034987,-25.419014,BSC
9415580188672.0,1.6111329793930054,-3.6472442150115967,3.867555856704712,7.704424858093262,-1.8930374383926392,-0.18142697,-0.8582656999999999,345.3634,12.77632,-25.310095,BSC
9415585431552.0,1.6162327527999878,-3.6596946716308594,3.798607110977173,7.728771686553955,-1.9012092351913452,-0.18112154,-0.8472700999999999,345.62634,13.476714,-25.213566,BSC
9415590674432.0,1.6213351488113403,-3.6718926429748535,3.7282469272613525,7.751898765563965,-1.90938138961792,-0.14660765,-0.8402450999999999,345.9014,14.176476,-25.125385,BSC
9415595917312.0,1.6264399290084839,-3.683828353881836,3.656475782394409,7.773773670196533,-1.9175407886505127,-0.1001819,-0.8353582,346.16623,14.843430499999998,-25.038927,BSC
9415601160192.0,1.6315470933914185,-3.695488929748535,3.5833022594451904,7.79435920715332,-1.9256733655929565,-0.08460484,-0.8176431,346.41708,15.4796095,-24.953001,BSC
9415606403072.0,1.636656403541565,-3.7068581581115723,3.508742332458496,7.813612461090088,-1.9337642192840576,-0.04886922,-0.8032878000000001,346.68286,16.137032,-24.88118,BSC
9415611645952.0,1.6417676210403442,-3.7179174423217773,3.432818651199341,7.831488132476807,-1.9417976140975952,-0.004581489,-0.7706065,346.93283,16.756493,-24.816921,BSC
9415616888832.0,1.6468807458877563,-3.7286462783813477,3.355560541152954,7.8479390144348145,-1.9497572183609009,0.03604105,-0.7455609999999999,347.191,17.381795999999998,-24.749784,BSC
9415622131712.0,1.6519956588745117,-3.739022731781006,3.277003049850464,7.862917900085449,-1.957626223564148,0.08093964,-0.75533485,347.44815,17.989012,-24.693304,BSC
9415627374592.0,1.6571121215820312,-3.7490246295928955,3.19718861579895,7.876381874084473,-1.9653880596160889,0.13103059,-0.7495316,347.6919,18.581951,-24.65079,BSC
9415632617472.0,1.6622300148010254,-3.7586288452148438,3.116166353225708,7.888293743133545,-1.973026990890503,0.1872302,-0.7654141999999999,347.95947,19.200678,-24.61447,BSC
9415637860352.0,1.667349100112915,-3.7678096294403076,3.0339925289154053,7.898623943328857,-1.980528712272644,0.20677789,-0.7657196,348.21634,19.812426,-24.58125,BSC
9415643103232.0,1.6724692583084106,-3.7765390872955322,2.950730562210083,7.907349109649658,-1.9878809452056885,0.20616703,-0.7593055000000001,348.4733,20.407846,-24.538622,BSC
9415648346112.0,1.6775903701782227,-3.7847867012023926,2.8664488792419434,7.914454936981201,-1.9950740337371826,0.2134974,-0.71593404,348.716,20.995848,-24.504984,BSC
9415653588992.0,1.6827123165130615,-3.7925219535827637,2.781216859817505,7.919936656951904,-2.002100944519043,0.20189096,-0.6640105,348.9481,21.585537,-24.420399,BSC
9415658831872.0,1.6878349781036377,-3.7997190952301025,2.6950950622558594,7.92380428314209,-2.0089571475982666,0.1255328,-0.52748215,349.12778,22.157228,-24.334091,BSC
9415664074752.0,1.692958116531372,-3.80635929107666,2.6081252098083496,7.926084518432617,-2.015641212463379,-0.020463986,-0.41447207,349.29178,22.740374,-24.208092,BSC
9415669317632.0,1.698081612586975,-3.8124289512634277,2.5203089714050293,7.926823139190674,-2.022153377532959,-0.20250183,-0.27763826,349.38699999999994,23.28004,-24.071655,BSC
9415674560512.0,1.7032053470611572,-3.817920207977295,2.43159818649292,7.926085948944092,-2.028493881225586,-0.59498274,-0.27091873,349.47473,23.948055,-23.845783,BSC
9415679803392.0,1.7083290815353394,-3.8228347301483154,2.341893434524536,7.923952102661133,-2.0346601009368896,-0.5589417,-0.08093964,349.49927,24.49104,-23.724524,BSC
9415685046272.0,1.7134528160095215,-3.8271877765655518,2.251042604446411,7.9205121994018555,-2.0406436920166016,-0.12767084,0.1142318,349.57092,25.38676,-23.459455,BSC
9415690289152.0,1.7185763120651245,-3.831012487411499,2.158846139907837,7.915865421295166,-2.046430826187134,0.45478916,0.29504790000000003,349.61343,26.147182,-23.271534,BSC
9415695532032.0,1.7236995697021484,-3.8343632221221924,2.065061330795288,7.91011905670166,-2.0520007610321045,0.94042706,0.43249258,349.65964,26.792171000000003,-23.19254500000001,BSC
9415700774912.0,1.7288223505020142,-3.8373138904571533,1.9694116115570068,7.903390884399414,-2.057326555252075,1.0351112,0.54550266,349.79218,27.59493,-23.235352,BSC
9415706017792.0,1.7339446544647217,-3.839956045150757,1.8715957403182983,7.895811557769775,-2.06237530708313,1.0173961,0.55955255,349.97208,28.299353000000004,-23.373447,BSC
9415711260672.0,1.739066243171692,-3.8423962593078613,1.7712969779968262,7.887519836425781,-2.0671093463897705,0.9459248,0.7257079000000001,350.1636,29.009144,-23.625347,BSC
9415716503552.0,1.7441871166229248,-3.844754219055176,1.66819167137146,7.8786540031433105,-2.0714869499206543,0.8717046999999999,0.7632760999999999,350.38104,29.650013,-23.849361,BSC
9415721746432.0,1.7493071556091309,-3.8471603393554688,1.5619609355926514,7.869339466094971,-2.075463056564331,0.7800749,0.79259765,350.5468,30.22103,-24.05912,BSC
9415726989312.0,1.7544262409210205,-3.849752187728882,1.4523032903671265,7.859678268432617,-2.0789899826049805,0.86406887,0.75594574,350.73447000000016,30.723715,-24.284834,BSC
9415732232192.0,1.7595443725585938,-3.8526713848114014,1.3389480113983154,7.849737644195557,-2.082016944885254,1.078788,0.6627888000000001,350.99103,31.208805,-24.567719,BSC
9415737475072.0,1.7646613121032715,-3.85605788230896,1.221666932106018,7.839542865753174,-2.0844902992248535,1.3881912,0.5195409000000001,351.29953,31.629133000000003,-24.871384,BSC
9415742717952.0,1.7697770595550537,-3.8600471019744873,1.1002837419509888,7.829075813293457,-2.086353302001953,1.7211128,0.39187005,351.759,31.982815,-25.332645,BSC
9415747960832.0,1.7748916149139404,-3.864767074584961,0.9746795892715454,7.818275451660156,-2.0875444412231445,2.1630738,0.15424347,352.36435,32.285213,-25.835232,BSC
9415753203712.0,1.780004858970642,-3.870333194732666,0.8448066115379333,7.807051658630371,-2.0879974365234375,2.5051584,-0.059864793,353.10745,32.484562,-26.480566,BSC
9415758446592.0,1.7851167917251587,-3.8768441677093506,0.7107023596763611,7.795301914215088,-2.0876412391662598,2.7363708,-0.22052236,353.9729,32.62684,-27.156603000000004,BSC
9415763689472.0,1.7902272939682007,-3.884377956390381,0.5724855661392212,7.782919883728027,-2.0863993167877197,2.8951957000000004,-0.32620203,354.96317,32.650158000000005,-27.938435,BSC
9415768932352.0,1.795336365699768,-3.8929874897003174,0.4303460717201233,7.76980447769165,-2.0841915607452393,3.050661,-0.38453966,356.0448,32.631865999999995,-28.741673,BSC
9415774175232.0,1.8004438877105713,-3.9026987552642822,0.28453534841537476,7.75586462020874,-2.080934524536133,3.176194,-0.41355577,356.9789,32.265343,-29.548048,BSC
9415779418112.0,1.8055498600006104,-3.9135093688964844,0.13535797595977783,7.741024017333984,-2.0765433311462402,3.26874,-0.4260785,357.95676000000014,31.873554,-30.372972,BSC
9415784660992.0,1.8106542825698853,-3.9253897666931152,-0.01683889329433441,7.72522497177124,-2.0709333419799805,3.3078353,-0.4334089,358.96408,31.46901,-31.208271000000003,BSC
9415789903872.0,1.8157570362091064,-3.9382870197296143,-0.1716756820678711,7.708430290222168,-2.0640223026275635,3.2247577,-0.4111123,359.96973,31.05883,-32.03787,BSC
9415795146752.0,1.820858120918274,-3.952130079269409,-0.3287520110607147,7.6906256675720215,-2.055732250213623,3.0610456000000004,-0.37110063,0.7063842,30.546717,-32.6358,BSC
9415800389632.0,1.8259575366973877,-3.9668354988098145,-0.48765838146209717,7.671824932098389,-2.0459914207458496,2.8716774,-0.31734450000000003,1.4064856,30.055183000000003,-33.214123,BSC
9415805632512.0,1.8310552835464478,-3.982313871383667,-0.6479857563972473,7.652069568634033,-2.034736394882202,2.745534,-0.3830125,2.0104182,29.564789,-33.678715000000004,BSC
9415810875392.0,1.8361512422561646,-3.99847412109375,-0.809333086013794,7.631425380706787,-2.0219149589538574,2.3854287,-0.43860126,2.5038023,29.12436,-34.056328,BSC
9415816118272.0,1.8412455320358276,-4.015228271484375,-0.9713136553764343,7.609980583190918,-2.0074868202209473,2.0161607,-0.5494733,2.9298964,28.742722,-34.33376,BSC
9415821361152.0,1.8463380336761475,-4.032496452331543,-1.1335595846176147,7.587841033935547,-1.9914264678955078,1.7253889,-0.68111473,3.315758,28.494963,-34.5328,BSC
9415826604032.0,1.8514288663864136,-4.050211429595947,-1.2957254648208618,7.565124034881592,-1.9737249612808228,1.4740178999999998,-0.8622363000000001,3.6755645,28.350723,-34.621635,BSC
9415831846912.0,1.8565179109573364,-4.0683207511901855,-1.4574904441833496,7.541952133178711,-1.954390525817871,1.239751,-1.0280862,4.008225,28.3108,-34.6293,BSC
9415837089792.0,1.861605167388916,-4.086788654327393,-1.6185591220855713,7.518446922302246,-1.9334479570388794,1.1169671,-1.2098186000000002,4.43567,28.396696,-34.631958000000004,BSC
9415842332672.0,1.8666906356811523,-4.105596542358398,-1.7786612510681152,7.494726181030273,-1.910936951637268,1.0873401000000005,-1.3607023,4.863956,28.54948,-34.58124,BSC
9415847575552.0,1.8717743158340454,-4.124744415283203,-1.9375507831573486,7.470900535583496,-1.8869097232818604,1.044885,-1.5015068,5.419788,28.778606,-34.561195,BSC
9415852818432.0,1.8768563270568848,-4.144248008728027,-2.095003366470337,7.447070121765137,-1.861428141593933,1.0320568,-1.6533068,6.0082765,29.04216,-34.513325,BSC
9415858061312.0,1.8819365501403809,-4.164138317108154,-2.2508130073547363,7.423325538635254,-1.8345614671707153,1.0354166,-1.7886133999999998,6.6896605,29.329184,-34.521057,BSC
9415863304192.0,1.8870149850845337,-4.184457778930664,-2.4047884941101074,7.399745941162109,-1.8063838481903076,0.9999864,-1.9205604,7.3860517,29.625803,-34.488976,BSC
9415868547072.0,1.8920917510986328,-4.205256462097168,-2.5567493438720703,7.376400947570801,-1.776972770690918,0.9492846,-2.0182989,8.152483,29.906273,-34.51787,BSC
9415873789952.0,1.8971667289733887,-4.226587772369385,-2.7065234184265137,7.3533525466918945,-1.7464079856872559,0.93034774,-2.057394,8.921139,30.185822,-34.52988,BSC
9415879032832.0,1.9022400379180908,-4.248504161834717,-2.8539438247680664,7.330653667449951,-1.714770793914795,0.904386,-2.0592268,9.6524725,30.409832,-34.558215999999994,BSC
9415884275712.0,1.9073116779327393,-4.271053314208984,-2.9988455772399902,7.308351516723633,-1.6821435689926147,0.95081174,-2.0463986000000003,10.38563,30.638151,-34.592777000000005,BSC
9415889518592.0,1.9123815298080444,-4.294273376464844,-3.1410648822784424,7.286486625671387,-1.6486095190048218,1.022283,-2.0024164,11.014147,30.818972,-34.63908,BSC
9415894761472.0,1.917449712753296,-4.31818962097168,-3.2804393768310547,7.265094757080078,-1.6142526865005493,1.0705414,-1.9462167,11.627294,31.001999,-34.694866,BSC
9415900004352.0,1.9225163459777832,-4.342811584472656,-3.4168097972869873,7.244207859039307,-1.579157829284668,1.0995574,-1.8845193,12.188916,31.163782,-34.744820000000004,BSC
9415905247232.0,1.9275813102722168,-4.368130683898926,-3.5500237941741943,7.223855972290039,-1.543411135673523,1.1029171999999998,-1.8344283,12.732908,31.329962,-34.80843,BSC
9415910490112.0,1.9326446056365967,-4.394119739532471,-3.6799378395080566,7.204070091247559,-1.5070998668670654,1.0778716999999998,-1.8249599,13.259994,31.529234,-34.79933,BSC
9415915732992.0,1.9377063512802124,-4.420731067657471,-3.806422233581543,7.184882164001465,-1.4703125953674316,0.9990701,-1.7974709,13.747515,31.719177,-34.793053,BSC
9415920975872.0,1.942766547203064,-4.447898864746094,-3.929363489151001,7.166325092315674,-1.4331390857696533,0.9071349,-1.7938058,14.1915045,31.993809,-34.665690000000005,BSC
9415926218752.0,1.9478251934051514,-4.475540637969971,-4.048666954040527,7.148430824279785,-1.3956702947616577,0.7663304,-1.7831156000000004,14.587682,32.269688,-34.519955,BSC
9415931461632.0,1.9528822898864746,-4.5035600662231445,-4.16425895690918,7.131229877471924,-1.3579983711242676,0.57726765,-1.7907515,14.8914175,32.614918,-34.256786,BSC
9415936704512.0,1.9579378366470337,-4.531848907470703,-4.276087760925293,7.114748001098633,-1.320216417312622,0.35216382,-1.783421,15.138415,32.97327,-33.96533,BSC
9415941947392.0,1.9629919528961182,-4.560291767120361,-4.384121894836426,7.099004745483398,-1.28241765499115,0.1554652,-1.7715092,15.3410845,33.399765,-33.595833,BSC
9415947190272.0,1.968044638633728,-4.588766098022461,-4.488349914550781,7.084011077880859,-1.2446954250335693,-0.004886922,-1.7498235,15.48497,33.832066,-33.196728,BSC
9415952433152.0,1.9730958938598633,-4.617147922515869,-4.588778972625732,7.069767475128174,-1.2071419954299927,-0.09010262,-1.7165313999999998,15.623323,34.318447,-32.76128,BSC
9415957676032.0,1.978145718574524,-4.645312309265137,-4.685431480407715,7.056263446807861,-1.1698483228683472,-0.11209377,-1.6917913,15.723749,34.802044,-32.316395,BSC
9415962918912.0,1.9831942319869995,-4.673134803771973,-4.778343677520752,7.043477535247803,-1.1329033374786377,-0.09468412,-1.6743816000000002,15.901785999999998,35.32957000000001,-31.864563,BSC
9415968161792.0,1.98824143409729,-4.700493812561035,-4.867562294006348,7.031376361846924,-1.0963929891586304,-0.035430185,-1.6594155,16.065662,35.84817,-31.429037,BSC
9415973404672.0,1.9932873249053955,-4.72727108001709,-4.95314359664917,7.019915580749512,-1.0603997707366943,0.044593163,-1.6511686999999995,16.27521,36.38254000000001,-31.01716,BSC
9415978647552.0,1.998331904411316,-4.753352165222168,-5.035149097442627,7.009041786193848,-1.025002121925354,0.12950343,-1.6490307,16.484835,36.91168,-30.626507,BSC
9415983890432.0,2.003375291824341,-4.778628349304199,-5.113646984100342,6.998693466186523,-0.9902743697166443,0.24098633,-1.63437,16.726322,37.432484,-30.277239,BSC
9415989133312.0,2.0084173679351807,-4.802997589111328,-5.188711643218994,6.988804340362549,-0.9562863111495972,0.3643811,-1.6178766000000002,16.977684,37.947243,-29.95334,BSC
9415994376192.0,2.013458251953125,-4.826364994049072,-5.260425090789795,6.979306221008301,-0.9231031537055969,0.46853364,-1.6001616,17.29709,38.482185,-29.638884,BSC
9415999619072.0,2.018497943878174,-4.848643779754639,-5.328876495361328,6.970130443572998,-0.8907857537269592,0.53969944,-1.5683966,17.618614,39.005344,-29.353128,BSC
9416004861952.0,2.023536443710327,-4.869756698608398,-5.394163131713867,6.961208820343018,-0.8593903183937073,0.5332854,-1.5216653,17.940704,39.52689,-29.076958,BSC
9416010104832.0,2.028573751449585,-4.889633655548096,-5.4563889503479,6.952475547790527,-0.8289685249328613,0.49846604,-1.4581354,18.250454,40.036007,-28.823385,BSC
9416015347712.0,2.0336101055145264,-4.908212184906006,-5.5156636238098145,6.943868637084961,-0.7995677590370178,0.46486846,-1.3820826000000002,18.571852,40.57703400000001,-28.551832,BSC
9416020590592.0,2.0386452674865723,-4.925436019897461,-5.572102069854736,6.935328483581543,-0.7712308168411255,0.38912117,-1.3460416000000002,18.858677,41.104477,-28.274778,BSC
9416025833472.0,2.0436794757843018,-4.94125509262085,-5.6258225440979,6.926798343658447,-0.7439964413642883,0.33322698,-1.2748758,19.12135,41.643715,-27.992048,BSC
9416031076352.0,2.048712730407715,-4.955625534057617,-5.67694616317749,6.918224334716797,-0.7178993821144104,0.27916542,-1.1859949,19.344837,42.158672,-27.712084,BSC
9416036319232.0,2.0537450313568115,-4.968508243560791,-5.7255964279174805,6.909554958343506,-0.6929703950881958,0.22815818,-1.0974194,19.551073,42.689564,-27.417238,BSC
9416041562112.0,2.058776378631592,-4.979869365692139,-5.771896839141846,6.900741100311279,-0.6692362427711487,0.1826487,-1.0085385,19.718233,43.196396,-27.13816,BSC
9416046804992.0,2.0638067722320557,-4.989680767059326,-5.815970420837402,6.891733169555664,-0.6467196345329285,0.14355333,-0.9285152,19.878603,43.7129,-26.849798,BSC
9416052047872.0,2.0688364505767822,-4.997918605804443,-5.857938766479492,6.882481575012207,-0.6254390478134155,0.09743301,-0.8613200000000001,20.003254,44.20795,-26.573896,BSC
9416057290752.0,2.0738651752471924,-5.004563808441162,-5.897921085357666,6.872936725616455,-0.6054087281227112,0.06811147,-0.7883216,20.128462,44.703148,-26.307943,BSC
9416062533632.0,2.0788931846618652,-5.009602069854736,-5.936033248901367,6.863048076629639,-0.5866385102272034,0.06169739,-0.7284568,20.231169,45.17561,-26.054604,BSC
9416067776512.0,2.0839202404022217,-5.013024806976318,-5.97238826751709,6.85276460647583,-0.5691335797309875,0.0693332,-0.6762278,20.342134,45.65148,-25.810316,BSC
9416073019392.0,2.088946580886841,-5.014828205108643,-6.0070953369140625,6.842036247253418,-0.5528942942619324,0.08552113,-0.6392705,20.439938,46.099625,-25.580503,BSC
9416078262272.0,2.0939722061157227,-5.015012741088867,-6.040260314941406,6.830812931060791,-0.5379162430763245,0.093767814,-0.61636305,20.525648,46.522507,-25.363087,BSC
9416083505152.0,2.098997116088867,-5.013584136962891,-6.071985721588135,6.819044589996338,-0.5241903066635132,0.09285152,-0.5873469,20.618656,46.930305,-25.152348,BSC
9416088748032.0,2.1040213108062744,-5.010553359985352,-6.102369785308838,6.806682586669922,-0.5117030739784241,0.08307768,-0.5500841999999999,20.713749,47.32791,-24.946169,BSC
9416093990912.0,2.1090447902679443,-5.005934238433838,-6.13150691986084,6.7936787605285645,-0.5004372596740723,0.04062254,-0.5354234,20.794712,47.70775,-24.73966,BSC
9416099233792.0,2.114067554473877,-4.999744892120361,-6.159489154815674,6.779987812042236,-0.4903721511363983,-0.01282817,-0.52442783,20.860046,48.072964,-24.541166,BSC
9416104476672.0,2.1190896034240723,-4.992005348205566,-6.186403751373291,6.765567302703857,-0.48148399591445923,-0.05772676700000001,-0.5128214,20.948475,48.48155,-24.342703,BSC
9416109719552.0,2.1241111755371094,-4.9827375411987305,-6.21233606338501,6.750378608703613,-0.47374653816223145,-0.112704635,-0.4877759,21.012304,48.877426,-24.142996,BSC
9416114962432.0,2.129132032394409,-4.971965789794922,-6.237368106842041,6.734387397766113,-0.46713119745254517,-0.13958271,-0.46792278,21.078547,49.28937,-23.924404,BSC
9416120205312.0,2.134152412414551,-4.959715843200684,-6.261578559875488,6.717563152313232,-0.461607426404953,-0.20280726,-0.46089783,21.115267000000006,49.692154,-23.697836,BSC
9416125448192.0,2.139172077178955,-4.946015357971191,-6.285042762756348,6.69987678527832,-0.4571428894996643,-0.28527406,-0.49205196,21.142794,50.11004000000001,-23.439293,BSC
9416130691072.0,2.144191026687622,-4.930893421173096,-6.307832717895508,6.681298732757568,-0.453703910112381,-0.36132678,-0.49571714,21.145903,50.51295,-23.184422,BSC
9416135933952.0,2.149209499359131,-4.914379119873047,-6.330017566680908,6.661797046661377,-0.45125576853752136,-0.3827071,-0.47800204,21.141726,50.921204,-22.923222,BSC
9416141176832.0,2.1542274951934814,-4.896502494812012,-6.351663589477539,6.641337871551514,-0.44976308941841125,-0.3622431,-0.45448375,21.12496,51.31909,-22.661985,BSC
9416146419712.0,2.1592447757720947,-4.877292156219482,-6.372836112976074,6.619887828826904,-0.44919002056121826,-0.33628133,-0.45173484,21.142878,51.784325,-22.3985,BSC
9416151662592.0,2.16426157951355,-4.856777667999268,-6.393596649169922,6.597412586212158,-0.4495002329349518,-0.32467487,-0.46517387,21.15762,52.235157,-22.141796,BSC
9416156905472.0,2.1692779064178467,-4.834987163543701,-6.414004802703857,6.573879718780518,-0.4506567716598511,-0.33383787,-0.47128254,21.181643,52.719894,-21.868143,BSC
9416162148352.0,2.1742937564849854,-4.811949729919434,-6.434117317199707,6.549259185791016,-0.4526219964027405,-0.3491095,-0.49357912,21.207935,53.199074,-21.592306,BSC
9416167391232.0,2.1793088912963867,-4.787694454193115,-6.453988075256348,6.523524761199951,-0.4553575813770294,-0.35063666,-0.50762904,21.236725,53.684887,-21.308159,BSC
9416172634112.0,2.18432354927063,-4.762251853942871,-6.473669052124023,6.496654987335205,-0.4588247239589691,-0.3576616,-0.5155702999999999,21.258526,54.15949200000001,-21.021412,BSC
9416177876992.0,2.189337730407715,-4.735652923583984,-6.493208885192871,6.468631744384766,-0.46298423409461975,-0.36254853,-0.52534413,21.28205,54.63582,-20.721533,BSC
9416183119872.0,2.1943514347076416,-4.707930564880371,-6.512653350830078,6.439443111419678,-0.4677968919277191,-0.37598756,-0.5354234,21.298521,55.10420600000001,-20.42226,BSC
9416188362752.0,2.19936466217041,-4.67911958694458,-6.532043933868408,6.4090800285339355,-0.4732237756252289,-0.40469822,-0.5317582,21.3071,55.569366,-20.1227,BSC
9416193605632.0,2.2043774127960205,-4.64925479888916,-6.551417827606201,6.377539157867432,-0.4792267084121704,-0.4373795,-0.54825157,21.3113,56.035133,-19.818354,BSC
9416198848512.0,2.2093896865844727,-4.618373394012451,-6.570807933807373,6.34481954574585,-0.4857686460018158,-0.4813618,-0.57451874,21.308441,56.51015500000001,-19.51167,BSC
9416204091392.0,2.2144017219543457,-4.586514472961426,-6.590245246887207,6.3109235763549805,-0.49281394481658936,-0.50671273,-0.5717699,21.29597,56.978832,-19.211649,BSC
9416209334272.0,2.2194132804870605,-4.553718090057373,-6.609758377075195,6.275855541229248,-0.5003284215927124,-0.50946164,-0.548557,21.280075,57.45267,-18.908205,BSC
9416214577152.0,2.224424362182617,-4.520027160644531,-6.629374980926514,6.239620685577393,-0.5082796216011047,-0.50640726,-0.5143485,21.253166,57.92571,-18.611265,BSC
9416219820032.0,2.2294349670410156,-4.485485076904297,-6.649122714996338,6.202223777770996,-0.5166369676589966,-0.51923543,-0.49357912,21.229713,58.422337,-18.32736,BSC
9416225062912.0,2.234445333480835,-4.450136184692383,-6.669029235839844,6.16366720199585,-0.5253719091415405,-0.552833,-0.48655418,21.19496,58.91514,-18.051714,BSC
9416230305792.0,2.239455223083496,-4.4140238761901855,-6.689123153686523,6.123951435089111,-0.5344579219818115,-0.5458081,-0.48991394,21.175825,59.4328,-17.781708,BSC
9416235548672.0,2.244464635848999,-4.377191066741943,-6.709434509277344,6.083073616027832,-0.5438704490661621,-0.5180137,-0.49480084,21.148764,59.95340699999999,-17.516607,BSC
9416240791552.0,2.249473810195923,-4.339680194854736,-6.7299957275390625,6.041027069091797,-0.553586483001709,-0.5222898,-0.47616947,21.129246,60.513287,-17.249678,BSC
9416246034432.0,2.2544825077056885,-4.301530838012695,-6.750842571258545,5.997802734375,-0.5635843276977539,-0.49327368,-0.47311515,21.124762,61.070194,-16.9897,BSC
9416251277312.0,2.259490966796875,-4.262780666351318,-6.772014141082764,5.953388690948486,-0.573843240737915,-0.5027421,-0.45051312,21.110733,61.65147,-16.722803,BSC
9416256520192.0,2.2644991874694824,-4.223464488983154,-6.793554782867432,5.907768726348877,-0.584342896938324,-0.505491,-0.43310347,21.102404,62.21849,-16.464539000000002,BSC
9416261763072.0,2.2695071697235107,-4.183614253997803,-6.815512657165527,5.860923767089844,-0.595063328742981,-0.47647488,-0.43127087,21.10559,62.821384,-16.191822,BSC
9416267005952.0,2.27451491355896,-4.143258094787598,-6.837939739227295,5.812831401824951,-0.6059840321540833,-0.52931476,-0.376293,21.07299,63.380554,-15.933866,BSC
9416272248832.0,2.27952241897583,-4.102419376373291,-6.860892295837402,5.763465881347656,-0.6170836687088013,-0.50518554,-0.35308012,21.080070000000006,63.98692,-15.657208,BSC
9416277491712.0,2.284529447555542,-4.061117649078369,-6.884428977966309,5.712802886962891,-0.6283397674560547,-0.5137377000000001,-0.30268374,21.050076,64.54646,-15.398898999999998,BSC
9416282734592.0,2.289536237716675,-4.019367218017578,-6.908611297607422,5.6608195304870605,-0.6397286057472229,-0.5296202,-0.19853121,21.019257,65.12931999999999,-15.139163,BSC
9416287977472.0,2.2945430278778076,-3.977177381515503,-6.933503150939941,5.607494354248047,-0.6512252688407898,-0.5128214,-0.1282817,20.989258,65.68808,-14.891791,BSC
9416293220352.0,2.2995495796203613,-3.93455171585083,-6.959168434143066,5.552809238433838,-0.6628040671348572,-0.4550946,-0.06169739,20.93773,66.23536999999999,-14.639814,BSC
9416298463232.0,2.304555892944336,-3.8914895057678223,-6.985668659210205,5.4967498779296875,-0.6744388341903687,-0.40286562,0.0015271631,20.879826,66.749466,-14.412385999999998,BSC
9416303706112.0,2.3095619678497314,-3.8479859828948975,-7.013062477111816,5.439305782318115,-0.6861032247543335,-0.33200526,0.06566802,20.82259,67.2811,-14.171259,BSC
9416308948992.0,2.314567804336548,-3.804032802581787,-7.0414042472839355,5.380471229553223,-0.6977711319923401,-0.24373524,0.109650314,20.77857,67.790924,-13.953364,BSC
9416314191872.0,2.3195736408233643,-3.7596185207366943,-7.070742130279541,5.320243835449219,-0.7094166278839111,-0.14966199,0.13316862,20.749712,68.27803,-13.757392,BSC
9416319434752.0,2.3245792388916016,-3.714730739593506,-7.101114749908447,5.258627414703369,-0.7210140228271484,-0.05467244,0.15210545,20.740885,68.73884,-13.583931,BSC
9416324677632.0,2.3295845985412598,-3.6693568229675293,-7.132551670074463,5.195629596710205,-0.7325375080108643,-0.014049901000000002,0.17440203,20.725155,69.207466,-13.385754,BSC
9416329920512.0,2.334589958190918,-3.623485565185547,-7.1650710105896,5.131263256072998,-0.7439611554145813,0.076358154,0.18875736,20.747787,69.65698,-13.206285,BSC
9416335163392.0,2.339595079421997,-3.5771090984344482,-7.198679447174072,5.06554651260376,-0.7552586197853088,0.15332718,0.20677789,20.77385,70.06258000000001,-13.045565,BSC
9416340406272.0,2.344599962234497,-3.530224561691284,-7.233371734619141,4.9985032081604,-0.7664026021957397,0.23335053,0.21930063,20.824232,70.44192,-12.897237,BSC
9416345649152.0,2.349604845046997,-3.4828360080718994,-7.269129753112793,4.9301652908325195,-0.7773644328117371,0.2910773,0.22296582,20.892954,70.77851,-12.777348,BSC
9416350892032.0,2.354609489440918,-3.4349567890167236,-7.305922985076904,4.8605732917785645,-0.7881137132644653,0.33292156,0.21471913,20.978271,71.07982,-12.664024,BSC
9416356134912.0,2.3596138954162598,-3.386610746383667,-7.343709468841553,4.7897772789001465,-0.7986182570457458,0.3585779000000001,0.20219639,21.081236,71.31045,-12.594884,BSC
9416361377792.0,2.3646183013916016,-3.3378334045410156,-7.382436275482178,4.717838287353516,-0.8088440895080566,0.39920044,0.18967366,21.199375,71.51123,-12.528259,BSC
9416366620672.0,2.3696224689483643,-3.288672685623169,-7.422041416168213,4.644829273223877,-0.8187559247016907,0.3998113,0.16157386,21.321829,71.630486,-12.512453,BSC
9416371863552.0,2.374626636505127,-3.2391886711120605,-7.462454319000244,4.570835113525391,-0.8283174633979797,0.36285394,0.122478485,21.445309,71.72872,-12.490624,BSC
9416377106432.0,2.3796305656433105,-3.189453601837158,-7.503596782684326,4.495952606201172,-0.8374918103218079,0.3323107,0.099265605,21.574606,71.73013,-12.531491,BSC
9416382349312.0,2.384634494781494,-3.1395516395568848,-7.545384883880615,4.420290946960449,-0.846242368221283,0.30024028,0.08032878,21.694277,71.72768,-12.56007,BSC
9416387592192.0,2.3896381855010986,-3.089578151702881,-7.587730884552002,4.343971252441406,-0.8545331954956055,0.27305678,0.076358154,21.799738,71.63535,-12.642536,BSC
9416392835072.0,2.394641876220703,-3.0396385192871094,-7.630544185638428,4.267124176025391,-0.86232990026474,0.24312437,0.09865474,21.894444,71.54042,-12.724032,BSC
9416398077952.0,2.3996453285217285,-2.9898457527160645,-7.673733234405518,4.189889430999756,-0.8696002960205078,0.20219639,0.08582657,21.97936,71.36492,-12.850805,BSC
9416403320832.0,2.404648780822754,-2.940319299697876,-7.71720552444458,4.1124138832092285,-0.8763146996498108,0.16646078,0.087659165,22.05547300000001,71.18744000000002,-12.983992,BSC
9416408563712.0,2.4096519947052,-2.891181230545044,-7.760868549346924,4.034848690032959,-0.8824464678764343,0.13500121,0.07574729,22.12168,70.95486,-13.149242,BSC
9416413806592.0,2.4146549701690674,-2.8425545692443848,-7.804630279541016,3.9573471546173096,-0.8879722356796265,0.10903945,0.098043874,22.178434,70.72313,-13.318796,BSC
9416419049472.0,2.4196579456329346,-2.794560194015503,-7.848400115966797,3.8800621032714844,-0.8928720355033875,0.08002335,0.110872045,22.221598,70.467155,-13.495962,BSC
9416424292352.0,2.4246606826782227,-2.747314453125,-7.892089366912842,3.8031435012817383,-0.8971294164657593,0.062002823,0.13316862,22.260347,70.21217,-13.676397,BSC
9416429535232.0,2.4296634197235107,-2.7009270191192627,-7.935612201690674,3.726736545562744,-0.9007311463356018,0.055588737,0.15118915,22.271908,69.98513,-13.845066,BSC
9416434778112.0,2.4346659183502197,-2.6554996967315674,-7.978887557983398,3.6509792804718018,-0.9036670923233032,0.055283304000000005,0.18906279,22.279871,69.75848,-14.020108,BSC
9416440020992.0,2.4396684169769287,-2.6111247539520264,-8.021839141845703,3.576000928878784,-0.9059299826622009,0.058643065,0.22937989,22.286451223383693,69.56800298754911,-14.1689369849524,BSC
9416445263872.0,2.4446709156036377,-2.5678839683532715,-8.064398765563965,3.5019190311431885,-0.9075142741203308,0.09040806,0.30298916,22.299736,69.18345,-14.469407,BSC
9416450506752.0,2.4496734142303467,-2.525848150253296,-8.1065034866333,3.428837776184082,-0.9084154963493347,0.1142318,0.34238997,22.3108,68.99101,-14.619055,BSC
9416455749632.0,2.4546759128570557,-2.4850780963897705,-8.148100852966309,3.3568477630615234,-0.9086298942565918,0.14110987,0.3744604,22.335606,68.82423,-14.754620999999998,BSC
9416460992512.0,2.4596786499023438,-2.4456241130828857,-8.1891450881958,3.2860260009765625,-0.9081539511680603,0.1863139,0.40591997,22.370296,68.63813,-14.901414,BSC
9416466235392.0,2.46468186378479,-2.4075279235839844,-8.229598999023438,3.2164359092712402,-0.9069838523864746,0.22632557,0.43279803,22.423368,68.47010999999999,-15.044448999999998,BSC
9416471478272.0,2.4696855545043945,-2.370821952819824,-8.269432067871094,3.1481285095214844,-0.9051154851913452,0.26206118,0.45234573,22.486671,68.28381,-15.194767,BSC
9416476721152.0,2.4746897220611572,-2.3355307579040527,-8.308622360229492,3.081143379211426,-0.9025440812110901,0.29901853,0.4792238,22.570206,68.096115,-15.351632999999998,BSC
9416481964032.0,2.4796946048736572,-2.301671266555786,-8.347152709960938,3.0155105590820312,-0.8992641568183899,0.31795537,0.50426924,22.657503,67.891785,-15.51226,BSC
9416487206912.0,2.4847004413604736,-2.269254207611084,-8.385013580322266,2.9512524604797363,-0.8952695727348328,0.34208453,0.52931476,22.75685,67.67623,-15.678615,BSC
9416492449792.0,2.4897072315216064,-2.238284111022949,-8.422198295593262,2.888385057449341,-0.8905535936355591,0.35430184,0.54733527,22.85678,67.45154000000001,-15.847863,BSC
9416497692672.0,2.4947152137756348,-2.2087604999542236,-8.458704948425293,2.8269197940826416,-0.8851091265678406,0.36377025,0.56688297,22.962738,67.20676999999999,-16.023317000000002,BSC
9416502935552.0,2.4997243881225586,-2.180678129196167,-8.494535446166992,2.766864538192749,-0.8789289593696594,0.3472769,0.57726765,23.06396,66.95734,-16.197346,BSC
9416508178432.0,2.504734992980957,-2.1540274620056152,-8.529692649841309,2.7082254886627197,-0.8720061182975769,0.34147367,0.5900958000000001,23.169008,66.69874,-16.376213,BSC
9416513421312.0,2.50974702835083,-2.1287951469421387,-8.564181327819824,2.651007652282715,-0.8643342852592468,0.33108896,0.6010914,23.253735,66.41996,-16.553171,BSC
9416518664192.0,2.514760732650757,-2.1049647331237793,-8.598006248474121,2.5952160358428955,-0.855908215045929,0.3222314000000001,0.60994893,23.336262,66.14188,-16.729616,BSC
9416523907072.0,2.5197761058807373,-2.0825161933898926,-8.631171226501465,2.540856122970581,-0.8467240333557129,0.31612277,0.61544675,23.41319,65.859566,-16.906404000000002,BSC
9416529149952.0,2.5247931480407715,-2.061426877975464,-8.663680076599121,2.48793363571167,-0.8367794156074524,0.29229903,0.623388,23.481606,65.58178000000001,-17.080854000000002,BSC
9416534392832.0,2.5298118591308594,-2.0416717529296875,-8.695533752441406,2.4364547729492188,-0.826073944568634,0.28527406,0.63499445,23.52161,65.26669,-17.256083,BSC
9416539635712.0,2.53483247756958,-2.023223638534546,-8.726731300354004,2.3864262104034424,-0.814609169960022,0.27030787,0.64873886,23.551918,64.95758000000001,-17.427725,BSC
9416544878592.0,2.5398550033569336,-2.0060536861419678,-8.757267951965332,2.337855100631714,-0.8023888468742371,0.24801129,0.6722571999999999,23.564814,64.63537600000001,-17.602596,BSC
9416550121472.0,2.544879198074341,-1.9901316165924072,-8.78713607788086,2.290748119354248,-0.7894189357757568,0.2452624,0.6924158,23.578518,64.31895,-17.776897,BSC
9416555364352.0,2.549905300140381,-1.9754259586334229,-8.816324234008789,2.245112419128418,-0.7757078409194946,0.23823744,0.70646566,23.583645,64.00959,-17.949635999999995,BSC
9416560607232.0,2.5549333095550537,-1.961904525756836,-8.844819068908691,2.2009549140930176,-0.7612660527229309,0.2501493,0.71593404,23.59256,63.70114,-18.124193,BSC
9416565850112.0,2.5599632263183594,-1.949534296989441,-8.872603416442871,2.1582815647125244,-0.7461062073707581,0.24495697,0.74036866,23.581919,63.3542,-18.318714,BSC
9416571092992.0,2.564995050430298,-1.9382821321487427,-8.899657249450684,2.117097854614258,-0.730242908000946,0.23854288,0.76083267,23.574564,63.012238,-18.511217,BSC
9416576335872.0,2.57002854347229,-1.928114652633667,-8.925960540771484,2.0774080753326416,-0.7136926054954529,0.22907446,0.7874053000000001,23.553883,62.649834,-18.717424,BSC
9416581578752.0,2.575063943862915,-1.9189984798431396,-8.951489448547363,2.039215087890625,-0.6964734792709351,0.23151793,0.8081746999999999,23.534342,62.29614599999999,-18.923206,BSC
9416586821632.0,2.5801010131835938,-1.9109007120132446,-8.97622013092041,2.0025203227996826,-0.6786051988601685,0.24556783,0.8240572,23.510849,61.932724,-19.133755,BSC
9416592064512.0,2.5851399898529053,-1.903788685798645,-9.000128746032715,1.9673237800598145,-0.660108745098114,0.2565634,0.83291477,23.486948,61.57764,-19.34293,BSC
9416597307392.0,2.5901806354522705,-1.8976308107376099,-9.023191452026367,1.933624029159546,-0.6410061120986938,0.27947086,0.8356636999999999,23.470083,61.206585,-19.566647,BSC
9416602550272.0,2.5952229499816895,-1.8923964500427246,-9.045385360717773,1.9014182090759277,-0.6213202476501465,0.2947425,0.84635377,23.453613,60.841537,-19.789911,BSC
9416607793152.0,2.600266695022583,-1.8880563974380493,-9.066690444946289,1.8707019090652466,-0.6010748744010925,0.31887165,0.8539896,23.446539,60.45753000000001,-20.023342,BSC
9416613036032.0,2.6053121089935303,-1.8845829963684082,-9.087088584899902,1.8414692878723145,-0.5802944302558899,0.32986724,0.85918194,23.440186,60.077484,-20.253794,BSC
9416618278912.0,2.610358953475952,-1.8819504976272583,-9.106565475463867,1.8137133121490479,-0.5590038299560547,0.34605515,0.8613200000000001,23.44877,59.69074000000001,-20.494358,BSC
9416623521792.0,2.6154072284698486,-1.8801350593566895,-9.12510871887207,1.787426233291626,-0.5372284650802612,0.34238997,0.88117313,23.452965,59.30535,-20.73452,BSC
9416628764672.0,2.6204566955566406,-1.879115104675293,-9.14271068572998,1.762600302696228,-0.5149939656257629,0.34513888,0.8903360999999999,23.463427,58.91409300000001,-20.983448000000006,BSC
9416634007552.0,2.6255075931549072,-1.8788713216781616,-9.159367561340332,1.7392277717590332,-0.49232614040374756,0.3387248,0.90316427,23.46831700000001,58.52565799999999,-21.231441,BSC
9416639250432.0,2.6305596828460693,-1.8793869018554688,-9.175080299377441,1.7173017263412476,-0.46925088763237,0.32467487,0.91782504,23.462208,58.11926,-21.488148,BSC
9416644493312.0,2.635612726211548,-1.8806474208831787,-9.189851760864258,1.696815848350525,-0.445794016122818,0.2883284,0.93951076,23.446594,57.713135,-21.740536,BSC
9416649736192.0,2.640666961669922,-1.8826408386230469,-9.203688621520996,1.6777645349502563,-0.4219811260700226,0.27122417,0.95081174,23.42894200000001,57.293380000000006,-21.999598,BSC
9416654979072.0,2.6457221508026123,-1.8853572607040405,-9.216601371765137,1.6601428985595703,-0.39783748984336853,0.24801129,0.9804387,23.39553,56.87221,-22.257442,BSC
9416660221952.0,2.65077805519104,-1.8887883424758911,-9.22860050201416,1.6439461708068848,-0.37338799238204956,0.23060162,1.0079277,23.357233,56.4375,-22.521002,BSC
9416665464832.0,2.655834913253784,-1.8929263353347778,-9.239696502685547,1.6291697025299072,-0.34865719079971313,0.20647246,1.0366384,23.30798,56.00406,-22.781813,BSC
9416670707712.0,2.6608924865722656,-1.8977640867233276,-9.249898910522461,1.6158084869384766,-0.32366907596588135,0.18417588,1.0613784,23.245613,55.546062,-23.05487,BSC
9416675950592.0,2.6659507751464844,-1.9032946825027466,-9.259217262268066,1.6038576364517212,-0.2984471023082733,0.17470746,1.0830641,23.178469,55.095673,-23.325485,BSC
9416681193472.0,2.6710097789764404,-1.9095114469528198,-9.267659187316895,1.5933125019073486,-0.2730141878128052,0.16432275,1.0864239,23.091131,54.62761,-23.596407,BSC
9416686436352.0,2.6760692596435547,-1.9164080619812012,-9.275229454040527,1.5841692686080933,-0.24739275872707367,0.14080444,1.0864239,22.997267,54.16582,-23.861137,BSC
9416691679232.0,2.681129217147827,-1.923978328704834,-9.281932830810547,1.5764250755310059,-0.22160495817661285,0.12034045,1.0925325,22.889204,53.68847,-24.134344,BSC
9416696922112.0,2.686189651489258,-1.9322165250778198,-9.287771224975586,1.570077657699585,-0.19567276537418365,0.11148291,1.0980303,22.780659,53.22115,-24.39762,BSC
9416702164992.0,2.6912503242492676,-1.941117525100708,-9.292745590209961,1.5651257038116455,-0.16961801052093506,0.10262536,1.0965031,22.647022,52.73499,-24.657974,BSC
9416707407872.0,2.6963112354278564,-1.9506765604019165,-9.296854019165039,1.5615676641464233,-0.14346231520175934,0.11301007,1.0965031,22.518587,52.26387800000001,-24.91306,BSC
9416712650752.0,2.7013723850250244,-1.960889458656311,-9.300091743469238,1.5594018697738647,-0.11722713708877563,0.112399206,1.0965031,22.377037,51.768333,-25.179247,BSC
9416717893632.0,2.7064337730407715,-1.9717522859573364,-9.30245304107666,1.5586259365081787,-0.09093362092971802,0.122478485,1.0931433000000002,22.245632,51.2864,-25.438587,BSC
9416723136512.0,2.7114951610565186,-1.9832618236541748,-9.303929328918457,1.5592361688613892,-0.06460260599851608,0.118202426,1.1007791999999998,22.10028,50.78247,-25.714151,BSC
9416728379392.0,2.7165565490722656,-1.9954148530960083,-9.304510116577148,1.5612270832061768,-0.03825455904006958,0.13072516,1.1081096,21.966885,50.291946,-25.983456,BSC
9416733622272.0,2.7216179370880127,-2.008208751678467,-9.304183959960938,1.5645904541015625,-0.011909449473023415,0.13927728,1.1160508,21.827147,49.782803,-26.268549,BSC
9416738865152.0,2.7266790866851807,-2.0216407775878906,-9.302939414978027,1.5693156719207764,0.014413286931812763,0.13927728,1.1288790000000002,21.690851,49.29004000000001,-26.547564,BSC
9416744108032.0,2.7317399978637695,-2.0357086658477783,-9.300765037536621,1.5753899812698364,0.04069490730762482,0.13744467,1.1490375,21.562765,48.77668,-26.845348,BSC
9416749350912.0,2.7368006706237793,-2.050410509109497,-9.297651290893555,1.5827983617782593,0.0669175460934639,0.12583824,1.169807,21.433708,48.276497,-27.13526,BSC
9416754593792.0,2.74186110496521,-2.0657448768615723,-9.29358959197998,1.5915240049362183,0.09306424856185913,0.13500121,1.1814133999999998,21.301983,47.75831,-27.437597,BSC
9416759836672.0,2.7469213008880615,-2.081711769104004,-9.288573265075684,1.6015480756759644,0.11911901831626892,0.14294247,1.1896601,21.167828,47.24867,-27.73236,BSC
9416765079552.0,2.751981019973755,-2.0983128547668457,-9.282596588134766,1.6128501892089844,0.14506696164608002,0.16218472,1.1976013,21.033426,46.715225,-28.04777,BSC
9416770322432.0,2.757040500640869,-2.115551233291626,-9.275656700134277,1.6254081726074219,0.17089416086673737,0.19120082,1.1994339,20.907331,46.20129,-28.3567,BSC
9416775565312.0,2.762099504470825,-2.1334309577941895,-9.267751693725586,1.6391981840133667,0.19658774137496948,0.20891592,1.2061534,20.778423,45.651085,-28.698122,BSC
9416780808192.0,2.767157793045044,-2.151956796646118,-9.258878707885742,1.6541945934295654,0.22213585674762726,0.22876903,1.1866057,20.666454,45.122036,-29.028355,BSC
9416786051072.0,2.7722156047821045,-2.1711342334747314,-9.249034881591797,1.6703702211380005,0.24752771854400635,0.2593123,1.1881329,20.551897,44.56499,-29.393585,BSC
9416791293952.0,2.777272939682007,-2.190967559814453,-9.238216400146484,1.687696099281311,0.27275350689888,0.27702740000000003,1.2003502,20.444874,44.022247,-29.747015,BSC
9416796536832.0,2.782329559326172,-2.2114598751068115,-9.226419448852539,1.706141710281372,0.2978042662143707,0.2666427,1.2104294,20.32992,43.452423,-30.116087,BSC
9416801779712.0,2.7873857021331787,-2.2326114177703857,-9.213638305664062,1.725675106048584,0.32267215847969055,0.2510656,1.237613,20.216722,42.88821,-30.482468,BSC
9416807022592.0,2.7924411296844482,-2.2544186115264893,-9.199865341186523,1.7462637424468994,0.34735026955604553,0.23671028,1.2605205,20.09782,42.339737,-30.836857,BSC
9416812265472.0,2.7974958419799805,-2.276874303817749,-9.185091972351074,1.767876148223877,0.3718324303627014,0.19792034,1.2794572,19.96861,41.79813,-31.17831,BSC
9416817508352.0,2.8025498390197754,-2.299966812133789,-9.169309616088867,1.7904826402664185,0.39611315727233887,0.15393804,1.2944235,19.773483,41.207005,-31.514402,BSC
9416822751232.0,2.807603120803833,-2.323680877685547,-9.152510643005371,1.8140558004379272,0.4201875627040863,0.13927728,1.3301591,19.573307,40.6254,-31.846224,BSC
9416827994112.0,2.812655448913574,-2.3479981422424316,-9.134689331054688,1.838570475578308,0.4440513849258423,0.13683382,1.350623,19.37087,40.06074,-32.161235999999995,BSC
9416833236992.0,2.817707061767578,-2.3728973865509033,-9.115839004516602,1.8640034198760986,0.4677010774612427,0.14446963,1.3741413,19.103468,39.47828300000001,-32.4415,BSC
9416838479872.0,2.8227579593658447,-2.39835524559021,-9.095955848693848,1.8903330564498901,0.4911336302757263,0.13744467,1.3918563999999998,18.835955,38.912674,-32.71088,BSC
9416843722752.0,2.827808141708374,-2.4243459701538086,-9.075037002563477,1.917540192604065,0.5143466591835022,0.13744467,1.4410311000000002,18.531784,38.30922,-32.99726,BSC
9416847917056.0,2.832857370376587,-2.45084285736084,-9.053080558776855,1.945609211921692,0.537338376045227,0.10262536,1.5045611,18.21751,37.7181,-33.270990000000005,BSC
9416853159936.0,2.8379058837890625,-2.477818012237549,-9.030088424682617,1.9745280742645264,0.5601076483726501,0.061086524,1.5525141000000002,17.890554,37.13081,-33.535824,BSC
9416858402816.0,2.8429534435272217,-2.5052430629730225,-9.006067276000977,2.0042877197265625,0.5826537013053894,0.036651913,1.5613716,17.562002,36.55813,-33.79092,BSC
9416863645696.0,2.8480002880096436,-2.5330872535705566,-8.981024742126465,2.034883499145508,0.6049758791923523,0.02076942,1.557401,17.191670000000002,35.98051500000001,-34.01555,BSC
9416867840000.0,2.853046178817749,-2.5613162517547607,-8.954972267150879,2.066314220428467,0.627073347568512,-0.018325957,1.5406022,16.819426,35.424145,-34.219640000000005,BSC
9416873082880.0,2.858091354370117,-2.589892864227295,-8.9279146194458,2.0985844135284424,0.6489446759223938,-0.061391957,1.5601498,16.381065,34.81855,-34.416412,BSC
9416878325760.0,2.863135576248169,-2.6187784671783447,-8.8998441696167,2.1317055225372314,0.6705870628356934,-0.08582657,1.536326,15.963903,34.2622,-34.586566999999995,BSC
9416883568640.0,2.8681788444519043,-2.647934675216675,-8.870735168457031,2.165698528289795,0.6919952630996704,-0.13408493,1.3457361,15.500859,33.74628,-34.65079,BSC
9416887762944.0,2.8732213973999023,-2.6773266792297363,-8.840537071228027,2.2005958557128906,0.7131598591804504,-0.34605515,1.1316278999999998,15.020276,33.297886,-34.65823,BSC
9416893005824.0,2.878263235092163,-2.706926107406616,-8.809176445007324,2.236441135406494,0.7340661883354187,-0.56779927,1.0409144,14.424041,32.73958,-34.67026,BSC
9416898248704.0,2.8833041191101074,-2.736713171005249,-8.77656364440918,2.273287773132324,0.7546935677528381,-0.6808093000000001,0.9972375,13.857407,32.270004,-34.624435,BSC
9416903491584.0,2.8883440494537354,-2.766678810119629,-8.742597579956055,2.3111979961395264,0.7750149965286255,-0.6585127,0.90010995,13.224219,31.718721,-34.601852,BSC
9416908734464.0,2.893383264541626,-2.7968266010284424,-8.707171440124512,2.3502421379089355,0.7949968576431274,-0.5363397,0.7724390999999999,12.615989,31.233145,-34.561134,BSC
9416912928768.0,2.8984217643737793,-2.8271751403808594,-8.670177459716797,2.3904976844787598,0.8145990371704102,-0.39003745,0.6188064999999999,12.053237,30.76589,-34.56962,BSC
9416918171648.0,2.903459310531616,-2.857762575149536,-8.631510734558105,2.43204927444458,0.8337753415107727,-0.23671028,0.41172317,11.573111,30.377228,-34.57333,BSC
9416923414528.0,2.908496141433716,-2.8886497020721436,-8.591075897216797,2.474985361099243,0.8524740934371948,-0.12797627,0.14599679999999998,11.180356,30.035868,-34.618122,BSC
9416928657408.0,2.913532018661499,-2.9199211597442627,-8.548789978027344,2.5193939208984375,0.8706391453742981,-0.03940081,-0.13164146,10.878648,29.768276,-34.65295,BSC
9416932851712.0,2.918567180633545,-2.951683521270752,-8.504586219787598,2.565354585647583,0.888211190700531,0.0030543262,-0.3622431,10.687501,29.524618,-34.778538,BSC
9416938094592.0,2.9236013889312744,-2.984060525894165,-8.458415985107422,2.6129300594329834,0.905129611492157,0.1020145,-0.4373795,10.558643,29.3165,-34.909805,BSC
9416943337472.0,2.9286348819732666,-3.017186403274536,-8.41025161743164,2.6621603965759277,0.9213346838951111,0.21105394,-0.49663344,10.597984,29.14079000000001,-35.188313,BSC
9416948580352.0,2.9336676597595215,-3.0511999130249023,-8.360087394714355,2.7130589485168457,0.9367697834968567,0.29718593,-0.47708577,10.643731,28.954443,-35.46777700000001,BSC
9416952774656.0,2.93869948387146,-3.086237668991089,-8.307939529418945,2.765611410140991,0.9513834118843079,0.33078352,-0.4202753,10.812219,28.804083,-35.861244,BSC
9416958017536.0,2.943730592727661,-3.1224286556243896,-8.253843307495117,2.819777011871338,0.9651302099227905,0.29229903,-0.36346483,10.970119,28.636497,-36.240456,BSC
9416963260416.0,2.948760986328125,-3.1598892211914062,-8.197854042053223,2.875491142272949,0.9779713153839111,0.22266038,-0.3109304,11.181099,28.509317,-36.637363,BSC
9416968503296.0,2.9537904262542725,-3.198718786239624,-8.140044212341309,2.932669162750244,0.9898738861083984,0.13194689,-0.2733622000000001,11.36454,28.369726,-37.010117,BSC
9416972697600.0,2.9588191509246826,-3.2389965057373047,-8.080503463745117,2.9912092685699463,1.0008106231689453,0.014049901000000002,-0.23945917,11.528521,28.257202000000003,-37.32442,BSC
9416977940480.0,2.9638471603393555,-3.2807791233062744,-8.019335746765137,3.0509960651397705,1.0107591152191162,-0.093767814,-0.2049453,11.664554,28.149382,-37.614075,BSC
9416983183360.0,2.968874454498291,-3.324098825454712,-7.95665979385376,3.1119027137756348,1.0197008848190308,-0.16890424,-0.17318029999999998,11.753085,28.069033,-37.806187,BSC
9416988426240.0,2.9739010334014893,-3.368961811065674,-7.892603397369385,3.1737923622131348,1.0276216268539429,-0.20158553,-0.13469578,11.8182955,27.994556,-37.982773,BSC
9416992620544.0,2.97892689704895,-3.4153475761413574,-7.827304840087891,3.236520290374756,1.0345107316970825,-0.2049453,-0.092240654,11.844468,27.948322,-38.075783,BSC
9416997863424.0,2.983952045440674,-3.4632086753845215,-7.76090669631958,3.299936056137085,1.0403612852096558,-0.18295415,-0.05161811400000002,11.860783,27.903893,-38.16992,BSC
9417003106304.0,2.98897647857666,-3.512471914291382,-7.693554401397705,3.3638851642608643,1.0451701879501343,-0.15363261,-0.018325957,11.868936,27.911638,-38.196606,BSC
9417008349184.0,2.994000196456909,-3.5630404949188232,-7.625391006469727,3.4282116889953613,1.0489383935928345,-0.11575896,0.014049901000000002,11.872467,27.90925,-38.236248,BSC
9417013592064.0,2.999023199081421,-3.6147966384887695,-7.556554794311523,3.492760419845581,1.051671028137207,-0.063224554,0.056199603,11.849739,27.912266,-38.23481,BSC
9417018834944.0,3.0040457248687744,-3.667604923248291,-7.487174987792969,3.5573790073394775,1.053377389907837,-0.021380283,0.08246681,11.828355,27.906513,-38.242474,BSC
9417023029248.0,3.0090675354003906,-3.721315383911133,-7.4173712730407715,3.6219193935394287,1.054071068763733,0.032070424,0.11178834,11.758793,27.851711,-38.240116,BSC
9417028272128.0,3.0140886306762695,-3.7757670879364014,-7.347250938415527,3.6862401962280273,1.0537693500518799,0.05925392700000001,0.13622294,11.687507,27.790783,-38.244778,BSC
9417033515008.0,3.019109010696411,-3.8307905197143555,-7.276910781860352,3.7502079010009766,1.052493691444397,0.087659165,0.15118915,11.571679,27.655739,-38.255253,BSC
9417038757888.0,3.0241289138793945,-3.886209726333618,-7.206435203552246,3.8136990070343018,1.0502688884735107,0.10445796,0.17715092,11.452226,27.521414,-38.274338,BSC
9417042952192.0,3.0291481018066406,-3.941845178604126,-7.135899543762207,3.876600503921509,1.0471231937408447,0.11728613,0.20616703,11.307391,27.357937,-38.284607,BSC
9417048195072.0,3.0341668128967285,-3.9975156784057617,-7.065371036529541,3.938811779022217,1.0430876016616821,0.098043874,0.23060162,11.156568,27.195326,-38.293648,BSC
9417053437952.0,3.039184808731079,-4.053040981292725,-6.99491024017334,4.000245571136475,1.0381957292556763,0.04886922,0.25259277,10.962459,27.02275,-38.2655,BSC
9417058680832.0,3.0442023277282715,-4.108243942260742,-6.924575328826904,4.060826301574707,1.0324833393096924,-0.01282817,0.26206118,10.76148,26.85574,-38.230724,BSC
9417063923712.0,3.0492193698883057,-4.162954807281494,-6.854423999786377,4.120491981506348,1.0259877443313599,-0.06383542,0.28130344,10.525441,26.688745,-38.156998,BSC
9417068118016.0,3.0542359352111816,-4.217014789581299,-6.784515380859375,4.179190158843994,1.0187476873397827,-0.09315695,0.29718593,10.283392999999998,26.526802000000004,-38.074364,BSC
9417073360896.0,3.0592520236968994,-4.2702789306640625,-6.714912414550781,4.236877918243408,1.0108025074005127,-0.08979719,0.30970868,10.0316725,26.375309,-37.9742,BSC
9417078603776.0,3.064267635345459,-4.3226189613342285,-6.645681858062744,4.293519020080566,1.002192497253418,-0.083383106,0.30970868,9.778685,26.228434000000004,-37.86844,BSC
9417082798080.0,3.0692827701568604,-4.373923301696777,-6.5768961906433105,4.3490824699401855,0.9929580688476562,-0.0580322,0.29840767,9.534957,26.087488,-37.768166,BSC
