acc_x,acc_y,acc_z,gyro_x,gyro_y,gyro_z,label
0.0,0.0,0.0,0.0,-0.113926366,0.026572637000000003,1
0.004283910617232323,0.2870714068412781,-0.03092604875564575,-0.0006638887571170926,-0.10567969,0.0076358155,1
0.0163770392537117,0.9717336297035216,-0.10674828290939332,-0.001960640074685216,-0.06627888,-0.010079277,1
0.03608535602688789,1.9194755554199217,-0.2149707227945328,-0.002779040951281786,-0.047036625,-0.005192355,1
0.0619225837290287,2.9811336994171143,-0.3403378129005432,-0.003765296190977097,-0.04062254,0.00030543262000000003,1
0.09196336567401886,4.036576747894287,-0.4697619080543518,-0.004952041897922754,-0.0571159,0.017715093,1
0.12440919131040573,5.010234832763672,-0.5943639874458313,-0.0050120619125664225,-0.073303826,0.030543262,1
0.15794406831264496,5.866048336029053,-0.7094034552574158,-0.004587614443153143,-0.083383106,0.056199603,1
0.18537463247776031,6.595100402832031,-0.8050249218940735,-0.00419115461409092,-0.07360926,0.051618114000000014,1
0.2018294483423233,7.203702449798584,-0.8756917119026184,-0.006109562702476978,-0.028710667,0.043982297,1
0.208767831325531,7.705085754394531,-0.9245055913925172,-0.006560681387782097,0.03970624,0.02107485,1
0.20769041776657104,8.114650726318361,-0.9547953605651855,-0.007087587378919125,0.08002335,-0.010690141499999998,1
0.20018696784973145,8.447402000427246,-0.9699859023094176,-0.0073682782240211955,0.06597344599999999,-0.025045475,1
0.18738216161727905,8.716843605041504,-0.9727244973182678,-0.007422160357236862,0.058337633,-0.032986723,1
0.1703009158372879,8.93458080291748,-0.9653692245483398,-0.014213029295206068,0.045814894,-0.04337143,1
0.14971110224723816,9.110346794128418,-0.9497674107551576,-0.024445759132504463,0.01740966,-0.03604105,1
0.12644095718860626,9.252159118652344,-0.9277188777923584,-0.03142127767205238,0.003970624,-0.018020526,1
0.10094530135393144,9.36658000946045,-0.9003798365592957,-0.033278558403253555,0.00580322,0.012217305,1
0.08221723139286041,9.459749221801758,-0.8821261525154114,-0.028691388666629788,0.006414085,0.0290161,1
0.0761912614107132,9.536504745483398,-0.8824981451034546,-0.021940961480140686,0.01038471,0.029626964,1
0.08039134740829468,9.60006332397461,-0.8978671431541443,-0.01745428517460823,-0.024740042,0.013133603,1
0.09278830885887146,9.653008460998537,-0.9252524971961976,-0.013319473713636398,-0.038179077,-0.0015271631,1
0.11178965121507643,9.697427749633787,-0.9623231887817384,-0.00693465443328023,-0.00061086525,-0.01160644,1
0.1360919326543808,9.734992980957033,-1.0071663856506348,0.0020228149369359016,0.0012217305,-0.0018325958,1
0.1646403819322586,9.767050743103027,-1.0582331418991089,0.009809029288589954,0.022907447,0.028099801,1
0.1966211497783661,9.79468822479248,-1.1143348217010498,0.016775427386164662,0.063224554,0.042760565999999986,1
0.23133060336112976,9.818767547607422,-1.1744332313537598,0.015440041199326515,0.04917465,0.038789943,1
0.2682596445083618,9.839994430541992,-1.2377885580062866,0.009726318530738355,0.008246681,0.05100725,1
0.3073604106903076,9.855372428894043,-1.2952135801315308,0.012396534904837608,-0.007941248,0.06597344599999999,1
0.3483007848262787,9.86305332183838,-1.3404073715209959,0.020772609859704968,-0.016493361,0.07238753,1
0.3908276259899139,9.864498138427734,-1.375765323638916,0.03217275813221932,-0.028405234,0.06719518,1
0.4346341788768768,9.860928535461426,-1.4032217264175415,0.04633374884724617,-0.02107485,0.06688975,1
0.4794132709503174,9.853361129760742,-1.4243364334106443,0.05876123160123825,0.004581489,0.04428773,1
0.5250117778778076,9.842561721801758,-1.4403533935546875,0.06704643368721007,0.022602014,0.023823744,1
0.5712627768516539,9.829171180725098,-1.4522758722305298,0.07146614789962769,-0.002443461,0.005497787,1
0.6180676221847534,9.813682556152344,-1.4609065055847168,0.07103881239891052,-0.015271631,-0.01282817,1
0.6652637720108032,9.79653549194336,-1.4668983221054075,0.06424709409475328,-0.03848451,-0.011911872,1
0.7127885222434998,9.77804946899414,-1.4707688093185425,0.0623701773583889,-0.11026118,0.011301007,1
0.7542835474014282,9.728520393371582,-1.4631516933441162,0.06442885845899582,-0.099265605,0.017715093,1
0.7857441306114197,9.629603385925293,-1.438320517539978,0.06551408022642136,0.0033597588,0.017104227,1
0.8091446161270142,9.491025924682617,-1.399665355682373,0.07450000196695328,0.036957346,0.03756821,1
0.8260661959648132,9.320448875427246,-1.349860906600952,0.08676347881555557,0.0009162979,0.04062254,1
0.8377785682678223,9.12401008605957,-1.2910512685775757,0.11022495478391647,-0.06414085,0.09682214,1
0.8453092575073242,8.906888961791992,-1.2250360250473022,0.14556162059307098,-0.1160644,0.13500121,1
0.8494707345962524,8.672826766967772,-1.1531304121017456,0.17552392184734344,-0.06719518,0.17470746,1
0.8509530425071716,8.426022529602049,-1.0767662525177002,0.20736397802829745,-0.064751714,0.2968805,1
0.8502705693244934,8.168578147888184,-0.9966930150985718,0.2581197023391724,-0.06566802,0.4297437,1
0.8478228449821472,7.901756286621094,-0.9133774638175964,0.3137990236282349,-0.09712757,0.5180137,1
0.841048002243042,7.699293613433838,-0.8754037618637085,0.3538157939910889,-0.005192355,0.5714644,1
0.8278657793998718,7.617648601531982,-0.9206023812294006,0.36375847458839417,0.5448918,0.6789767,1
0.8095024228096008,7.633413314819336,-1.0329477787017822,0.3440578281879425,0.6417139000000001,0.70371675,1
0.7869769334793091,7.72742748260498,-1.1992323398590088,0.3444665968418121,0.37904188,0.77732605,0
0.7611281871795654,7.884085178375244,-1.408647537231445,0.3713189661502838,-0.17837265,0.8051204000000001,0
0.732601523399353,8.091152191162111,-1.652791976928711,0.43841698765754705,-0.5534439,0.9108001,0
0.7019088864326477,8.338868141174316,-1.924978733062744,0.4810343980789185,-0.27458394,0.79076505,0
0.6694905161857605,8.619087219238281,-2.219553232192993,0.4321631193161011,0.22693644,0.569021,0
0.6356979012489319,8.92529010772705,-2.5319933891296387,0.39017707109451294,0.77824235,0.41386122,0
0.6008175015449524,9.252196311950684,-2.8586270809173584,0.4181089699268341,0.6630941999999999,0.33383787,0
0.8353332877159119,9.497905731201172,-3.097019672393799,0.5113570094108582,0.06841691,0.36896262,0
1.558156132698059,9.677848815917967,-3.076815128326416,0.5889194011688232,-0.49938235,0.49602258,0
2.174292802810669,9.86468505859375,-2.774031162261963,0.5513163805007935,-0.27488935,0.31826079999999995,0
2.32448148727417,9.90757656097412,-2.6463947296142583,0.4114759862422943,0.18081611,0.20280726,0
2.2196331024169917,9.841644287109377,-3.03516149520874,0.28988736867904663,0.30176744,0.08093964,0
2.3468575477600098,9.836183547973633,-3.3888461589813232,0.2640172243118286,-0.18784106,0.025961773,0
2.6553895473480225,9.865638732910156,-3.4362785816192627,0.2929654717445373,-0.43554693,-0.03390302,0
2.922186851501465,9.794885635375977,-3.248076915740967,0.2408758252859116,0.079107046,-0.14966199,0
3.0543646812438965,9.619407653808594,-3.081293821334839,0.11323358863592148,0.35246924,-0.16187929,0
3.1675338745117188,9.38559341430664,-3.1483185291290283,-0.004469648003578186,0.25442538,-0.11301007,0
3.349217414855957,9.163734436035156,-3.2707440853118896,-0.07567133754491806,-0.17287487,-0.03176499,0
3.457489013671875,8.938157081604004,-3.3057901859283447,-0.1379033774137497,-0.31123585,-0.099571034,0
3.41153883934021,8.640652656555176,-3.289909839630127,-0.2263678461313248,-0.18570304,-0.1957823,0
3.2402572631835938,8.289867401123049,-3.379725694656372,-0.2724158465862274,0.048258353,-0.258396,0
3.145716667175293,7.991340160369872,-3.5494143962860107,-0.23785208165645602,0.07788532,-0.23823744,0
3.15454363822937,7.730616569519043,-3.653578042984009,-0.16480599343776706,0.0842994,-0.20861048,0
3.1641077995300293,7.333168029785156,-3.3907172679901123,-0.10638586431741713,-0.0290161,-0.23335053,0
3.0676670074462886,6.84188985824585,-2.785399436950684,-0.07859516888856888,-0.119729586,-0.31398472,0
2.821584463119507,6.270328044891357,-2.1251699924468994,-0.12125257402658465,-0.06811147,-0.5152648,0
2.402846336364746,5.675331592559815,-1.7668105363845823,-0.2511501610279083,0.10354166,-0.7284568,0
1.8361936807632449,5.179559707641602,-1.7485769987106323,-0.4003009796142578,0.28893927,-1.0360274,0
1.280095100402832,4.854118347167969,-2.037984132766724,-0.5544962286949158,0.5491679,-1.4776831,0
1.8459020853042605,5.34870719909668,-3.5306437015533447,-0.694318950176239,2.6548204,-0.65240407,0
3.2038919925689697,7.3047118186950675,-2.743637800216675,-0.3334851562976837,10.002308,3.1316006,0
0.5678015947341919,7.834035873413086,-0.8816199302673341,-0.6904801726341248,0.25992316,-2.2583687,0
-1.8009130954742432,6.854756832122803,-1.5411057472229004,-1.1229870319366455,3.8563924,-3.687488,0
-1.4543242454528809,6.106181144714356,-3.5112829208374023,-1.3703470230102541,3.887241,-3.3887749,0
0.5182151794433594,5.588274955749512,-3.870046138763428,-1.3946566581726074,0.84849185,-2.930015,0
1.686858892440796,4.6574225425720215,-2.864765167236328,-1.359373688697815,0.03756821,-2.8228083,0
1.2559757232666016,3.360503673553467,-1.376739501953125,-1.4808666706085205,-0.40194935,-3.2388074,0
0.3531839251518249,2.182974338531494,-0.6418664455413818,-1.7180824279785156,-0.95356065,-3.26874,0
-0.03164729103446007,1.7835508584976196,-0.6053417325019836,-1.7356866598129272,-1.8298469,-2.331978,0
0.29001766443252563,1.8454707860946653,-1.2147541046142578,-1.3504914045333862,-0.54092115,-1.9205604,0
0.8400703072547913,1.8206845521926882,-0.9948135614395142,-1.0902011394500732,-0.11056661,-1.8591684,0
1.2179292440414429,2.3981118202209477,0.01275700144469738,-1.110639572143555,-0.8249735,-1.4495832,0
1.3499583005905151,4.149679660797118,0.9195138812065125,-1.2038521766662598,-1.8658879,-0.5510005,0
0.303706169128418,6.731460094451903,1.4361082315444946,-1.2406399250030518,0.31826079999999995,-1.4584408000000002,0
-1.3426696062088013,8.603382110595701,1.2490617036819458,-1.3526238203048706,1.4504995,-2.5470026000000003,0
-2.44081449508667,8.961793899536133,0.8789780139923096,-1.3613030910491943,0.47219884,-2.5185974,0
-3.2394540309906006,8.865598678588867,0.6788756847381592,-1.325421929359436,0.3753767,-2.6407704,0
-3.723442077636719,8.474937438964844,0.7371153235435486,-1.2739423513412476,0.35918877,-2.521041,0
-3.827443838119507,7.783244609832764,0.9316632747650146,-1.3083516359329224,0.037873644,-2.3289237000000003,0
-3.433757781982422,7.050493717193604,0.9154502749443054,-1.4208468198776243,-0.07422013,-2.1591032,0
-2.740029811859131,6.6619505882263175,0.9255094528198242,-1.5539674758911133,-0.23182335,-2.039679,0
-2.508009433746338,6.307380676269531,1.1360175609588623,-1.6396719217300415,-0.4120286,-2.1239784,0
-3.048753023147583,6.238455772399902,1.6955995559692385,-1.630059003829956,-1.3347405,-2.033876,0
-4.454874515533447,6.539854049682617,2.042952299118042,-1.561417818069458,-1.8774943,-2.0857995,0
-6.07571268081665,6.283859729766847,1.9530076980590818,-1.5887961387634275,-0.07086037,-1.9908098,0
-7.180471420288086,4.81758451461792,2.4199423789978027,-1.7316534519195557,0.6621779000000001,-1.8781052,0
-8.160900115966799,2.3173787593841557,3.1811892986297607,-1.8157608509063718,-0.80909103,-2.4248295,0
-8.643477439880371,0.17025533318519592,3.8018293380737305,-1.7114505767822266,-0.8335256,-2.266921,0
-8.445869445800781,-0.8619515299797058,4.454482078552246,-1.5970193147659302,-0.9822713,-1.8695531000000003,0
-7.717789649963379,-0.8667570352554321,4.921510696411133,-1.5196350812911987,-0.88422745,-1.3429873,0
-6.978056907653809,-0.4867328703403473,5.7818665504455575,-1.428414225578308,-1.9089539,-0.71776664,0
-7.427367687225343,-0.04047480970621109,7.581562042236327,-1.359326720237732,-2.5778513,-0.7996226,0
-9.250872611999512,-0.05345229431986809,9.128632545471193,-1.3070191144943235,2.489276,0.08704830000000001,0
-10.981766700744627,-1.166781663894653,8.242194175720215,-1.0753512382507324,3.9358048,0.6973026999999999,0
-11.455057144165039,-2.6981570720672607,7.612870693206787,-0.8599602580070496,2.5466971000000003,-0.58459806,0
-10.155704498291016,-3.0820860862731934,8.173459053039549,-0.716225802898407,-0.3109304,-0.59437186,0
-7.653468608856201,-1.99097752571106,8.05747127532959,-0.4975542724132538,-1.3530666,0.23579398,0
-5.9218292236328125,-0.6581384539604187,6.986758232116699,-0.2137182056903839,-0.2883284,1.0033462,0
-5.554208278656006,0.1885996013879776,5.983723640441895,-0.11346356570720673,0.081855945,1.039998,0
-6.354976177215576,0.39886313676834106,5.6584649085998535,-0.0572998933494091,-0.57787853,0.7012733,0
-7.697999954223633,0.13651984930038452,5.843593120574951,-0.0035358616150915627,-1.0958921999999998,0.1518,0
-8.743852615356445,-0.04845074936747551,6.041453361511231,-0.03366819024085998,-0.42821655,-0.077579886,0
-9.270121574401855,0.11131205409765244,5.825457572937013,-0.08147230744361877,0.36835176,0.019547688,0
-9.42278289794922,0.4422404766082764,5.467401027679443,-0.061718448996543884,0.7351763000000001,0.1328632,0
-9.22714900970459,0.7138939499855042,5.291074752807617,-0.07361359149217606,0.4810564000000001,0.204029,0
-8.856986045837402,0.8026710152626038,5.279199600219727,-0.09315815567970276,-0.3585779000000001,0.1695151,0
-8.484237670898438,0.7929965853691101,5.4178080558776855,-0.08301316946744919,-1.0167851,0.20005837,0
-8.272047996520996,0.7748003602027893,5.459000110626222,-0.035372037440538406,-0.65057147,0.09865474,0
-8.204286575317383,0.8729418516159058,5.583144187927246,0.029240811243653294,-0.12217305,-0.00061086525,0
-8.155342102050781,1.1589064598083496,5.666536808013916,0.08949729800224304,0.5897904,-0.09468412,0
-7.988538265228271,1.4789514541625977,5.734873294830322,0.045657996088266366,0.64904433,0.043676864,0
-7.8008384704589835,1.6227970123291016,5.732276439666747,-0.07265720516443253,-0.14844026,0.1151481,0
-7.728006362915039,1.5636850595474243,5.655842304229736,-0.1476493924856186,-0.35430184,0.11178834,0
-7.83621883392334,1.3647490739822388,5.580223083496094,-0.16391390562057495,-0.07269296,-0.045814894,0
-7.96335506439209,1.1972719430923462,5.467529773712158,-0.14713393151760099,0.21105394,-0.13255776,0
-8.042122840881348,1.0985193252563477,5.373418807983398,-0.11737990379333495,0.08155051,-0.12858713,0
-8.023344993591309,1.0498205423355105,5.339244842529297,-0.10257948189973833,-0.077579886,-0.025045475,0
-7.899999141693115,1.0379503965377808,5.35711145401001,-0.1090991273522377,-0.19486602,0.08857546,0
-7.7919859886169425,1.0120359659194946,5.41221809387207,-0.1117476373910904,-0.20555615,0.12370021,0
-7.754605293273926,0.9951007962226868,5.46610689163208,-0.10210087150335312,-0.04795292,0.094989546,0
-7.790543079376222,1.0098609924316406,5.483275413513184,-0.08792426437139511,0.14874569,0.016798794,10
-7.808463096618652,1.0517967939376829,5.493576049804688,-0.07154548168182373,0.106901415,-0.021685716,10
-7.796401023864746,1.0788259506225586,5.49846076965332,-0.05547184869647026,0.07269296,-0.04428773,10
-7.790566444396973,1.0696572065353394,5.4939680099487305,-0.04717236757278442,0.055283304000000005,-0.03970624,10
-7.789999961853027,1.0283597707748413,5.488158702850342,-0.046222928911447525,-0.002443461,0.010690141499999998,10
-7.798177242279053,0.978061318397522,5.483786582946777,-0.044422678649425514,-0.06505715,0.03481932,10
-7.813656806945801,0.959849178791046,5.465738773345947,-0.03598009049892425,-0.05467244,0.05222898,10
-7.840750694274902,0.9793005585670472,5.447568416595459,-0.027312953025102612,-0.013439035,0.043982297,10
-7.867826461791992,1.010167360305786,5.4338483810424805,-0.020672600716352463,-0.009773844,0.023823744,10
-7.884522438049316,1.0410720109939575,5.418878078460693,-0.015931215137243267,-0.04917465,-0.00030543262000000003,10
-7.888962268829347,1.073618769645691,5.404648780822754,-0.009541802108287813,-0.0580322,-0.01740966,10
-7.887047290802003,1.1061195135116575,5.415860652923584,-0.0008792048902250826,-0.040317107000000005,-0.018020526,10
-7.89266300201416,1.129430890083313,5.459624767303467,0.003067524172365665,-0.04062254,-0.032986723,10
-7.883471965789795,1.1290603876113892,5.484451770782472,0.0005724435904994607,-0.046120327,-0.02321288,10
-7.85453462600708,1.1135895252227783,5.484759330749512,-0.0024667135439813137,-0.06078109,-0.015271631,10
-7.824195384979247,1.0959610939025881,5.491328239440918,-0.006926769856363535,-0.056505036,-0.0018325958,10
-7.7960991859436035,1.0783311128616333,5.500248908996582,-0.011842911131680012,-0.070249505,0.0027488936,10
-7.770648002624513,1.0646693706512451,5.520811557769775,-0.011989165097475052,-0.0842994,0.0061086523,10
-7.751527309417725,1.057597517967224,5.539370059967041,-0.007318995427340269,-0.096516706,0.005497787,10
-7.7381343841552725,1.052454113960266,5.550246238708496,-0.0011858423240482807,-0.06383542,0.0067195175,10
-7.735344886779785,1.0537556409835815,5.550652027130127,0.003229411551728845,-0.0021380284,0.0027488936,10
-7.736048698425293,1.051651120185852,5.547799110412598,-3.3477455872343846e-05,0.034208454,0.002443461,10
-7.721447467803955,1.0508801937103271,5.559765338897705,-0.005733550526201725,-0.0021380284,-0.0030543262,10
-7.686711311340332,1.0489763021469116,5.584687232971191,-0.007173469755798578,-0.014660766,0.006414085,10
-7.645756244659424,1.0561133623123171,5.602444648742676,-0.004474794026464224,-0.002443461,0.024740042,10
-7.622777462005615,1.0694515705108645,5.617024421691895,-0.0013149359729140995,-0.013439035,0.013439035,10
-7.621275901794434,1.0920294523239136,5.622190952301025,-0.0029601296409964557,0.0033597588,0.0015271631,10
-7.6390862464904785,1.1054795980453491,5.6097373962402335,-0.005821506027132273,0.0290161,-0.0076358155,10
-7.667806625366211,1.1025971174240112,5.588366508483887,-0.00792110525071621,0.070554934,-0.021685716,10
-7.704390525817871,1.0932550430297852,5.568470001220703,-0.009636025875806808,0.06658431,-0.01282817,10
-7.736183166503906,1.0772421360015871,5.553497791290283,-0.013618534430861471,0.020463986,-0.015271631,10
-7.734667778015138,1.0630369186401367,5.550365924835205,-0.013001441024243832,-0.006414085,-0.004276057,10
-7.7273597717285165,1.0597059726715088,5.551628112792969,-0.01045704260468483,-0.009162978,0.0070249503,10
-7.725036144256593,1.0590778589248655,5.5602545738220215,-0.00995774194598198,-0.03268129,0.0033597588,10
-7.733630657196045,1.0553157329559326,5.559178352355957,-0.00982240866869688,-0.020463986,0.015271631,10
-7.748332500457764,1.0540145635604858,5.547291278839111,-0.01063656248152256,0.03573562,0.004581489,10
-7.747909069061278,1.0510543584823608,5.544061183929443,-0.01069506723433733,0.03145956,-0.0009162979,10
-7.735598564147949,1.052035570144653,5.557606220245361,-0.012387382797896862,-0.010079277,-0.0033597588,10
-7.7351341247558585,1.0512781143188477,5.565201759338379,-0.0122219854965806,-0.02687807,-0.002443461,10
-7.750483989715576,1.053797721862793,5.565899848937988,-0.009626423940062523,-0.0030543262,0.005192355,10
-7.758998394012451,1.0538166761398315,5.561963081359863,-0.009618335403501987,-0.0009162979,-0.009468411,10
-7.755037784576416,1.0449621677398682,5.549562454223633,-0.009634108282625677,-0.0070249503,-0.009162978,10
-7.746145725250244,1.0337357521057131,5.542574405670166,-0.00805795006453991,-0.007330383,-0.0012217305,10
-7.7381534576416025,1.0276261568069458,5.546065330505371,-0.004807126708328724,-0.032070424,0.006414085,10
-7.7342705726623535,1.022525191307068,5.5520195960998535,-0.002174753695726395,-0.018020526,0.008552114,10
-7.728945732116699,1.0259695053100586,5.5564398765563965,-0.0032546278089284893,-0.00030543262000000003,0.008857545999999999,10
-7.720291137695312,1.0286349058151243,5.5506553649902335,-0.0053865951485931865,-0.011301007,-0.0021380284,10
-7.7200379371643075,1.0249675512313845,5.543057918548584,-0.0067297141067683705,-0.0015271631,0.0076358155,10
-7.73194694519043,1.0206779241561892,5.541176795959473,-0.0071513867005705825,0.0070249503,0.005497787,10
-7.745555400848389,1.0241150856018066,5.540774345397949,-0.008865410462021828,-0.009162978,0.0033597588,10
-7.742247104644775,1.030996322631836,5.538194179534912,-0.009853455238044262,-0.029626964,-0.0015271631,10
-7.730473518371582,1.0401051044464111,5.543339729309082,-0.007966501638293266,-0.018936822,0.004276057,10
-7.731983661651611,1.0504101514816284,5.5557637214660645,-0.007925397716462612,-0.022296581,-0.0027488936,10
-7.733327388763428,1.0565087795257568,5.571244239807129,-0.009494437836110592,-0.022907447,0.0012217305,10
-7.729828834533691,1.0565179586410522,5.578551292419434,-0.011242159642279148,0.0015271631,-0.0009162979,10
-7.715028762817383,1.0539436340332031,5.572852611541748,-0.01174667477607727,0.010079277,0.0033597588,10
-7.7021546363830575,1.0488438606262207,5.579639911651611,-0.010894767940044405,-0.004581489,0.00580322,10
-7.707001686096191,1.043560028076172,5.5863037109375,-0.011139119043946266,-0.004581489,-0.00030543262000000003,10
-7.7182674407958975,1.0392836332321167,5.58226203918457,-0.011830021627247334,0.008552114,-0.0021380284,10
-7.720201015472412,1.0373411178588867,5.574925899505615,-0.012586780823767185,-0.0076358155,0.007941248,10
-7.721468448638916,1.0330426692962646,5.5704002380371085,-0.011529170908033848,-0.03023783,0.00061086525,10
-7.727149486541747,1.0254594087600708,5.566503047943115,-0.01160811074078083,-0.013439035,-0.0030543262,10
-7.728301048278809,1.013707160949707,5.558196544647217,-0.011349430307745934,-0.012217305,-0.0015271631,10
-7.722330093383789,1.0088906288146973,5.5519137382507315,-0.012728075496852398,-0.016798794,-0.0061086523,10
-7.694984436035156,1.01449716091156,5.562485694885254,-0.012948315590620041,-0.05222898,0.00061086525,10
-7.671515941619872,1.0222904682159424,5.5788307189941415,-0.011976120993494987,-0.05925392700000001,-0.00030543262000000003,10
-7.670999526977539,1.0352798700332642,5.595167636871338,-0.012640751898288729,-0.01863139,0.00061086525,10
-7.6925392150878915,1.0410722494125366,5.598021984100342,-0.016958434134721756,0.01985312,-0.006414085,10
-7.709925651550293,1.0316905975341797,5.584024906158447,-0.021217364817857742,0.02076942,-0.0067195175,10
-7.7103447914123535,1.0065717697143557,5.571252822875977,-0.021469594910740845,0.004276057,-0.004886922,10
-7.7058773040771475,0.9836752414703368,5.5653653144836435,-0.016509266570210457,-0.013744468,0.008246681,10
-7.70711612701416,0.982344090938568,5.5737953186035165,-0.011611949652433395,-0.03634648,0.0070249503,10
-7.706804275512695,0.988897144794464,5.58238697052002,-0.009983903728425505,-0.035124752999999995,0.006414085,10
-7.704233646392822,0.9947083592414856,5.58453369140625,-0.009955299086868765,-0.014966198,0.012217305,10
-7.706545352935791,1.001251459121704,5.593247890472412,-0.009668714366853235,-0.004886922,0.01160644,10
-7.70618200302124,1.0042431354522705,5.602135181427002,-0.01136951055377722,-0.01160644,0.014660766,10
-7.70619535446167,1.0066109895706177,5.604683876037598,-0.013903758488595486,-0.01038471,0.012217305,10
-7.704573631286621,1.0132652521133425,5.609394073486328,-0.01380348578095436,0.0018325958,0.0018325958,10
-7.701401233673097,1.0175058841705322,5.61299991607666,-0.012922978028655052,-0.0076358155,0.0012217305,10
-7.697554111480713,1.0163496732711792,5.618534564971924,-0.012669885531067848,-0.01038471,-0.0009162979,10
-7.693337917327881,1.0135595798492432,5.621461868286133,-0.012819861993193626,-0.013133603,-0.00030543262000000003,10
-7.692798614501952,1.0098395347595217,5.623155117034912,-0.013216350227594377,-0.0070249503,-0.0012217305,10
-7.692296028137207,1.0090304613113403,5.6284942626953125,-0.014136706478893757,-0.004276057,0.0021380284,10
-7.6815853118896475,1.0084127187728882,5.637819766998291,-0.013698085211217405,-0.013439035,-0.0070249503,10
-7.669727325439452,1.0005778074264526,5.632199764251709,-0.01210022997111082,-0.0030543262,0.0018325958,10
-7.66777753829956,0.9963060021400452,5.628711700439453,-0.011083903722465038,0.007941248,-0.005497787,10
-7.670358180999756,0.9890565276145936,5.634600162506104,-0.009561771526932716,-0.017104227,0.00061086525,10
-7.675203800201416,0.984923541545868,5.628047466278076,-0.009960213676095007,-0.007941248,0.004581489,10
-7.686297416687013,0.9855220317840576,5.62362003326416,-0.009259114041924477,0.005192355,0.008857545999999999,10
-7.6969852447509775,0.989531934261322,5.624481201171875,-0.009608411230146885,0.0076358155,0.009468411,10
-7.702230453491211,0.9947940707206726,5.626161098480225,-0.009771114215254784,-0.017104227,0.003970624,10
-7.705722332000732,0.9932965636253356,5.62257194519043,-0.00980567280203104,-0.026572637000000003,0.0076358155,10
-7.7003846168518075,0.9919654726982116,5.614669322967528,-0.008530355058610441,-0.018325957,0.006414085,10
-7.691658020019531,0.996482253074646,5.606444835662842,-0.007867115549743177,-0.007330383,0.002443461,10
-7.6725831031799325,1.0060616731643677,5.602327346801758,-0.008151278831064701,-0.016798794,-0.0036651916,10
-7.6558475494384775,1.0151474475860596,5.610922813415527,-0.00975653063505888,-0.01985312,-0.005497787,10
-7.6465110778808585,1.0238430500030518,5.6270179748535165,-0.012100386433303356,-0.013439035,-0.005497787,10
-7.65201997756958,1.025821328163147,5.631828784942628,-0.013674271292984486,0.0027488936,-0.004581489,10
-7.655270099639893,1.017711162567139,5.631446361541747,-0.014168317429721355,0.013439035,-0.010690141499999998,10
-7.653972148895264,0.9968053698539734,5.628532886505127,-0.013237733393907549,0.008552114,0.00030543262000000003,10
-7.654066562652588,0.9782931804656982,5.62222146987915,-0.011120429262518884,0.0015271631,0.002443461,10
-7.661778926849365,0.966649293899536,5.621735095977783,-0.008049266412854195,-0.030848695,0.01038471,10
-7.676949501037598,0.964923858642578,5.620260715484619,-0.00435774028301239,-0.028405234,0.017715093,10
-7.685171127319336,0.9620748162269592,5.613615989685059,-0.0016167882131412625,-0.00580322,0.0125227375,10
-7.690298080444336,0.960872769355774,5.609138011932373,-0.0008282394846901298,0.0021380284,0.0143553335,10
-7.685175895690918,0.9693665504455566,5.613088607788086,-0.0019493588479235766,-0.026572637000000003,0.004276057,10
-7.679399013519287,0.974485158920288,5.618464469909668,-0.004116497002542019,-0.03145956,-0.004276057,10
-7.67963171005249,0.9806140661239624,5.61973237991333,-0.004869265016168356,-0.014049901000000002,0.009468411,10
-7.680331707000732,0.9840901494026184,5.61305046081543,-0.005149518605321646,-0.012217305,0.0021380284,10
-7.679443836212157,0.9861978888511658,5.620713233947754,-0.007071576081216334,-0.03145956,0.0027488936,10
-7.680934429168701,0.9834567308425904,5.627521991729736,-0.009507916867733002,-0.0125227375,0.007330383,10
-7.68271017074585,0.9741031527519226,5.621371269226074,-0.010582161135971546,-0.00030543262000000003,0.0030543262,10
-7.673539161682129,0.9706813097000122,5.626774787902832,-0.0095179732888937,-0.010995574,-0.0021380284,10
-7.655331134796143,0.9709599018096924,5.641866207122803,-0.009931103326380251,-0.003970624,0.004581489,10
-7.639161109924316,0.9685295820236206,5.647876739501952,-0.010479527525603771,0.0125227375,0.004886922,10
-7.634251117706299,0.965464174747467,5.647817134857178,-0.012415650300681593,0.018325957,0.004581489,10
-7.639736652374268,0.9652103781700134,5.6439456939697275,-0.012968746013939379,0.005497787,0.011301007,10
-7.650876522064209,0.9617863893508912,5.640998840332031,-0.011584403924643992,0.0030543262,0.0009162979,10
-7.661488056182861,0.9626277685165404,5.628395080566406,-0.010226914659142494,0.016187929,0.01038471,10
-7.666134834289551,0.9659207463264464,5.6228981018066415,-0.00942497979849577,0.006414085,0.009468411,10
-7.66615104675293,0.9729247689247132,5.620973110198975,-0.009071494452655315,-0.012217305,-0.00030543262000000003,10
-7.672108173370361,0.9778974652290344,5.623375415802002,-0.009100374765694141,-0.013133603,0.0030543262,10
-7.684339046478271,0.976548194885254,5.6168861389160165,-0.00882278848439455,0.008246681,0.005192355,10
-7.692379474639893,0.9767760634422302,5.606950283050537,-0.007831730879843235,0.0009162979,0.010690141499999998,10
-7.689475059509277,0.982063055038452,5.597220420837402,-0.007121229078620672,0.004581489,0.0012217305,10
-7.679397106170653,0.99079430103302,5.595746040344238,-0.0053094555623829365,-0.007941248,-0.0030543262,10
-7.673606872558594,0.996118426322937,5.612766742706299,-0.006650792434811592,-0.0125227375,-0.0036651916,10
-7.674944877624513,0.9938310980796814,5.6267619132995605,-0.010730350390076636,0.007330383,-0.003970624,10
-7.675613403320312,0.9900704622268676,5.6316680908203125,-0.012823093682527542,0.015882496,-0.010690141499999998,10
-7.674562931060791,0.979010045528412,5.636504650115968,-0.012924417853355408,-0.0009162979,-0.010995574,10
-7.669804573059082,0.9627812504768372,5.638255596160889,-0.012134412303566931,-0.008857545999999999,0.00030543262000000003,10
-7.664860725402832,0.94744873046875,5.642158031463622,-0.009676859714090824,0.005192355,0.006414085,10
-7.662444114685059,0.9375048279762268,5.64894437789917,-0.008183478377759457,0.018020526,0.016187929,10
-7.654780864715576,0.9343181848526,5.654006481170653,-0.008767727762460709,0.02321288,0.0021380284,10
-7.653096675872803,0.9363075494766236,5.651111602783202,-0.010131264105439186,0.009773844,0.004581489,10
-7.653675556182861,0.9410260319709778,5.6381897926330575,-0.010818596929311752,-0.002443461,0.009773844,10
-7.65717887878418,0.9400691390037536,5.626206398010254,-0.009811487048864365,-0.013133603,0.0076358155,10
-7.676224708557129,0.9439632296562196,5.608266353607178,-0.00839686207473278,-0.0015271631,0.014966198,10
-7.704745769500732,0.9544366598129272,5.5916428565979,-0.007646255660802127,-0.007941248,0.0076358155,10
-7.7215895652771,0.9573185443878174,5.5829200744628915,-0.007673964835703374,-0.021685716,-0.006414085,10
-7.724955558776855,0.961073637008667,5.587595462799072,-0.007908424362540245,-0.022602014,-0.0033597588,10
-7.718777656555176,0.9685642123222352,5.596553325653076,-0.007112513761967421,-0.01740966,0.005497787,10
-7.709549427032472,0.9711686968803406,5.601333141326903,-0.006345926318317653,-0.006414085,-0.0021380284,10
-7.7012391090393075,0.9672475457191468,5.6177520751953125,-0.005979752633720636,-0.011911872,0.0030543262,10
-7.6879682540893555,0.9594907164573668,5.635183811187744,-0.00523897260427475,-0.021991149,-0.0033597588,10
-7.678916931152344,0.9565355181694032,5.649564266204834,-0.0055482168681919575,-0.011911872,0.01038471,10
-7.674671649932861,0.9521905779838562,5.65778923034668,-0.005817796569317579,-0.0015271631,0.003970624,10
-7.67098331451416,0.946023166179657,5.654367446899414,-0.006553435232490301,0.0076358155,0.017104227,10
-7.668474674224853,0.9485990405082704,5.647904396057129,-0.0060719409957528106,-0.00580322,0.00030543262000000003,10
-7.665096759796143,0.9502741694450378,5.64472246170044,-0.006214374210685492,-0.004581489,0.0070249503,10
-7.6613616943359375,0.9511567950248718,5.644305229187013,-0.0056530823931097976,-0.007330383,0.005497787,10
-7.663230419158935,0.9562047123908995,5.646428108215332,-0.005921670235693455,-0.0009162979,0.0036651916,10
-7.664347171783447,0.9543338418006896,5.644158363342285,-0.006162681151181459,-0.0036651916,0.003970624,10
-7.661074638366699,0.9546231031417848,5.6430864334106445,-0.005545918364077807,0.0015271631,0.009468411,10
-7.6548237800598145,0.9583865404129028,5.6451148986816415,-0.005191643722355366,0.0061086523,0.0027488936,10
-7.652970314025879,0.96091228723526,5.647862434387207,-0.006180742289870977,-0.010079277,0.003970624,10
-7.658323764801025,0.9671300053596495,5.650229454040527,-0.007407059893012047,0.008552114,-0.0033597588,10
-7.668276309967041,0.9737900495529176,5.653031826019287,-0.009101124480366709,-0.0030543262,0.003970624,10
-7.67764949798584,0.9758101105690002,5.653919219970702,-0.009858177974820135,0.0033597588,-0.0018325958,10
-7.681757926940918,0.97219318151474,5.649008274078369,-0.011581918224692343,-0.008552114,-0.010995574,10
-7.676107406616211,0.9619447588920592,5.642080783843994,-0.011677904054522514,0.0027488936,-0.002443461,10
-7.677338600158691,0.9520332217216492,5.636438846588135,-0.010343858040869236,0.0012217305,-0.007330383,10
-7.672958374023437,0.943220555782318,5.630597114562987,-0.008942533284425734,-0.0030543262,-0.00030543262000000003,10
-7.669577598571777,0.937752366065979,5.64094352722168,-0.0064546805806458,-0.018325957,0.007330383,10
-7.667372703552246,0.93867290019989,5.652788162231445,-0.0043550622649490825,0.0030543262,0.011911872,10
-7.665996074676514,0.9445506930351256,5.649444580078125,-0.004378629382699728,0.0067195175,0.014049901000000002,10
-7.6711673736572275,0.9472538828849792,5.652467250823975,-0.0049489266239106655,0.008552114,0.0070249503,10
-7.678007125854492,0.9523398876190186,5.653868675231934,-0.005704719573259354,-0.0027488936,0.0067195175,10
-7.68535566329956,0.9572083950042723,5.646440505981445,-0.0050558107905089855,-0.01282817,0.009773844,10
-7.688866138458253,0.9641226530075072,5.6397032737731925,-0.0041568190790712825,-0.010995574,-0.00030543262000000003,10
-7.690396785736084,0.9679492115974426,5.636711120605469,-0.0043726470321416855,-0.013439035,-0.00030543262000000003,10
-7.6949825286865225,0.9677656888961792,5.6315040588378915,-0.0045141554437577724,-0.005497787,-0.0018325958,10
-7.698423385620117,0.9671864509582521,5.6372318267822275,-0.005515151657164097,-0.010995574,-0.0012217305,10
-7.70309591293335,0.9671603441238404,5.6495704650878915,-0.0060849329456686965,-0.008857545999999999,-0.002443461,10
-7.70240592956543,0.9662320613861084,5.660073757171631,-0.006035213358700275,0.0033597588,-0.002443461,10
-7.693856716156006,0.965113878250122,5.663425922393799,-0.005990566685795784,0.010995574,0.01038471,10
-7.679389476776122,0.966198205947876,5.6620283126831055,-0.005295278504490852,-0.010995574,0.0070249503,10
-7.667956829071045,0.9622801542282104,5.663119316101074,-0.004805763252079487,-0.010079277,0.00580322,10
-7.667009830474853,0.9668200612068176,5.658061504364014,-0.0041204532608389854,-0.005497787,0.006414085,10
-7.675587177276611,0.9599348306655884,5.651803016662598,-0.003937478642910719,-0.0021380284,0.0018325958,10
-7.679181575775146,0.9586820006370544,5.652968406677246,-0.004666684195399284,-0.0070249503,0.00061086525,10
-7.676225185394287,0.9634690880775452,5.6566505432128915,-0.006269227713346481,-0.0036651916,0.010690141499999998,10
-7.6647586822509775,0.9643201231956482,5.659223556518555,-0.0063047725707292565,-0.009162978,0.0015271631,10
-7.665593147277832,0.9606750607490541,5.65026330947876,-0.005662917625159025,0.0061086523,0.009773844,10
-7.672151565551758,0.9618086218833924,5.646344184875487,-0.004963665269315243,0.022907447,-0.004581489,10
-7.68278694152832,0.9625505208969116,5.64192008972168,-0.0075873853638768205,0.03023783,-0.0015271631,10
-7.690761089324951,0.9613334536552428,5.638416767120361,-0.01245969161391258,-0.00580322,-0.011911872,10
-7.699362277984619,0.9524036049842834,5.639464855194093,-0.016148332506418228,-0.03023783,-0.014966198,10
-7.680440902709961,0.9443773627281188,5.6336021423339835,-0.016090827062726017,-0.062308256,-0.0012217305,10
-7.668075084686278,0.9502364993095398,5.634883403778076,-0.013266703113913536,-0.04550946,0.0030543262,10
-7.676426887512207,0.9538134336471558,5.638035297393799,-0.010750375688076021,-0.010995574,-0.0070249503,10
-7.693187713623048,0.9488729238510132,5.639435291290282,-0.012145273387432098,-0.00030543262000000003,-0.010079277,10
-7.690713405609131,0.9412180185317992,5.6322083473205575,-0.011751782149076462,-0.0009162979,-0.0070249503,10
-7.672860145568848,0.9302692413330078,5.635289192199707,-0.00938580557703972,0.0012217305,0.004581489,10
-7.65144681930542,0.9194840788841248,5.645781517028809,-0.0065549639984965324,-0.010995574,0.009773844,10
-7.642201900482178,0.9151315689086914,5.65645170211792,-0.00548438960686326,-0.01985312,0.014049901000000002,10
-7.6380677223205575,0.9156051874160768,5.6623969078063965,-0.005248755216598511,-0.014660766,0.005497787,10
-7.63358736038208,0.9246243238449096,5.663046360015869,-0.004275622311979532,-0.021991149,0.017104227,10
-7.62944746017456,0.9349927306175232,5.667135238647461,-0.00383745483122766,-0.02321288,0.0061086523,10
-7.622541904449463,0.944790542125702,5.6755428314208975,-0.005213051103055477,-0.018936822,0.0012217305,10
-7.626811981201173,0.9517572522163392,5.67305850982666,-0.005294261500239372,0.00580322,0.0030543262,10
-7.636139869689941,0.9582619071006776,5.665599346160889,-0.006847152020782232,0.057421334,0.00061086525,10
-7.648476600646973,0.9548515677452089,5.665398597717285,-0.00958880502730608,0.04062254,-0.003970624,10
-7.65917444229126,0.947656512260437,5.664368629455566,-0.012005183845758438,0.0061086523,-0.0027488936,10
-7.6579670906066895,0.94037926197052,5.6639366149902335,-0.01151918713003397,-0.016798794,-0.0018325958,10
-7.647633552551269,0.9338163137435912,5.66926908493042,-0.010158419609069824,-0.016493361,0.007330383,10
-7.6412901878356925,0.93149071931839,5.672041893005371,-0.0079176165163517,-0.008246681,0.007941248,10
-7.631816387176514,0.9385411739349364,5.673130989074707,-0.0059309410862624645,-0.003970624,0.002443461,10
-7.6288909912109375,0.9442103505134584,5.679481029510497,-0.005319474264979362,-0.004581489,0.004886922,10
-7.629939079284668,0.9491658806800842,5.678849697113037,-0.005007109139114618,0.016798794,0.009773844,10
-7.634953022003174,0.9474817514419556,5.675183296203612,-0.005014809314161539,0.01282817,0.0070249503,10
-7.639876842498778,0.9405394792556764,5.675468444824219,-0.0059257615357637405,-0.0018325958,0.007330383,10
-7.641018867492676,0.9351321458816528,5.670586585998535,-0.005644457414746285,-0.008246681,0.002443461,10
-7.64432430267334,0.9356977939605712,5.668380737304688,-0.0044925627298653134,-0.016187929,0.002443461,10
-7.6515235900878915,0.941605031490326,5.6720619201660165,-0.003916064277291298,-0.0061086523,-0.0027488936,10
-7.654658794403076,0.9474183917045592,5.674969673156737,-0.004684129729866982,0.0012217305,-0.0009162979,10
-7.656297206878662,0.9495710730552672,5.672708988189697,-0.005755535326898098,0.006414085,0.0015271631,10
-7.661348819732666,0.9483121037483216,5.665663242340088,-0.005923223216086626,0.0070249503,-0.0018325958,10
-7.669760704040527,0.9441803097724916,5.6586198806762695,-0.005213612224906683,-0.014660766,-0.009773844,10
-7.6737937927246085,0.9407089948654176,5.65957498550415,-0.005654993932694197,-0.008246681,0.005497787,10
-7.6680545806884775,0.939478039741516,5.658646583557129,-0.007479600608348846,-0.0027488936,-0.003970624,10
-7.6679840087890625,0.9349870681762696,5.655994415283202,-0.009034045040607452,0.009468411,-0.00030543262000000003,10
-7.6715989112854,0.9268871545791626,5.659651279449463,-0.010621244087815285,-0.004581489,-0.011911872,10
-7.675172805786133,0.9130422472953796,5.6546268463134775,-0.01262612082064152,-0.004886922,-0.0009162979,10
-7.673337936401367,0.8982481956481934,5.64054012298584,-0.01273200660943985,-0.013133603,0.0033597588,10
-7.66724681854248,0.8854479193687439,5.632059097290039,-0.010211379267275332,-0.015577064,0.020158553,10
-7.659852027893066,0.8811771273612976,5.633605003356934,-0.007576659321784973,-0.02076942,0.021685716,10
-7.6542606353759775,0.8890706896781921,5.641099452972412,-0.00658871466293931,-0.03390302,0.014049901000000002,10
-7.6583428382873535,0.9000095129013062,5.648655891418457,-0.006551178172230721,-0.021685716,0.020463986,10
-7.661366462707519,0.9183402061462402,5.665409564971924,-0.005525331012904644,-0.021685716,0.010079277,10
-7.663525104522705,0.9341997504234314,5.67650032043457,-0.004982756450772286,-0.00061086525,0.003970624,10
-7.654733657836914,0.9435571432113647,5.671576976776122,-0.00537203811109066,-0.006414085,0.0033597588,10
-7.639538288116455,0.9493820071220398,5.671884059906006,-0.005332819651812315,-0.0125227375,-0.009468411,10
-7.623213768005371,0.9558703303337096,5.6751651763916025,-0.005646372213959694,0.0018325958,0.00061086525,10
-7.612699508666992,0.9542132019996644,5.6836509704589835,-0.008020737208425999,0.008857545999999999,0.00061086525,10
-7.60993766784668,0.9441245794296264,5.683778762817383,-0.01055463869124651,-0.0033597588,-0.012217305,10
-7.616703987121582,0.9312918782234192,5.682969093322754,-0.010631096549332142,-0.0067195175,0.0033597588,10
-7.629483222961426,0.9248982071876526,5.677449703216553,-0.008881567046046257,-0.003970624,0.0012217305,10
-7.640876770019531,0.924897074699402,5.6708574295043945,-0.007915438152849674,0.0030543262,0.0021380284,10
-7.646763801574707,0.9213443994522096,5.6752095222473145,-0.008227506652474403,-0.00061086525,-0.0033597588,10
-7.645643711090088,0.9210166931152344,5.678639888763428,-0.008113742806017399,0.0027488936,-0.004886922,10
-7.639954566955566,0.9206833839416504,5.6733031272888175,-0.007569531910121441,0.0070249503,0.0027488936,10
-7.640899658203125,0.9197904467582704,5.681426525115968,-0.007480386178940535,0.0018325958,-0.00030543262000000003,10
-7.641350746154785,0.9163205623626708,5.6856727600097665,-0.007034749258309603,-0.016493361,0.008552114,10
-7.651066780090332,0.9185207486152648,5.677477836608888,-0.006581308785825968,-0.011301007,0.011911872,10
-7.658655643463135,0.9209110736846924,5.670053005218506,-0.006230509374290705,-0.01160644,0.0036651916,10
-7.664222240447997,0.926626443862915,5.665706157684326,-0.006029133684933186,-0.01038471,0.00061086525,10
-7.664979457855225,0.9239310622215272,5.666532039642334,-0.006391769740730524,-0.008552114,-0.0015271631,10
-7.664044857025146,0.9218672513961792,5.6660213470458975,-0.006306894589215517,-0.023823744,-0.006414085,10
-7.65858268737793,0.9236549735069276,5.6690216064453125,-0.00512959621846676,-0.01863139,0.0018325958,10
-7.651944637298584,0.9273202419281006,5.674427509307861,-0.004956695716828108,-0.018936822,-0.0076358155,10
-7.650877475738525,0.9336500763893129,5.679218292236327,-0.0060983505100011826,-0.015271631,-0.010690141499999998,10
-7.6582398414611825,0.9335082173347472,5.684313774108888,-0.008086690679192543,-0.0125227375,-0.013439035,10
-7.658857345581055,0.9187374711036682,5.675294876098633,-0.008851289749145508,-0.007330383,-0.013133603,10
-7.644803047180176,0.9019871950149536,5.674962520599365,-0.008020814508199692,-0.0021380284,-0.0033597588,10
-7.625692844390869,0.8894575834274292,5.685659408569336,-0.005578490439802408,-0.022296581,0.0012217305,10
-7.605555057525635,0.8879361748695374,5.693263530731201,-0.004018519539386034,-0.035430185,0.0009162979,10
-7.589446067810059,0.8904593586921692,5.695805072784424,-0.003078632988035679,-0.013133603,0.0061086523,10
-7.583800792694093,0.8961414098739624,5.6981544494628915,-0.0026820823550224304,0.018020526,0.015271631,10
-7.598442077636719,0.9025697708129884,5.702352523803711,-0.004807466641068458,0.008246681,0.014660766,10
-7.615110874176025,0.9090962409973145,5.702260494232178,-0.006986008025705814,0.008246681,0.005497787,10
-7.624476909637451,0.916895627975464,5.694804668426514,-0.008216501213610172,0.004886922,0.0033597588,10
-7.6283020973205575,0.9248217940330504,5.691824436187744,-0.009041378274559976,-0.009773844,-0.00030543262000000003,10
-7.630856990814209,0.9296449422836304,5.696648597717285,-0.0077502173371613034,-0.025045475,-0.004886922,10
-7.6318116188049325,0.9251580834388732,5.700087547302246,-0.0066317059099674225,-0.019242255,-0.006414085,10
-7.6288628578186035,0.9196306467056274,5.699673652648926,-0.0073802382685244075,-0.004581489,0.0018325958,10
-7.632406711578369,0.9118661284446716,5.6911396980285645,-0.010326988995075226,0.04917465,0.009468411,10
-7.65598726272583,0.9045504927635192,5.670749187469482,-0.015869343653321266,0.08246681,-0.004886922,10
-7.683753967285156,0.8962571024894714,5.6567702293396,-0.019017420709133148,0.051923547,-0.0143553335,10
-7.706240177154541,0.8852586150169373,5.659602165222168,-0.015657154843211174,-0.032986723,-0.02321288,10
-7.691459655761719,0.880745530128479,5.662914752960205,-0.011131427250802515,-0.041233405,-0.016493361,10
-7.664170742034912,0.890446126461029,5.665666580200195,-0.008410464972257614,-0.04520403,0.004581489,10
-7.642031192779541,0.9020667672157288,5.678446292877197,-0.004659128375351429,-0.076052725,0.005192355,10
-7.633033752441406,0.9130767583847046,5.696078300476074,-0.0020362879149615765,-0.08002335,0.0018325958,10
-7.634629726409912,0.912020981311798,5.712789535522461,-0.002028555143624544,-0.051923547,0.00030543262000000003,10
-7.637063026428223,0.9087413549423218,5.7135276794433585,-0.003869182895869017,-0.008857545999999999,-0.0015271631,10
-7.637595176696777,0.9062904119491576,5.702568054199219,-0.00537898950278759,-0.00580322,-0.0030543262,10
-7.634920597076416,0.9037790894508362,5.695139408111572,-0.007449047174304724,-0.032070424,-0.011301007,10
-7.629004955291747,0.8931424617767334,5.69493293762207,-0.00641690194606781,-0.0290161,0.0030543262,10
-7.616111755371094,0.877625584602356,5.692952632904053,-0.0051683997735381135,-0.028710667,-0.004886922,10
-7.600013732910156,0.8747425079345703,5.706340312957764,-0.003540590405464173,-0.058337633,-0.0036651916,10
-7.585026264190674,0.8804700970649719,5.72783899307251,-0.0030806097202003,-0.03573562,-0.0067195175,10
-7.5792236328125,0.8832475543022156,5.736861705780028,-0.005491881165653467,0.0067195175,0.0009162979,10
-7.589946269989014,0.8815651535987854,5.726126194000244,-0.009053174406290054,0.08827003,-0.0036651916,10
-7.61705207824707,0.8733937740325928,5.699246406555176,-0.01698981039226055,0.12064589,-0.012217305,10
-7.621950149536133,0.8557044863700867,5.692910194396973,-0.021726561710238457,0.0067195175,-0.028405234,10
-7.614624977111816,0.8282276391983032,5.7084107398986825,-0.021718831732869148,-0.12705997,-0.038789943,10
-7.604789733886719,0.8128657341003418,5.713308334350586,-0.016820142045617104,-0.10048734,-0.01282817,10
-7.582939147949219,0.8290832042694092,5.729145526885986,-0.010766994208097458,-0.070554934,0.020463986,10
-7.5784592628479,0.8473231196403503,5.748003959655763,-0.0046564778313040725,-0.05497787,0.04062254,10
-7.584798812866211,0.8624539375305176,5.762575149536133,-0.003638133406639099,-0.022602014,0.01740966,10
-7.595692634582519,0.8616117835044861,5.76686429977417,-0.006136925425380468,-0.01160644,0.007330383,10
-7.6109209060668945,0.8630982637405396,5.7570762634277335,-0.005493784323334694,0.006414085,0.004886922,10
-7.6166791915893555,0.867284893989563,5.7528395652771,-0.002848030067980289,-0.008857545999999999,0.0030543262,10
-7.606837749481201,0.8660696148872375,5.759204864501952,-0.0014952804194763305,-0.032375857,-0.0018325958,10
-7.5868682861328125,0.8601512312889099,5.773873329162598,-2.9184742743382234e-05,-0.070554934,0.0143553335,10
-7.562141418457031,0.8507168889045715,5.795876979827881,0.0018068460049107673,-0.05772676700000001,0.022296581,10
-7.54405927658081,0.8469115495681763,5.792483806610107,0.002336509525775909,0.02565634,0.023518313,10
-7.554216861724853,0.8473477959632874,5.768257141113281,-0.0023266288917511697,0.124311075,0.010690141499999998,10
-7.592975616455077,0.8450888395309448,5.755561828613281,-0.009221790358424187,0.07666359,-0.0033597588,10
-7.617623805999756,0.8288360238075256,5.764127254486084,-0.011461128480732441,-0.020158553,-0.028405234,10
-7.587586879730225,0.8267353773117065,5.773143291473389,-0.007054573856294155,-0.03634648,0.004886922,10
-7.5349321365356445,0.8388172388076782,5.798165798187256,-0.0014595405664294958,-0.03176499,0.022602014,10
-7.5070366859436035,0.8534591794013977,5.815112113952638,0.0011109437327831984,-0.019547688,0.02565634,10
-7.514159202575684,0.8640416860580444,5.816975593566895,-0.0022889957763254642,-0.008552114,0.02076942,10
-7.551779747009277,0.8691807985305786,5.7971625328063965,-0.00621610414236784,0.0018325958,0.013439035,10
-7.593050479888916,0.8684788942337036,5.774653911590576,-0.006418876815587282,0.04734206,0.0125227375,10
-7.6204771995544425,0.8726971745491028,5.765597343444824,-0.005358416587114334,0.040011674,0.0036651916,10
-7.621338844299316,0.8807118535041809,5.770352363586426,-0.00501448567956686,0.007330383,0.004581489,10
-7.61322021484375,0.8892564177513123,5.778764247894287,-0.0027602617628872395,-0.011301007,0.00030543262000000003,10
-7.6068902015686035,0.8928895592689514,5.780524253845215,-0.0035254221875220533,-0.014049901000000002,-0.0036651916,10
-7.606261253356934,0.8840153813362122,5.776977062225343,-0.004820778500288725,0.0021380284,-0.0015271631,10
-7.611804962158202,0.868386447429657,5.773573398590088,-0.005855282302945852,0.016493361,0.0033597588,10
-7.608630180358888,0.8522315025329591,5.770668983459473,-0.0071039278991520405,0.02107485,-0.0018325958,10
-7.597074031829834,0.8381463885307312,5.770922660827638,-0.005967382807284594,0.028710667,0.016187929,10
-7.5797672271728525,0.8403357267379761,5.772870063781737,-0.0028219367377460003,0.011911872,0.013744468,10
-7.565860271453857,0.849029541015625,5.777254104614258,-0.0016070421552285552,-0.0061086523,0.019547688,10
-7.569485664367676,0.8527501821517944,5.778744220733643,-0.0016077389009296894,-0.010690141499999998,0.024740042,10
-7.5809388160705575,0.8516333699226379,5.7707762718200675,-0.0018221529899165034,0.024129177,0.023518313,10
-7.604720115661621,0.8601648807525635,5.774813175201416,-0.0017238218570128085,0.017715093,0.018020526,10
-7.624942302703857,0.8752549886703491,5.775681018829347,-0.0010526624973863363,0.01038471,0.010079277,10
-7.627257823944093,0.8888307213783264,5.77062463760376,-0.00010182195546803996,0.024740042,0.0018325958,10
-7.6164183616638175,0.8973683714866638,5.764934062957764,9.580745972925796e-05,0.017104227,0.0021380284,10
-7.605449199676514,0.8955227732658386,5.773108959197997,-0.002120241289958358,0.0030543262,0.006414085,10
-7.6004695892333975,0.8878909945487976,5.7792701721191415,-0.004633763339370489,-0.023518313,0.00580322,10
-7.601083755493164,0.8753616213798523,5.763218402862549,-0.0038017812184989452,-0.022602014,0.016187929,10
-7.61172342300415,0.8761695623397827,5.74872350692749,-0.0003136603627353906,-0.008857545999999999,0.022296581,10
-7.621170520782472,0.8814395070075989,5.763375282287598,0.0023571697529405355,-0.018936822,0.003970624,10
-7.613749027252197,0.8828471899032593,5.7814598083496085,0.0017253307159990072,-0.017715093,0.0067195175,10
-7.595301151275635,0.8873778581619263,5.786320686340332,0.00042485288577154284,0.0018325958,0.019242255,10
-7.5822792053222665,0.8873895406723022,5.785012245178223,-0.0003315287467557937,0.014049901000000002,0.008552114,10
-7.570502281188965,0.8852359652519226,5.781057357788086,-0.0019276931416243317,0.004886922,0.0070249503,10
-7.563051223754883,0.8866667151451111,5.780863285064697,-0.0020742586348205805,-0.01038471,0.016798794,10
-7.563429355621338,0.8813263177871704,5.7832093238830575,-0.0017544747097417712,-0.0012217305,0.013744468,10
-7.570655822753906,0.8785847425460815,5.786294937133789,-0.0017007874557748435,0.01160644,0.015271631,10
-7.581148624420166,0.8785092234611511,5.78767728805542,-0.002180800773203373,0.012217305,0.010079277,10
-7.586600303649902,0.8761352300643921,5.776787281036378,-0.0019736182875931267,0.010690141499999998,0.0067195175,10
-7.587295055389403,0.8789222836494446,5.765869140625,-0.0012039389694109561,-0.0030543262,0.01038471,10
-7.580211162567139,0.8902435302734375,5.767045497894287,-0.0012546520447358491,-0.004276057,0.0125227375,10
-7.5750627517700195,0.9044812917709352,5.7650957107543945,-0.0028305130545049906,0.008552114,0.010690141499999998,10
-7.588132858276367,0.9164856672286988,5.754454135894775,-0.006168309599161148,-0.0012217305,-0.00061086525,10
-7.605708122253418,0.9167102575302124,5.734526634216309,-0.008445310406386852,0.004276057,-0.013439035,10
-7.619527339935303,0.9139400720596312,5.721334457397461,-0.00794422160834074,0.016798794,0.0009162979,10
