acc_x,acc_y,acc_z,gyro_x,gyro_y,gyro_z,label
0.0,0.0,0.0,0.0,-0.0061086523,0.002443461,1
0.01920122280716896,0.28716322779655457,-0.04073720425367355,-0.00025457429001107807,-0.009773844,0.008552114,1
0.06588441133499147,0.9722670316696168,-0.13572759926319122,-0.0016531114233657718,-0.002443461,0.003970624,1
0.13191969692707062,1.9209750890731807,-0.2637679874897003,-0.003747805021703243,0.0021380284,-0.00061086525,1
0.20766988396644592,2.984160900115967,-0.4028620421886444,-0.006782959681004286,-0.0018325958,-0.0036651916,1
0.2850358784198761,4.041638374328613,-0.5361182689666748,-0.008650350384414196,-0.005497787,-0.00580322,1
0.35864582657814026,5.0177345275878915,-0.6535870432853699,-0.00980233680456877,-0.015271631,-0.0076358155,1
0.4257199764251709,5.876285076141357,-0.7510479092597961,-0.01117527950555086,-0.01863139,-0.015577064,1
0.4853114187717438,6.608139514923097,-0.8280464410781859,-0.01191786304116249,-0.006414085,0.002443461,1
0.5374767780303955,7.2184810638427725,-0.8912602066993713,-0.0131248002871871,-0.018936822,0.013133603,1
0.5828085541725159,7.7192769050598145,-0.9497283101081848,-0.013897393830120564,-0.040011674,0.0076358155,1
0.6222280859947205,8.126309394836426,-1.0039695501327517,-0.014046743512153624,-0.057421334,-0.0012217305,1
0.6566218137741089,8.454975128173826,-1.0544582605361938,-0.01247312780469656,-0.07269296,-0.006414085,1
0.6868677139282227,8.719052314758299,-1.1018388271331787,-0.008676938712596893,-0.06261369,-0.0125227375,1
0.71371990442276,8.930389404296875,-1.1466639041900637,-0.0037342861760407686,-0.028099801,-0.0143553335,1
0.7377719283103943,9.098942756652832,-1.1892931461334229,0.0005615902482531965,0.009468411,-0.008246681,1
0.7595698833465576,9.232888221740724,-1.2301747798919678,-0.0007190349861048162,0.032375857,-0.014049901000000002,1
0.7795453071594238,9.338912010192873,-1.2696360349655151,-0.005881845485419035,0.035430185,0.014049901000000002,1
0.7980546951293945,9.422444343566896,-1.307958722114563,-0.014869210310280325,0.069027774,0.03176499,1
0.8171347975730896,9.485203742980957,-1.3398183584213257,-0.01649677380919456,0.16157386,0.044593163,1
0.8392281532287598,9.527366638183594,-1.3584681749343872,-0.016244852915406227,0.19272798,0.04886922,1
0.8637782335281372,9.552931785583496,-1.3664636611938477,-0.041885685175657265,0.14080444,0.087659165,1
0.8902576565742493,9.565213203430176,-1.3659428358078003,-0.06627010554075241,0.12736541,0.15393804,1
0.9183189272880554,9.566780090332033,-1.3585466146469116,-0.07626313716173172,0.07147124,0.19181168,1
0.9476119875907898,9.55978775024414,-1.3456664085388184,-0.08762441575527191,-0.017104227,0.23518312,0
0.9779286980628968,9.545878410339355,-1.3283456563949585,-0.10066854953765868,-0.08643743400000001,0.27580565,0
1.0090667009353638,9.526412010192873,-1.3074588775634766,-0.10982704907655716,0.00061086525,0.24740042,0
1.0409265756607056,9.502405166625977,-1.2836432456970217,-0.11300915479660036,0.041233405,0.20922135,0
1.0732306241989136,9.4749174118042,-1.2576147317886353,-0.11109396070241928,0.059864793,0.17134771,0
1.1060364246368408,9.443872451782227,-1.2179937362670898,-0.1046421006321907,0.07666359,0.13225232,0
1.139398217201233,9.408893585205078,-1.1496031284332275,-0.09821108728647232,0.036651913,0.08399397,0
1.1730434894561768,9.37098789215088,-1.0589529275894165,-0.09523693472146988,0.01038471,0.05467244,0
1.2070077657699585,9.330601692199707,-0.9499465823173524,-0.09546423703432083,0.006414085,0.037873644,0
1.2412322759628296,9.288216590881348,-0.8261737823486328,-0.10186599940061568,-0.039095376,0.044593163,0
1.275671124458313,9.244218826293944,-0.6905128955841064,-0.1145547404885292,-0.05955936,0.05955936,0
1.310249924659729,9.198970794677734,-0.5454698204994202,-0.1404038518667221,-0.08674286,0.06750060599999999,0
1.3449662923812866,9.15268325805664,-0.392758846282959,-0.17333805561065674,-0.20708331,0.06750060599999999,0
1.3797935247421265,9.10555934906006,-0.23388756811618805,-0.21692132949829104,-0.17318029999999998,0.05375614,0
1.4147120714187622,9.057761192321776,-0.0700547993183136,-0.2797181010246277,-0.103847094,0.05955936,0
1.4556708335876465,8.999617576599121,0.0911056250333786,-0.3538234531879425,-0.099571034,0.11759156,0
1.511914849281311,8.916025161743164,0.23855361342430115,-0.4192850291728973,-0.22021692,0.18478674,0
1.5806059837341309,8.811714172363281,0.3748180568218231,-0.4682106077671051,-0.3811799,0.26145032,0
1.6592509746551514,8.690830230712889,0.5020653009414673,-0.5086910128593445,-0.43279803,0.39920044,0
1.746164083480835,8.556203842163086,0.6222756505012512,-0.5710585713386536,-0.30268374,0.473726,0
1.839205384254456,8.411350250244139,0.7364444732666016,-0.654552161693573,-0.14721853,0.4746423,0
1.9375022649765012,8.257754325866701,0.8460125923156738,-0.7289801239967346,-0.004886922,0.37690386,0
2.0398337841033936,8.097431182861326,0.9517433643341064,-0.8039539456367493,0.30604348,0.3051272,0
2.1456468105316158,7.931324481964111,1.0545741319656372,-0.9207181334495544,0.5693264,0.31306845,0
2.2539563179016118,7.761045455932617,1.1548479795455933,-1.0487329959869385,0.5152648,0.3848451,0
2.3651340007781982,7.591168403625487,1.2527726888656616,-1.1618341207504272,0.59895337,0.5345071,0
2.479501485824585,7.427779674530028,1.3480781316757202,-1.240075707435608,0.45814893,0.59803706,0
2.5964884757995605,7.269539833068848,1.441317796707153,-1.2386271953582764,0.1994475,0.5326744999999999,0
2.7155473232269287,7.115471363067628,1.5328766107559204,-1.1827454566955566,-0.0290161,0.5006041,0
2.8363466262817383,6.964672088623048,1.623135685920715,-1.1004061698913574,0.19792034,0.46211955,0
2.958570718765259,6.816470623016357,1.7123684883117676,-1.012875199317932,-0.020463986,0.30757064,0
3.0819182395935063,6.670377731323242,1.8007630109786987,-0.9107375144958496,-0.40194935,0.13225232,0
3.2060720920562744,6.5260820388793945,1.8884202241897583,-0.7940779328346252,-0.47494772,-0.0067195175,0
3.3309597969055176,6.383137702941895,1.975542664527893,-0.6631882190704346,-0.03848451,-0.04337143,0
3.4563517570495605,6.24137020111084,2.0621788501739498,-0.5432114005088806,0.20189096,-0.024740042,0
3.557024955749512,6.19798469543457,2.1429100036621094,-0.4387283623218536,0.269697,0.059864793,0
3.427341222763061,6.492321014404298,2.058067321777344,-0.34675514698028564,0.37384954,0.09560041,0
2.8963611125946045,6.979454517364503,1.9114990234375,-0.2784110903739929,0.40622538,0.014660766,0
2.3272271156311035,7.5215516090393075,1.7795766592025757,-0.2384305149316788,0.2669481,-0.13958271,0
1.754893779754639,8.05299186706543,1.5414285659790041,-0.18451236188411715,0.10995574,-0.32834008,0
1.193009853363037,8.513529777526855,1.1030428409576416,-0.09606045484542848,-0.13103059,-0.50885075,0
0.6739769577980042,8.821935653686523,0.5505895614624023,0.032642144709825516,-0.34330627,-0.59864795,0
0.2777715027332306,8.863663673400879,0.12306612730026245,0.1988125741481781,-0.5375614000000001,-0.65576386,0
0.07164240628480911,8.550461769104004,-0.02161124162375927,0.3840862810611725,-0.7287621999999999,-0.7828238000000001,0
0.2731941938400269,9.217966079711914,1.3886181116104126,0.5082204341888428,0.2134974,-0.2910773,0
2.1935956478118896,10.783807754516602,2.3859214782714844,0.31146666407585144,-1.1685852,1.1316278999999998,0
1.763520359992981,9.25240707397461,0.6340047717094421,-0.013171554543077946,-0.05375614,1.0308351999999998,0
0.3591212630271912,7.675824642181396,-0.7111330628395081,-0.07658243924379349,0.100792766,-1.1948525,0
0.7828348278999329,7.659093379974365,-1.3469048738479614,0.17666132748126984,0.4196644000000001,-1.0012082,0
1.2290170192718506,7.551823139190674,-1.1893213987350464,0.6394845843315125,0.11789699,-1.1325442,0
1.6370179653167725,6.993298053741455,-0.5520566701889038,1.0358794927597046,-0.030848695,-0.9221011,0
1.3794413805007937,6.609590530395508,0.5929266810417175,1.2645926475524902,-0.5131268,-1.382388,0
1.0637438297271729,6.703979969024657,1.6695982217788696,1.2909433841705322,0.14538592,-1.4749341,0
0.9631757736206056,6.987804889678955,2.4454290866851807,1.24862802028656,-0.002443461,-1.3964379999999998,0
1.0796631574630735,7.395305156707764,2.4941680431365967,1.1660370826721191,0.37751472,-1.1951579,0
1.4892147779464722,7.823109149932861,2.0880346298217773,1.0815262794494631,0.33444872,-1.0290025,0
1.965132594108581,8.218136787414549,1.6980985403060913,1.0555028915405271,-0.3390302,-0.8875871999999999,0
1.8987164497375488,8.470061302185059,1.2378560304641724,1.1120904684066772,-0.4981606,-1.0467176,0
1.3553457260131836,8.358088493347168,0.7734704017639159,1.2687950134277344,-0.24831672,-1.3603969,0
0.8940713405609131,7.881144046783447,0.5376834273338318,1.5001022815704346,0.03940081,-1.8515326,0
0.8815078139305115,7.391175746917725,0.5361811518669128,1.752109169960022,0.2932153,-2.1087067000000004,0
1.3048334121704102,7.053092002868652,0.6990125179290771,2.0016732215881348,-0.009162978,-2.240043,0
1.7567169666290283,6.76178503036499,0.8974212408065796,2.259847640991211,-0.6411031,-2.4449883,0
1.9465585947036743,6.5317320823669425,0.8631638288497925,2.4439516067504883,-1.2877040000000002,-2.5418103,0
1.7066606283187866,6.465758323669434,0.1812434494495392,2.4923536777496342,-1.7119498,-2.1896465,0
0.8651851415634155,6.549346923828125,-1.0048848390579224,2.517563819885254,-1.4117095,-1.5757268999999998,0
-0.3640756607055664,6.4002790451049805,-2.220428466796875,2.56150484085083,-0.14782938,-1.3115277,0
-1.7298907041549685,5.8590006828308105,-3.174966096878052,2.5464000701904297,0.96883225,-1.3799446000000002,0
-2.7788984775543213,5.556708812713623,-3.834026336669922,2.4473884105682373,1.3096951,-1.5360206,0
-3.3168270587921143,5.503995895385742,-4.405801773071289,2.316803216934204,0.19730948,-1.632232,0
-3.624076366424561,5.590506076812744,-5.203599452972412,2.228655338287353,-0.8756753,-1.4330899,0
-4.12196683883667,5.651144981384277,-6.218436241149902,2.1956250667572017,-0.37568212,-1.1508701,0
-5.04826545715332,5.6501007080078125,-7.01365327835083,2.1833643913269043,0.45234573,-1.2932017,0
-6.118342399597168,5.546926498413086,-7.414820194244385,2.142453670501709,0.53023106,-1.4856243,0
-6.862016677856445,5.313185691833496,-7.738611698150635,2.062645435333252,-0.08063421400000001,-1.3213016000000002,0
-7.075694561004639,4.857359886169434,-8.116652488708496,1.9448684453964236,-0.51159966,-0.9410379,0
-7.065237045288086,4.411596298217773,-8.502098083496094,1.7785502672195437,0.2452624,-0.76052725,0
-7.782412528991699,4.455015659332275,-8.768542289733888,1.7653285264968872,3.6410623,-1.842675,0
-7.900876998901367,4.226475715637207,-8.719417572021483,1.8225184679031368,2.7794368,-1.4807373,0
-7.412021160125732,3.7037775516510014,-8.751971244812013,1.9163514375686648,2.3328943,-1.3958270000000002,0
-6.9077653884887695,3.1299116611480717,-8.815750122070312,1.9813369512557983,3.1041117000000003,-1.452943,0
-6.336688041687013,2.666490077972412,-8.945676803588867,2.0039019584655757,4.024075,-1.3710871,0
-5.836295127868652,2.307756900787353,-9.258502960205078,1.990324854850769,4.183816,-0.9550878,0
-5.312285900115967,2.043167352676392,-9.723953247070312,1.8578872680664065,3.733914,-0.15607607,0
-4.6182403564453125,1.7538399696350098,-10.116779327392578,1.5281394720077517,0.40317106,-0.113926366,0
-3.9659395217895512,1.481048583984375,-10.368261337280273,1.1440584659576416,-2.2336287,-0.23273966,0
-3.5577070713043213,1.2647827863693235,-10.501751899719238,0.7513961195945741,-4.0408735,-0.09712757,0
-3.3938651084899902,1.1118909120559692,-10.466644287109377,0.3881694674491882,-4.384791000000001,0.17195857,0
-3.371697187423706,1.0461568832397459,-10.221073150634766,0.08880117535591125,-3.791946,0.24312437,0
-3.476516962051392,0.9741917252540588,-9.818498611450195,-0.10910708457231523,-2.0522017,0.18875736,0
-3.5989978313446045,0.9528921842575072,-9.309488296508787,-0.19049721956253046,0.11301007,-0.049785517,0
-3.7110593318939213,0.9329785108566284,-8.883546829223633,-0.14482907950878146,1.6236799,-0.3387248,0
-3.770616292953491,0.8622253537178041,-8.623994827270508,-0.010892773047089577,2.6875017000000003,-0.72082096,0
-3.766164302825928,0.7623041868209839,-8.52638053894043,0.17108526825904846,3.00057,-0.8903360999999999,0
-3.8133599758148193,0.74001145362854,-8.678910255432129,0.3894197642803192,3.0641,-0.24648413,0
-3.665737628936768,0.7313205599784851,-9.07800579071045,0.43484315276145935,2.415972,0.029626964,0
-3.3761863708496094,0.7166264653205872,-9.399928092956543,0.3565448820590973,0.4361577999999999,0.006414085,0
-3.138478279113769,0.7717727422714233,-9.613003730773926,0.2467203736305237,-0.89736104,-0.007330383,0
-2.97589111328125,0.7789703011512756,-9.715520858764648,0.12460402399301528,-1.7415768,0.008552114,0
-2.919176816940308,0.734066367149353,-9.714468955993652,0.009676888585090635,-1.8411479,0.028405234,0
-2.9400973320007324,0.7010494470596313,-9.645894050598145,-0.08602788299322127,-1.3423764,0.086132,0
-2.9990575313568115,0.6994219422340393,-9.494626998901367,-0.13826508820056915,-0.55680364,0.0842994,0
-3.04872465133667,0.7206823229789734,-9.312687873840332,-0.12592677772045135,0.17837265,0.014049901000000002,0
-3.086955547332764,0.7395795583724976,-9.165335655212402,-0.06664816290140152,0.7809911999999999,-0.087659165,0
-3.1144731044769287,0.7379814982414246,-9.09281063079834,0.026845267042517662,1.1447614,-0.12461651,0
-3.12233829498291,0.7061862349510193,-9.137336730957033,0.11147672683000563,1.4327843999999998,-0.119729586,0
-3.0856304168701167,0.6572930216789246,-9.251993179321287,0.14529016613960266,1.25319,-0.07147124,0
-2.9740602970123287,0.6032596826553345,-9.370738983154297,0.14273710548877716,0.8533788,-0.03573562,0
-2.857590913772583,0.5585163235664368,-9.46996021270752,0.12252595275640488,0.4007276,-0.01740966,0
-2.7463295459747314,0.516563355922699,-9.52751350402832,0.0965528041124344,0.09560041,-0.00061086525,0
-2.653799057006836,0.480451762676239,-9.559073448181152,0.07376205921173096,-0.019242255,0.0067195175,10
-2.580429792404175,0.4496286511421204,-9.571431159973145,0.057247258722782135,0.043676864,0.007941248,10
-2.522141695022583,0.4322110414505005,-9.576141357421877,0.04812731966376305,0.23609942,0.0125227375,10
-2.476489543914795,0.4224398136138916,-9.588266372680664,0.04691872000694275,0.44043383,0.0012217305,10
-2.4305310249328613,0.4146636426448822,-9.602462768554688,0.053423993289470666,0.6780604,0.0021380284,10
-2.358586549758911,0.3964850008487701,-9.618898391723633,0.06258422136306763,0.8023715,0.005192355,10
-2.266441822052002,0.371491014957428,-9.651778221130373,0.0728311613202095,0.7318166,0.013133603,10
-2.156460285186768,0.34335505962371826,-9.691039085388184,0.0759056881070137,0.58123827,0.019547688,10
-2.042041540145874,0.317958801984787,-9.728660583496094,0.0659077912569046,0.29810223,0.016798794,10
-1.944794774055481,0.3041418790817261,-9.762100219726562,0.0504576675593853,-0.0143553335,0.015271631,10
-1.8641847372055051,0.2921692132949829,-9.793404579162598,0.032338723540306084,-0.17318029999999998,0.008857545999999999,10
-1.8122216463088991,0.27951908111572266,-9.802512168884276,0.016250545158982273,-0.19639318,0.0143553335,10
-1.7795190811157229,0.2670904397964477,-9.798789978027344,0.003826212370768189,-0.10323623,0.01038471,10
-1.760426640510559,0.26407429575920105,-9.789765357971193,-0.002941072452813387,0.04734206,0.011911872,10
-1.7447209358215332,0.2622852027416229,-9.789278030395508,-0.003666848642751575,0.19333886,0.015577064,10
-1.7226492166519165,0.2590881288051605,-9.794952392578123,-0.0016890441766008735,0.2761111,0.019242255,10
-1.7063997983932495,0.260806143283844,-9.81960678100586,0.0014999386621639132,0.2678644,0.015882496,10
-1.6688575744628906,0.2582461535930633,-9.830565452575684,0.0033687117975205183,0.22388211,0.011301007,10
-1.6289271116256714,0.2495230138301849,-9.829985618591307,0.004127848893404007,0.18448131,0.016798794,10
-1.5958110094070437,0.24188344180583954,-9.83476448059082,0.003044711193069816,0.15577064,0.013744468,10
-1.563876390457153,0.23792968690395355,-9.84199333190918,0.00194139638915658,0.15913039999999998,0.01985312,10
-1.5301824808120728,0.2348426878452301,-9.85048007965088,0.0012002454604953527,0.16279559,0.019242255,10
-1.4902335405349731,0.22354477643966675,-9.855414390563963,0.002569692209362984,0.13927728,0.016187929,10
-1.4544736146926882,0.21560622751712802,-9.858904838562012,0.0017254585400223732,0.08735373,0.012217305,10
-1.4235326051712036,0.20795416831970212,-9.859566688537598,-0.0015464468160644176,0.029626964,0.008552114,10
-1.396786332130432,0.20199747383594516,-9.862939834594727,-0.005542504601180554,-0.009773844,0.010995574,10
-1.3711879253387451,0.20223797857761386,-9.864432334899902,-0.010151086375117302,-0.03604105,0.016187929,10
-1.3578020334243774,0.20477379858493805,-9.86262321472168,-0.01338787470012903,-0.040927973,0.0143553335,10
-1.3521943092346191,0.20423847436904907,-9.85930633544922,-0.016938963904976845,-0.056505036,0.012217305,10
-1.347458004951477,0.20293988287448886,-9.860588073730467,-0.0210176482796669,-0.06597344599999999,0.01038471,10
-1.3392577171325684,0.2049134820699692,-9.861692428588867,-0.02459404431283474,-0.07696902,0.009773844,10
-1.341927170753479,0.2037102580070496,-9.857902526855467,-0.026292284950613976,-0.07819075,0.015271631,10
-1.3482880592346191,0.19935259222984314,-9.850595474243164,-0.027489332482218742,-0.05100725,0.008857545999999999,10
-1.3627010583877563,0.1969917118549347,-9.84654140472412,-0.02674177847802639,0.009773844,0.0012217305,10
-1.372493028640747,0.1957165151834488,-9.842535018920898,-0.02407512627542019,0.071776666,0.0143553335,10
-1.3715510368347168,0.19950027763843536,-9.84389877319336,-0.01981232687830925,0.10140363,0.013744468,10
-1.36507248878479,0.2058160901069641,-9.84613800048828,-0.016206199303269386,0.08399397,0.005497787,10
-1.3596585988998413,0.21005530655384064,-9.850024223327637,-0.013986896723508837,0.06963864,0.0021380284,10
-1.351718187332153,0.21625296771526334,-9.846874237060547,-0.013655752874910831,0.052839845,0.010995574,10
-1.3414220809936523,0.21568618714809415,-9.843792915344238,-0.013633143156766891,0.05497787,0.009162978,10
-1.3350152969360352,0.2075049579143524,-9.84200382232666,-0.014085560105741026,0.04917465,0.010995574,10
-1.328046441078186,0.2019217908382416,-9.841279983520508,-0.014706051908433437,0.034513887,0.008246681,10
-1.3201075792312622,0.19654341042041776,-9.848393440246582,-0.015658147633075714,0.01740966,0.005192355,10
-1.314469814300537,0.19259275496006006,-9.852322578430176,-0.016384193673729897,0.009162978,0.008552114,10
-1.311457276344299,0.19094043970108032,-9.849149703979492,-0.01761690340936184,0.022296581,0.009162978,10
-1.3069534301757812,0.19190463423728946,-9.845075607299805,-0.01895146444439888,0.029321533,0.01863139,10
-1.2986853122711182,0.18849262595176694,-9.851265907287598,-0.018731780350208282,0.040011674,0.013744468,10
-1.2899169921875,0.18992160260677335,-9.86235237121582,-0.017968522384762764,0.042760565999999986,0.0125227375,10
-1.2868013381958008,0.19822397828102112,-9.865887641906738,-0.016936305910348892,0.07513642,0.016187929,10
-1.2804708480834959,0.1980818808078766,-9.861520767211914,-0.015826638787984848,0.11575896,0.01863139,10
-1.270531177520752,0.1986781805753708,-9.863104820251463,-0.013319140300154686,0.12736541,0.01740966,10
-1.2588704824447632,0.198174312710762,-9.867071151733398,-0.01164381206035614,0.12308934,0.016187929,10
-1.2427030801773071,0.19568023085594174,-9.87642765045166,-0.010944108478724957,0.08277224,0.02076942,10
-1.2255717515945437,0.19375674426555636,-9.880192756652832,-0.011399852111935616,0.03023783,0.014660766,10
-1.2083113193511963,0.1902623027563095,-9.881152153015137,-0.011893217451870441,0.01863139,0.013133603,10
-1.1936999559402466,0.188948392868042,-9.882669448852539,-0.012994942255318165,0.008246681,0.0018325958,10
-1.1809474229812622,0.18888479471206665,-9.8829984664917,-0.013353166170418262,0.019242255,0.008857545999999999,10
-1.1690011024475098,0.18716074526309967,-9.87250804901123,-0.014353543519973757,0.021991149,0.01282817,10
-1.1634527444839478,0.19310316443443296,-9.877366065979004,-0.01447336748242378,0.0027488936,0.0076358155,10
-1.152956485748291,0.1935734301805496,-9.885290145874023,-0.015635620802640915,-0.009162978,0.0067195175,10
-1.14251708984375,0.1909111887216568,-9.883642196655273,-0.018086027354002,-0.046120327,0.015577064,10
-1.1358921527862549,0.18728147447109225,-9.889206886291504,-0.01972140558063984,-0.058643065,0.008246681,10
-1.136954665184021,0.17832066118717196,-9.891138076782227,-0.021619202569127083,-0.07666359,0.013439035,10
-1.1413882970809937,0.17554321885108948,-9.896526336669922,-0.024436913430690762,-0.090713486,0.011301007,10
-1.1515861749649048,0.17508965730667114,-9.894916534423828,-0.024914581328630447,-0.06963864,0.01160644,10
-1.160829782485962,0.1717197149991989,-9.885384559631348,-0.025302639231085774,-0.040317107000000005,0.014660766,10
-1.167195439338684,0.17792750895023346,-9.87824535369873,-0.0248306542634964,-0.016493361,0.010079277,10
-1.1708658933639526,0.18187566101551056,-9.87417697906494,-0.02348856627941132,0.032070424,0.0021380284,10
-1.1694343090057373,0.18471859395504,-9.870311737060547,-0.02232600748538971,0.046120327,0.009773844,10
-1.1679993867874146,0.1871296316385269,-9.873065948486328,-0.02102275751531124,0.058948494,0.010995574,10
-1.175740361213684,0.18977324664592746,-9.871997833251953,-0.019370822235941887,0.044593163,0.002443461,10
-1.1760432720184326,0.1874772161245346,-9.870294570922852,-0.018559452146291733,0.033292156,0.011911872,10
-1.1745339632034302,0.1820615977048874,-9.865970611572266,-0.018835712224245068,0.013133603,0.013439035,10
-1.1752218008041382,0.17803433537483215,-9.85738754272461,-0.019478848204016685,0.008246681,0.003970624,10
-1.1749569177627563,0.18069051206111908,-9.850892066955566,-0.0195354986935854,0.013133603,0.009162978,10
-1.1719040870666504,0.1785607486963272,-9.846195220947266,-0.01964191347360611,0.019242255,0.008246681,10
-1.1705384254455566,0.17819680273532867,-9.840970039367676,-0.019865119829773903,0.029626964,0.010690141499999998,10
-1.1714311838150024,0.17761772871017456,-9.83676052093506,-0.020723817870020863,0.021685716,0.005192355,10
-1.1710759401321411,0.17822504043579102,-9.83820343017578,-0.021110238507390026,0.009162978,0.009773844,10
-1.1697202920913696,0.17978301644325256,-9.844179153442383,-0.022558737546205517,-0.0030543262,0.010690141499999998,10
-1.16818106174469,0.1814848631620407,-9.855106353759766,-0.0231138039380312,-0.00061086525,0.015271631,10
-1.1643999814987185,0.1750086545944214,-9.865348815917967,-0.022973164916038517,-0.0061086523,0.014660766,10
-1.1639721393585205,0.17186222970485687,-9.870293617248537,-0.023410452529788017,-0.020158553,0.01282817,10
-1.1610194444656372,0.17446158826351166,-9.868124961853027,-0.022974973544478416,-0.018020526,0.00580322,10
-1.1616744995117188,0.18058937788009646,-9.866260528564453,-0.022835372015833855,-0.008857545999999999,0.008857545999999999,10
-1.1673874855041504,0.1831209361553192,-9.858866691589355,-0.0216332133859396,-0.014660766,0.004886922,10
-1.1712700128555298,0.18183492124080655,-9.857568740844727,-0.020939242094755173,-0.0036651916,0.013439035,10
-1.1685768365859983,0.1801474690437317,-9.854517936706543,-0.020381512120366096,-0.004276057,0.0076358155,10
-1.1701436042785645,0.18378134071826932,-9.846698760986328,-0.019441021606326103,-0.010995574,0.014660766,10
-1.1721675395965576,0.1819167733192444,-9.848894119262695,-0.0189706701785326,0.004276057,0.0018325958,10
-1.1778345108032229,0.18313153088092804,-9.85401439666748,-0.018000073730945587,0.033292156,-0.0012217305,10
-1.1772129535675049,0.18503586947917935,-9.853543281555176,-0.01592707633972168,0.064446285,0.01282817,10
-1.172816038131714,0.1769380122423172,-9.860183715820312,-0.013782916590571405,0.062002823,0.020463986,10
-1.161064624786377,0.16842150688171387,-9.830286979675293,-0.010378663428127766,0.10323623,0.01160644,10
-1.150277614593506,0.16501764953136444,-9.811120986938477,-0.008898846805095673,0.08307768,0.008857545999999999,10
-1.1419376134872437,0.16200487315654755,-9.816636085510254,-0.00981057155877352,0.05497787,0.004581489,10
-1.135872483253479,0.15780627727508545,-9.829662322998047,-0.01231692172586918,0.032986723,0.010690141499999998,10
-1.1230777502059937,0.15701265633106232,-9.841391563415527,-0.014427787624299524,0.013133603,0.010690141499999998,10
-1.1131186485290527,0.1588626354932785,-9.843542098999023,-0.015795772895216942,0.024129177,0.014660766,10
-1.1063708066940308,0.15867523849010468,-9.845044136047363,-0.016456129029393196,0.01863139,0.009468411,10
-1.0993118286132812,0.16031941771507266,-9.846273422241213,-0.017684143036603928,0.015271631,0.015577064,10
-1.0927665233612058,0.16339008510112762,-9.849886894226074,-0.017867904156446457,0.005192355,0.012217305,10
-1.0874223709106443,0.1675088107585907,-9.856499671936037,-0.018788015469908714,-0.025045475,0.0067195175,10
-1.0833948850631714,0.17112377285957334,-9.864872932434082,-0.02036814764142036,-0.046731193,0.018325957,10
-1.0832542181015017,0.1714673936367035,-9.865047454833984,-0.022031307220458984,-0.07513642,0.011301007,10
-1.0680835247039795,0.1569404900074005,-9.892899513244627,-0.023673037067055702,-0.061086524,-0.0030543262,10
-1.0682984590530396,0.14924582839012146,-9.91291332244873,-0.026065612211823463,-0.0842994,0.008857545999999999,10
-1.0883080959320068,0.1510922610759735,-9.90796947479248,-0.026849975809454918,-0.08796459400000001,0.005497787,10
-1.1083731651306152,0.15825867652893064,-9.905540466308594,-0.02741384133696556,-0.08124508,0.005192355,10
-1.1261332035064695,0.16206403076648712,-9.905098915100098,-0.028205014765262607,-0.10842858,0.0021380284,10
-1.1406890153884888,0.16793444752693176,-9.910951614379883,-0.031038941815495488,-0.14294247,0.004581489,10
-1.1634029150009155,0.17730900645256042,-9.911806106567383,-0.03351141884922981,-0.1337795,0.010079277,10
-1.184924602508545,0.18866027891635892,-9.907747268676758,-0.03398268669843674,-0.09987647,0.018020526,10
-1.2033982276916504,0.19776156544685364,-9.900148391723633,-0.03363807871937752,-0.06872234,0.01282817,10
-1.2217577695846558,0.2010573297739029,-9.8953218460083,-0.03292308747768402,-0.05467244,0.005497787,10
-1.235824465751648,0.19986282289028168,-9.888943672180176,-0.031941510736942284,-0.054061573,0.009773844,10
-1.249706506729126,0.19854602217674253,-9.886274337768556,-0.031476594507694244,-0.03970624,0.01985312,10
-1.2634931802749634,0.19827254116535187,-9.882892608642578,-0.030181696638464924,-0.01038471,0.009162978,10
-1.285281538963318,0.2009335458278656,-9.876472473144533,-0.02872740663588047,0.005192355,0.0061086523,10
-1.2981946468353271,0.19885723292827606,-9.87158489227295,-0.026596346870064732,0.038179077,0.0067195175,10
-1.3096826076507568,0.19562992453575132,-9.865034103393556,-0.02460689283907413,0.050701816,0.014660766,10
-1.313544511795044,0.19019125401973724,-9.857952117919922,-0.023125819861888885,0.06780604,0.01863139,10
-1.3120665550231934,0.1868769973516464,-9.859257698059082,-0.021623626351356503,0.0693332,0.013744468,10
-1.3025187253952026,0.18779356777668,-9.86306858062744,-0.019963333383202556,0.07666359,0.009468411,10
-1.2978404760360718,0.18758122622966766,-9.864195823669434,-0.018156817182898518,0.07299839999999999,0.007330383,10
-1.2978800535202026,0.18739205598831174,-9.86137866973877,-0.017539545893669132,0.07788532,0.009773844,10
-1.292482614517212,0.18643854558467865,-9.863405227661133,-0.016329839825630188,0.08216137400000001,0.012217305,10
-1.2873826026916504,0.18269634246826166,-9.864927291870117,-0.01566438376903534,0.08582657,0.00030543262000000003,10
-1.274006724357605,0.18424396216869354,-9.842222213745117,-0.015158523805439472,0.071776666,0.0027488936,10
-1.261734127998352,0.18426072597503665,-9.838571548461914,-0.014055012725293636,0.06566802,0.021380283,10
-1.2461228370666504,0.18122585117816925,-9.849574089050293,-0.01477121189236641,0.051923547,0.002443461,10
-1.2299729585647583,0.17298021912574768,-9.85602569580078,-0.014192634262144566,0.029321533,0.008857545999999999,10
-1.220468282699585,0.16994348168373108,-9.85415267944336,-0.015230851247906685,0.00030543262000000003,0.005192355,10
-1.2131656408309937,0.16924698650836945,-9.852461814880373,-0.016251344233751297,-0.021991149,0.009773844,10
-1.2096686363220217,0.17215876281261444,-9.856588363647461,-0.017633160576224327,-0.02687807,0.016798794,10
-1.207037091255188,0.16953779757022858,-9.85618782043457,-0.01931283995509148,-0.024129177,0.008246681,10
-1.20887291431427,0.1631273627281189,-9.856674194335938,-0.020570088177919388,-0.011301007,0.011301007,10
-1.2086414098739624,0.15822073817253113,-9.857584953308104,-0.02077250368893146,-0.009468411,0.014966198,10
-1.2146025896072388,0.16663947701454165,-9.856701850891113,-0.02094745449721813,-0.006414085,0.0061086523,10
-1.2264336347579956,0.17167866230010986,-9.857280731201172,-0.02270342968404293,-0.0290161,0.006414085,10
-1.2277100086212158,0.1762392222881317,-9.85942840576172,-0.023604243993759155,-0.03970624,0.016798794,10
-1.229315161705017,0.17602550983428955,-9.860008239746094,-0.02549448236823082,-0.03390302,0.00580322,10
-1.2306909561157229,0.1757342666387558,-9.859566688537598,-0.026932861655950543,-0.025961773,0.0015271631,10
-1.2343523502349854,0.17325948178768158,-9.861631393432617,-0.027094846591353416,-0.02107485,0.013133603,10
-1.2384860515594482,0.17481309175491333,-9.865736961364746,-0.02640966884791851,-0.002443461,0.0033597588,10
-1.2423943281173706,0.1752723753452301,-9.869065284729004,-0.0255552027374506,0.005497787,0.01038471,10
-1.2415471076965332,0.1722823977470398,-9.863667488098145,-0.025024613365530968,-0.0018325958,0.018020526,10
-1.2414027452468872,0.1757155954837799,-9.860494613647461,-0.023796677589416504,0.01282817,0.009468411,10
-1.2451729774475098,0.18464478850364685,-9.856982231140137,-0.023191047832369804,0.007941248,0.01038471,10
-1.2463456392288208,0.18661178648471832,-9.85889720916748,-0.022403303533792496,0.0125227375,0.009468411,10
-1.2501420974731443,0.1882958710193634,-9.864205360412598,-0.021228918805718425,0.020158553,0.0076358155,10
-1.2509012222290041,0.1948300004005432,-9.867080688476562,-0.021383931860327717,0.029932396,0.014049901000000002,10
-1.240447998046875,0.19555434584617612,-9.865323066711426,-0.020736195147037503,0.032070424,0.011301007,10
-1.234559416770935,0.1910575777292252,-9.864180564880373,-0.020667992532253262,0.032070424,0.012217305,10
-1.231649398803711,0.18366536498069766,-9.876285552978516,-0.0200608279556036,0.03940081,0.009773844,10
-1.2270829677581787,0.17725516855716705,-9.88304042816162,-0.019759977236390117,0.043982297,0.01282817,10
-1.220030665397644,0.1767822653055191,-9.878957748413086,-0.018992830067873,0.062002823,0.009773844,10
-1.2123738527297974,0.1809642463922501,-9.877939224243164,-0.018680935725569725,0.050701816,0.008552114,10
-1.2033864259719849,0.18586565554142,-9.875724792480467,-0.01849498227238655,0.043676864,0.018020526,10
-1.1927297115325928,0.1848668307065964,-9.877004623413086,-0.018767982721328732,0.01985312,0.008246681,10
-1.1857999563217163,0.17920450866222382,-9.87848949432373,-0.01880962587893009,0.018936822,0.0067195175,10
-1.180063009262085,0.1788686066865921,-9.876834869384766,-0.018727021291852,0.005497787,0.008246681,10
-1.1773744821548462,0.17834050953388214,-9.8788480758667,-0.01965663954615593,0.0061086523,0.007941248,10
-1.1774871349334717,0.1790524423122406,-9.876392364501953,-0.02053423598408699,0.008552114,0.013439035,10
-1.1736453771591189,0.18233801424503326,-9.87149715423584,-0.020870164036750797,0.011301007,0.008552114,10
-1.169275999069214,0.1825597882270813,-9.8695707321167,-0.020451994612813,0.004886922,0.010079277,10
-1.1659883260726929,0.17953374981880188,-9.86777114868164,-0.021151779219508168,-0.013133603,0.01038471,10
-1.1681382656097412,0.17860205471515656,-9.867986679077148,-0.022227989509701732,-0.03023783,0.015271631,10
-1.1729340553283691,0.17815932631492615,-9.864680290222168,-0.024431854486465454,-0.043066,0.0067195175,10
-1.1754281520843506,0.17965590953826904,-9.860796928405762,-0.02628329023718834,-0.041233405,0.013744468,10
-1.1828118562698364,0.17749905586242676,-9.866528511047363,-0.02869961224496365,-0.03970624,0.0030543262,10
-1.1865147352218628,0.17534992098808289,-9.870963096618652,-0.028648803010582924,-0.015577064,0.011911872,10
-1.1944221258163452,0.17744743824005127,-9.87325954437256,-0.02780480682849884,0.013439035,0.008246681,10
-1.200799584388733,0.1826054155826569,-9.878458976745604,-0.026605119928717613,0.03604105,0.009468411,10
-1.2000457048416138,0.1891033798456192,-9.881673812866213,-0.0249561108648777,0.04337143,0.007941248,10
-1.1951096057891846,0.19009725749492645,-9.883743286132812,-0.02342257462441921,0.041233405,0.010995574,10
-1.1917760372161863,0.19082731008529666,-9.879671096801758,-0.023595409467816356,0.018936822,0.0076358155,10
-1.1899287700653076,0.18914657831192014,-9.879441261291504,-0.023419689387083054,0.0027488936,0.008857545999999999,10
-1.1854875087738037,0.1883329153060913,-9.882278442382812,-0.02280548401176929,-0.00030543262000000003,0.011301007,10
-1.1834368705749512,0.18269868195056915,-9.881749153137207,-0.02339812740683556,0.006414085,0.014966198,10
-1.1769644021987915,0.1791692078113556,-9.876415252685547,-0.023099957033991814,0.018020526,0.0067195175,10
-1.1705670356750488,0.181482806801796,-9.868812561035156,-0.021417686715722084,0.03756821,0.0036651916,10
-1.1634186506271362,0.17952409386634827,-9.864051818847656,-0.02002323791384697,0.047647487,0.01282817,10
-1.1578993797302246,0.17808674275875092,-9.86640167236328,-0.018260959535837173,0.009162978,0.010690141499999998,10
-1.1615173816680908,0.17586956918239596,-9.864630699157717,-0.016233041882514954,0.053145275,0.00580322,10
-1.159979224205017,0.17700989544391632,-9.862177848815918,-0.015608562156558037,0.04337143,0.008552114,10
-1.1578942537307741,0.17942127585411072,-9.867640495300293,-0.016398195177316666,-0.006414085,0.010079277,10
-1.1563501358032229,0.1808825433254242,-9.875404357910156,-0.016224423423409462,-0.049480084,0.008552114,10
-1.1520568132400513,0.18095938861370087,-9.878433227539062,-0.018010284751653668,-0.071776666,0.01038471,10
-1.1524417400360107,0.1811130940914154,-9.88663101196289,-0.02148497849702835,-0.08704830000000001,0.009773844,10
-1.1586490869522097,0.1820233017206192,-9.8919677734375,-0.023826655000448227,-0.09315695,0.0033597588,10
-1.172510027885437,0.17870140075683594,-9.891818046569824,-0.025742478668689728,-0.0693332,0.010079277,10
-1.180532693862915,0.174671471118927,-9.887624740600586,-0.027049744501709938,-0.061391957,0.017104227,10
-1.1828392744064329,0.17395596206188202,-9.884498596191406,-0.027645861729979515,-0.06994407,0.005497787,10
-1.1917473077774048,0.18055635690689087,-9.883136749267578,-0.028764126822352413,-0.07299839999999999,0.005497787,10
-1.2042338848114014,0.18187297880649567,-9.88387680053711,-0.029112976044416424,-0.04428773,0.015577064,10
-1.2140387296676636,0.18000593781471252,-9.880690574645996,-0.028783215209841725,-0.0030543262,0.018936822,10
-1.2234768867492676,0.17413324117660522,-9.87356948852539,-0.027397226542234417,0.03634648,0.0076358155,10
-1.2315354347229004,0.1719048023223877,-9.873651504516602,-0.025568686425685886,0.05222898,0.013133603,10
-1.2324800491333008,0.1730223447084427,-9.867923736572266,-0.024209631606936455,0.04886922,0.0125227375,10
-1.2334823608398438,0.17185132205486298,-9.85901927947998,-0.02330861240625381,0.040927973,0.01160644,10
-1.2425389289855957,0.17403572797775269,-9.86797046661377,-0.02214791253209114,0.029932396,0.010079277,10
-1.247769474983215,0.1744290441274643,-9.872109413146973,-0.021961748600006104,0.039095376,0.008246681,10
-1.2432314157485962,0.17514155805110931,-9.869260787963867,-0.021498102694749832,0.038789943,0.011911872,10
-1.2396812438964844,0.17472586035728455,-9.877655982971193,-0.02072321251034737,0.054061573,0.006414085,10
-1.2382259368896484,0.17278745770454407,-9.895965576171877,-0.019093889743089683,0.054061573,0.016493361,10
-1.2342417240142822,0.17196707427501678,-9.900471687316896,-0.017299551516771317,0.05467244,0.009468411,10
-1.2263189554214478,0.1709400713443756,-9.896170616149902,-0.016369374468922615,0.036957346,0.016798794,10
-1.2184330224990845,0.17064975202083588,-9.891520500183104,-0.016612064093351364,0.010690141499999998,0.012217305,10
-1.2097753286361694,0.1677052080631256,-9.890769004821776,-0.0168314129114151,0.003970624,0.008857545999999999,10
-1.2023391723632812,0.16578635573387146,-9.882087707519533,-0.01795158162713051,-0.0012217305,0.01160644,10
-1.198567271232605,0.16692475974559784,-9.876721382141113,-0.018452351912856102,-0.0009162979,0.006414085,10
-1.1949089765548706,0.1700768917798996,-9.870481491088867,-0.019024675711989403,-0.0018325958,0.009468411,10
-1.1913799047470093,0.1668633371591568,-9.862421989440918,-0.01922767050564289,-0.007941248,0.007330383,10
-1.1856082677841189,0.16125400364398956,-9.860433578491213,-0.019267214462161064,-0.010690141499999998,0.009773844,10
-1.1817021369934082,0.15784497559070587,-9.862953186035156,-0.01901004090905189,-0.014660766,0.015577064,10
-1.1837434768676758,0.15831144154071808,-9.86589813232422,-0.01907216943800449,-0.0076358155,0.008857545999999999,10
-1.1825988292694092,0.157765731215477,-9.870138168334961,-0.019690772518515587,-0.01985312,0.010995574,10
-1.1773940324783323,0.15866176784038544,-9.86809253692627,-0.019741574302315712,-0.021991149,0.007941248,10
-1.1797040700912476,0.16060888767242432,-9.865904808044434,-0.0208659078925848,-0.03023783,0.009773844,10
-1.1861751079559326,0.16352666914463046,-9.865241050720217,-0.022154061123728752,-0.04184427,0.006414085,10
-1.1993588209152222,0.1599191427230835,-9.861380577087402,-0.023932861164212227,-0.036957346,0.01160644,10
-1.2121027708053589,0.15574628114700315,-9.861795425415039,-0.02485494688153267,-0.036957346,0.009773844,10
-1.2196944952011108,0.15677949786186218,-9.86069107055664,-0.02528173290193081,-0.03145956,0.01160644,10
-1.2191098928451538,0.16288571059703827,-9.856278419494627,-0.025601238012313843,-0.022907447,0.008857545999999999,10
-1.2218440771102903,0.16175132989883426,-9.851473808288574,-0.02580268494784832,-0.01863139,0.013744468,10
-1.2275538444519043,0.16446642577648166,-9.84857940673828,-0.02479152195155621,-0.0021380284,0.008552114,10
-1.2345468997955322,0.1696917563676834,-9.851638793945312,-0.023039136081933972,0.007330383,0.0070249503,10
-1.234141826629639,0.17094165086746216,-9.856313705444336,-0.02205995284020901,0.014966198,0.011911872,10
-1.2364233732223509,0.16861417889595032,-9.854510307312012,-0.02210215851664543,0.02443461,0.005497787,10
-1.23863422870636,0.16490869224071505,-9.85346221923828,-0.02203481271862984,0.02076942,0.015271631,10
-1.238957405090332,0.16155827045440674,-9.857170104980467,-0.022157935425639156,0.024129177,0.0125227375,10
-1.2426167726516724,0.16257891058921814,-9.861315727233887,-0.022353269159793854,0.02321288,0.004276057,10
-1.2426837682724,0.1633533388376236,-9.85572338104248,-0.02163885161280632,0.028710667,-0.00030543262000000003,10
-1.2424981594085691,0.16415368020534515,-9.847616195678713,-0.020666835829615596,0.044898596,0.014966198,10
-1.2399059534072876,0.1605100780725479,-9.841403007507324,-0.020091429352760315,0.056505036,0.010079277,10
-1.231050729751587,0.1613614857196808,-9.82510757446289,-0.01891339011490345,0.04795292,0.004581489,10
-1.2266703844070437,0.16444070637226105,-9.824511528015137,-0.01826466806232929,0.038179077,0.007330383,10
-1.2265489101409912,0.169814795255661,-9.837164878845217,-0.017909018322825432,0.015577064,0.0033597588,10
-1.2259039878845217,0.17226818203926084,-9.851383209228516,-0.01817406713962555,-0.004886922,0.007941248,10
-1.2277387380599976,0.1726294904947281,-9.855596542358398,-0.018432751297950745,-0.027183503,0.004886922,10
-1.2312091588974,0.17538756132125854,-9.858233451843262,-0.01994197815656662,-0.047647487,0.005192355,10
-1.2316856384277344,0.17563124001026156,-9.866790771484377,-0.022389840334653854,-0.06047566,0.013744468,10
-1.2261312007904053,0.17931397259235382,-9.86498737335205,-0.02489499375224113,-0.053145275,0.0009162979,10
-1.2296795845031738,0.17758551239967346,-9.857401847839355,-0.027562536299228668,-0.08796459400000001,0.007330383,10
-1.2346758842468262,0.17249709367752075,-9.85607624053955,-0.029625089839100838,-0.06994407,0.008246681,10
-1.2445322275161743,0.1668175905942917,-9.860048294067383,-0.031407348811626434,-0.0580322,0.013744468,10
-1.2553516626358032,0.16503654420375824,-9.861166954040527,-0.03231289982795715,-0.036957346,0.016493361,10
-1.2655881643295288,0.16606099903583527,-9.865971565246582,-0.0328129380941391,-0.025350908,0.013744468,10
-1.269319772720337,0.17292125523090365,-9.870019912719727,-0.03240494802594185,-0.026572637000000003,0.010690141499999998,10
-1.2693109512329102,0.1764165461063385,-9.863449096679688,-0.032091740518808365,-0.040927973,0.01160644,10
-1.2703297138214111,0.17825722694396973,-9.85961627960205,-0.031235015019774437,-0.05222898,0.014660766,10
-1.2683066129684448,0.17291219532489774,-9.885757446289062,-0.03138887137174606,-0.053450707,0.010995574,10
-1.284321665763855,0.16905477643013,-9.888973236083984,-0.03241100907325745,-0.03359759,0.0143553335,10
-1.30195415019989,0.16790783405303955,-9.885672569274902,-0.03283115103840828,-0.028405234,0.010079277,10
-1.3192607164382937,0.16818904876708984,-9.879292488098145,-0.032521862536668784,-0.026572637000000003,0.013439035,10
-1.329705834388733,0.16830037534236908,-9.876821517944336,-0.03223920613527298,-0.04184427,0.010995574,10
-1.3389647006988523,0.17308670282363892,-9.870323181152344,-0.032373134046792984,-0.0421497,0.017715093,10
-1.344446301460266,0.17980338633060455,-9.861042022705078,-0.03278929367661476,-0.058643065,0.0061086523,10
-1.3617326021194458,0.17828229069709778,-9.856974601745604,-0.03112946823239326,-0.040927973,-0.0076358155,10
-1.379779815673828,0.1754811406135559,-9.860315322875977,-0.03215508908033371,-0.08552113,0.0033597588,10
-1.3873848915100098,0.1754509210586548,-9.858156204223633,-0.03193724900484085,-0.087659165,0.0070249503,10
-1.409647822380066,0.17728300392627716,-9.847585678100586,-0.03121774271130562,-0.051618114000000014,-0.008246681,10
-1.4230484962463381,0.17397604882717133,-9.846491813659668,-0.032245852053165436,-0.08124508,0.010079277,10
-1.4359039068222046,0.174636572599411,-9.841801643371582,-0.03216717764735222,-0.08277224,0.008246681,10
-1.446810245513916,0.17997612059116366,-9.84005069732666,-0.032829545438289635,-0.07696902,0.010079277,10
-1.4535934925079346,0.1844273805618286,-9.83471393585205,-0.033639583736658096,-0.06566802,0.016187929,10
-1.465068817138672,0.1908394992351532,-9.82619857788086,-0.033689700067043304,-0.061086524,0.007941248,10
-1.4799474477767944,0.19623321294784546,-9.823687553405762,-0.03524908795952797,-0.044898596,0.01282817,10
-1.4982359409332275,0.20536382496356964,-9.828438758850098,-0.03634626418352127,-0.021685716,0.011911872,10
-1.5085833072662354,0.21495787799358368,-9.824273109436037,-0.035695690661668784,-0.01985312,0.015577064,10
-1.5145388841629028,0.21953696012496948,-9.823156356811523,-0.033677779138088226,-0.034513887,0.019547688,10
-1.518726468086243,0.2250228375196457,-9.829998016357422,-0.03312456235289574,-0.050701816,0.0070249503,10
-1.5275511741638184,0.22418683767318728,-9.826312065124512,-0.032423362135887146,-0.06169739,0.014049901000000002,10
-1.5401974916458132,0.2289969176054001,-9.793153762817383,-0.032862324267625816,-0.06078109,0.01282817,10
-1.5461500883102417,0.2291357517242432,-9.7977876663208,-0.03246855363249779,-0.055283304000000005,0.01282817,10
-1.551543951034546,0.23072779178619385,-9.798944473266602,-0.03238441050052643,-0.051923547,0.016493361,10
-1.5600239038467407,0.2310357093811035,-9.799978256225586,-0.03158694878220558,-0.034208454,0.0021380284,10
-1.5686783790588381,0.2322043925523758,-9.799887657165527,-0.03124857507646084,-0.028710667,0.010690141499999998,10
-1.5728799104690552,0.2325677126646042,-9.802194595336914,-0.0293672364205122,-0.02321288,0.00580322,10
-1.5766351222991943,0.23681102693080905,-9.799440383911133,-0.02792985923588276,-0.00030543262000000003,0.008857545999999999,10
-1.5805910825729368,0.23834052681922915,-9.79347038269043,-0.025707859545946118,0.014660766,0.007941248,10
-1.58683180809021,0.2342948317527771,-9.78919792175293,-0.02516784705221653,0.018936822,0.0143553335,10
-1.592406988143921,0.2248329073190689,-9.790521621704102,-0.02506420202553272,0.023823744,0.0125227375,10
-1.5965261459350586,0.2190197855234146,-9.795306205749512,-0.025908306241035458,0.011301007,0.01160644,10
-1.6001144647598269,0.21662811934947968,-9.802281379699707,-0.024801377207040787,-0.008552114,0.0036651916,10
-1.6009373664855957,0.215531662106514,-9.805931091308594,-0.02398212999105453,-0.01740966,0.010690141499999998,10
-1.6040815114974976,0.21901848912239075,-9.806777954101562,-0.024177059531211853,-0.027183503,0.016493361,10
-1.608368158340454,0.21702806651592252,-9.806772232055664,-0.024176234379410744,-0.024740042,0.011911872,10
-1.6186012029647827,0.21780119836330414,-9.7974853515625,-0.02373512648046017,-0.021991149,0.0143553335,10
-1.6194801330566406,0.22297953069210047,-9.790942192077637,-0.02383693866431713,-0.008857545999999999,0.010079277,10
-1.6230803728103638,0.2338068187236786,-9.788569450378418,-0.02349485456943512,-0.008857545999999999,0.0061086523,10
-1.6331356763839722,0.2359441518783569,-9.785757064819336,-0.022377822548151016,-0.0015271631,0.010079277,10
-1.6369543075561523,0.2391395568847656,-9.786431312561037,-0.02114618569612503,-0.009773844,0.0033597588,10
-1.6400492191314695,0.2382921725511551,-9.794001579284668,-0.02095774188637733,-0.009162978,0.01038471,10
-1.6429530382156372,0.2359325587749481,-9.799171447753906,-0.02095318399369717,-0.0015271631,0.014660766,10
-1.6450268030166626,0.2382270246744156,-9.79769802093506,-0.02077385783195496,0.009773844,0.015271631,10
-1.6456445455551147,0.2392258793115616,-9.795738220214844,-0.022139308974146843,0.019242255,0.012217305,10
-1.6380107402801514,0.2400806099176407,-9.80355739593506,-0.022695330902934074,0.0290161,0.009162978,10
-1.6350212097167969,0.2355606108903885,-9.809895515441896,-0.022567436099052433,0.023518313,0.013439035,10
-1.6326825618743896,0.22781510651111606,-9.81405258178711,-0.022757481783628464,0.02321288,0.009162978,10
-1.6278303861618042,0.2186871021986008,-9.819133758544922,-0.02323598228394985,0.009162978,0.011301007,10
-1.6244163513183594,0.2175336629152298,-9.82172393798828,-0.02260280214250088,0.01863139,0.008552114,10
-1.628876805305481,0.22006329894065854,-9.82402229309082,-0.02296770177781582,0.016493361,0.012217305,10
-1.6365301609039309,0.2222658544778824,-9.82381534576416,-0.022669823840260502,0.009468411,0.009162978,10
-1.6371150016784668,0.2258996516466141,-9.825088500976562,-0.02191179059445858,0.0033597588,0.011301007,10
-1.6326719522476196,0.22229121625423431,-9.824602127075195,-0.021204680204391483,-0.008246681,0.016798794,10
-1.630038499832153,0.2201364636421204,-9.81877899169922,-0.020863933488726616,-0.01863139,0.015577064,10
-1.6304148435592651,0.21678262948989868,-9.813580513000488,-0.020047223195433617,-0.013133603,0.0143553335,10
-1.6325629949569702,0.21892395615577695,-9.809755325317383,-0.019928522408008572,0.016493361,0.014660766,10
-1.6344442367553709,0.22395654022693634,-9.810261726379396,-0.01977899856865406,0.02107485,0.010690141499999998,10
-1.6341321468353271,0.2270033955574036,-9.813319206237793,-0.02073055319488049,0.010079277,0.0033597588,10
-1.6337825059890747,0.22840747237205505,-9.814929008483887,-0.021369654685258862,0.009162978,0.011911872,10
-1.6330801248550415,0.2319391965866089,-9.814008712768556,-0.021143529564142227,0.010079277,0.01038471,10
-1.629830837249756,0.2364254891872406,-9.813691139221193,-0.021251685917377472,0.004886922,0.008857545999999999,10
-1.6299145221710205,0.2393824756145477,-9.81348991394043,-0.02048955298960209,0.021685716,0.010995574,10
-1.6312848329544067,0.2381281554698944,-9.81401252746582,-0.0212278813123703,0.020158553,0.012217305,10
-1.6274793148040771,0.23341529071331024,-9.811017036437988,-0.021602639928460118,0.01282817,0.007330383,10
-1.6252275705337524,0.2275419235229492,-9.812603950500488,-0.021335611119866368,0.0015271631,0.004276057,10
-1.622151255607605,0.22359471023082733,-9.815654754638672,-0.02182494662702084,-0.0036651916,0.0070249503,10
-1.6161000728607178,0.2206839621067047,-9.81153392791748,-0.02208688855171204,-0.01740966,0.014966198,10
-1.6171506643295288,0.22409868240356445,-9.80848503112793,-0.0220833532512188,-0.03268129,0.008552114,10
-1.6189780235290527,0.21951860189437866,-9.803703308105467,-0.023602107539772987,-0.016187929,0.0076358155,10
-1.6199415922164917,0.21852780878543854,-9.7987642288208,-0.023474667221307755,-0.009162978,0.01282817,10
-1.6240934133529663,0.21886985003948206,-9.794814109802246,-0.02402837760746479,-0.0070249503,0.009773844,10
-1.6267542839050293,0.21914461255073547,-9.796520233154297,-0.023583287373185158,0.004276057,0.007330383,10
-1.6261557340621948,0.21932794153690335,-9.80250072479248,-0.02273588441312313,-0.004276057,0.01282817,10
-1.630531907081604,0.2148035764694214,-9.805437088012695,-0.023382922634482384,-0.0036651916,0.010079277,10
-1.6364455223083496,0.2140202969312668,-9.805676460266113,-0.02314605377614498,-0.0021380284,0.007330383,10
-1.6390055418014526,0.2171331346035004,-9.804426193237305,-0.022676248103380203,0.0030543262,0.01282817,10
-1.638469934463501,0.2185622751712799,-9.80163288116455,-0.023280298337340355,0.010995574,0.009773844,10
-1.6346309185028076,0.2142914682626724,-9.79940128326416,-0.023226642981171608,0.020158553,0.011911872,10
-1.631775140762329,0.2130049020051956,-9.792705535888672,-0.0224256981164217,0.03023783,0.007330383,10
-1.630207896232605,0.2119794487953186,-9.791983604431152,-0.02241206169128418,0.040927973,0.010995574,10
-1.6252776384353638,0.20960283279418945,-9.792272567749023,-0.020823793485760692,0.05131268,0.009468411,10
-1.6159389019012451,0.20670653879642487,-9.797653198242188,-0.020441632717847824,0.032986723,0.015271631,10
-1.6106895208358765,0.2073928266763687,-9.801355361938477,-0.019678853452205658,0.01863139,0.008552114,10
-1.6115318536758425,0.21173402667045596,-9.804760932922363,-0.02029061689972877,0.018936822,0.0076358155,10
-1.6156305074691772,0.21551181375980374,-9.8112154006958,-0.02083861269056797,0.01863139,0.012217305,10
-1.6126655340194702,0.21497085690498352,-9.809247970581056,-0.02197965793311596,0.017104227,0.0143553335,10
-1.6083755493164062,0.2146151065826416,-9.810433387756348,-0.02186219394207001,0.016493361,0.013439035,10
-1.603973388671875,0.21712641417980194,-9.808650970458984,-0.022002629935741425,0.008552114,0.0125227375,10
-1.6043053865432741,0.21862536668777466,-9.807497024536133,-0.021668357774615288,0.005192355,0.011301007,10
-1.606564164161682,0.22123396396636966,-9.80615520477295,-0.022177884355187416,-0.00061086525,0.0030543262,10
-1.603986144065857,0.225389763712883,-9.803831100463867,-0.02249286137521267,-0.0076358155,0.012217305,10
-1.5982433557510376,0.2255268543958664,-9.810396194458008,-0.02165239863097668,-0.012217305,0.00580322,10
-1.5917556285858154,0.22829435765743256,-9.814693450927734,-0.0221036933362484,-0.0061086523,0.01038471,10
-1.5929627418518066,0.22436128556728366,-9.814339637756348,-0.02158736996352673,-0.009162978,0.009468411,10
-1.5980299711227417,0.22372831404209134,-9.814226150512695,-0.02251975238323212,-0.014049901000000002,0.013133603,10
-1.5995316505432131,0.22487236559391025,-9.810274124145508,-0.022329621016979214,-0.014966198,0.007941248,10
