timestamp,rel_time,acc_x,acc_y,acc_z,gyro_x,gyro_y,gyro_z,azimuth,pitch,roll,label
0.0,0.0,0.0,0.0,0.0,0.0,0.063224554,0.0009162978999999999,88.94734,-53.183216,-6.321329599999999,STD
13796729000.0,1.4916251529939473e-05,-0.0038769927341490984,-0.02840239554643631,0.0033329292200505733,-0.00011602176527958363,0.06536258,-0.004581489,89.06586999999999,-52.45604300000001,-6.443412,STD
41184870000.0,7.441663910867646e-05,-0.011610481888055801,-0.08477729558944702,0.009970647282898426,-0.00031359720742329955,0.0711658,-0.0027488936,89.18422,-51.72568,-6.562369,STD
81761150000.0,0.00020688518998213112,-0.023123018443584442,-0.16828756034374237,0.01983642764389515,-0.0005927554448135197,0.07269296,-0.00030543262000000003,89.30659,-50.983868,-6.680751299999999,STD
134938680000.0,0.00043891675886698067,-0.0382835678756237,-0.2777184247970581,0.03280803933739662,-0.000994454836472869,0.071776666,0.00030543262000000003,89.430885,-50.233303,-6.7983020000000005,STD
199967210000.0,0.0007958657224662602,-0.05691387504339218,-0.4115190804004669,0.04872303456068039,-0.0015344674466177821,0.06688975,-0.009162978,89.559814,-49.473682000000004,-6.915553,STD
275958200000.0,0.0012988336384296417,-0.07879170030355453,-0.5678550004959106,0.06738259643316269,-0.0018814865034073591,0.06719518,-0.0030543262,89.68741999999999,-48.71067,-7.028417999999999,STD
361912930000.0,0.0019670268520712852,-0.10366164892911911,-0.744665265083313,0.08856002986431122,-0.0023345418740063906,0.06719518,-0.003970624,89.82189,-47.93137,-7.142199000000001,STD
456752370000.0,0.0028164212126284838,-0.1312418431043625,-0.9397245049476624,0.11200697720050812,-0.0027458390686661005,0.06505715,-0.0067195175,89.9585,-47.150055,-7.252836,STD
559347200000.0,0.003857937641441822,-0.16123005747795105,-1.1507048606872559,0.13745933771133423,-0.002949492074549198,0.0580322,-0.00580322,90.09815,-46.3608,-7.359964,STD
668546430000.0,0.00510128028690815,-0.19331645965576172,-1.3752342462539673,0.1646469235420227,-0.003503618761897087,0.06352998,-0.0076358155,90.23918,-45.557323,-7.4681797,STD
783203760000.0,0.006551417987793684,-0.2271866649389267,-1.61095130443573,0.19329728186130524,-0.00397001625970006,0.056199603,-0.0076358155,90.38622,-44.75268,-7.5696826,STD
902200600000.0,0.008212395012378693,-0.26253288984298706,-1.855552077293396,0.22314396500587463,-0.004330684896558523,0.06078109,-0.009162978,90.53274,-43.93566,-7.673025599999999,STD
1024465700000.0,0.010083610191941261,-0.2990547716617584,-2.1068310737609863,0.2539285719394684,-0.004630809649825096,0.058337633,-0.009468411,90.68420400000001,-43.110714,-7.7707314,STD
1148990500000.0,0.012161740101873875,-0.33646613359451294,-2.3627126216888428,0.28540584444999695,-0.005116670858114958,0.05222898,-0.013133603,90.83874499999999,-42.27606,-7.866963,STD
1274840500000.0,0.014445537701249123,-0.37450408935546875,-2.6212730407714844,0.317349910736084,-0.005685383453965187,0.047036625,-0.010690141499999998,90.994514,-41.434742,-7.9590225000000006,STD
1401163400000.0,0.01692645251750946,-0.4129196107387543,-2.8807592391967773,0.3495493531227112,-0.0057707554660737514,0.06017022599999999,-0.009773844,91.15111999999999,-40.587574,-8.051888,STD
1527193000000.0,0.01959836483001709,-0.4514908492565155,-3.1395957469940186,0.3818153142929077,-0.006167557556182146,0.05589417,-0.014049901000000002,91.31463000000001,-39.725570000000005,-8.137433,STD
1652251300000.0,0.022453706711530685,-0.490018755197525,-3.396388053894043,0.41397908329963684,-0.0064127519726753235,0.053145275,-0.013744468000000001,91.47606999999999,-38.862625,-8.222052,STD
1775747200000.0,0.025483982637524605,-0.5283274054527283,-3.649921178817749,0.44589221477508545,-0.006922438740730286,0.057726767000000005,-0.008857545999999999,91.638725,-37.98662,-8.304167999999999,STD
1897173500000.0,0.028673406690359116,-0.5662553310394287,-3.8991549015045166,0.47742125391960144,-0.0074889459647238255,0.063224554,-0.008246681,91.80435,-37.104935,-8.383339999999999,STD
2016102800000.0,0.032015204429626465,-0.6036746501922607,-4.1432108879089355,0.5084584355354309,-0.008110684342682362,0.06078109,-0.007330383,91.97102,-36.213966,-8.457343,STD
2132182200000.0,0.035501543432474136,-0.6404768228530884,-4.381364345550537,0.5389131307601929,-0.008990594185888767,0.06841691,-0.009773844,92.13718,-35.313503000000004,-8.532012,STD
2245126800000.0,0.03912115469574928,-0.6765682101249695,-4.613031387329102,0.5687087178230286,-0.009763302281498909,0.07544186,-0.010995574,92.304855,-34.40749,-8.601964,STD
2354714000000.0,0.04286397993564606,-0.7118740081787109,-4.837756156921387,0.5977842807769775,-0.010583722032606602,0.08307768,-0.004276057,92.47122,-33.491768,-8.669336,STD
2460776400000.0,0.04672675207257271,-0.7463433146476746,-5.055194854736328,0.6260972023010254,-0.01149251963943243,0.08521569999999999,-0.005497787,92.64086999999999,-32.568659999999994,-8.734815,STD
2563195800000.0,0.050690747797489166,-0.7799197435379028,-5.265108108520508,0.6536055207252502,-0.012311954982578754,0.07788532,-0.016798794,92.81280500000001,-31.639,-8.796461,STD
2661896700000.0,0.054750241339206696,-0.812575101852417,-5.467342376708984,0.6802870035171509,-0.012439770624041557,0.083383106,-0.0076358155,92.97878,-30.706356,-8.854908,STD
2756840800000.0,0.058901067823171616,-0.8442935347557068,-5.661819934844971,0.7061294317245483,-0.012666769325733185,0.08582657,-0.004276057,93.15149,-29.762089000000003,-8.909444,STD
2848021500000.0,0.06313560158014297,-0.8750637173652649,-5.848528861999512,0.7311258316040039,-0.012944790534675121,0.083383106,-0.0036651915999999997,93.323265,-28.815893,-8.95913,STD
2935459700000.0,0.06743942946195602,-0.9048734307289124,-6.027515411376953,0.7552707195281982,-0.012833083979785442,0.08277224,-0.01282817,93.49674,-27.865084000000003,-9.006621,STD
3019198200000.0,0.0718097984790802,-0.9337313175201416,-6.198868751525879,0.7785724997520447,-0.012954819947481155,0.08643743400000001,-0.002443461,93.66525,-26.905544,-9.047697,STD
3099298400000.0,0.0762428417801857,-0.9616497755050659,-6.362716197967529,0.8010432124137878,-0.012672126293182373,0.08552113,-0.0070249503,93.84099,-25.944738,-9.086447,STD
3175837000000.0,0.08076654374599457,-0.9886850118637085,-6.519208908081055,0.8227214217185974,-0.01272635255008936,0.0842994,-0.007330383,94.01265,-24.973824,-9.119867999999999,STD
3248902600000.0,0.08530191332101822,-1.0147634744644165,-6.668548107147217,0.843571662902832,-0.011986106634140015,0.08521569999999999,-0.0018325957999999999,94.18381,-24.006153,-9.149199000000001,STD
3318592800000.0,0.08988531678915024,-1.0399577617645264,-6.81092643737793,0.8636436462402344,-0.011701411567628384,0.089186326,-0.0012217305,94.35594,-23.024677,-9.175317,STD
3385012800000.0,0.09450984001159668,-1.06428861618042,-6.946561336517334,0.8829576373100281,-0.011727886274456978,0.09010262,0.0027488936,94.52563,-22.043972,-9.195547,STD
3448271800000.0,0.09917233884334564,-1.0877827405929565,-7.075679302215576,0.9015377759933472,-0.012083549052476883,0.090713486,0.00030543262000000003,94.69593,-21.055985999999997,-9.213032,STD
3508483400000.0,0.10386838763952255,-1.1103976964950562,-7.19843864440918,0.9191728830337524,-0.012058882042765617,0.09010262,-0.002443461,94.864586,-20.066097,-9.225667,STD
3565762000000.0,0.10859526693820953,-1.1321219205856323,-7.315032482147217,0.9357505440711975,-0.0123522337526083,0.0983493,-0.0027488936,95.0315,-19.066713,-9.236489,STD
3620223800000.0,0.11334918439388275,-1.1529884338378906,-7.425705432891846,0.9513144493103027,-0.012567614205181599,0.10323623,-0.0009162978999999999,95.170784,-18.06715,-9.308641,STD
3671984200000.0,0.11812718957662582,-1.1730308532714844,-7.530701637268066,0.9659075140953064,-0.013106751255691051,0.0983493,0.0021380284,95.31097,-17.060523999999997,-9.375519,STD
3721157100000.0,0.12292857468128204,-1.192284345626831,-7.630260944366455,0.9795705676078796,-0.013555089011788368,0.1133155,-0.0021380284,95.451515,-16.053192000000003,-9.444780999999999,STD
3767855200000.0,0.12775054574012756,-1.2107818126678467,-7.724621295928955,0.9923454523086548,-0.013389067724347115,0.10659598599999999,-0.0036651915999999997,95.59333000000001,-15.044547,-9.501401,STD
3812188700000.0,0.13258890807628632,-1.228554129600525,-7.814016342163086,1.0042742490768433,-0.013375665992498398,0.11453723,-0.0070249503,95.73514,-14.029654999999998,-9.561786,STD
3854265500000.0,0.1374484896659851,-1.2456389665603638,-7.89866828918457,1.0153911113739014,-0.013459243811666965,0.11789699,-0.0076358155,95.877815,-13.016268,-9.614105,STD
3894189800000.0,0.14231882989406586,-1.2620604038238525,-7.9788031578063965,1.0257409811019897,-0.013297448866069317,0.11148291,-0.007330383,96.02145,-12.002099000000001,-9.6612015,STD
3932062700000.0,0.14724501967430115,-1.2778866291046143,-8.054601669311523,1.035325050354004,-0.013369286432862282,0.10567969,-0.0067195175,96.164856,-10.98352,-9.704549,STD
3967982500000.0,0.15214000642299652,-1.2930775880813599,-8.126330375671387,1.0442442893981934,-0.012776780873537064,0.11148291,-0.011301007,96.30914,-9.969675,-9.744786999999999,STD
4002043400000.0,0.15704436600208282,-1.307695746421814,-8.194158554077148,1.0525010824203491,-0.012731104157865047,0.10476339,-0.0033597588,96.4501,-8.948238,-9.774436999999999,STD
4034336000000.0,0.16195803880691528,-1.3217693567276,-8.258275985717773,1.0601274967193604,-0.012187294661998749,0.10018189999999999,-0.006414085,96.59444,-7.934583,-9.802317,STD
4064948000000.0,0.16687949001789093,-1.3353242874145508,-8.318866729736328,1.067155361175537,-0.012188882566988468,0.09162979,-0.010995574,96.736435,-6.912955800000001,-9.822177,STD
4093962600000.0,0.17180988192558289,-1.3483877182006836,-8.376104354858398,1.0736132860183716,-0.012190387584269047,0.08857546,-0.007330383,96.8062635106808,-6.40526342667199,-9.83019256398483,STD
4121460000000.0,0.17674720287322998,-1.3609830141067505,-8.430158615112305,1.079530954360962,-0.01170634850859642,0.090713486,-0.007941248,96.875786,-5.899796,-9.838173,STD
4147516500000.0,0.18169037997722626,-1.3731331825256348,-8.48119068145752,1.084936261177063,-0.011555323377251625,0.08582657,-0.007941248,97.01631,-4.8798275,-9.846359,STD
4172205500000.0,0.1866430789232254,-1.3848639726638794,-8.529351234436035,1.089852213859558,-0.010812794789671898,0.08674286,-0.0021380284,97.15250400000001,-3.8685718000000002,-9.851336,STD
4195596600000.0,0.19159720838069916,-1.3961906433105469,-8.57479190826416,1.0943094491958618,-0.010109308175742626,0.07666359,-0.011301007,97.2220687312261,-3.3641294543587703,-9.8493676647876,STD
4217756500000.0,0.1965559422969818,-1.4071365594863892,-8.61764907836914,1.0983290672302246,-0.009410430677235126,0.07513642,-0.014966198,97.292564,-2.8529394,-9.847373,STD
4238748400000.0,0.201521098613739,-1.4177229404449463,-8.658055305480957,1.1019320487976074,-0.008991731330752373,0.08643743400000001,-0.01740966,97.42557,-1.8413221999999998,-9.845736500000001,STD
4258632600000.0,0.20648804306983948,-1.4279649257659912,-8.696139335632324,1.1051431894302368,-0.008773638866841793,0.07819075,-0.022296581,97.56111,-0.83128923,-9.8312845,STD
4277466600000.0,0.21145816147327423,-1.4378814697265625,-8.73202133178711,1.107981562614441,-0.008875496685504913,0.086132,-0.016798794,97.69185,0.17821099999999998,-9.820678,STD
4295305000000.0,0.21646210551261902,-1.4475146532058716,-8.765792846679688,1.110443115234375,-0.00911810714751482,0.08704830000000001,-0.025350908,97.825615,1.1862788999999998,-9.801805,STD
4312199300000.0,0.22143663465976715,-1.4568291902542114,-8.797608375549316,1.112594485282898,-0.009055525995790958,0.08582657,-0.027488936000000002,97.95328,2.1903267000000004,-9.780822,STD
4328199300000.0,0.22641322016716003,-1.4658660888671875,-8.82754898071289,1.1144288778305054,-0.009061241522431374,0.093462385,-0.024129177,98.07924,3.19414,-9.758967,STD
4343351500000.0,0.23139068484306335,-1.4746389389038086,-8.855712890625,1.1159638166427612,-0.009440375491976738,0.0983493,-0.013744468000000001,98.200905,4.19445,-9.732589,STD
4357700500000.0,0.2363729625940323,-1.48316490650177,-8.882190704345703,1.117211937904358,-0.010205698199570179,0.093462385,-0.024740042,98.32481,5.192508,-9.701778,STD
4371288400000.0,0.24135594069957733,-1.4914538860321045,-8.907073974609375,1.1181912422180176,-0.010589075274765491,0.093767814,-0.018936822,98.43807,6.1833290000000005,-9.671237,STD
4384155500000.0,0.2463403344154358,-1.499518871307373,-8.93044662475586,1.1189152002334595,-0.011228468269109726,0.10262536,-0.021991148999999998,98.554146,7.176308000000001,-9.638036999999999,STD
4396339700000.0,0.2513273358345032,-1.5073726177215576,-8.952385902404785,1.119396448135376,-0.011768873780965805,0.10354166,-0.015577064,98.66241,8.160428,-9.600247,STD
4407877000000.0,0.2563147246837616,-1.5150246620178223,-8.972970008850098,1.1196492910385132,-0.012914744205772877,0.10293079,-0.008857545999999999,98.76849,9.14507,-9.561639999999999,STD
4418801500000.0,0.26130276918411255,-1.5224858522415161,-8.992269515991211,1.1196856498718262,-0.013674473389983177,0.094989546,-0.01160644,98.87187,10.119384,-9.518386,STD
4429145000000.0,0.2662918269634247,-1.5297666788101196,-9.010353088378906,1.1195166110992432,-0.013938426040112972,0.09162979,-0.004276057,98.96732,11.090244,-9.4746,STD
4438939400000.0,0.27128157019615173,-1.5368763208389282,-9.027283668518066,1.1191532611846924,-0.014660041779279709,0.08399397,0.003970624,99.05917,12.058825,-9.425057,STD
4448213000000.0,0.2762729227542877,-1.5438247919082642,-9.043123245239258,1.118605136871338,-0.01578248105943203,0.090713486,0.011911871999999999,99.14628,13.018692999999999,-9.376955,STD
4456994000000.0,0.28126510977745056,-1.5506199598312378,-9.057929039001465,1.117882490158081,-0.017284443601965904,0.11698069400000001,0.024740042,99.22714,13.974398,-9.331178999999999,STD
4465307400000.0,0.28627634048461914,-1.5572848320007324,-9.07174301147461,1.1169806718826294,-0.018999334424734116,0.12583824,0.02107485,99.30630500000001,14.925788,-9.280073,STD
4473179000000.0,0.291269987821579,-1.5637973546981812,-9.084643363952637,1.115936517715454,-0.02029757760465145,0.13194689,0.018936822,99.37995,15.869026000000002,-9.234776,STD
4480632000000.0,0.2962651252746582,-1.5701802968978882,-9.096665382385254,1.1147435903549194,-0.022047381848096848,0.13133603,0.020158553,99.45065,16.811577,-9.188433999999999,STD
4487688000000.0,0.3012595772743225,-1.5756165981292725,-9.108059883117676,1.1135257482528687,-0.024224724620580673,0.1337795,0.021685716,99.51948,17.745552,-9.142954,STD
4494369000000.0,0.3062538802623749,-1.5794261693954468,-9.119038581848145,1.1123853921890259,-0.026172252371907234,0.13561209,0.02107485,99.58532,18.671812,-9.095668,STD
4500695000000.0,0.31124839186668396,-1.5816935300827026,-9.129624366760254,1.111318588256836,-0.02858562581241131,0.13775012,0.022907447,99.654976,19.584732000000002,-9.120678999999999,STD
4506683700000.0,0.3162422478199005,-1.582505226135254,-9.139837265014648,1.110321283340454,-0.03126104548573494,0.1441642,0.029321532999999997,99.72269399999999,20.489195000000002,-9.144469,STD
4512354400000.0,0.3212378919124603,-1.5819262266159058,-9.149698257446289,1.1093899011611938,-0.034282196313142776,0.1695151,0.031154128,99.7919,21.3904,-9.170463,STD
4517723000000.0,0.3262335956096649,-1.5800389051437378,-9.159225463867188,1.1085208654403687,-0.0381188802421093,0.19058995,0.02687807,99.85982,22.289099,-9.193918,STD
4522806000000.0,0.33122825622558594,-1.576918363571167,-9.168436050415039,1.107710838317871,-0.04227199777960777,0.2171626,0.027183502999999998,99.928085,23.180298,-9.223116000000001,STD
4527618500000.0,0.336228609085083,-1.5725964307785034,-9.177351951599121,1.106956958770752,-0.04726174846291542,0.22540927,0.022602014,99.99776999999999,24.072374,-9.248877,STD
4532175000000.0,0.34122633934020996,-1.5671775341033936,-9.185981750488281,1.1062558889389038,-0.05270180478692055,0.22540927,0.019242255,100.0678,24.957539,-9.276466000000001,STD
4536489000000.0,0.34622427821159363,-1.5607064962387085,-9.194343566894531,1.105604887008667,-0.05819385126233101,0.22724187,0.0070249503,100.14124,25.839005,-9.301912,STD
4540573700000.0,0.3512223958969116,-1.553239345550537,-9.202451705932617,1.105001449584961,-0.06345842778682709,0.22937989,-0.0015271631,100.21316999999999,26.714592,-9.324446,STD
4544441000000.0,0.3562193512916565,-1.5448358058929443,-9.210318565368652,1.104442834854126,-0.06855647265911102,0.24098633,-0.004581489,100.28684,27.584232,-9.3461075,STD
4548102500000.0,0.3612167239189148,-1.5355379581451416,-9.217957496643066,1.1039267778396606,-0.07320388406515121,0.24984388,-0.0125227375,100.36231,28.444879999999998,-9.363005000000001,STD
4551569000000.0,0.36621350049972534,-1.5253986120224,-9.225380897521973,1.103450894355774,-0.07654576003551483,0.24801129,-0.013744468000000001,100.43533000000001,29.292659999999998,-9.377923,STD
4554851000000.0,0.3712114989757538,-1.5144535303115845,-9.232601165771484,1.1030131578445435,-0.07822846621274948,0.25900686,-0.010079277,100.5106,30.128674,-9.395184,STD
4557958500000.0,0.37620916962623596,-1.5027530193328857,-9.239627838134766,1.1026115417480469,-0.07939834147691727,0.26908615,-0.0036651915999999997,100.58353000000001,30.95583,-9.409485,STD
4560901000000.0,0.3812083899974823,-1.490328073501587,-9.246472358703613,1.1022441387176514,-0.078878253698349,0.28283059999999993,-0.0036651915999999997,100.62160890991501,31.353019235363696,-9.41954789808792,STD
4563686400000.0,0.38621407747268677,-1.4771920442581177,-9.253149032592773,1.1019093990325928,-0.07793013751506805,0.30329459999999997,-0.0015271631,100.6604,31.757637,-9.429799000000001,STD
4566324000000.0,0.39121565222740173,-1.4634342193603516,-9.259658813476562,1.1016050577163696,-0.07657679915428162,0.31031954,0.007330383,100.729935,32.556217,-9.445554,STD
4568821300000.0,0.396213173866272,-1.4490886926651,-9.266010284423828,1.1013295650482178,-0.07456313073635101,0.29779682,0.009162978,100.801445,33.333805,-9.461696,STD
4571186000000.0,0.4012579023838043,-1.4339298009872437,-9.272248268127441,1.101083755493164,-0.07244516164064407,0.29779682,0.0009162978999999999,100.87496999999999,34.10297,-9.47989,CSI
4573424500000.0,0.40625566244125366,-1.4184621572494507,-9.278313636779785,1.100861668586731,-0.07037494331598282,0.28955013,-0.0036651915999999997,100.94228000000001,34.85988,-9.491843,CSI
4575544000000.0,0.4112514555454254,-1.4024884700775146,-9.284245491027832,1.1006641387939453,-0.06828482449054718,0.2837469,-0.008857545999999999,101.0106,35.606953000000004,-9.50085,CSI
4577551000000.0,0.41624701023101807,-1.386027455329895,-9.29005241394043,1.100489854812622,-0.06612703949213028,0.28038713,-0.0070249503,101.0758,36.344359999999995,-9.507027,CSI
4579451700000.0,0.42124247550964355,-1.3691041469573975,-9.295741081237793,1.1003376245498657,-0.06374242901802063,0.26022860000000003,-0.008552114,101.13739,37.071766,-9.504859,CSI
4581251000000.0,0.426238477230072,-1.3517403602600098,-9.301319122314453,1.1002062559127808,-0.0626893863081932,0.24373524,-0.004276057,101.19563000000001,37.79695,-9.502552,CSI
4582955000000.0,0.4312339425086975,-1.3339645862579346,-9.306790351867676,1.1000946760177612,-0.06144830211997032,0.2415972,0.0015271631,101.25121999999999,38.50375,-9.497596000000001,CSI
4584568000000.0,0.43623149394989014,-1.3157860040664673,-9.312163352966309,1.1000018119812012,-0.0607779398560524,0.23243423,-0.005192355,101.302704,39.212253999999994,-9.484724,CSI
4586095500000.0,0.4412285387516022,-1.2972383499145508,-9.3174409866333,1.0999267101287842,-0.05989914759993553,0.23426682,0.00061086525,101.35011,39.905384000000005,-9.476099000000001,CSI
4587542000000.0,0.44622766971588135,-1.2783284187316895,-9.322629928588867,1.0998684167861938,-0.0594903901219368,0.2275473,0.004886922,101.39443,40.596070000000005,-9.461196000000001,CSI
4588911500000.0,0.4512259066104889,-1.2590900659561157,-9.327733993530273,1.0998259782791138,-0.059738222509622574,0.21899518,0.0061086523,101.436516,41.277336,-9.446003,CSI
4590208500000.0,0.45622363686561584,-1.2395389080047607,-9.332756996154785,1.099798560142517,-0.05994029343128204,0.21227567,0.01863139,101.47279,41.94726,-9.432052,CSI
4591436400000.0,0.46122124791145325,-1.219689965248108,-9.337703704833984,1.099785327911377,-0.06066874414682388,0.19486602,0.028405233999999998,101.50410500000001,42.61446,-9.413232,CSI
4592599300000.0,0.46621817350387573,-1.1995618343353271,-9.342577934265137,1.099785566329956,-0.06111421436071396,0.18997909,0.040927973,101.53195,43.267307,-9.398172,CSI
4593700300000.0,0.47125715017318726,-1.1789544820785522,-9.347414016723633,1.0998005867004395,-0.06130806356668472,0.1881465,0.045814894,101.55512,43.9138,-9.380256,CSI
4594743000000.0,0.4762532413005829,-1.1583096981048584,-9.352154731750488,1.0998256206512451,-0.061035823076963425,0.17898351,0.06078109,101.56993,44.547268,-9.364158999999999,CSI
4595730400000.0,0.4812481701374054,-1.1374311447143555,-9.356833457946777,1.099861979484558,-0.060826919972896576,0.18448131,0.07086037,101.58627,45.173157,-9.350503,CSI
4596665000000.0,0.48624688386917114,-1.1163065433502197,-9.361456871032715,1.0999093055725098,-0.05957112833857536,0.15821409,0.06872234,101.59243000000001,45.781729999999996,-9.329161000000001,CSI
4597550700000.0,0.4912432134151459,-1.094978928565979,-9.366023063659668,1.0999667644500732,-0.05708008259534836,0.14966199,0.07574729,101.5986,46.379090000000005,-9.316341,CSI
4598389000000.0,0.4962409734725952,-1.0734407901763916,-9.370538711547852,1.1000339984893799,-0.05389164760708809,0.14263703,0.08796459400000001,101.59804,46.964397,-9.299476,CSI
4599183300000.0,0.5012383460998535,-1.0521892309188843,-9.375459671020508,1.1002440452575684,-0.0503685362637043,0.10812314599999999,0.10140363,101.58728,47.5354,-9.277687,CSI
4599935700000.0,0.5062355399131775,-1.0315732955932617,-9.381112098693848,1.100691318511963,-0.04594259709119797,0.09865474,0.10079276599999999,101.57995600000001,48.090637,-9.259245,CSI
4600648000000.0,0.5112324953079224,-1.0112282037734985,-9.387299537658691,1.1001818180084229,-0.04150836914777756,0.08124508,0.10445796,101.42784,48.689834999999995,-9.074812,CSI
4601323000000.0,0.5162287950515747,-0.9908265471458435,-9.393841743469238,1.0976459980010986,-0.03700118139386177,0.07452556,0.10812314599999999,101.28313399999999,49.272242999999996,-8.900638,CSI
4601962000000.0,0.5212259292602539,-0.9699881672859192,-9.401228904724121,1.0929057598114014,-0.03216448798775673,0.06872234,0.10140363,101.14891,49.844444,-8.78464,CSI
4602567000000.0,0.5262233018875122,-0.9477739334106445,-9.4107084274292,1.0853792428970337,-0.027227450162172318,0.06811147,0.10598512,101.02101,50.403862,-8.680368,CSI
4603140000000.0,0.5312185883522034,-0.9242698550224304,-9.421517372131348,1.0755736827850342,-0.022195417433977127,0.06536258,0.09896017,100.96229,50.951263,-8.63413,CSI
4603683000000.0,0.5362170338630676,-0.8994860053062439,-9.43276309967041,1.064011573791504,-0.017171116545796394,0.08032878,0.092240654,100.91291,51.486664000000005,-8.596375,CSI
4604197000000.0,0.5412434935569763,-0.8732590079307556,-9.444698333740234,1.050795316696167,-0.012577347457408905,0.08857546,0.08674286,100.89366,52.02485,-8.578169,CSI
4604684000000.0,0.5462415814399719,-0.8461848497390747,-9.457221984863281,1.0366507768630981,-0.008407441899180412,0.09315695,0.07788532,100.88416,52.552333999999995,-8.562644,CSI
4605145500000.0,0.5512408018112183,-0.8180190920829773,-9.470476150512695,1.0218300819396973,-0.004069104790687561,0.099265605,0.06750060599999999,100.90132,53.076983999999996,-8.559413000000001,CSI
4605583000000.0,0.5562377572059631,-0.7887108325958252,-9.484566688537598,1.0084601640701294,-0.0007921126671135426,0.110872045,0.05375614,100.92795,53.5999,-8.557245,CSI
4605997000000.0,0.5612338185310364,-0.7583081722259521,-9.499455451965332,0.9964668154716492,0.0017242560861632228,0.10751228,0.03970624,100.96741,54.121418000000006,-8.552298,CSI
4606389000000.0,0.5662299990653992,-0.7265368103981018,-9.515294075012207,0.9860754609107971,0.003455427475273609,0.08460484,0.024129177,101.012215,54.638884999999995,-8.544458,CSI
4606761000000.0,0.5712254047393799,-0.6934235095977783,-9.532059669494629,0.9772496223449707,0.004150254651904106,0.050396382999999996,0.0012217305,101.06148,55.152846999999994,-8.531049000000001,CSI
4607112600000.0,0.5762234330177307,-0.6593250036239624,-9.552495002746582,0.969735860824585,0.003050099825486541,0.0015271631,-0.025045475,101.11683000000001,55.669003000000004,-8.505804,CSI
4607446000000.0,0.5812207460403442,-0.6243895888328552,-9.576884269714355,0.96341872215271,0.0013574815820902586,-0.025045475,-0.04428773,101.17608,56.175883999999996,-8.476985,CSI
4607762000000.0,0.5862247347831726,-0.5885213613510132,-9.605326652526855,0.9559863805770874,-0.002540037501603365,-0.06169739,-0.06627888,101.22867,56.695976,-8.428450999999999,CSI
4608061600000.0,0.5912244319915771,-0.551873505115509,-9.637411117553711,0.9473802447319031,-0.008524952456355095,-0.0888809,-0.089186326,101.28426999999999,57.21123000000001,-8.3750305,CSI
4608345000000.0,0.5962226986885071,-0.5143703818321228,-9.671528816223145,0.9389064311981201,-0.015900036320090294,-0.118507855,-0.12461651,101.34318,57.737377,-8.306092,CSI
4608614000000.0,0.6012222170829773,-0.4759881794452667,-9.70694637298584,0.9311240315437317,-0.024607481434941292,-0.11942416,-0.15485434,101.40915,58.266464,-8.235911999999999,CSI
4608869000000.0,0.6062197685241699,-0.43769288063049316,-9.743084907531738,0.9242706894874573,-0.034332118928432465,-0.13164146,-0.16676621,101.47416,58.813731999999995,-8.156642,CSI
4609110700000.0,0.6112191081047058,-0.40018653869628906,-9.779550552368164,0.9185337424278259,-0.044336095452308655,-0.13072516,-0.20219639,101.55424000000001,59.359398,-8.069037,CSI
4609340000000.0,0.6162151098251343,-0.3628559112548828,-9.815323829650879,0.913207471370697,-0.05641130730509758,-0.13225232,-0.23854288,101.63423,59.920159999999996,-7.975113,CSI
4609557000000.0,0.6212136149406433,-0.3250330090522766,-9.849466323852539,0.9076135754585266,-0.06916146725416183,-0.12889257,-0.28955013,101.72688000000001,60.47099300000001,-7.872704,CSI
4609762400000.0,0.6262115836143494,-0.2871306240558624,-9.881336212158203,0.9028275609016418,-0.08266454190015793,-0.113926366,-0.32559118,101.83901,61.027843000000004,-7.7795534,CSI
4609957400000.0,0.6312085390090942,-0.24936777353286743,-9.910630226135254,0.8994247913360596,-0.09759660810232162,-0.116675265,-0.3744604,101.960144,61.588885999999995,-7.671175,CSI
4610142500000.0,0.6362080574035645,-0.21171210706233978,-9.937474250793457,0.897346556186676,-0.11433728039264679,-0.109650314,-0.42577308,102.090866,62.15611,-7.5477924,CSI
4610317600000.0,0.6412073373794556,-0.17417678236961365,-9.962007522583008,0.8965109586715698,-0.13197630643844604,-0.098043874,-0.47647488,102.23183399999999,62.7229,-7.415272,CSI
4610484000000.0,0.6462069749832153,-0.136591836810112,-9.982215881347656,0.8960590362548828,-0.15093785524368286,-0.08368854,-0.5296202,102.38541,63.29875,-7.2730440000000005,CSI
4610641600000.0,0.6512069702148438,-0.09884367138147354,-9.996774673461914,0.895390510559082,-0.17020735144615173,-0.06414085,-0.5867361,102.55296,63.87234,-7.1215444,CSI
4610791000000.0,0.6562032699584961,-0.06155843660235405,-10.00695514678955,0.8930361270904541,-0.18999627232551575,-0.044898596,-0.6438520000000001,102.7198,64.445755,-6.9405766,CSI
4610932600000.0,0.6611999869346619,-0.025415269657969475,-10.014058113098145,0.8872160911560059,-0.2103745937347412,-0.026572637000000003,-0.713796,102.90230600000001,65.02133,-6.7468295,CSI
4611067300000.0,0.6662104725837708,0.009776968508958817,-10.0181245803833,0.878058910369873,-0.2315388023853302,-0.008857545999999999,-0.7855727,103.083046,65.59631,-6.5289273,CSI
4611195000000.0,0.6712096929550171,0.04499681666493416,-10.0195951461792,0.8674866557121277,-0.25271451473236084,0.00580322,-0.86315256,103.2782,66.17149,-6.296387,CSI
4611316000000.0,0.6762260794639587,0.08045713603496552,-10.018464088439941,0.8552899360656738,-0.27479639649391174,0.018936822,-0.93370754,103.48899999999999,66.766075,-6.051936,CSI
4611430700000.0,0.681226909160614,0.11605618894100189,-10.017619132995605,0.8401369452476501,-0.2972966432571411,0.01038471,-1.0067059,103.70759,67.359764,-5.7890196,CSI
4611539700000.0,0.6862245798110962,0.1518802046775818,-10.017054557800293,0.8220188021659851,-0.32033947110176086,0.014355333500000001,-1.0958921999999998,103.9403,67.9654,-5.502368,CSI
4611643000000.0,0.6912240982055664,0.18962664902210236,-10.01512622833252,0.8052636384963989,-0.3444819450378418,-0.0030543262,-1.174083,104.17161,68.57569000000001,-5.199807,CSI
4611741000000.0,0.6962194442749023,0.22942663729190826,-10.011627197265625,0.7905970215797424,-0.36964917182922363,-0.0067195175,-1.2589933,104.41713,69.19015,-4.8773856,CSI
4611834400000.0,0.7014815211296082,0.2747885286808014,-10.003917694091797,0.7752978801727295,-0.3968445956707001,-0.090713486,-1.3778065000000002,104.88818,70.456024,-4.163729,CSI
4611923000000.0,0.7067328095436096,0.3215155601501465,-9.994885444641113,0.7598053812980652,-0.42517879605293274,-0.14813483,-1.4669929,105.107506,71.096985,-3.7461714999999995,CSI
4612007400000.0,0.7119723558425903,0.36949101090431213,-9.98483943939209,0.7441415786743164,-0.4543469250202179,-0.22113322,-1.5344934,105.307014,71.72804000000001,-3.3246822,CSI
4612087600000.0,0.7171926498413086,0.41746455430984497,-9.974503517150879,0.7296402454376221,-0.48487424850463867,-0.30268374,-1.6056591999999998,105.48255,72.36748,-2.8618405,CSI
4612163600000.0,0.7224014401435852,0.46493279933929443,-9.964205741882324,0.7169373631477356,-0.5162488222122192,-0.3820962,-1.6789631999999999,105.64296999999999,73.00175,-2.3812130000000002,CSI
4612236000000.0,0.7275976538658142,0.5116545557975769,-9.954989433288574,0.7059810161590576,-0.5493044853210449,-0.49571714,-1.7324138999999998,105.76799,73.64149,-1.8690966,CSI
4612304700000.0,0.7327837347984314,0.5575425624847412,-9.947368621826172,0.6967126727104187,-0.583430826663971,-0.61208695,-1.7806721999999997,105.87397,74.27129000000001,-1.3404906,CSI
4612370000000.0,0.7379611134529114,0.5990274548530579,-9.948798179626465,0.6866332292556763,-0.6169430017471313,-0.7113526,-1.8255708,105.93593999999999,74.88266,-0.7865943,CSI
4612432600000.0,0.743128776550293,0.6354330778121948,-9.96066951751709,0.675178587436676,-0.6503946185112,-0.8179486,-1.8671096999999999,105.96508999999999,75.48453,-0.22122696,CSI
4612492000000.0,0.7482889294624329,0.6656965017318726,-9.99325942993164,0.6582910418510437,-0.6822262406349182,-0.91721416,-1.8952093999999997,105.96132,76.05058000000001,0.35799816,CSI
4612548000000.0,0.7534385919570923,0.6895487904548645,-10.05050277709961,0.6343063116073608,-0.7130776643753052,-0.98563105,-1.9037615,105.93623000000001,76.59505,0.9372292,CSI
4612601400000.0,0.7585803866386414,0.7081030607223511,-10.13634967803955,0.6060404777526855,-0.7435871362686157,-1.0283916,-1.9242256000000002,105.88786,77.12554,1.5070502000000001,CSI
4612652300000.0,0.7637143731117249,0.721898078918457,-10.250801086425781,0.5745051503181458,-0.7752378582954407,-1.0732902,-1.9474383999999998,105.81821399999998,77.62829,2.072754,CSI
4612700500000.0,0.7688424587249756,0.7330094575881958,-10.38554859161377,0.536960244178772,-0.8099547624588013,-1.0919216,-1.9779817,105.74517,78.15637,2.6124964,CSI
4612746600000.0,0.7739630341529846,0.7422538995742798,-10.536826133728027,0.4927476942539215,-0.847379207611084,-1.0919216,-2.008525,105.662704,78.649796,3.1483457,CSI
4612790700000.0,0.7790762782096863,0.7499244809150696,-10.687736511230469,0.4346024692058563,-0.8883271813392639,-1.0177015,-2.0015,105.59313,79.16933,3.6425717000000004,CSI
4612832600000.0,0.7841845750808716,0.756165623664856,-10.832646369934082,0.36041882634162903,-0.931715726852417,-0.88789266,-1.9926423999999998,105.53693999999999,79.64793399999999,4.1308303,CSI
4612872500000.0,0.7892867922782898,0.7583311796188354,-10.96745777130127,0.27009421586990356,-0.9776914715766907,-0.7104363,-2.0039434,105.51211,80.137695,4.5918735999999996,CSI
4612911000000.0,0.7943997383117676,0.7553403377532959,-11.090839385986328,0.1628272831439972,-1.0254491567611694,-0.623388,-2.0442605,105.4949,80.5721,5.0474815,CSI
4612947000000.0,0.799490213394165,0.746194064617157,-11.19975471496582,0.04461828991770744,-1.0722568035125732,-0.46517387,-2.0842721,105.525024,80.997826,5.4797416,CSI
4612981500000.0,0.8045763969421387,0.7300723195075989,-11.292837142944336,-0.08408254384994507,-1.118295431137085,-0.29260445,-2.159714,105.58147,81.33731999999999,5.922332,CSI
4613014600000.0,0.8096586465835571,0.708709716796875,-11.367363929748535,-0.2210468053817749,-1.1629059314727783,-0.116675265,-2.2342396,105.67526000000001,81.640045,6.338604,CSI
4613046000000.0,0.814736008644104,0.6837766766548157,-11.420818328857422,-0.36409512162208557,-1.206506371498108,0.06658431,-2.3011293,105.81553000000001,81.82309000000001,6.7634229999999995,CSI
4613076000000.0,0.8198100924491882,0.6582270860671997,-11.450262069702148,-0.503232479095459,-1.2476366758346558,0.24190263,-2.3374758,105.99203500000002,81.94214000000001,7.154606299999999,CSI
4613104700000.0,0.8248806595802307,0.6355736255645752,-11.45205020904541,-0.6265150904655457,-1.2850286960601807,0.33994650000000004,-2.339614,106.19088,81.933525,7.5489707,CSI
4613132000000.0,0.8299462795257568,0.6175537109375,-11.427488327026367,-0.7209591865539551,-1.3157075643539429,0.31978795,-2.300824,106.38788600000001,81.841675,7.916666499999999,CSI
4613158000000.0,0.8350110650062561,0.6063646078109741,-11.377180099487305,-0.7702977657318115,-1.3384358882904053,0.22296582,-2.250122,106.581535,81.64548,8.277089,CSI
4613183400000.0,0.8400681614875793,0.602874219417572,-11.301581382751465,-0.7722077369689941,-1.3535397052764893,0.10048734,-2.172237,106.73665,81.35449,8.637751,CSI
4613207500000.0,0.8451268672943115,0.6088404059410095,-11.198851585388184,-0.7196800708770752,-1.3612136840820312,-0.07849618,-2.0906863,106.83986999999999,98.98492399999999,8.977668,CSI
4613230600000.0,0.85017991065979,0.6278899908065796,-11.073452949523926,-0.6239687204360962,-1.3624886274337769,-0.3191771,-1.9859229,106.89111000000001,99.388405,9.343422,CSI
4613252600000.0,0.8552310466766357,0.6657775640487671,-10.92935562133789,-0.49666741490364075,-1.3576403856277466,-0.59528816,-1.8872682,106.87641,99.7861,9.679363,CSI
4613274000000.0,0.8602776527404785,0.7232652306556702,-10.772196769714355,-0.3551223576068878,-1.3479231595993042,-0.84665924,-1.7953328999999998,106.84581999999999,100.20496999999999,10.052658000000001,CSI
4613294500000.0,0.8653641939163208,0.8068180084228516,-10.60785961151123,-0.22677670419216156,-1.3306339979171753,-1.0103711,-1.7107282,106.76137,100.58753,10.3913765,CSI
4613314000000.0,0.8704071044921875,0.9097230434417725,-10.444974899291992,-0.12584643065929413,-1.3048416376113892,-1.0873401000000003,-1.6340646,106.67521,101.01135,10.801286,CSI
4613333000000.0,0.8754482865333557,1.040472149848938,-10.291677474975586,-0.09196352958679199,-1.2708690166473389,-1.1230757,-1.5604552999999999,106.55753,101.39744,11.1806,CSI
4613350600000.0,0.880498468875885,1.1957991123199463,-10.148401260375977,-0.12056013196706772,-1.2291358709335327,-1.1016953999999999,-1.466382,106.428665,101.84949499999999,11.633467999999999,CSI
4613368000000.0,0.8855370879173279,1.3364241123199463,-10.024895668029785,-0.1642879843711853,-1.1814067363739014,-1.0784826,-1.3796391000000001,106.29436499999998,102.26913,12.061217,CSI
4613384700000.0,0.8905928134918213,1.4622105360031128,-9.92147445678711,-0.22366581857204437,-1.1304752826690674,-1.070236,-1.2797627,106.05793999999999,102.80743000000001,12.568541999999999,CSI
4613401000000.0,0.8956247568130493,1.570478081703186,-9.836100578308105,-0.28528690338134766,-1.077749252319336,-1.0745120000000001,-1.1908818,105.82661999999999,103.31057,13.046721,CSI
4613416700000.0,0.9006574749946594,1.6611093282699585,-9.768357276916504,-0.34930264949798584,-1.0256357192993164,-1.0876455,-1.1520919,105.555305,103.75957,13.4587965,CSI
4613431400000.0,0.9056864976882935,1.734798550605774,-9.707120895385742,-0.411749929189682,-0.9735485911369324,-1.1068878,-1.0864239,105.28402,104.16455,13.830487,CSI
4613445500000.0,0.9107114672660828,1.792836308479309,-9.650775909423828,-0.47207438945770264,-0.9224956631660461,-1.0943651,-1.026559,104.994156,104.50336999999999,14.130348000000001,CSI
4613459000000.0,0.9157351851463318,1.838621973991394,-9.589759826660156,-0.5257183909416199,-0.871249794960022,-1.0604621,-0.9618073,104.70865,104.81264,14.403976,CSI
4613473000000.0,0.92076176404953,1.8727023601531982,-9.523761749267578,-0.5730087161064148,-0.8194143772125244,-1.0057896000000002,-0.89736104,104.42234,105.053444,14.607909,CSI
4613486000000.0,0.9257838129997253,1.8963416814804077,-9.447625160217285,-0.6146643161773682,-0.7671022415161133,-0.98868537,-0.82711154,104.139534,105.26698999999999,14.787001,CSI
4613498500000.0,0.9308371543884277,1.9088603258132935,-9.35976791381836,-0.650435745716095,-0.7144201397895813,-0.9746355,-0.7501425,103.87041500000001,105.42356000000001,14.914864999999999,CSI
4613510500000.0,0.9358897805213928,1.9109723567962646,-9.259007453918457,-0.6794310808181763,-0.6609808802604675,-0.96791595,-0.64873886,103.609474,105.54597,15.012687,CSI
4613522000000.0,0.9409142732620239,1.9046169519424438,-9.14808177947998,-0.7025980353355408,-0.6072154641151428,-0.9645562,-0.5503895999999999,103.35221999999999,105.62116,15.067851999999998,CSI
4613533600000.0,0.9459294080734253,1.8935003280639648,-9.02892780303955,-0.7208214402198792,-0.5525227785110474,-0.9621128000000001,-0.4465425,103.10238000000001,105.65901000000001,15.0907,CSI
4613544600000.0,0.9509428143501282,1.8777364492416382,-8.901595115661621,-0.7342629432678223,-0.4975056052207947,-0.9773844,-0.34697145,102.846214,105.6448,15.066293,CSI
4613555600000.0,0.9559556245803833,1.8609743118286133,-8.767613410949707,-0.7447937726974487,-0.44216495752334595,-0.979217,-0.23579398,102.600655,105.59236000000001,15.008476000000002,CSI
4613566000000.0,0.9609662890434265,1.8435758352279663,-8.62751579284668,-0.7527239918708801,-0.3863716125488281,-0.9773844,-0.13744467,102.357025,105.51071999999999,14.925417000000001,CSI
4613576000000.0,0.9659762382507324,1.8253374099731445,-8.483495712280273,-0.7588961720466614,-0.3294171988964081,-0.96791595,-0.037873644,102.1224,105.38551000000001,14.806669,CSI
4613586000000.0,0.970985472202301,1.8062846660614014,-8.335922241210938,-0.7634634971618652,-0.2721286416053772,-0.95172805,0.058643065,101.895515,105.2307,14.661503,CSI
4613595500000.0,0.9759954810142517,1.7874680757522583,-8.188075065612793,-0.7696152329444885,-0.21523994207382202,-0.95172805,0.15027285,101.660866,105.05514,14.500813500000001,CSI
4613605000000.0,0.9810028672218323,1.7689679861068726,-8.040328979492188,-0.777498185634613,-0.1583879590034485,-0.95111716,0.2321288,101.43571,104.8517,14.317017000000002,CSI
4613614000000.0,0.9860119223594666,1.7499637603759766,-7.8941121101379395,-0.7886955738067627,-0.10051271319389343,-0.9462303,0.33750305,101.20687,104.618195,14.1077175,CSI
4613622700000.0,0.991017758846283,1.7301888465881348,-7.750082492828369,-0.8036273717880249,-0.04277560114860535,-0.956615,0.42730024,100.97751,104.36585,13.881067000000002,CSI
4613631600000.0,0.9960278868675232,1.7097673416137695,-7.6097540855407715,-0.8236055374145508,0.013186730444431305,-0.99021256,0.47067168,100.73709000000001,104.10516,13.645228,CSI
4613640000000.0,1.0010387897491455,1.6888035535812378,-7.473642826080322,-0.8488081693649292,0.06880360841751099,-0.9950995,0.5635232,100.50728000000001,103.80304,13.372527,CSI
4613648400000.0,1.0060462951660156,1.6664358377456665,-7.345076084136963,-0.8790908455848694,0.12422364950180054,-0.9859365,0.63713247,100.260216,103.49476999999999,13.089201,CSI
4613657000000.0,1.011053442955017,1.6419143676757812,-7.226706504821777,-0.9144513607025146,0.17885509133338928,-0.98929626,0.72295904,100.01318,103.15799999999999,12.778634,CSI
4613664700000.0,1.0160589218139648,1.6152106523513794,-7.118029594421387,-0.9557438492774963,0.23230047523975372,-0.9630291,0.8246681,99.76984399999999,102.794525,12.436213,CSI
4613672500000.0,1.0210658311843872,1.5861496925354004,-7.018654823303223,-1.004556655883789,0.2839393615722656,-0.9260716999999998,0.9034697,99.53395,102.41555,12.079663,CSI
4613680400000.0,1.0260717868804932,1.5540212392807007,-6.929963111877441,-1.0579781532287598,0.33424240350723267,-0.8775079,0.9761627,99.31147,101.98998,11.6708145,CSI
4613688000000.0,1.0310778617858887,1.518078327178955,-6.853366851806641,-1.113289713859558,0.382938951253891,-0.8228354999999999,1.0601566,99.10853,101.54319,11.241613000000001,CSI
4613695000000.0,1.0360841751098633,1.4777390956878662,-6.789633750915527,-1.1681842803955078,0.43081456422805786,-0.78893244,1.144456,98.90184,101.05986,10.768055,CSI
4613702400000.0,1.0410895347595215,1.4326283931732178,-6.739184856414795,-1.2208949327468872,0.4772781729698181,-0.7519751,1.2370021,98.72058,100.55606999999999,10.274791,CSI
4613710000000.0,1.0460946559906006,1.384273648262024,-6.7016448974609375,-1.2728221416473389,0.5222910642623901,-0.68936145,1.3191633999999999,98.56253000000001,99.99875,9.724339500000001,CSI
4613716600000.0,1.0511012077331543,1.3341553211212158,-6.676715850830078,-1.3253580331802368,0.5659305453300476,-0.58032197,1.3982705,98.438255,99.4227,9.156884,CSI
4613723400000.0,1.056105375289917,1.283837080001831,-6.662709712982178,-1.3766449689865112,0.6085302829742432,-0.47036624,1.4902058,98.34761999999999,98.776535,8.51862,CSI
4613730000000.0,1.0611093044281006,1.2358042001724243,-6.657573223114014,-1.4236136674880981,0.6509432792663574,-0.35888332,1.5873333,98.29805,98.11446,7.8670955000000005,CSI
4613737000000.0,1.0661104917526245,1.1899386644363403,-6.660755634307861,-1.466509461402893,0.6933585405349731,-0.25289822,1.6869043999999997,98.29241,97.40126,7.1611785999999995,CSI
4613744000000.0,1.0711174011230469,1.1488933563232422,-6.673200607299805,-1.5020371675491333,0.7352387309074402,-0.12705997,1.7938058000000001,98.33348000000001,96.66965,6.438514700000001,CSI
4613750000000.0,1.076119065284729,1.1130732297897339,-6.6943488121032715,-1.5298490524291992,0.7757008671760559,0.008857545999999999,1.885741,98.41569,95.92596400000001,5.7047944,CSI
4613756400000.0,1.0811421871185303,1.092790126800537,-6.727548122406006,-1.540077567100525,0.8141857385635376,0.13408493,1.964848,98.52493,95.16991,4.9625425000000005,CSI
4613762700000.0,1.0861475467681885,1.0874484777450562,-6.770979404449463,-1.5338720083236694,0.8495779037475586,0.24953845,2.0152445,98.67594,94.41211,4.2165084,CSI
4613769000000.0,1.0911800861358643,1.0993318557739258,-6.8275275230407715,-1.5094605684280396,0.8821235299110413,0.33078352,2.0363192999999997,98.84342,93.66695,3.4915453999999997,CSI
4613775300000.0,1.0961825847625732,1.1301889419555664,-6.9056901931762695,-1.4727208614349365,0.9115185737609863,0.36682457,2.0357084,99.03381,92.932175,2.772434,CSI
4613781600000.0,1.1011842489242554,1.181780457496643,-7.007965564727783,-1.4228005409240723,0.9380449056625366,0.42577308,2.0073032,99.213806,92.29632,2.1945145,CSI
4613788000000.0,1.1061835289001465,1.259268045425415,-7.143068790435791,-1.361344575881958,0.9598695635795593,0.45814893,1.9303342000000001,99.393715,91.6952,1.6416281000000004,CSI
4613794000000.0,1.1111856698989868,1.3617697954177856,-7.310158729553223,-1.2897645235061646,0.975761890411377,0.4718934,1.8099936999999997,99.54561,91.23031,1.224787,CSI
4613800000000.0,1.1161856651306152,1.486686110496521,-7.5086588859558105,-1.22135591506958,0.9839707612991333,0.45906523,1.6581936999999998,99.69453399999999,89.13895,0.8471040999999999,CSI
4613805700000.0,1.1212211847305298,1.6368016004562378,-7.742649555206299,-1.155857801437378,0.9828547239303589,0.45845437,1.4630222,99.817154,89.20121,0.6576472,CSI
4613811500000.0,1.1262189149856567,1.807477593421936,-8.002266883850098,-1.1022205352783203,0.9713969230651855,0.45234573,1.2293663000000001,99.93083,89.12484,0.52430457,CSI
4613817000000.0,1.1312146186828613,2.0028913021087646,-8.292487144470215,-1.0633087158203125,0.9486835598945618,0.45204028,0.9611965,100.04388399999999,89.00209,0.45711178,CSI
4613823000000.0,1.136217474937439,2.217806100845337,-8.593236923217773,-1.042820930480957,0.9174467921257019,0.47158796,0.68539083,100.142586,88.81126,0.5966414000000001,CSI
4613829000000.0,1.1412150859832764,2.447822093963623,-8.894743919372559,-1.0407105684280396,0.8800127506256104,0.5552765000000001,0.42516220000000005,100.26143,88.63065,0.7969654,CSI
4613834500000.0,1.1462148427963257,2.678170680999756,-9.171246528625488,-1.0522137880325317,0.839430034160614,0.66156703,0.20128010000000002,100.39587,88.38225600000001,1.1795852,CSI
4613840300000.0,1.15121591091156,2.90268874168396,-9.413200378417969,-1.0748013257980347,0.7980313301086426,0.8014551999999999,-0.009468411,100.56779,88.06588,1.6081860000000001,CSI
4613846000000.0,1.1562137603759766,3.106091022491455,-9.611491203308105,-1.103432297706604,0.7566414475440979,0.94134337,-0.18387043,100.79111,87.63788000000001,2.1616117999999998,CSI
4613852000000.0,1.1612119674682617,3.2771739959716797,-9.759172439575195,-1.1345151662826538,0.716301679611206,1.0479393,-0.32345316,101.04694,87.14232,2.7343857000000003,CSI
4613857600000.0,1.1662088632583618,3.4076030254364014,-9.863176345825195,-1.153771162033081,0.6768583655357361,1.102001,-0.39370266,101.34482,86.594215,3.3417237,CSI
4613863400000.0,1.1712075471878052,3.4930951595306396,-9.927814483642578,-1.1532682180404663,0.6378405094146729,1.0647381999999999,-0.42913285,101.646225,86.01773,3.9524074000000002,CSI
4613868600000.0,1.1762058734893799,3.5280375480651855,-9.971623420715332,-1.1319818496704102,0.5993068218231201,0.93126404,-0.42424592,101.95425999999999,85.50104,4.489032,CSI
4613874000000.0,1.1812036037445068,3.5108256340026855,-10.004162788391113,-1.0898749828338623,0.5605967044830322,0.7495316,-0.37812558,102.23552,84.9915,5.007410500000001,CSI
4613879000000.0,1.186203122138977,3.4488768577575684,-10.047024726867676,-1.04076087474823,0.5228427052497864,0.5748241999999999,-0.27977628,102.467384,95.37994,5.379893,CSI
4613884300000.0,1.1912447214126587,3.340674638748169,-10.11390209197998,-0.9912188649177551,0.487344890832901,0.45448375,-0.12003502,102.662254,95.71513,5.713068,CSI
4613889600000.0,1.1962428092956543,3.2030704021453857,-10.208769798278809,-0.9345964193344116,0.45382022857666016,0.40256020000000003,-0.030543262,102.82446,95.856514,5.8526034000000005,CSI
4613895000000.0,1.2012407779693604,3.031879186630249,-10.344454765319824,-0.8643106818199158,0.4219682514667511,0.2761111,0.13805555,102.93052,95.92789499999999,5.92134,CSI
4613900000000.0,1.206237554550171,2.8347959518432617,-10.50418758392334,-0.7708883881568909,0.39285552501678467,0.053450707,0.27397305,103.01745,95.793625,5.783681400000001,CSI
4613905300000.0,1.2112345695495605,2.6173176765441895,-10.676080703735352,-0.6477677822113037,0.36856603622436523,-0.28221974,0.36193767,103.03319499999999,95.62857,5.6147860000000005,CSI
4613910600000.0,1.2162290811538696,2.3865842819213867,-10.856460571289062,-0.5019702315330505,0.3475242853164673,-0.6414085,0.39522982,102.97799,95.26693,5.251597,CSI
4613916000000.0,1.2212272882461548,2.1588058471679688,-11.037393569946289,-0.3482820987701416,0.3251785635948181,-0.9578367,0.34269542,102.83454,94.91714,4.899076999999999,CSI
4613921000000.0,1.226220965385437,1.949458360671997,-11.214374542236328,-0.1983235478401184,0.29515257477760315,-1.2165382,0.24617869,102.59215,94.42679,4.413942,CSI
4613926300000.0,1.2312179803848267,1.782898187637329,-11.380942344665527,-0.06935225427150726,0.25346070528030396,-1.4101825000000001,0.105374254,102.27247,93.98528,3.974338,CSI
4613931500000.0,1.2362161874771118,1.6764254570007324,-11.52314281463623,0.0432305783033371,0.20301978290081024,-1.4874569,-0.04062254,101.90493000000001,93.554985,3.5466633,CSI
4613937000000.0,1.241214632987976,1.6755567789077759,-11.606531143188477,0.1486596316099167,0.15049771964550018,-1.4263704,-0.21258110000000002,101.51829000000001,93.19105,3.1828415,CSI
4613942000000.0,1.2462153434753418,1.767121434211731,-11.635359764099121,0.24813532829284668,0.10619506984949112,-1.2476922,-0.39736784,101.14445500000001,93.01258,3.0018275,CSI
4613947000000.0,1.2512141466140747,1.8559871912002563,-11.629502296447754,0.3508150279521942,0.07597312331199646,-0.98715824,-0.5006041,100.812485,92.86586,2.8533513999999998,CSI
4613952500000.0,1.256208896636963,1.9422799348831177,-11.591081619262695,0.4564577341079712,0.06031855568289757,-0.6783658,-0.5305365,100.52611999999999,93.14506,3.1365380000000003,CSI
4613958000000.0,1.2612050771713257,2.0065500736236572,-11.523605346679688,0.5483065843582153,0.05754350125789642,-0.43218717,-0.5552765000000001,100.30208,93.444115,3.4413898,CSI
4613963000000.0,1.2662012577056885,2.043200731277466,-11.42961597442627,0.621281623840332,0.06276202201843262,-0.30451632,-0.56505036,100.13733,86.25573,3.7442691,CSI
4613968000000.0,1.2712010145187378,2.044015884399414,-11.3199462890625,0.6625544428825378,0.07086023688316345,-0.23823744,-0.5546656,100.01785,85.9306,4.06354,CSI
4613973500000.0,1.2761988639831543,2.0099055767059326,-11.197566986083984,0.6719409823417664,0.0778757780790329,-0.21105394,-0.5143485,99.92768000000001,85.60514,4.371624,CSI
4613978700000.0,1.2812010049819946,1.9327186346054077,-11.071416854858398,0.6379978656768799,0.07950402051210403,-0.16890424,-0.4474588,99.88015,85.3596,4.597215,CSI
4613984000000.0,1.2862004041671753,1.8137115240097046,-10.944001197814941,0.5611782073974609,0.07197900861501694,-0.14630222,-0.36560285,99.83675,85.13291,4.8035254,CSI
4613989000000.0,1.2911995649337769,1.6684744358062744,-10.82445240020752,0.45836737751960754,0.05154015123844147,-0.07086037,-0.33444872,99.85624,85.05815,4.879758,CSI
4613994400000.0,1.2961983680725098,1.5022178888320923,-10.714869499206543,0.3351006805896759,0.02506105788052082,-0.092240654,-0.28771752,99.85428,85.01465999999999,4.9269867,CSI
4613999700000.0,1.3011980056762695,1.3244856595993042,-10.600948333740234,0.1877320557832718,-0.015551760792732239,-0.3295618,-0.26725355,99.87951,85.21239,4.766230999999999,CSI
4614005000000.0,1.306196928024292,1.1381503343582153,-10.479482650756836,0.016527311876416206,-0.07047288119792938,-0.56382865,-0.2556471,99.89775999999999,85.4034,4.595442299999999,CSI
4614010000000.0,1.311195969581604,0.964039146900177,-10.343731880187988,-0.15481369197368622,-0.13487045466899872,-0.62858033,-0.23518312,99.97086999999999,94.26419,4.2444406,CSI
4614015400000.0,1.3161965608596802,0.8136650323867798,-10.190118789672852,-0.31293150782585144,-0.20356783270835876,-0.5207626000000001,-0.22724187,100.02494,94.02091,3.8998277000000003,CSI
4614020700000.0,1.3211965560913086,0.6955079436302185,-10.017297744750977,-0.4214720129966736,-0.2717456817626953,-0.28008172,-0.23518312,100.24407,93.762,3.3370914,CSI
4614026000000.0,1.3261985778808594,0.6113675236701965,-9.825197219848633,-0.47032856941223145,-0.33332765102386475,-0.010995574,-0.26389378,100.498276,93.74431,2.7970450000000002,CSI
4614031000000.0,1.3312041759490967,0.5712795853614807,-9.639479637145996,-0.46638667583465576,-0.3782314956188202,0.19730948,-0.31795537,100.7887,93.95862,2.3634324,CSI
4614036400000.0,1.3362059593200684,0.5755089521408081,-9.467629432678223,-0.41501519083976746,-0.39928874373435974,0.41447207,-0.38148534,101.15031,94.26756999999999,1.9582517,CSI
4614041600000.0,1.3412060737609863,0.6023831963539124,-9.318936347961426,-0.32444193959236145,-0.39716798067092896,0.7452555999999999,-0.44379359999999995,101.423996,94.49169,1.8351176,CSI
4614047000000.0,1.346207618713379,0.6433518528938293,-9.196198463439941,-0.1986268311738968,-0.37968048453330994,1.0882565,-0.4709771,101.75846999999999,94.655495,1.7259474999999997,CSI
4614052000000.0,1.3512098789215088,0.6814368963241577,-9.099276542663574,-0.03698229789733887,-0.3541886806488037,1.2556334999999998,-0.47708577,102.036606,94.649284,1.8605493000000002,CSI
4614057400000.0,1.3562113046646118,0.7090889811515808,-9.027292251586914,0.1595470905303955,-0.3231375217437744,1.2003502000000001,-0.44593164,102.34788499999999,94.58004,1.9920467,CSI
4614062600000.0,1.3612114191055298,0.7219627499580383,-8.978217124938965,0.3586207330226898,-0.28807663917541504,1.0253373,-0.41447207,102.629196,94.366745,2.1795382,CSI
4614068000000.0,1.3662089109420776,0.7178463935852051,-8.950319290161133,0.5410652160644531,-0.2510753571987152,0.88086766,-0.38270709999999997,102.90423,94.15057,2.3535886,CSI
4614072600000.0,1.3712080717086792,0.7035979628562927,-8.95192813873291,0.7115724682807922,-0.2144833505153656,0.70463306,-0.36254853,103.07605,93.77883,2.467263,CSI
4614078000000.0,1.376206398010254,0.6841330528259277,-8.987563133239746,0.8734909296035767,-0.1820877194404602,0.43096542,-0.40622538,103.18001,93.4689,2.5832393,CSI
4614082500000.0,1.3812050819396973,0.6657474637031555,-9.042062759399414,1.0120311975479126,-0.15470656752586365,0.36193767,-0.49388456,103.29491,93.183784,2.6302204,CSI
4614088000000.0,1.3862054347991943,0.6534204483032227,-9.103281021118164,1.1156560182571411,-0.12946827709674835,0.3857614,-0.52015173,103.36016,92.95947,2.667907,CSI
4614092500000.0,1.3912041187286377,0.648804783821106,-9.167574882507324,1.1995389461517334,-0.1052820086479187,0.45356745,-0.52839845,103.41792,92.80353000000001,2.6912212,CSI
4614097700000.0,1.3962349891662598,0.653733491897583,-9.233489990234375,1.2715128660202026,-0.08316600322723389,0.50793445,-0.57787853,103.48094,92.7498,2.7323053,CSI
4614102500000.0,1.4012336730957031,0.6657332181930542,-9.29636001586914,1.3348044157028198,-0.06465394794940948,0.5140431,-0.6072,103.57511,87.21011999999999,2.7894645000000002,CSI
4614107700000.0,1.4062310457229614,0.6853196620941162,-9.353058815002441,1.3902572393417358,-0.0487561859190464,0.54611355,-0.6747006999999999,103.69366,87.10276,2.869655,CSI
4614112400000.0,1.4112273454666138,0.708096981048584,-9.402481079101562,1.4301925897598267,-0.0365704745054245,0.70616025,-0.754724,103.85969,86.92069000000001,2.9991055,CSI
4614117700000.0,1.4162232875823975,0.7250388264656067,-9.44182300567627,1.4374456405639648,-0.028468694537878036,0.9960158000000001,-0.8396343000000001,104.073616,86.70546999999999,3.1447575,CSI
4614123000000.0,1.4212197065353394,0.7345663905143738,-9.469603538513184,1.420235276222229,-0.02553538978099823,1.314582,-0.93126404,104.35556,86.43382,3.3497012,CSI
4614127600000.0,1.4262176752090454,0.7331249117851257,-9.482223510742188,1.3934807777404785,-0.029611172154545784,1.5158621,-1.0060950000000002,104.687485,86.155174,3.5675101000000002,CSI
4614133000000.0,1.431213140487671,0.7213149070739746,-9.48196029663086,1.361990213394165,-0.04063177853822708,1.5711454,-1.058324,105.0947,85.93083,3.7820792,CSI
4614137600000.0,1.4362118244171143,0.6992639899253845,-9.471087455749512,1.3319307565689087,-0.058373596519231796,1.5161675,-1.0848966999999998,105.52486999999999,85.71167,4.005204,CSI
4614143000000.0,1.4412065744400024,0.6691128015518188,-9.452479362487793,1.3059396743774414,-0.08386200666427612,1.3677273,-1.0705414,105.95063,85.5573,4.189161,CSI
4614148000000.0,1.4462476968765259,0.6328408718109131,-9.430107116699219,1.2911418676376343,-0.11792125552892685,1.0906999,-1.0228939000000001,106.318596,85.41892,4.3689833,CSI
4614153000000.0,1.451246738433838,0.5994762182235718,-9.412428855895996,1.27524995803833,-0.16004574298858643,0.74372846,-0.9593639000000002,106.61648600000001,85.34541,4.490573400000001,CSI
4614157500000.0,1.4562431573867798,0.5814969539642334,-9.41295051574707,1.2409555912017822,-0.20596419274806976,0.46303585,-0.8729264000000001,106.84876000000001,85.29319,4.591230400000001,CSI
4614163000000.0,1.4612449407577515,0.5784788727760315,-9.431204795837402,1.1886796951293945,-0.25127485394477844,0.36468655,-0.7629706999999999,107.03267,85.28495,4.637983999999999,CSI
4614167500000.0,1.4662400484085083,0.5890255570411682,-9.465486526489258,1.1202280521392822,-0.29454517364501953,0.43768495,-0.657291,107.18205,85.29545999999999,4.6610894,CSI
4614172700000.0,1.4712356328964233,0.612765908241272,-9.515387535095215,1.035965085029602,-0.33524906635284424,0.6151413,-0.5375614000000001,107.33049,85.33205,4.648643,CSI
4614177400000.0,1.4762325286865234,0.6429421901702881,-9.578434944152832,0.9498369097709656,-0.3724978268146515,0.8671232,-0.42210788,107.51866000000001,85.38731999999999,4.607393,CSI
4614182700000.0,1.4812288284301758,0.6770510077476501,-9.653233528137207,0.8665357828140259,-0.4057105481624603,0.9770790000000001,-0.32589662,107.713875,85.46129599999999,4.538621,CSI
4614188000000.0,1.4862291812896729,0.7066972851753235,-9.732461929321289,0.7971400618553162,-0.43246540427207947,1.1594223,-0.28924468,108.057526,94.58844,4.5783463,CSI
4614192600000.0,1.491224765777588,0.7291689515113831,-9.81306266784668,0.7447299361228943,-0.4555644094944,1.2889256000000002,-0.22479841,108.41398000000001,94.6279,4.584842,CSI
4614198000000.0,1.4962235689163208,0.7432243824005127,-9.889954566955566,0.7085989713668823,-0.4736397862434387,1.3658947,-0.17073683,108.806404,94.695564,4.60478,CSI
4614202600000.0,1.5012227296829224,0.7483115792274475,-9.959510803222656,0.6875940561294556,-0.485933780670166,1.4056008999999998,-0.15668693,109.220894,94.76911,4.6201468,CSI
4614208000000.0,1.5062203407287598,0.7460346221923828,-10.01682186126709,0.671671986579895,-0.49498450756073,1.4184291,-0.15882497,109.65403,94.80161,4.599773,CSI
4614212600000.0,1.5112181901931763,0.7377067804336548,-10.057661056518555,0.6523047685623169,-0.5023971796035767,1.412015,-0.18387043,110.08725,94.83973,4.584515000000001,CSI
4614218000000.0,1.5162556171417236,0.7330142259597778,-10.078991889953613,0.6260218620300293,-0.510424017906189,1.4282030000000001,-0.22418754,110.52499399999999,94.84082,4.543952,CSI
4614222500000.0,1.521252155303955,0.7347182631492615,-10.085576057434082,0.5941150784492493,-0.5186253190040588,1.4718798,-0.27916542,110.96216000000001,94.85448000000001,4.5173407,CSI
4614228000000.0,1.5262479782104492,0.7524145841598511,-10.07768440246582,0.5597994327545166,-0.5267639756202698,1.466382,-0.34972036,111.39761999999999,94.8742,4.4850650000000005,CSI
4614232500000.0,1.5312434434890747,0.7903866171836853,-10.057077407836914,0.5255443453788757,-0.5333945751190186,1.3921618,-0.41080686,111.817924,94.90890999999999,4.4678044,CSI
4614237700000.0,1.5362427234649658,0.8533381819725037,-10.024911880493164,0.488637238740921,-0.5383370518684387,1.2996159,-0.45814893,112.23962,95.00819399999999,4.50425,CSI
4614242400000.0,1.541239619255066,0.9425838589668274,-9.982501029968262,0.4477173686027527,-0.5415023565292358,1.1768318000000002,-0.49418998,112.62366999999999,95.11941999999999,4.5541472,CSI
4614247700000.0,1.546241283416748,1.056994080543518,-9.929922103881836,0.40485870838165283,-0.5425131320953369,1.0635164,-0.52564955,113.00613999999999,95.32629399999999,4.712926400000001,CSI
4614253000000.0,1.5512385368347168,1.193899393081665,-9.868029594421387,0.3616187274456024,-0.5420050621032715,0.9221011,-0.5384777,113.33948500000001,95.53229499999999,4.872491,CSI
4614257600000.0,1.556235432624817,1.3497612476348877,-9.799957275390625,0.3178887367248535,-0.5399451851844788,0.7623598,-0.5375614000000001,113.659706,95.85919,5.1633615,CSI
4614263000000.0,1.5612324476242065,1.5210705995559692,-9.728630065917969,0.27360326051712036,-0.5359767079353333,0.589485,-0.5320636,113.93117,96.17789499999999,5.4497867,CSI
4614267600000.0,1.566226601600647,1.703377604484558,-9.655389785766602,0.22975194454193115,-0.5305431485176086,0.44532076,-0.5296202,114.19285,96.605354,5.8562346,CSI
4614273000000.0,1.5712244510650635,1.8835506439208984,-9.584427833557129,0.18986225128173828,-0.5251061320304871,0.28893927,-0.52503866,114.39786000000001,97.02299000000001,6.251391,CSI
4614277600000.0,1.5762192010879517,2.054434299468994,-9.516213417053223,0.15270529687404633,-0.5180381536483765,0.105374254,-0.52534413,114.5737,97.53121,6.7476716,CSI
4614283000000.0,1.5812160968780518,2.199843168258667,-9.451874732971191,0.11584360897541046,-0.5097028613090515,0.009468411,-0.52412236,114.72651,98.030785,7.233114,CSI
4614288000000.0,1.586251974105835,2.315896987915039,-9.390176773071289,0.07621978968381882,-0.5018280744552612,-0.23701571,-0.52198434,114.78916000000001,98.54576,7.733035000000001,CSI
4614293000000.0,1.5912481546401978,2.403672695159912,-9.329082489013672,0.02962259203195572,-0.49305444955825806,-0.29962940000000005,-0.50915617,114.87467,99.04351,8.222565,CSI
4614298000000.0,1.59625244140625,2.4603803157806396,-9.268129348754883,-0.025351107120513916,-0.4850088357925415,-0.37965274,-0.49571714,114.87116999999999,99.47835500000001,8.631051,CSI
4614302700000.0,1.6012496948242188,2.490222692489624,-9.208625793457031,-0.08729227632284164,-0.4780431091785431,-0.40042216,-0.46303585,114.86623,99.89609499999999,9.023372,CSI
4614307400000.0,1.6062448024749756,2.494230270385742,-9.150463104248047,-0.15599611401557922,-0.47253918647766113,-0.39278635,-0.41172317,114.8511,100.220726,9.289891,CSI
4614312700000.0,1.611241340637207,2.477069616317749,-9.097187042236328,-0.2247982621192932,-0.4675401747226715,-0.33628133,-0.36285394,114.84454,100.532425,9.54377,CSI
4614318000000.0,1.616237998008728,2.4406814575195312,-9.049237251281738,-0.2924204468727112,-0.4629378020763397,-0.267559,-0.29810223,114.8452,100.8247,9.774664,CSI
4614322700000.0,1.6212352514266968,2.393695116043091,-9.009125709533691,-0.35779261589050293,-0.45843419432640076,-0.18295415,-0.23182335,114.87397,101.01351,9.866617999999999,CSI
4614327400000.0,1.6262285709381104,2.338904857635498,-8.977079391479492,-0.4207117557525635,-0.45452871918678284,-0.07880162,-0.17287487,114.92971000000001,101.18944499999999,9.943096,CSI
4614332600000.0,1.6312248706817627,2.28670072555542,-8.951996803283691,-0.4744594693183899,-0.4512057304382324,0.014966198,-0.11759156,115.017624,101.26639,9.897299,CSI
4614338000000.0,1.6362248659133911,2.2390997409820557,-8.933349609375,-0.5180585384368896,-0.4497201442718506,0.094989546,-0.08063421400000001,115.13162,101.34248000000001,9.84431,CSI
4614342600000.0,1.6412216424942017,2.195810556411743,-8.920666694641113,-0.5522338151931763,-0.44896480441093445,0.15821409,-0.05955936,115.29595,101.36465,9.722391,CSI
4614348000000.0,1.6462160348892212,2.1566083431243896,-8.913643836975098,-0.5774674415588379,-0.44924265146255493,0.19150625,-0.05955936,115.47111000000001,101.39693,9.602036,CSI
4614352500000.0,1.6512168645858765,2.1240251064300537,-8.910582542419434,-0.5933958888053894,-0.45053115487098694,0.19975294,-0.08307768,115.68078999999999,101.44059,9.488344,CSI
4614358000000.0,1.6562244892120361,2.0997002124786377,-8.910130500793457,-0.6000512838363647,-0.4535089433193207,0.172264,-0.10903945,115.88325,101.49795,9.379964,CSI
4614362500000.0,1.661219835281372,2.0812795162200928,-8.910772323608398,-0.604621410369873,-0.4574674665927887,0.16004670000000001,-0.14691310000000002,116.060776,101.54831,9.313002000000001,CSI
4614368000000.0,1.666218638420105,2.0679702758789062,-8.911896705627441,-0.6102386116981506,-0.46191495656967163,0.1554652,-0.18387043,116.22731,101.611755,9.255175999999999,CSI
4614372500000.0,1.6712173223495483,2.058634042739868,-8.912460327148438,-0.6171784400939941,-0.4663044810295105,0.14172074,-0.22510384,116.39822,101.69362,9.2455015,CSI
4614377700000.0,1.6762157678604126,2.05263090133667,-8.911962509155273,-0.625552773475647,-0.4716320335865021,0.124311075,-0.2593123,116.561226,101.78826,9.244975,CSI
4614383000000.0,1.6812142133712769,2.0482065677642822,-8.910139083862305,-0.6284673810005188,-0.47677332162857056,0.10903945,-0.27885997,116.71453000000001,101.902596,9.270539999999999,CSI
4614387700000.0,1.686213493347168,2.0445218086242676,-8.906902313232422,-0.6229165196418762,-0.4815917909145355,0.09101892,-0.30818152,116.85672,102.02936,9.307825999999999,CSI
4614393000000.0,1.6912126541137695,2.0369749069213867,-8.90200138092041,-0.6197788119316101,-0.4874393939971924,0.090713486,-0.3381139,116.99558,102.17913,9.363891,CSI
4614397600000.0,1.6962120532989502,2.0232644081115723,-8.895340919494629,-0.6246365904808044,-0.49453797936439514,0.11301007,-0.36468655,117.131584,102.33388000000001,9.426883,CSI
4614403000000.0,1.7014780044555664,1.9971612691879272,-8.884997367858887,-0.6448826193809509,-0.5050997138023376,0.19486602,-0.39095375,117.45219399999999,102.6348,9.585111,CSI
4614408000000.0,1.7067312002182007,1.9729539155960083,-8.874479293823242,-0.6627223491668701,-0.5161240696907043,0.28283059999999993,-0.39767328,117.65584,102.786194,9.626992999999999,CSI
4614413400000.0,1.7119637727737427,1.9550353288650513,-8.864645957946777,-0.6724881529808044,-0.5275049805641174,0.43218717,-0.4156938,117.88213999999999,102.95076,9.6797085,CSI
4614418600000.0,1.7171835899353027,1.9431997537612915,-8.855464935302734,-0.6744258999824524,-0.5401024222373962,0.55741453,-0.43279803,118.134,103.12347,9.711291000000001,CSI
4614424000000.0,1.7223923206329346,1.9371446371078491,-8.846901893615723,-0.6689220666885376,-0.5510681867599487,0.64812803,-0.4569272,118.40803000000001,103.29415999999999,9.755857,CSI
4614429000000.0,1.7275893688201904,1.9369162321090698,-8.838410377502441,-0.6605432033538818,-0.5613030195236206,0.69027776,-0.47403142,118.69318,103.4754,9.807336,CSI
4614434300000.0,1.7327767610549927,1.942480444908142,-8.829648971557617,-0.6521291732788086,-0.5711551904678345,0.7119634,-0.48685959999999995,118.986946,103.65695,9.867823,CSI
4614439600000.0,1.7379536628723145,1.9546973705291748,-8.819990158081055,-0.6435431838035583,-0.5816217064857483,0.73456544,-0.49449542,119.26104,103.8364,9.990467,CSI
4614445000000.0,1.7431211471557617,1.9745116233825684,-8.808784484863281,-0.6346414685249329,-0.5936790704727173,0.7516696999999999,-0.48685959999999995,119.53251000000002,104.016624,10.110955,CSI
4614450000000.0,1.7482812404632568,2.00273060798645,-8.79558277130127,-0.6263492107391357,-0.6078447103500366,0.7467828000000001,-0.4831944,119.79576000000002,104.22149,10.261927,CSI
4614455300000.0,1.7534313201904297,2.039933681488037,-8.780014991760254,-0.6195220947265625,-0.62394118309021,0.72784597,-0.47372600000000004,120.05406,104.42775,10.4065,CSI
4614460500000.0,1.7585759162902832,2.0867230892181396,-8.763051986694336,-0.6101357340812683,-0.6407262086868286,0.72082096,-0.46150870000000005,120.30888999999999,104.65938,10.581826,CSI
4614466000000.0,1.7637135982513428,2.1433637142181396,-8.745595932006836,-0.5947279334068298,-0.6566166877746582,0.7165449,-0.462425,120.55313999999998,104.89191399999999,10.754324,CSI
4614471000000.0,1.7688443660736084,2.2108936309814453,-8.728670120239258,-0.5742847919464111,-0.6709929704666138,0.6774496,-0.47403142,120.785,105.16233000000001,10.970832000000001,CSI
4614476300000.0,1.7739686965942383,2.291904926300049,-8.714247703552246,-0.5503941774368286,-0.6830893158912659,0.6618725000000001,-0.48930305,121.0173,105.42591999999999,11.1858225,CSI
4614481500000.0,1.779083251953125,2.383936643600464,-8.701128005981445,-0.5247501730918884,-0.6941992044448853,0.65393126,-0.49907690000000005,121.24646000000001,105.71238999999998,11.458215,CSI
4614487000000.0,1.7841980457305908,2.4847240447998047,-8.687713623046875,-0.49947935342788696,-0.7046518921852112,0.6392705,-0.5290093000000001,121.46353,105.99708600000001,11.734282499999999,CSI
4614492000000.0,1.789301872253418,2.5881848335266113,-8.670854568481445,-0.4761490225791931,-0.716484546661377,0.64568454,-0.5488624,121.69503999999999,106.319496,12.070910000000001,CSI
4614497000000.0,1.7944021224975586,2.683079481124878,-8.643446922302246,-0.4581320881843567,-0.7296398878097534,0.66523224,-0.5842925999999999,121.92053,106.64653999999999,12.413825,CSI
4614502500000.0,1.799495816230774,2.775052309036255,-8.606749534606934,-0.44112083315849304,-0.7442589998245239,0.7825184000000001,-0.6423248,122.18276999999999,107.02785,12.826988,CSI
4614507700000.0,1.8046181201934814,2.878700017929077,-8.561388969421387,-0.41413792967796326,-0.7599871754646301,0.8042041,-0.7079928000000001,122.41788500000001,107.41895,13.240567,CSI
4614512400000.0,1.809701919555664,2.9882864952087402,-8.511017799377441,-0.3817918598651886,-0.7791418433189392,0.6872234,-0.6985244,122.64112,107.83192,13.639721,CSI
4614517700000.0,1.8147796392440796,3.0875003337860107,-8.465144157409668,-0.3634073734283447,-0.8014101386070251,0.63438356,-0.61941737,122.88616999999999,108.243164,14.035063000000001,CSI
4614522400000.0,1.8198533058166504,3.176866054534912,-8.423539161682129,-0.3583167493343353,-0.8266749978065491,0.66828656,-0.5366451,123.14023,108.698875,14.498076999999999,CSI
4614527600000.0,1.8249236345291138,3.2460222244262695,-8.382328033447266,-0.3649177551269531,-0.8545488119125366,0.7657196,-0.46395215,123.39993999999999,109.14556,14.9353,CSI
4614532400000.0,1.8299877643585205,3.294074773788452,-8.340788841247559,-0.3822741210460663,-0.8832647800445557,0.8374963,-0.4083634,123.66431999999999,109.57918000000001,15.348107999999998,CSI
4614537600000.0,1.8350540399551392,3.318157434463501,-8.302694320678711,-0.4122571647167206,-0.9121106863021851,0.8753699,-0.37690386,123.92948999999999,110.01893999999999,15.717513,CSI
4614543000000.0,1.8401180505752563,3.319173812866211,-8.268632888793945,-0.45441311597824097,-0.942512035369873,0.8772025,-0.3622431,124.20427,110.45508000000001,16.072832000000002,CSI
4614547600000.0,1.8451762199401855,3.2945010662078857,-8.243755340576172,-0.5022338628768921,-0.9753625392913818,0.82986045,-0.38056904,124.442856,110.86567,16.346882,CSI
4614553000000.0,1.8502277135849,3.2445921897888184,-8.228888511657715,-0.5539578199386597,-1.0093108415603638,0.75502944,-0.42943826,124.66866999999999,111.280304,16.620167000000002,CSI
4614557500000.0,1.8552794456481934,3.1732919216156006,-8.226826667785645,-0.5941821336746216,-1.0418243408203125,0.6872234,-0.5027421,124.82413500000001,111.65671999999999,16.782446,CSI
4614563000000.0,1.8603286743164062,3.0830180644989014,-8.23777961730957,-0.6185986995697021,-1.0707006454467773,0.5946773,-0.57726765,124.94328,112.04316000000001,16.951134,CSI
4614567500000.0,1.8653724193572998,2.9884018898010254,-8.259971618652344,-0.6316059231758118,-1.09732186794281,0.4474588,-0.6444628000000001,124.95629,112.3463,16.95652,CSI
4614572700000.0,1.8704168796539307,2.8942692279815674,-8.29273796081543,-0.6348022818565369,-1.1218732595443726,0.35643986,-0.70554936,124.95385,112.65978999999999,16.98282,CSI
4614578000000.0,1.8754889965057373,2.819183588027954,-8.326722145080566,-0.6537628173828125,-1.1456860303878784,0.39736784,-0.7339545999999999,124.91906999999999,112.8431,16.876865,CSI
4614582700000.0,1.8805246353149414,2.767880439758301,-8.356672286987305,-0.6961610913276672,-1.1686854362487793,0.43310347,-0.73426,124.85961999999999,113.03533,16.782722,CSI
4614588000000.0,1.8855633735656738,2.7534244060516357,-8.375519752502441,-0.7631290555000305,-1.1904429197311401,0.45265114,-0.7281514,124.81893000000001,113.175354,16.679537,CSI
4614592700000.0,1.8905965089797974,2.7807633876800537,-8.379190444946289,-0.851391613483429,-1.2099339962005615,0.45601090000000005,-0.7119634,124.78788,113.31386,16.5835,CSI
4614598000000.0,1.895627498626709,2.8454511165618896,-8.36923599243164,-0.9481015205383301,-1.2267749309539795,0.43371433,-0.71685034,124.76723999999999,113.60861000000001,16.601383,CSI
4614602600000.0,1.9006563425064087,2.9432311058044434,-8.347145080566406,-1.0428242683410645,-1.2406185865402222,0.36957347,-0.7275404999999999,124.73805,113.89418,16.617744000000002,CSI
4614608000000.0,1.905684232711792,3.059424877166748,-8.313438415527344,-1.1460256576538086,-1.2519339323043823,0.3109304,-0.75319684,124.748535,114.4047,16.858849,CSI
4614612600000.0,1.9107106924057007,3.177285671234131,-8.268667221069336,-1.2696868181228638,-1.2618649005889893,0.31856623,-0.7706065,124.757645,114.90325,17.097137,CSI
4614618000000.0,1.915733814239502,3.2919740676879883,-8.2190523147583,-1.4040441513061523,-1.2712666988372803,0.4071417,-0.763887,124.820526,115.53699499999999,17.521976000000002,CSI
4614622500000.0,1.9207580089569092,3.3928980827331543,-8.177491188049316,-1.5292621850967407,-1.2812905311584473,0.48655418,-0.7535023000000001,124.8779,116.162415,17.941826000000002,CSI
4614628000000.0,1.925780177116394,3.480874538421631,-8.143495559692383,-1.6458494663238525,-1.2929288148880005,0.52778757,-0.7086037,124.95245,116.90031,18.399998,CSI
4614632500000.0,1.9308003187179565,3.55659818649292,-8.116659164428711,-1.7542672157287598,-1.3063884973526,0.50671273,-0.6588182,125.02617,117.6259,18.845339000000003,CSI
4614638000000.0,1.9358196258544922,3.623154640197754,-8.107172966003418,-1.8513931035995483,-1.320905089378357,0.43829579999999996,-0.61361414,125.09535,118.33491000000001,19.269314,CSI
4614642500000.0,1.9408389329910278,3.684630870819092,-8.129624366760254,-1.932610034942627,-1.3360315561294556,0.33536503,-0.57635134,125.14693,119.02983,19.667116,CSI
4614647700000.0,1.9458777904510498,3.7390353679656982,-8.168336868286133,-2.012960433959961,-1.3508890867233276,0.2275473,-0.5693264,125.17049399999999,119.64073,19.97683,CSI
4614652400000.0,1.9508939981460571,3.7850182056427,-8.202776908874512,-2.107804536819458,-1.3647106885910034,0.17715092,-0.58459806,125.17903999999999,120.24,20.271755,CSI
4614657700000.0,1.9559059143066406,3.8229739665985107,-8.230735778808594,-2.214320421218872,-1.3757121562957764,0.18539760000000002,-0.59986967,125.18918000000001,120.72153999999999,20.513094,CSI
4614663000000.0,1.9609204530715942,3.8541290760040283,-8.245888710021973,-2.3227035999298096,-1.3830509185791016,0.21471913,-0.623388,125.18658,121.19318999999999,20.752489999999998,CSI
4614667600000.0,1.9659311771392822,3.8789401054382324,-8.248350143432617,-2.4336740970611572,-1.3868408203125,0.22266038,-0.6444628000000001,125.14773600000001,121.69367,20.95141,CSI
4614673000000.0,1.9709450006484985,3.8975512981414795,-8.235234260559082,-2.5511960983276367,-1.3869779109954834,0.22968534,-0.66248333,125.11318,122.17521,21.155732999999998,CSI
4614677600000.0,1.9759544134140015,3.910360813140869,-8.209650993347168,-2.673593521118164,-1.384194016456604,0.24678956,-0.66828656,125.09143,122.67473600000001,21.370611,CSI
4614683000000.0,1.9809656143188477,3.9174211025238037,-8.176400184631348,-2.798499345779419,-1.3797354698181152,0.25503623,-0.6808093000000001,125.06341599999999,123.16006000000002,21.588278,CSI
4614688000000.0,1.9859957695007324,3.9187874794006348,-8.135629653930664,-2.925546407699585,-1.3733333349227905,0.22510384,-0.68233645,125.01201999999999,123.674034,21.794691,CSI
4614693000000.0,1.9910062551498413,3.9170525074005127,-8.095769882202148,-3.0362327098846436,-1.3666212558746338,0.27366763,-0.6817255999999999,124.98078000000001,124.17935,22.012302,CSI
4614697500000.0,1.9960134029388428,3.9124717712402344,-8.05778694152832,-3.133782386779785,-1.36147141456604,0.22907446,-0.66920286,124.93672,124.71252,22.226945999999998,CSI
4614703000000.0,2.001024007797241,3.9083945751190186,-8.034536361694336,-3.25362491607666,-1.359965443611145,0.09193522,-0.6719518,124.87378000000001,125.24471000000001,22.435782999999997,CSI
4614707500000.0,2.0060324668884277,3.9050803184509277,-8.025413513183594,-3.3946852684020996,-1.3641879558563232,0.05375614,-0.65118235,124.83446,125.74663000000001,22.632517,CSI
4614712700000.0,2.011040449142456,3.9053821563720703,-8.033974647521973,-3.5624094009399414,-1.3756405115127563,0.019547688,-0.65484756,124.75301999999999,126.26611000000001,22.816093,CSI
4614717400000.0,2.0160462856292725,3.909090280532837,-8.059191703796387,-3.7552051544189453,-1.3939865827560425,-0.02687807,-0.67164636,124.63071000000001,126.83443999999999,22.97159,CSI
4614722700000.0,2.021052122116089,3.915433645248413,-8.101418495178223,-3.9646520614624023,-1.4174588918685913,-0.08704830000000001,-0.70280045,124.492874,127.42058,23.122785999999998,CSI
4614728000000.0,2.026059150695801,3.92403507232666,-8.16027545928955,-4.187009334564209,-1.4464191198349,-0.18203785,-0.72143185,124.333244,128.0304,23.261335,CSI
4614732600000.0,2.0310633182525635,3.931042194366455,-8.230314254760742,-4.4177656173706055,-1.4796470403671265,-0.25778514,-0.72234815,124.12583000000001,128.70576,23.370914000000003,CSI
4614738000000.0,2.0360708236694336,3.933307647705078,-8.307541847229004,-4.653916358947754,-1.516459345817566,-0.27855456,-0.72051555,123.90834,129.39651,23.475235,CSI
4614742600000.0,2.0410735607147217,3.9310708045959473,-8.388891220092773,-4.892894744873047,-1.5554280281066895,-0.23151793,-0.68936145,123.70113,130.09972,23.553917000000002,CSI
4614748000000.0,2.0460808277130127,3.9236934185028076,-8.46230697631836,-5.126058578491211,-1.5937198400497437,-0.10995574,-0.6407976,123.51498400000001,130.79526,23.633307000000002,CSI
4614752600000.0,2.0510849952697754,3.911616563796997,-8.526615142822266,-5.345822811126709,-1.631826639175415,0.043676864,-0.5861251999999999,123.33821,131.4911,23.671339,CSI
4614758000000.0,2.0560901165008545,3.8950700759887695,-8.57819938659668,-5.534584999084473,-1.6695302724838257,0.1255328,-0.5305365,123.186966,132.16899999999998,23.704317,CSI
4614762500000.0,2.061095714569092,3.87432599067688,-8.618163108825684,-5.6939263343811035,-1.7075848579406738,0.122478485,-0.5140431,123.05859,132.85449,23.733658,CSI
4614768000000.0,2.0660998821258545,3.8498878479003906,-8.650969505310059,-5.824663162231445,-1.746313452720642,0.0888809,-0.5152648,122.95286000000002,133.52863,23.761223,CSI
4614772500000.0,2.0711028575897217,3.821946620941162,-8.676993370056152,-5.928296089172363,-1.7851428985595703,0.053450707,-0.5500841999999999,122.86084,134.17479,23.798212,CSI
4614777700000.0,2.0761072635650635,3.7846481800079346,-8.67577075958252,-5.998316287994385,-1.8221147060394287,-0.05100725,-0.5684100999999999,122.74871999999999,134.81033,23.812614,CSI
4614782500000.0,2.0811102390289307,3.7376909255981445,-8.645868301391602,-6.0356125831604,-1.854853630065918,-0.14172074,-0.59406644,122.62581000000002,135.44,23.831392,CSI
4614787700000.0,2.086117744445801,3.6935930252075195,-8.590483665466309,-6.055222511291504,-1.8830969333648682,-0.22999077,-0.6236934000000001,122.49816000000001,136.0234,23.842032999999997,CSI
4614793000000.0,2.0911386013031006,3.654982566833496,-8.510599136352539,-6.060715198516846,-1.9058959484100342,-0.28680122,-0.6249151,122.3601,136.58139,23.84094,CSI
4614797700000.0,2.0961406230926514,3.621217966079712,-8.410575866699219,-6.054297924041748,-1.9248754978179932,-0.32711834,-0.6264423000000001,122.20868,137.13013,23.85129,CSI
4614803000000.0,2.101142168045044,3.5922305583953857,-8.289826393127441,-6.0358147621154785,-1.9397672414779663,-0.3631594,-0.62949663,122.07585,137.64866999999998,23.854354999999998,CSI
4614807600000.0,2.106144428253174,3.5779080390930176,-8.148921966552734,-6.022066116333008,-1.9525305032730103,-0.38637227,-0.63163465,121.93982,138.15509,23.851843,CSI
4614813000000.0,2.111142873764038,3.581224203109741,-7.989221096038818,-6.019100666046143,-1.9639462232589722,-0.39492437,-0.6432411,121.79964,138.64453,23.847607,CSI
4614817600000.0,2.116143226623535,3.601594924926758,-7.81117057800293,-6.026556015014648,-1.975127935409546,-0.40042216,-0.6704246,121.64605,139.22843999999998,23.947445000000002,CSI
4614823000000.0,2.121145725250244,3.6381216049194336,-7.615732192993164,-6.043882846832275,-1.9854859113693237,-0.40256020000000003,-0.69913524,121.49059,139.79996,24.047249,CSI
4614827500000.0,2.1261472702026367,3.691148281097412,-7.41098165512085,-6.081057548522949,-1.9952105283737183,-0.43585235,-0.7302894,121.34126,140.3681,24.142635000000002,CSI
4614833000000.0,2.1311492919921875,3.7606148719787598,-7.2008585929870605,-6.142626762390137,-2.003114700317383,-0.47555858,-0.7516696999999999,121.18815,140.92369,24.238134,CSI
4614837500000.0,2.1361520290374756,3.846092462539673,-6.99152135848999,-6.237346649169922,-2.009962797164917,-0.569021,-0.7672467,120.95687,141.71202,24.469767,CSI
4614843000000.0,2.1411542892456055,3.94724702835083,-6.790678024291992,-6.376534461975098,-2.016657590866089,-0.61361414,-0.8188649,120.714905,142.4961,24.709295,CSI
4614847500000.0,2.146155595779419,4.0616583824157715,-6.603362083435059,-6.545870304107666,-2.022165298461914,-0.53969944,-0.83291477,120.42797,143.39235,24.998356,CSI
4614852700000.0,2.1511592864990234,4.187411785125732,-6.434134483337402,-6.732954978942871,-2.025507688522339,-0.48685959999999995,-0.8723155999999999,120.10963400000001,144.2824,25.280413,CSI
4614857400000.0,2.1561601161956787,4.319797992706299,-6.285708904266357,-6.92843770980835,-2.026637315750122,-0.40133846,-0.9147707,119.754814,145.26984,25.582266,CSI
4614862700000.0,2.161161184310913,4.453301429748535,-6.162472724914551,-7.120975017547607,-2.02493953704834,-0.31612277,-0.94897914,119.40388999999999,146.23009,25.88932,CSI
4614868000000.0,2.166160821914673,4.586371898651123,-6.063600063323975,-7.309203624725342,-2.020906925201416,-0.27550024,-0.9837985,119.0359,147.20863,26.218382000000002,CSI
4614872600000.0,2.17116117477417,4.714049339294434,-5.990099906921387,-7.488250732421875,-2.01699161529541,-0.20311269,-1.001819,118.68723999999999,148.16449,26.561882,CSI
4614878000000.0,2.176158905029297,4.837767601013184,-5.934661865234375,-7.655976295471191,-2.0134150981903076,-0.16584991,-1.029308,118.35271999999999,149.05813999999998,26.901949,CSI
4614882600000.0,2.1811606884002686,4.959503650665283,-5.888326168060303,-7.809127330780029,-2.008629322052002,-0.14538592,-1.0476339,118.027596,149.92354,27.24134,CSI
4614888000000.0,2.1861603260040283,5.078598499298096,-5.847139835357666,-7.9460883140563965,-2.0025360584259033,-0.14966199,-1.0531317,117.74825,150.71573999999998,27.555374,CSI
4614892600000.0,2.191161632537842,5.194234848022461,-5.805741786956787,-8.063715934753418,-1.9937236309051514,-0.13408493,-1.0580186000000003,117.47334,151.4782,27.868784,CSI
4614898000000.0,2.1961588859558105,5.303094387054443,-5.763003349304199,-8.161654472351074,-1.9813441038131714,-0.109650314,-1.0650436,117.233376,152.18835,28.18907,CSI
4614903000000.0,2.2011988162994385,5.393564224243164,-5.714252471923828,-8.232881546020508,-1.9667268991470337,-0.08155051,-1.0632110000000001,116.99933999999999,152.8728,28.501547,CSI
4614908000000.0,2.2061941623687744,5.4709391593933105,-5.659751892089844,-8.284893035888672,-1.9499750137329102,-0.064751714,-1.0629056000000001,116.79386000000001,153.51733000000002,28.838829999999998,CSI
4614912500000.0,2.211193323135376,5.535876274108887,-5.593605041503906,-8.315886497497559,-1.932976484298706,-0.04428773,-1.0491611,116.598526,154.14073,29.170279999999998,CSI
4614917700000.0,2.216191530227661,5.59040641784668,-5.5156779289245605,-8.32797908782959,-1.9159234762191772,-0.03176499,-1.0274754000000001,116.42147,154.72829,29.490425,CSI
4614922400000.0,2.2211897373199463,5.646917819976807,-5.416717052459717,-8.32865047454834,-1.8988351821899414,-0.024740042,-0.98868537,116.25611,155.29465,29.80058,CSI
4614927700000.0,2.2261874675750732,5.705290794372559,-5.297914028167725,-8.3185396194458,-1.8790115118026733,0.0061086523,-0.9492845999999999,116.10248999999999,155.84816,30.123034000000004,CSI
4614933000000.0,2.231189489364624,5.765513896942139,-5.159872531890869,-8.298027038574219,-1.855247139930725,0.07696902,-0.8949176,115.97169,156.37305,30.442234000000003,CSI
4614937600000.0,2.236199378967285,5.827815532684326,-5.003673553466797,-8.268169403076172,-1.8259778022766113,0.1554652,-0.86284715,115.8581,156.86133,30.758602000000003,CSI
4614943000000.0,2.2411985397338867,5.895439624786377,-4.838033199310303,-8.239663124084473,-1.7909598350524902,0.2171626,-0.8323039000000001,115.7678,157.30795,31.074370000000002,CSI
4614948000000.0,2.246216058731079,5.968713283538818,-4.662067890167236,-8.212180137634277,-1.7518504858016968,0.27091873,-0.8078693,115.64553000000001,157.85754,31.503279,CSI
4614953000000.0,2.2512130737304688,6.039678573608398,-4.489692687988281,-8.181571960449219,-1.7094050645828247,0.26694809999999997,-0.77671516,115.53106000000001,158.3634,31.919163,CSI
4614957600000.0,2.256211519241333,6.108591556549072,-4.320234775543213,-8.147623062133789,-1.664973258972168,0.23335053,-0.73884153,115.39733999999999,158.90038,32.366867,CSI
4614963000000.0,2.261209726333618,6.170742511749268,-4.1575236320495605,-8.111665725708008,-1.619832992553711,0.19853121,-0.70463306,115.26661000000001,159.40678,32.799744,CSI
4614967500000.0,2.266206979751587,6.223419189453125,-4.0037407875061035,-8.074543952941895,-1.5748032331466675,0.18295415,-0.6658430999999999,115.14265400000001,159.88403,33.214172,CSI
4614973000000.0,2.2712321281433105,6.267268657684326,-3.852874994277954,-8.038742065429688,-1.5312129259109497,0.12583824,-0.6249151,115.01291,160.35988,33.616165,CSI
4614977500000.0,2.2762291431427,6.304222106933594,-3.7034177780151367,-8.005470275878906,-1.4856321811676025,0.11636983,-0.60994893,114.88762,160.8028,34.01595,CSI
4614982700000.0,2.2812254428863525,6.333597660064697,-3.5572099685668945,-7.974864959716797,-1.4408690929412842,0.09712757,-0.5687156,114.771065,161.22894,34.366528,CSI
4614987400000.0,2.2862231731414795,6.354952812194824,-3.417837619781494,-7.947085857391357,-1.3947477340698242,0.0842994,-0.54092115,114.6519,161.62148,34.708733,CSI
4614992700000.0,2.291219711303711,6.368773937225342,-3.284945249557495,-7.921971797943115,-1.3478939533233643,0.06750060599999999,-0.50946164,114.51478,162.0212,35.01555,CSI
4614998000000.0,2.296217679977417,6.3754048347473145,-3.1581790447235107,-7.899391174316406,-1.3001025915145874,0.08582657,-0.48502702,114.38551000000001,162.39497,35.319862,CSI
4615002700000.0,2.3012161254882812,6.374000072479248,-3.0380334854125977,-7.879308700561523,-1.2516189813613892,0.12705997,-0.44348818,114.27161000000001,162.74292,35.612384999999996,CSI
4615008000000.0,2.306213855743408,6.356570720672607,-2.9297399520874023,-7.862277507781982,-1.2034729719161987,0.15577064,-0.40591997,114.16366599999999,163.07224,35.898598,CSI
4615012600000.0,2.3112144470214844,6.3238115310668945,-2.833016872406006,-7.848191738128662,-1.156102180480957,0.18234327,-0.34697145,114.054695,163.37672,36.13548,CSI
4615018000000.0,2.316211700439453,6.27772855758667,-2.7501325607299805,-7.837155818939209,-1.1103769540786743,0.20128010000000002,-0.30085114,113.95595,163.66714,36.371105,CSI
4615022600000.0,2.32120943069458,6.2195587158203125,-2.679706573486328,-7.829400062561035,-1.066632866859436,0.20586158,-0.2501493,113.87711000000002,163.91093,36.541286,CSI
4615028000000.0,2.3262078762054443,6.156764984130859,-2.6139700412750244,-7.828143119812012,-1.0243735313415527,0.22876903,-0.20311269,113.81702,164.13863999999998,36.71428,CSI
4615033000000.0,2.3312487602233887,6.088895797729492,-2.5525550842285156,-7.833942890167236,-0.9844151735305786,0.26236662,-0.15302174,113.78596,164.31993,36.827732,CSI
4615038000000.0,2.3362467288970947,6.024066925048828,-2.492105722427368,-7.844048500061035,-0.9465374946594238,0.31795537,-0.10720685,113.775024,164.48717,36.94727,CSI
4615043000000.0,2.3412508964538574,5.961997032165527,-2.4320948123931885,-7.8591814041137695,-0.9109062552452087,0.40347649999999996,-0.076358154,113.77216000000001,164.64381,37.040836,CSI
4615048000000.0,2.3462469577789307,5.906038284301758,-2.3736517429351807,-7.878354072570801,-0.8774181008338928,0.47464229999999996,-0.046120327,113.78973,164.79007,37.139668,CSI
4615052500000.0,2.351243019104004,5.857603073120117,-2.3171281814575195,-7.901285648345947,-0.8444124460220337,0.5647449000000001,-0.04642576,113.8197,164.92858999999999,37.264812,CSI
4615057700000.0,2.356241464614868,5.817437171936035,-2.2663142681121826,-7.927093982696533,-0.8111473321914673,0.6438520000000001,-0.049480084,113.85018000000001,165.07251000000002,37.389446,CSI
4615063000000.0,2.361239433288574,5.785999298095703,-2.224268913269043,-7.954952716827393,-0.7779947519302368,0.72387534,-0.05589417,113.88973999999999,165.21094,37.536625,CSI
4615067700000.0,2.3662359714508057,5.7625041007995605,-2.195678234100342,-7.984057903289795,-0.744574248790741,0.7556403,-0.06078109,113.9242,165.3483,37.694072999999996,CSI
4615073000000.0,2.3712353706359863,5.746429443359375,-2.183518409729004,-8.013925552368164,-0.7118930816650391,0.8188649,-0.07727446,113.96479,165.48393000000002,37.88015,CSI
4615077600000.0,2.376234292984009,5.736559867858887,-2.1934621334075928,-8.0498046875,-0.6792932748794556,0.88697636,-0.09590584,114.02082,165.5931,38.081257,CSI
4615083000000.0,2.381232500076294,5.7320709228515625,-2.2288479804992676,-8.094937324523926,-0.6475355625152588,0.9596693000000001,-0.118202426,114.07703000000001,165.70291,38.29874,CSI
4615087600000.0,2.3862340450286865,5.730801105499268,-2.290950059890747,-8.15131664276123,-0.6155984401702881,1.0836748999999999,-0.14446963,114.18048,165.75725,38.54845,CSI
4615093000000.0,2.3912386894226074,5.730660438537598,-2.380519151687622,-8.220609664916992,-0.5833449363708496,1.244638,-0.18478674,114.283325,165.81298999999999,38.826523,CSI
4615097500000.0,2.3962371349334717,5.726537227630615,-2.491389274597168,-8.287644386291504,-0.5498803853988647,1.4004086000000002,-0.23671028,114.45841999999999,165.7774,39.10613,CSI
4615103000000.0,2.4012372493743896,5.714583873748779,-2.620256185531616,-8.341592788696289,-0.5157576203346252,1.5045611,-0.29046643,114.63118999999999,165.74432,39.413227,CSI
4615107500000.0,2.4062352180480957,5.696407318115234,-2.761453866958618,-8.370223999023438,-0.48390913009643555,1.5143349,-0.3359759,114.86998,165.6268,39.6835,CSI
4615113000000.0,2.4112343788146973,5.67358922958374,-2.9091522693634033,-8.35856819152832,-0.45742034912109375,1.4608842,-0.37782016,115.095345,165.52518,39.962920000000004,CSI
4615117500000.0,2.4162323474884033,5.652165412902832,-3.0583577156066895,-8.313061714172363,-0.43882161378860474,1.3716979,-0.42332962,115.39063999999999,165.34996,40.212105,CSI
4615122700000.0,2.4212324619293213,5.639457702636719,-3.203268051147461,-8.240205764770508,-0.42899462580680847,1.3069462,-0.46395215,115.66824,165.20633,40.451027,CSI
4615128000000.0,2.4262311458587646,5.635918617248535,-3.341242551803589,-8.151436805725098,-0.42740681767463684,1.2528846000000002,-0.50793445,116.01811000000001,165.02148,40.725229999999996,CSI
4615132700000.0,2.4312286376953125,5.642181396484375,-3.4695193767547607,-8.05825424194336,-0.4313565492630005,1.2089024,-0.5653558000000001,116.340805,164.8727,40.98307,CSI
4615138000000.0,2.436225652694702,5.656386375427246,-3.5865883827209473,-7.958084583282471,-0.43890467286109924,1.1615603,-0.63346726,116.70752,164.72975,41.30859,CSI
4615142600000.0,2.4412286281585693,5.67503023147583,-3.688120126724243,-7.844383239746094,-0.44997337460517883,1.0586295000000001,-0.6914994999999999,117.04182,164.62073,41.603474,CSI
4615147400000.0,2.4462223052978516,5.6976213455200195,-3.776201009750366,-7.722840785980225,-0.4654819071292877,0.9297369000000001,-0.7360926,117.36636999999999,164.54981999999998,41.932156,CSI
4615152600000.0,2.451223373413086,5.72430944442749,-3.8522679805755615,-7.599445819854736,-0.48579591512680054,0.84665924,-0.78954333,117.65546,164.5117,42.243412,CSI
4615158000000.0,2.4562177658081055,5.760499000549316,-3.9141271114349365,-7.479485511779785,-0.5092268586158752,0.8304713,-0.8481864,117.93098,164.51627,42.600666,CSI
4615162600000.0,2.461217164993286,5.819662094116211,-3.954741954803467,-7.373546123504639,-0.5331507921218872,0.8402450999999999,-0.91446525,118.17138999999999,164.5461,42.939976,CSI
4615168000000.0,2.466235876083374,5.901147842407227,-3.974996566772461,-7.280242919921875,-0.5568903088569641,0.88514376,-0.97524637,118.37408,164.62312,43.33442,CSI
4615173000000.0,2.4712398052215576,5.992422103881836,-3.9859390258789062,-7.186628341674805,-0.5814156532287598,0.88208944,-0.9941832,118.55984,164.71451000000002,43.7123,CSI
4615178000000.0,2.4762370586395264,6.093373775482178,-3.987825870513916,-7.092565059661865,-0.606017529964447,0.8729264000000001,-1.0372492,118.63953000000001,164.92128,44.17324,CSI
4615182500000.0,2.481233835220337,6.203812599182129,-3.9809505939483643,-6.997955799102783,-0.6318150162696838,0.8350528,-1.0787879999999999,118.704124,165.1413,44.616620000000005,CSI
4615187700000.0,2.486236810684204,6.324231147766113,-3.9655423164367676,-6.902665138244629,-0.6589885950088501,0.81245077,-1.1181888999999998,118.75052,165.37325,45.055305,CSI
4615192400000.0,2.4912333488464355,6.459885597229004,-3.942244052886963,-6.806728363037109,-0.6871230602264404,0.81397796,-1.1649200000000002,118.77281,165.62045,45.485226000000004,CSI
4615197700000.0,2.4962339401245117,6.610842704772949,-3.9109578132629395,-6.710000038146973,-0.7150603532791138,0.8350528,-1.1960741000000001,118.72112,165.95363999999998,46.020053999999995,CSI
4615203000000.0,2.5012316703796387,6.776050090789795,-3.8701910972595215,-6.613224506378174,-0.7410204410552979,0.8170323,-1.2174544,118.64625500000001,166.292,46.53653,CSI
4615208000000.0,2.5062427520751953,6.955467224121094,-3.8200385570526123,-6.516777515411377,-0.7640669941902161,0.75136423,-1.2241739,118.51823,166.67876,47.095917,CSI
4615213000000.0,2.5112414360046387,7.138721466064453,-3.7652111053466797,-6.429143905639648,-0.7848110198974609,0.66798115,-1.2226468000000001,118.37638000000001,167.06213,47.6337,CSI
4615217600000.0,2.516238212585449,7.326127052307129,-3.7056732177734375,-6.349997043609619,-0.8040100336074829,0.61086524,-1.2244793999999999,118.17501000000001,167.49556,48.21461,CSI
4615223000000.0,2.521235466003418,7.510818004608154,-3.6367619037628174,-6.277420997619629,-0.8215022683143616,0.57696223,-1.2373075,117.95741000000001,167.9193,48.766083,CSI
4615228000000.0,2.526254892349243,7.691318988800049,-3.556363582611084,-6.210768222808838,-0.8371832966804504,0.55924714,-1.2464706,117.73118999999998,168.33344,49.292877000000004,CSI
4615233000000.0,2.5312509536743164,7.865050315856934,-3.4659321308135986,-6.140041351318359,-0.8520937561988831,0.5002986,-1.2596041,117.45566000000001,168.78363000000002,49.832283000000004,CSI
4615237500000.0,2.536249876022339,8.031630516052246,-3.3637208938598633,-6.059646129608154,-0.8658514618873596,0.38637227,-1.2745703000000002,117.16141999999999,169.22398,50.33784,CSI
4615243000000.0,2.541246175765991,8.188477516174316,-3.2551703453063965,-5.97278356552124,-0.8793643116950989,0.26022860000000003,-1.2852603999999999,116.7957,169.71532,50.83862,CSI
4615247500000.0,2.54624342918396,8.334615707397461,-3.1427433490753174,-5.880888938903809,-0.8929871916770935,0.15057829,-1.3096951000000001,116.40083999999999,170.20396000000002,51.299942,CSI
4615253000000.0,2.5512447357177734,8.4736967086792,-3.0284409523010254,-5.791202545166016,-0.9041423797607422,0.0888809,-1.3356569,115.93428999999999,170.7331,51.774254,CSI
4615258000000.0,2.556243658065796,8.607340812683105,-2.913316249847412,-5.70654296875,-0.9136124849319458,0.06750060599999999,-1.3765849,115.437775,171.26623999999998,52.21784,CSI
4615262700000.0,2.561241388320923,8.73859977722168,-2.7995147705078125,-5.62777853012085,-0.9201526045799255,0.06841691,-1.4278975,114.88456000000001,171.81788999999998,52.66352,CSI
4615267400000.0,2.566236734390259,8.869007110595703,-2.6880922317504883,-5.555177688598633,-0.9255465865135193,0.07788532,-1.4581354,114.317024,172.36603,53.09279300000001,CSI
4615272700000.0,2.5712316036224365,9.001411437988281,-2.5783987045288086,-5.4896416664123535,-0.9286021590232849,0.08277224,-1.5103643,87.65798000000001,172.93372,53.523999999999994,CSI
4615278000000.0,2.576228618621826,9.137765884399414,-2.4699435234069824,-5.4316935539245605,-0.9288905262947083,0.10231992599999999,-1.5683966,76.688286,173.49559,53.949066,CSI
4615282600000.0,2.5812268257141113,9.275132179260254,-2.361635208129883,-5.382565498352051,-0.9262824058532715,0.095294975,-1.6178766000000002,65.66911999999999,174.06517,54.36861999999999,CSI
4615288000000.0,2.5862247943878174,9.411523818969727,-2.252753257751465,-5.342930316925049,-0.9221041798591614,0.06383542,-1.6667458,54.791633999999995,174.6336,54.773716,CSI
4615292600000.0,2.5912225246429443,9.541686058044434,-2.141493082046509,-5.314580917358398,-0.9164232015609741,0.01985312,-1.7116444,43.810790000000004,175.2127,55.172940000000004,CSI
4615298000000.0,2.596252918243408,9.662969589233398,-2.0258970260620117,-5.2993950843811035,-0.9089614748954773,-0.03634648,-1.7412714,33.138453999999996,175.7829,55.54425,CSI
4615302500000.0,2.6012496948242188,9.774920463562012,-1.9095450639724731,-5.292139530181885,-0.8992441892623901,-0.07666359,-1.7803668000000001,22.281528,176.36932,55.895756000000006,CSI
4615308000000.0,2.606248140335083,9.876887321472168,-1.7921106815338135,-5.29230260848999,-0.8867567777633667,-0.1282817,-1.8225164,11.823471000000001,176.94455,56.211967,CSI
4615312500000.0,2.611246347427368,9.969050407409668,-1.6743826866149902,-5.298032760620117,-0.8726071715354919,-0.18051068,-1.8689422999999998,1.1078538999999998,177.54599,56.4726,CSI
4615318000000.0,2.616241455078125,10.051678657531738,-1.5569840669631958,-5.307860851287842,-0.8564607501029968,-0.21533000000000002,-1.9181168999999998,-9.166422,178.1358,56.708324,CSI
4615322500000.0,2.621236562728882,10.123950004577637,-1.4393103122711182,-5.3205671310424805,-0.8393517732620239,-0.25961772,-1.9605720000000002,-19.550652,178.74408,56.885765,CSI
4615327700000.0,2.6262333393096924,10.18259048461914,-1.3198049068450928,-5.332875728607178,-0.8213966488838196,-0.30634892,-2.0042489,-29.60162,179.34492,57.038063,CSI
4615332400000.0,2.631229877471924,10.22900676727295,-1.199812412261963,-5.3460588455200195,-0.8041379451751709,-0.33750305,-2.0448713,-39.837975,179.96498,57.145485,CSI
4615337700000.0,2.636227607727051,10.26467514038086,-1.0809885263442993,-5.3618059158325195,-0.7872943878173828,-0.34880406,-2.0824397,-49.778347,-179.42283999999998,57.231182,CSI
4615343000000.0,2.6412267684936523,10.290332794189453,-0.9633204936981201,-5.379980087280273,-0.7698672413825989,-0.344528,-2.1273382,-59.903866,-178.79031,57.28232,CSI
4615347600000.0,2.646225690841675,10.308691024780273,-0.8474745154380798,-5.400363445281982,-0.7502924203872681,-0.32895094,-2.1725423,-69.72669,-178.16658,57.319447,CSI
4615353000000.0,2.6512250900268555,10.32012939453125,-0.7333463430404663,-5.422842979431152,-0.7285216450691223,-0.312763,-2.2101104,-77.12975,-177.53114,57.315342,CSI
4615357600000.0,2.6562204360961914,10.324127197265625,-0.6227185726165771,-5.457287788391113,-0.7046393156051636,-0.30940324,-2.244319,-77.174446,-176.90631000000002,57.29843,CSI
4615363000000.0,2.6612160205841064,10.320476531982422,-0.5162869095802307,-5.508379936218262,-0.6788719296455383,-0.2947425,-2.2574525000000003,-77.2047,-176.29793,57.276764,CSI
4615368000000.0,2.6662275791168213,10.29932975769043,-0.41432347893714905,-5.571931838989258,-0.6529965400695801,-0.27091873,-2.3075435,-77.21735,-175.67061999999999,57.2207,CSI
4615373000000.0,2.6712257862091064,10.242362976074219,-0.3179936707019806,-5.636291027069092,-0.625977098941803,-0.21288654,-2.325564,-77.2191,-175.07109,57.167965,CSI
4615378000000.0,2.6762897968292236,10.14157772064209,-0.2270720899105072,-5.702381134033203,-0.598932683467865,-0.13286320000000001,-2.3600779,-77.209946,-174.46538,57.04144300000001,CSI
4615383000000.0,2.681283950805664,10.031510353088379,-0.14128050208091736,-5.765091419219971,-0.5711320638656616,-0.13133603,-2.3628267999999997,-77.18845999999999,-173.88371,56.90076,CSI
4615387500000.0,2.6862783432006836,9.907779693603516,-0.06044020131230354,-5.824649333953857,-0.5440642833709717,-0.12614368,-2.3515257999999997,-77.16032,-173.30008,56.679253,CSI
4615392700000.0,2.691272258758545,9.771817207336426,0.015428338199853897,-5.881680488586426,-0.5180320739746094,-0.13622294,-2.341141,-77.11480999999999,-172.7313,56.446723999999996,CSI
4615397400000.0,2.69626784324646,9.628253936767578,0.08470670878887177,-5.939337253570557,-0.4937615692615509,-0.14294247,-2.3118196,-77.043564,-172.17981,56.212368000000005,CSI
4615402700000.0,2.7012696266174316,9.477231979370117,0.14770101010799408,-5.99765157699585,-0.4719727635383606,-0.110872045,-2.269059,-76.955124,-171.63666,55.93535,CSI
4615408000000.0,2.706266164779663,9.319780349731445,0.2048545926809311,-6.056431770324707,-0.45184972882270813,-0.058643065,-2.2269092,-76.812551406133,-171.13342191681002,55.662396047970894,CSI
4615413000000.0,2.7117884159088135,9.126809120178223,0.2514294683933258,-6.12291955947876,-0.4351593255996704,-0.06780604,-2.1835377,-76.38011999999999,-169.60707,54.834509999999995,CSI
4615418400000.0,2.717285633087158,8.929189682006836,0.29296061396598816,-6.189550399780273,-0.41989555954933167,-0.0888809,-2.1655173,-76.207504,-169.11105,54.432667,CSI
4615423700000.0,2.7227535247802734,8.72749137878418,0.32977208495140076,-6.256237030029297,-0.40616142749786377,-0.08979719,-2.1303926,-76.019875,-168.62726,54.03196,CSI
4615429000000.0,2.7281997203826904,8.530475616455078,0.3662225306034088,-6.320988655090332,-0.3930615782737732,-0.033292156,-2.096184,81.37618,-168.15738000000002,53.641113,CSI
4615434000000.0,2.7336177825927734,8.339499473571777,0.40296047925949097,-6.383528709411621,-0.380171537399292,0.06017022599999999,-2.067168,80.62238,-167.70209,53.262215000000005,CSI
4615439400000.0,2.7390174865722656,8.156024932861328,0.4431571066379547,-6.437726974487305,-0.3673173487186432,0.13286320000000001,-2.053118,79.94453399999999,-167.29526,52.877453,CSI
4615444600000.0,2.7443935871124268,7.980104923248291,0.4871404767036438,-6.482861042022705,-0.3537808954715729,0.16065755,-2.044566,79.287125,-166.90556,52.508790000000005,CSI
4615450000000.0,2.749751329421997,7.8081278800964355,0.5358487963676453,-6.516818523406982,-0.33826377987861633,0.17012598,-2.0393736000000002,78.63444,-166.52272,52.14087,CSI
4615455000000.0,2.7550880908966064,7.639102458953857,0.5892102718353271,-6.539646148681641,-0.3224179446697235,0.15393804,-2.0280726000000002,78.00469,-166.15042,51.775997,CSI
4615460400000.0,2.7604098320007324,7.476969242095947,0.6457152962684631,-6.552036285400391,-0.3064073622226715,0.13041973,-2.0131063,77.360794,-165.76952,51.41703,CSI
4615465600000.0,2.765716314315796,7.322242736816406,0.7048833966255188,-6.554637908935547,-0.2906477749347687,0.15760323,-1.9825631000000001,76.73818,-165.40471000000002,51.07125,CSI
4615471000000.0,2.771005868911743,7.17582368850708,0.7645542621612549,-6.556703567504883,-0.27504441142082214,0.17715092,-1.9394971,76.102615,-165.0222,50.721474,CSI
4615476000000.0,2.776280403137207,7.0376763343811035,0.8240928649902344,-6.561003684997559,-0.2600284218788147,0.20647246,-1.9089539,75.483284,-164.65164,50.38429,CSI
4615481300000.0,2.7815403938293457,6.909052848815918,0.8862720727920532,-6.563037872314453,-0.24571502208709717,0.26083946,-1.8829921000000003,74.849556,-164.27071999999998,50.076786,CSI
4615486600000.0,2.7867865562438965,6.790674686431885,0.9529628753662109,-6.559746742248535,-0.23235975205898285,0.3005457,-1.8524488000000001,74.24179000000001,-163.90446,49.77772,CSI
4615492000000.0,2.7920191287994385,6.681024551391602,1.0201917886734009,-6.547827243804932,-0.21908140182495117,0.32375857,-1.8185457999999999,73.64316600000001,-163.54492,49.482906,CSI
4615497000000.0,2.797239303588867,6.579055309295654,1.0856754779815674,-6.525517463684082,-0.20584332942962646,0.33292156,-1.7843374,73.0653,-163.19838000000001,49.199146,CSI
4615502300000.0,2.802448272705078,6.483972549438477,1.1498063802719116,-6.4936299324035645,-0.1929851919412613,0.29443705,-1.7522669999999998,72.481026,-162.83758999999998,48.924015000000004,CSI
4615507500000.0,2.807645797729492,6.395218849182129,1.2127909660339355,-6.452841758728027,-0.18029142916202545,0.23732115,-1.7321084,71.92028,-162.49094,48.649837,CSI
4615513000000.0,2.8128342628479004,6.310962200164795,1.2795312404632568,-6.408584117889404,-0.16744400560855865,0.14263703,-1.7000380000000002,71.382835,-162.14911,48.390938,CSI
4615518000000.0,2.8180131912231445,6.230186939239502,1.3522990942001343,-6.363658428192139,-0.1552487015724182,0.084910266,-1.6465873,70.87725999999999,-161.82161000000002,48.1333,CSI
4615523300000.0,2.823181629180908,6.1498284339904785,1.4312305450439453,-6.321468830108643,-0.14367076754570007,0.03726278,-1.6105462,70.38269,-161.4901,47.8845,CSI
4615528500000.0,2.828341245651245,6.068176746368408,1.5163465738296509,-6.283808708190918,-0.1331005096435547,-0.00061086525,-1.5589281000000001,69.93466,-161.17828,47.634346,CSI
4615534000000.0,2.833496570587158,5.986020088195801,1.605867862701416,-6.249828815460205,-0.12353305518627167,-0.026267206,-1.50731,69.4734,-160.8403,47.37232,CSI
4615539000000.0,2.8386383056640625,5.90402889251709,1.6983009576797485,-6.218899250030518,-0.11535445600748062,-0.04276056599999999,-1.4416419,69.05297,-160.5197,47.114005999999996,CSI
4615544000000.0,2.84377384185791,5.822509765625,1.7921441793441772,-6.189409255981445,-0.10795354098081589,-0.06352998,-1.3750577,68.62416999999999,-160.17366,46.819775,CSI
4615549500000.0,2.848926305770874,5.741409778594971,1.8867437839508057,-6.160181999206543,-0.10177718847990036,-0.08032878,-1.2993103000000001,68.235794,-159.84525,46.535343,CSI
4615554700000.0,2.854046583175659,5.66347599029541,1.9828542470932007,-6.133440017700195,-0.09623926132917404,-0.10079276599999999,-1.2666291,67.83542,-159.49458,46.2229,CSI
4615560000000.0,2.8591599464416504,5.590571880340576,2.082826614379883,-6.1111907958984375,-0.09163127839565277,-0.08735373,-1.1930199,67.4831,-159.17128,45.934253999999996,CSI
4615565000000.0,2.8642656803131104,5.522953033447266,2.186394691467285,-6.092138290405273,-0.08718748390674591,-0.070554934,-1.1047498,67.132645,-158.83838,45.633717,CSI
4615570500000.0,2.8693673610687256,5.463644027709961,2.293360471725464,-6.069642543792725,-0.08228058367967606,-0.0580322,-1.0155635,66.815475,-158.52711000000002,45.349309999999996,CSI
4615575700000.0,2.8744678497314453,5.412138938903809,2.403756618499756,-6.044256210327148,-0.07680504024028778,-0.07299839999999999,-0.9437868,66.49726,-158.20176999999998,45.054287,CSI
4615581000000.0,2.879560708999634,5.36676549911499,2.518429756164551,-6.020483493804932,-0.07126320153474808,-0.08277224,-0.8594874,66.21871999999999,-157.90456,44.781890000000004,CSI
4615586000000.0,2.884659767150879,5.326681137084961,2.637256145477295,-5.998054504394531,-0.06613064557313919,-0.09254608,-0.7834346999999999,65.93412,-157.59273000000002,44.53037,CSI
4615591400000.0,2.8897430896759033,5.288330554962158,2.757394313812256,-5.976016044616699,-0.06057169288396835,-0.07238753,-0.70188415,65.683205,-157.30937,44.300163,CSI
4615596700000.0,2.8948192596435547,5.251609802246094,2.8790018558502197,-5.9543232917785645,-0.0548369474709034,-0.04886922,-0.63316184,65.4266,-157.0091,44.07438,CSI
4615602000000.0,2.8998911380767822,5.2169036865234375,3.003865957260132,-5.931847095489502,-0.048886947333812714,-0.03023783,-0.5522222,65.205025,-156.73654,43.8694,CSI
4615607000000.0,2.904958963394165,5.184317588806152,3.132619619369507,-5.908135890960693,-0.042814552783966064,-0.009773844,-0.464563,65.00915,-156.48611,43.684715000000004,CSI
4615612400000.0,2.9100239276885986,5.154330730438232,3.2632668018341064,-5.880351543426514,-0.036447230726480484,0.005192355,-0.37262779999999995,64.805275,-156.22159,43.504642,CSI
4615617600000.0,2.9150869846343994,5.126952648162842,3.3952887058258057,-5.847984313964844,-0.03046807460486889,0.01740966,-0.28955013,64.62906,-155.97757,43.343346000000004,CSI
4615623000000.0,2.9201815128326416,5.104896068572998,3.527334213256836,-5.812145709991455,-0.02490522898733616,0.048563786,-0.21197024,64.43737,-155.7175,43.19582,CSI
4615627600000.0,2.925238847732544,5.087533473968506,3.6574008464813232,-5.774478435516357,-0.020615482702851295,0.08063421400000001,-0.12980886,64.27643,-155.47731000000002,43.067127,CSI
4615633000000.0,2.9302890300750732,5.075989723205566,3.784632682800293,-5.734392166137695,-0.015626540407538414,0.106901415,-0.06261369,64.092415,-155.22243999999998,42.960285,CSI
4615637600000.0,2.93533992767334,5.070438385009766,3.908750295639038,-5.691798210144043,-0.009666393510997295,0.14599679999999998,0.00061086525,63.928185,-154.98636000000002,42.877346,CSI
4615643000000.0,2.94038462638855,5.071085453033447,4.031793594360352,-5.649515628814697,-0.002526363357901573,0.17470746,0.059864793,63.76161999999999,-154.75021,42.82219,CSI
4615647500000.0,2.9454269409179688,5.078094959259033,4.1551032066345215,-5.609059810638428,0.006398042198270559,0.2049453,0.11636983,63.60909,-154.53799999999998,42.78618,CSI
4615653000000.0,2.9504668712615967,5.090178966522217,4.277915954589844,-5.57096004486084,0.016946619376540184,0.21380283,0.15821409,63.45476,-154.33131,42.781597,CSI
4615657500000.0,2.95550537109375,5.103765964508057,4.397672653198242,-5.537306308746338,0.027519019320607185,0.26175576,0.1872302,63.301426,-154.14014,42.798922999999995,CSI
4615662700000.0,2.9605393409729004,5.118283271789551,4.513654708862305,-5.507397651672363,0.03953009843826294,0.2959642,0.23457226,63.14499,-153.95656,42.834644,CSI
4615667400000.0,2.9655728340148926,5.132650852203369,4.624204635620117,-5.480082035064697,0.053342677652835846,0.31642818,0.28191432,62.992916,-153.78696000000002,42.880974,CSI
4615672700000.0,2.9706099033355713,5.146886825561523,4.729623794555664,-5.455235958099365,0.06851892173290253,0.34636059999999996,0.32192600000000005,62.841784999999994,-153.62909,42.93764,CSI
4615678000000.0,2.975640296936035,5.160974025726318,4.8301568031311035,-5.432690143585205,0.08436762541532516,0.3622431,0.36865717,62.70879,-153.49296999999999,43.002796000000004,CSI
4615682700000.0,2.9806692600250244,5.175233840942383,4.925684452056885,-5.412230014801025,0.10181330889463425,0.38331795,0.41477749999999997,62.582798,-153.37938,43.079803000000005,CSI
4615688000000.0,2.985696315765381,5.190808296203613,5.0149688720703125,-5.393321514129639,0.11997327208518982,0.38973203,0.45265114,62.470684,-153.27938999999998,43.161316,CSI
4615693000000.0,2.9907431602478027,5.207757472991943,5.097818851470947,-5.37605094909668,0.13941171765327454,0.3817908,0.49418998,62.374992000000006,-153.20207,43.246944,CSI
4615698000000.0,2.9957664012908936,5.2252655029296875,5.169777870178223,-5.361789703369141,0.15958847105503082,0.37568212,0.52473325,62.28746999999999,-153.1369,43.336690000000004,CSI
4615702600000.0,3.000788688659668,5.243429183959961,5.2308669090271,-5.350557804107666,0.18077345192432404,0.37262779999999995,0.54061574,62.218272999999996,-153.09683,43.43558,CSI
4615708000000.0,3.005810260772705,5.268621444702148,5.283651828765869,-5.341407299041748,0.20330357551574707,0.37720928,0.5222898,62.14886,-153.06468,43.53158,CSI
4615712500000.0,3.010828971862793,5.302574157714844,5.329293727874756,-5.33394718170166,0.22676533460617065,0.3866777,0.5131268,62.08786800000001,-153.04509,43.629979999999996,CSI
4615718000000.0,3.01584792137146,5.349471092224121,5.365633487701416,-5.327808856964111,0.25073471665382385,0.3921755,0.49571714,62.050385,-153.0616,43.7344,CSI
4615722500000.0,3.0208652019500732,5.411127090454102,5.391782283782959,-5.322748184204102,0.2761775851249695,0.38423425,0.46853364,62.008728000000005,-153.0845,43.83208,CSI
4615728000000.0,3.0258820056915283,5.484307765960693,5.407266616821289,-5.3190155029296875,0.30351999402046204,0.364992,0.43982297,61.989975,-153.14432,43.95922,CSI
4615732500000.0,3.030897378921509,5.566678524017334,5.412024021148682,-5.316740036010742,0.33184683322906494,0.35155296,0.40622538,61.962215,-153.20273999999998,44.077152000000005,CSI
4615737700000.0,3.035914659500122,5.657901763916016,5.4065117835998535,-5.315859317779541,0.3624729812145233,0.3475823,0.36621370000000003,61.969067,-153.3243,44.24941,CSI
4615743000000.0,3.040929079055786,5.757272243499756,5.391453266143799,-5.316276550292969,0.3951781988143921,0.34483343,0.34819320000000004,61.975184999999996,-153.44904,44.41271,CSI
4615747700000.0,3.0459423065185547,5.864434719085693,5.367297649383545,-5.317929744720459,0.4300795793533325,0.3659083,0.34177909999999995,61.96744,-153.57878,44.57155,CSI
4615753000000.0,3.0509557723999023,5.979039192199707,5.334480285644531,-5.3207597732543945,0.46704381704330444,0.39125920000000003,0.34025195,61.955166000000006,-153.71563999999998,44.724846,CSI
4615757600000.0,3.0559680461883545,6.090554237365723,5.2968950271606445,-5.326207160949707,0.5044146180152893,0.4370741,0.33750305,61.929478,-153.85622,44.88281,CSI
4615763000000.0,3.0609793663024902,6.1901535987854,5.257811546325684,-5.335483074188232,0.543749213218689,0.49632803,0.34391713,61.896473,-154.0141,45.0474,CSI
4615767600000.0,3.0659964084625244,6.277655124664307,5.217075347900391,-5.348066806793213,0.5853987336158752,0.54519725,0.36071593,62.011585,-154.34819,45.375057,CSI
4615773000000.0,3.0710110664367676,6.345582485198975,5.1730427742004395,-5.358489036560059,0.6287514567375183,0.55955255,0.3839288,62.12324,-154.68915,45.701496,CSI
4615778000000.0,3.0760374069213867,6.393163204193115,5.123927116394043,-5.366250038146973,0.6727237105369568,0.53023106,0.38820487,62.243904,-155.04327,45.99528,CSI
4615783000000.0,3.081047296524048,6.410447120666504,5.050350189208984,-5.365178108215332,0.7159966230392456,0.48166725,0.3735441,62.365887,-155.3993,46.281082,CSI
4615787500000.0,3.086054563522339,6.397613048553467,4.952215671539307,-5.355308532714844,0.7578911781311035,0.43799037,0.35094208,62.49313000000001,-155.75252,46.52673,CSI
4615793000000.0,3.0910630226135254,6.380456924438477,4.839349269866943,-5.340531826019287,0.7981390357017517,0.38728857,0.30634892,62.620415,-156.09476,46.74797,CSI
4615797500000.0,3.0960657596588135,6.362218856811523,4.71408748626709,-5.321662425994873,0.8370721340179443,0.30543262,0.26939157,62.759345999999994,-156.43073,46.944466,CSI
4615802700000.0,3.101074457168579,6.346161842346191,4.57730770111084,-5.308309078216553,0.8756394982337952,0.24220806,0.22449298,62.954223999999996,-156.81389,47.10889,CSI
4615807400000.0,3.1060791015625,6.333982467651367,4.430848121643066,-5.305430889129639,0.9122816920280457,0.18173242,0.16218472,63.14756800000001,-157.17659,47.242915999999994,CSI
4615812700000.0,3.111084461212158,6.32688045501709,4.277182102203369,-5.314789295196533,0.9477362036705017,0.15149458,0.11911872,63.40047,-157.60335,47.40416,CSI
4615818000000.0,3.116089105606079,6.32609748840332,4.119307041168213,-5.338113307952881,0.9815453886985779,0.14508049,0.095294975,63.644794,-158.01346999999998,47.54704,CSI
4615822600000.0,3.121091604232788,6.330752849578857,3.960679292678833,-5.375189304351807,1.0118111371994019,0.14844026,0.07422013,63.969719999999995,-158.48727,47.688365999999995,CSI
4615828000000.0,3.126096725463867,6.340112209320068,3.8045108318328857,-5.426187992095947,1.03935706615448,0.15332718,0.06811147,64.28935,-158.95578,47.824116,CSI
4615832600000.0,3.131101131439209,6.352596759796143,3.654663324356079,-5.486154079437256,1.0643444061279297,0.14019357,0.076052725,64.68596,-159.47648999999998,47.950577,CSI
4615838000000.0,3.1361076831817627,6.3668904304504395,3.514451265335083,-5.550966739654541,1.087641954421997,0.112704635,0.08460484,65.0779,-159.98763,48.070183,CSI
4615842600000.0,3.141117811203003,6.382924556732178,3.3836140632629395,-5.620364665985107,1.1099095344543457,0.063224554,0.111177474,65.517944,-160.53438,48.164814,CSI
4615848000000.0,3.1461212635040283,6.400800704956055,3.2667157649993896,-5.692805290222168,1.13167405128479,0.05131268,0.14782938,65.95604,-161.07762,48.260704,CSI
4615852500000.0,3.151123046875,6.420468330383301,3.1631362438201904,-5.768245697021484,1.1537436246871948,0.0061086523,0.16187929,66.415184,-161.62079,48.31309,CSI
4615858000000.0,3.1561269760131836,6.4421539306640625,3.0699949264526367,-5.84627103805542,1.1747184991836548,0.003970624,0.19394971,66.87982,-162.16519,48.377140000000004,CSI
4615862500000.0,3.1611297130584717,6.465785980224609,2.9861130714416504,-5.926581859588623,1.1940709352493286,0.009773844,0.23823744,67.3533,-162.7097,48.431667,CSI
4615867700000.0,3.1661322116851807,6.491466522216797,2.906169891357422,-6.006864547729492,1.2132059335708618,0.003970624,0.2742785,67.790115,-163.23134,48.462498,CSI
4615872400000.0,3.1711337566375732,6.519174575805664,2.8275763988494873,-6.086021900177002,1.2307026386260986,-0.005497787,0.31429017,68.23588000000001,-163.74843,48.496887,CSI
4615877700000.0,3.176166534423828,6.548089981079102,2.7491350173950195,-6.161630630493164,1.2448415756225586,-0.026267206,0.34697145,68.67278,-164.24925,48.51283,CSI
4615883000000.0,3.181166887283325,6.577030658721924,2.6712937355041504,-6.2323150634765625,1.2551180124282837,-0.040317107000000005,0.38606682,69.11839,-164.74688999999998,48.530784999999995,CSI
4615887700000.0,3.186166286468506,6.6064324378967285,2.5941760540008545,-6.2958173751831055,1.2599636316299438,-0.06383542,0.43157628,69.588615,-165.24591,48.546184999999994,CSI
4615893000000.0,3.1911673545837402,6.63648796081543,2.5182077884674072,-6.350507736206055,1.2590004205703735,-0.101098195,0.46273044,70.06276,-165.72821000000002,48.554043,CSI
4615897600000.0,3.1961679458618164,6.664783954620361,2.44450044631958,-6.400044918060303,1.253791332244873,-0.1255328,0.49816059999999995,70.55855600000001,-166.21513000000002,48.572697,CSI
4615903000000.0,3.201167583465576,6.688787460327148,2.3742148876190186,-6.448208332061768,1.244741678237915,-0.12217305,0.52687126,71.05521,-166.68005,48.588454999999996,CSI
4615907600000.0,3.2061686515808105,6.705370903015137,2.310988187789917,-6.494954586029053,1.2346279621124268,-0.10751228,0.56169057,71.561554,-167.14798000000002,48.625107,CSI
4615913000000.0,3.211174726486206,6.710907936096191,2.259006977081299,-6.540225982666016,1.223360300064087,-0.09468412,0.5879578000000001,72.06618,-167.5971,48.660915,CSI
4615917500000.0,3.216174602508545,6.702330589294434,2.2189693450927734,-6.579958438873291,1.2109352350234985,-0.10629055,0.6178902,72.57181,-168.0404,48.685307,CSI
4615923000000.0,3.221174955368042,6.674365520477295,2.1927239894866943,-6.608643054962158,1.1971213817596436,-0.14049901,0.6435465,73.078255,-168.47345,48.705845000000004,CSI
4615927500000.0,3.2261712551116943,6.6349263191223145,2.1759190559387207,-6.629956245422363,1.1816834211349487,-0.18631389999999998,0.66798115,73.550896,-168.86248999999998,48.68444,CSI
4615933000000.0,3.2311713695526123,6.597064018249512,2.1615843772888184,-6.649871349334717,1.1651800870895386,-0.22479841,0.68569624,74.025444,-169.24321,48.655468,CSI
4615937500000.0,3.2361700534820557,6.564321041107178,2.148592710494995,-6.669325351715088,1.1471960544586182,-0.24495697,0.70341134,74.412544,-169.54855,48.584915,CSI
4615942700000.0,3.241170883178711,6.542468070983887,2.135277271270752,-6.689774990081787,1.1272079944610596,-0.31490102,0.6985244,74.79999000000001,-169.83900000000003,48.48957,CSI
4615948000000.0,3.246201515197754,6.529144763946533,2.119629144668579,-6.715938568115234,1.1045087575912476,-0.3811799,0.69974613,75.173225,-170.11073000000002,48.390076,CSI
4615952700000.0,3.251201868057251,6.519478797912598,2.10028076171875,-6.751136302947998,1.078298807144165,-0.40011674,0.70921457,75.54235,-170.36475,48.28521,CSI
4615957400000.0,3.256197214126587,6.5123820304870605,2.077407121658325,-6.796436309814453,1.051125407218933,-0.40194935,0.7458665,75.928955,-170.62433000000001,48.189037,CSI
4615962600000.0,3.261197566986084,6.505435466766357,2.0518765449523926,-6.852773666381836,1.0213145017623901,-0.3436117,0.77854776,76.3057,-170.85791,48.105595,CSI
