timestamp,rel_time,acc_x,acc_y,acc_z,gyro_x,gyro_y,gyro_z,azimuth,pitch,roll,label
0.0,0.0,0.0,0.0,0.0,0.0,0.19975294,0.019242255,308.34783999999996,-93.41056999999999,2.828312,STD
26614931000.0,1.5068794709804934e-05,0.009526739828288555,0.027606304734945297,-0.006220749579370022,-0.00016626741853542626,0.20983220000000002,0.02076942,308.2598,-93.65953,3.0350595,STD
79448690000.0,7.461591303581372e-05,0.02844778075814247,0.08248847723007202,-0.01863599382340908,-0.0005108792101964355,0.19211712,0.016493361,308.17615,-93.89582,3.2314305,STD
157723310000.0,0.00020693179976660758,0.05636518448591232,0.16387425363063812,-0.037182312458753586,-0.0009644999518059194,0.19120082,0.017104227,308.08554,-94.131165,3.4264953,STD
260306620000.0,0.0004433170543052256,0.09280144423246384,0.27062907814979553,-0.06170257553458214,-0.001512393937446177,0.18967366,0.018936822,308.00082000000003,-94.36206999999999,3.6176597999999998,STD
385751320000.0,0.0008001731475815177,0.13754098117351532,0.4008694887161255,-0.09180948883295059,-0.0022977159824222326,0.18478674,0.013439035,307.91785,-94.58621,3.8035126000000004,STD
532343260000.0,0.0013024297077208757,0.19005301594734192,0.5526815056800842,-0.12714536488056183,-0.003294322406873107,0.18448131,0.017104227,307.83453,-94.80951999999999,3.9861524,STD
698155860000.0,0.0019704524893313646,0.24942390620708466,0.7233518362045288,-0.16602948307991028,-0.004342902451753616,0.17959438,0.015577064,307.75442999999996,-95.0263,4.1624684,STD
881107600000.0,0.0028365706093609333,0.31482452154159546,0.9101644158363342,-0.20721977949142456,-0.005499867722392082,0.16737708,0.007330383,307.67706,-95.236946,4.3346805999999996,STD
1079019900000.0,0.003878157353028655,0.3857898414134979,1.1118775606155396,-0.2507823407649994,-0.006608182564377785,0.15393804,0.005497787,307.60132000000004,-95.44914,4.507238,STD
1289672500000.0,0.005120201036334038,0.46181726455688477,1.326698899269104,-0.29616132378578186,-0.007722015026956797,0.14569137,0.0076358155,307.5281,-95.65595,4.675507,STD
1510853800000.0,0.0065706027671694756,0.541987419128418,1.5524377822875977,-0.3433935046195984,-0.008811608888208866,0.13500121,0.010995574,307.45865,-95.852486,4.841247,STD
1740406300000.0,0.008230548352003098,0.6253142952919006,1.786965250968933,-0.39278092980384827,-0.009638735093176365,0.14446963,0.007330383,307.3861,-96.04583000000001,5.0029407,STD
1976263200000.0,0.010102054104208946,0.711117148399353,2.0282726287841797,-0.44392457604408264,-0.010760309174656868,0.13469578,0.004886922,307.32297,-96.23376999999999,5.167212999999999,STD
2216479200000.0,0.012181486934423447,0.7996985912322998,2.2757434844970703,-0.4965246021747589,-0.01163762528449297,0.14110987,0.009162978,307.25284,-96.42307,5.329934,STD
2459251200000.0,0.01446558441966772,0.8903603553771973,2.5275681018829346,-0.5502254366874695,-0.013090239837765694,0.14782938,0.007941248,307.18484,-96.60354,5.487321400000001,STD
2702935300000.0,0.01694975234568119,0.9815593361854553,2.7815189361572266,-0.6047181487083435,-0.014617662876844406,0.14141529999999997,0.010690141499999998,307.11926,-96.78603000000001,5.6441984000000005,STD
2946053700000.0,0.01962129957973957,1.0726739168167114,3.0356662273406982,-0.6594446301460266,-0.015829909592866898,0.13927728,0.013744468000000001,307.05127000000005,-96.96919,5.8033220000000005,STD
3187298300000.0,0.022507082670927048,1.1629784107208252,3.287315607070923,-0.7133181691169739,-0.01713184453547001,0.12980886,0.011301007,306.98752,-97.14644,5.9585919999999994,STD
3425528400000.0,0.02553100325167179,1.2520744800567627,3.5354208946228027,-0.7661988139152527,-0.01802254654467106,0.119729586,0.004886922,306.92328,-97.32469,6.1104283,STD
3659766000000.0,0.02871837094426155,1.3395791053771973,3.778876781463623,-0.8178001642227173,-0.019107481464743614,0.11209377,0.0018325957999999999,306.86142,-97.49715400000001,6.259597,STD
3889186500000.0,0.03206340968608856,1.4250808954238892,4.016746520996094,-0.8679095506668091,-0.020491134375333786,0.10567969,0.009162978,306.80163999999996,-97.66790999999999,6.406422599999999,STD
4113109400000.0,0.035550545901060104,1.5072075128555298,4.247589588165283,-0.9161550402641296,-0.021527593955397606,0.103847094,0.0076358155,306.74273999999997,-97.83413,6.547185,STD
4330985000000.0,0.0391676090657711,1.5859038829803467,4.471005916595459,-0.9618180394172668,-0.022341372445225716,0.099571034,-0.00030543262000000003,306.68634,-97.994064,6.6854195999999995,STD
4542384000000.0,0.042910877615213394,1.6618061065673828,4.6874775886535645,-1.000820279121399,-0.022975454106926918,0.10018189999999999,0.0033597588,306.62955,-98.15439599999999,6.824122,STD
4746983000000.0,0.04676703363656998,1.7348130941390991,4.896683692932129,-1.033274531364441,-0.023890405893325806,0.10781772,-0.00061086525,306.57132,-98.3025,6.951620599999999,STD
4944554400000.0,0.050727728754282,1.8054684400558472,5.0986738204956055,-1.0657696723937988,-0.02439599297940731,0.109650314,-0.0015271631,306.51495,-98.45224,7.078677000000001,STD
5134951600000.0,0.05478885769844055,1.8765829801559448,5.294589996337891,-1.128591775894165,-0.024942055344581604,0.109650314,0.00030543262000000003,306.45712000000003,-98.59659,7.203324,STD
5318102000000.0,0.05893615260720253,1.9467592239379883,5.483656406402588,-1.201247215270996,-0.0253186896443367,0.11636983,0.005192355,306.38986,-98.72263000000001,7.325340700000001,STD
5493993000000.0,0.06316445022821426,2.01347279548645,5.664547443389893,-1.2449183464050293,-0.025530343875288963,0.11942416,0.013133603,306.32388,-98.84741,7.4464955,STD
5662664000000.0,0.06746189296245575,2.076819658279419,5.8373847007751465,-1.2659289836883545,-0.025763574987649918,0.116675265,0.0061086523,306.27286000000004,-99.03220999999999,7.5650897,STD
5824197400000.0,0.0718282014131546,2.136983871459961,6.002406597137451,-1.28052818775177,-0.02569723129272461,0.124005646,0.016493361,306.21924,-99.22147,7.689035400000001,STD
5978713000000.0,0.07625499367713928,2.1947903633117676,6.160366058349609,-1.2915183305740356,-0.025741230696439743,0.10720685,0.012217305,306.15836,-99.34543000000001,7.808186500000001,STD
6126357700000.0,0.08073768019676208,2.251871109008789,6.312685012817383,-1.304325819015503,-0.02590683475136757,0.10231992599999999,0.016798794,306.09265,-99.47249599999999,7.9310775,STD
6267302600000.0,0.08527243882417679,2.307856798171997,6.459423542022705,-1.3217697143554688,-0.026095984503626823,0.11209377,0.013133603,306.0245,-99.58295,8.047931,STD
6401736300000.0,0.08985244482755661,2.3615009784698486,6.600484371185303,-1.353340744972229,-0.026120338588953018,0.119729586,0.01282817,305.95867999999996,-99.69351,8.16469,STD
6529861000000.0,0.09447768330574036,2.4128775596618652,6.736050128936768,-1.3986812829971313,-0.02673916518688202,0.11362094,0.014355333500000001,305.8948,-99.80833,8.283938000000001,STD
6651888300000.0,0.09913746267557144,2.4620537757873535,6.866265296936035,-1.456791639328003,-0.02737574838101864,0.12125675400000001,0.010079277,305.82473999999996,-99.92174,8.399886,STD
6768036400000.0,0.10383158922195435,2.509350538253784,6.990811347961426,-1.5204979181289673,-0.028218524530529976,0.10812314599999999,0.0125227375,305.7628,-100.03288,8.515402,STD
6878527500000.0,0.1085551381111145,2.555577039718628,7.108304023742676,-1.568517804145813,-0.029305383563041687,0.10598512,0.013439035,305.69547,-100.14043000000001,8.627717,STD
6983584300000.0,0.11331057548522949,2.60050892829895,7.219082355499268,-1.602349042892456,-0.03048175759613514,0.09987647,0.010690141499999998,305.64816,-100.29925,8.729598,STD
7083429000000.0,0.11809215694665909,2.643328905105591,7.3236613273620605,-1.6259461641311646,-0.03182273358106613,0.09162979,0.01038471,305.60266,-100.45505,8.830373,STD
7178283000000.0,0.1228945329785347,2.68412446975708,7.4223151206970215,-1.639880657196045,-0.033447831869125366,0.08246681,0.004886922,305.55258,-100.58641,8.93487,STD
7268363000000.0,0.1277168095111847,2.7229835987091064,7.51530122756958,-1.6445726156234741,-0.03542298451066017,0.07819075,0.01160644,305.50415,-100.7172,9.040682,STD
7353881000000.0,0.13257624208927155,2.759976863861084,7.602795124053955,-1.64006507396698,-0.03713787719607353,0.08093964,0.0070249503,305.4561,-100.84217,9.139745,STD
7435045600000.0,0.13743312656879425,2.794647455215454,7.684515953063965,-1.6329314708709717,-0.03810742124915123,0.08399397,0.007941248,305.4098,-100.96786,9.240263,STD
7512057700000.0,0.1423042267560959,2.827072858810425,7.760642051696777,-1.6230993270874023,-0.03934882581233978,0.09132435,0.0061086523,305.34862999999996,-101.055534,9.34257,STD
7585113000000.0,0.14718876779079437,2.85697078704834,7.832427978515625,-1.6110148429870605,-0.04051034897565842,0.09468412,0.007330383,305.28796,-101.14551999999999,9.444104,STD
7654400300000.0,0.1520877182483673,2.8843798637390137,7.900274276733398,-1.5968314409255981,-0.0409674346446991,0.0983493,0.009162978,305.22522000000004,-101.23456999999999,9.543659,STD
7720102000000.0,0.15699346363544464,2.909444808959961,7.9643778800964355,-1.580721378326416,-0.04159442335367203,0.09285152,0.008552114,305.16116,-101.31408,9.641093,STD
7782392700000.0,0.16191554069519043,2.9322450160980225,8.02491283416748,-1.5626779794692993,-0.04252791404724121,0.08307768,0.009468411,305.09753,-101.39448,9.737674,STD
7841441000000.0,0.16684135794639587,2.9541804790496826,8.082937240600586,-1.5437521934509277,-0.04333201050758362,0.071776666,0.0076358155,305.03577,-101.47319,9.8311405,STD
7897408000000.0,0.17177382111549377,2.976377010345459,8.139339447021484,-1.5246894359588623,-0.044821847230196,0.071776666,0.009162978,304.97382000000005,-101.54847,9.924145,STD
7950448000000.0,0.17671199142932892,2.9982717037200928,8.193968772888184,-1.5079110860824585,-0.04589393734931946,0.08093964,0.013133603,304.9083,-101.61031,10.009997,STD
8000709000000.0,0.181657612323761,3.019680976867676,8.246838569641113,-1.494218349456787,-0.047023188322782516,0.084910266,0.012217305,304.84424,-101.667305,10.093189,STD
8048331500000.0,0.18660929799079895,3.039886474609375,8.297456741333008,-1.4839118719100952,-0.04841717332601547,0.09254608,0.01160644,304.77533,-101.72556999999999,10.179763000000001,STD
8093450000000.0,0.19156941771507263,3.057912826538086,8.345133781433105,-1.4774973392486572,-0.049413688480854034,0.096516706,0.0125227375,304.7065,-101.78464,10.264928,STD
8136193700000.0,0.19653037190437317,3.0730955600738525,8.390043258666992,-1.4743651151657104,-0.05008206516504288,0.095294975,0.010079277,304.63885,-101.84636,10.348728999999999,STD
8176684000000.0,0.2015402764081955,3.084552049636841,8.432291984558105,-1.4746164083480835,-0.05011498183012009,0.090713486,0.009162978,304.57126,-101.90948,10.431716999999999,STD
8215037000000.0,0.20650477707386017,3.093925714492798,8.471480369567871,-1.4774171113967896,-0.05027598515152931,0.08460484,0.013133603,304.50677,-101.97319,10.509803,STD
8251364600000.0,0.21147342026233673,3.101386308670044,8.507180213928223,-1.4833776950836182,-0.05020121857523918,0.08063421400000001,0.017104227,304.44324,-102.03806999999999,10.586188,STD
8285771500000.0,0.21644560992717743,3.107163190841675,8.540321350097656,-1.4927188158035278,-0.05004921928048134,0.06841691,0.014355333500000001,304.38455,-102.09728,10.650245,STD
8318357600000.0,0.22142043709754944,3.1115543842315674,8.572248458862305,-1.5058856010437012,-0.05024633929133415,0.05955936,0.010995574,304.32645,-102.15571,10.714033,STD
8349218000000.0,0.22639666497707367,3.1152865886688232,8.60311222076416,-1.5226631164550781,-0.05044926702976227,0.0571159,0.004581489,304.27277000000004,-102.214874,10.769849,STD
8378443600000.0,0.23137719929218292,3.119063377380371,8.63306713104248,-1.5429134368896484,-0.05060894042253494,0.0720821,0.008552114,304.2171,-102.273926,10.82687,STD
8406119000000.0,0.23635824024677277,3.1230628490448,8.662199974060059,-1.5661399364471436,-0.05100392550230026,0.07422013,0.003970624,304.16797,-102.32996999999999,10.873008,STD
8432327000000.0,0.2413409948348999,3.1275794506073,8.690638542175293,-1.5917807817459106,-0.051361698657274246,0.092240654,0.008246681,304.1106,-102.38885,10.922794999999999,STD
8457144000000.0,0.24632805585861206,3.1325933933258057,8.718427658081055,-1.6197457313537598,-0.05209064483642578,0.10079276599999999,0.009773844,304.05896,-102.45051,10.96879,STD
8480643600000.0,0.2513176202774048,3.1380739212036133,8.745595932006836,-1.6498907804489136,-0.0526508130133152,0.11148291,0.0061086523,304.0017,-102.512146,11.014314,STD
8502895000000.0,0.2563033401966095,3.1437063217163086,8.77219295501709,-1.6817851066589355,-0.053929220885038376,0.10751228,0.009162978,303.94565,-102.571434,11.060856,STD
8523964000000.0,0.2612912356853485,3.148247241973877,8.798433303833008,-1.7143616676330566,-0.05492828041315079,0.10873401,0.01863139,303.8854,-102.63311,11.107894,STD
8543913600000.0,0.26628121733665466,3.151885509490967,8.824467658996582,-1.7473877668380737,-0.05523993819952011,0.106901415,0.02076942,303.83347000000003,-102.70701600000001,11.155082,STD
8562802700000.0,0.2712760865688324,3.155062675476074,8.850723266601562,-1.7802634239196777,-0.055307310074567795,0.09773844,0.015882496,303.7837,-102.77965999999999,11.201847,STD
8580687700000.0,0.276307076215744,3.158083438873291,8.87637710571289,-1.8123369216918945,-0.05576149746775627,0.09621128,0.007941248,303.73404,-102.85129,11.2436495,STD
8597621700000.0,0.28129884600639343,3.1612935066223145,8.900176048278809,-1.8424943685531616,-0.05684223771095276,0.08368854,0.015271631,303.69086,-102.924095,11.286971000000001,STD
8613655000000.0,0.286288857460022,3.1647369861602783,8.92214298248291,-1.870804786682129,-0.0581420473754406,0.08124508,0.012217305,303.6449,-102.99169,11.322205,STD
8628835000000.0,0.291279673576355,3.168405294418335,8.94236946105957,-1.8973639011383057,-0.05940522998571396,0.070554934,0.011911871999999999,303.6056,-103.059494,11.358889999999999,STD
8643207500000.0,0.2962730824947357,3.1722893714904785,8.960944175720215,-1.9222629070281982,-0.060666266828775406,0.07788532,0.0125227375,303.56192000000004,-103.12473,11.394757,STD
8656815400000.0,0.301268070936203,3.1763763427734375,8.977956771850586,-1.9455907344818115,-0.06288526207208633,0.06872234,0.014049901000000002,303.5264,-103.18628000000001,11.429210000000001,STD
8669699000000.0,0.30626431107521057,3.180757999420166,8.993553161621094,-1.9672586917877197,-0.06503494828939438,0.07452556,0.0125227375,303.48456,-103.24845,11.463014999999999,STD
8681897300000.0,0.31125715374946594,3.18664813041687,9.008567810058594,-1.9852848052978516,-0.06721663475036621,0.06505715,0.011911871999999999,303.45007000000004,-103.30708,11.496014,STD
8693446000000.0,0.31626129150390625,3.1939005851745605,9.023126602172852,-1.9994418621063232,-0.06959133595228195,0.076358154,0.0125227375,303.40704,-103.366745,11.533974,STD
8704380000000.0,0.3212549686431885,3.2005248069763184,9.03812026977539,-2.007035255432129,-0.0708143562078476,0.08002335,0.016187929,303.36926,-103.4291,11.571334,STD
8714732000000.0,0.3262648284435272,3.2064778804779053,9.053466796875,-2.007869243621826,-0.07154912501573563,0.07849618,0.014966198,303.32788,-103.48741,11.613525,STD
8724533000000.0,0.3312595784664154,3.2112247943878174,9.066884994506836,-2.0035464763641357,-0.07229358702898026,0.08002335,0.021991148999999998,303.28516,-103.54897,11.658497,STD
8733812000000.0,0.3362545371055603,3.214778423309326,9.078413009643555,-1.9940462112426758,-0.07294957339763641,0.08704830000000001,0.025961772999999997,303.236,-103.597404,11.701036,STD
8742597000000.0,0.3412488102912903,3.2178103923797607,9.089341163635254,-1.9788898229599,-0.07300099730491638,0.08827003,0.023518313,303.18835,-103.64627,11.742771000000001,STD
8750914000000.0,0.3462810814380646,3.2204232215881348,9.099945068359375,-1.9573231935501099,-0.07274045795202255,0.10140363,0.02443461,303.13574,-103.69537,11.786412,STD
8758789000000.0,0.3512762188911438,3.2226674556732178,9.110382080078125,-1.9314888715744019,-0.07255890220403671,0.08796459400000001,0.025961772999999997,303.08582,-103.73179,11.826537,STD
8766244000000.0,0.35627099871635437,3.2245101928710938,9.120826721191406,-1.9008325338363647,-0.07266370207071304,0.08857546,0.025961772999999997,303.0283,-103.76758000000001,11.866677000000001,STD
8773303000000.0,0.36126449704170227,3.227365255355835,9.131031036376953,-1.8673545122146606,-0.072746641933918,0.08643743400000001,0.02076942,302.9679,-103.789474,11.904662,STD
8779985300000.0,0.36626192927360535,3.2315900325775146,9.140945434570312,-1.8316019773483276,-0.07300419360399246,0.08460484,0.016187929,302.9076,-103.809875,11.942116,STD
8786312400000.0,0.37125852704048157,3.236125946044922,9.149223327636719,-1.7950990200042725,-0.07332940399646759,0.08521569999999999,0.022907447,302.8427,-103.821075,11.980435,STD
8792302400000.0,0.37625303864479065,3.240640878677368,9.15551471710205,-1.758333683013916,-0.07337687164545059,0.08674286,0.024129177,302.77814,-103.830215,12.015208,STD
8797973000000.0,0.38125118613243103,3.2452762126922607,9.15977954864502,-1.721825361251831,-0.07371477782726288,0.079107046,0.025045475,302.7127,-103.83689,12.056776,STD
8803342000000.0,0.3862510323524475,3.25018310546875,9.162001609802246,-1.6862248182296753,-0.07367660105228424,0.06872234,0.028099801,302.6481,-103.84695,12.098505000000001,STD
8808425000000.0,0.39124828577041626,3.2548420429229736,9.162556648254395,-1.6521190404891968,-0.07338003814220428,0.058643065,0.02687807,302.58398,-103.85358000000001,12.141159,STD
8813238000000.0,0.39624717831611633,3.2587273120880127,9.161768913269043,-1.6200932264328003,-0.07335969805717468,0.047036625,0.030543262,302.5239,-103.86196,12.184851,STD
8817795000000.0,0.4012879729270935,3.26180100440979,9.15951156616211,-1.590076208114624,-0.07309629768133163,0.045814894,0.031154128,302.46338,-103.87294,12.230033,STD
8822109000000.0,0.40628138184547424,3.264277219772339,9.156290054321289,-1.561875581741333,-0.07255394756793976,0.021685716,0.04337143,302.4137,-103.88736999999999,12.277566,STD
8826193000000.0,0.4112745523452759,3.2661798000335693,9.15302848815918,-1.536576271057129,-0.07187773287296295,0.014966198,0.04184427,302.35922,-103.8984,12.320725999999999,STD
8830061000000.0,0.41630056500434875,3.2675540447235107,9.150651931762695,-1.51518714427948,-0.07083062827587128,0.0030543262,0.04062254,302.3139,-103.91394,12.365639,STD
8833722000000.0,0.421295702457428,3.2685165405273438,9.148966789245605,-1.4969685077667236,-0.06995326280593872,-0.0036651915999999997,0.038179077,302.27017,-103.92782,12.407295,STD
8837189000000.0,0.4262886345386505,3.2690505981445312,9.14799976348877,-1.4819835424423218,-0.06882966309785843,-0.01863139,0.047647487,302.23285,-103.94631,12.450573,STD
8840471000000.0,0.4312828779220581,3.269258737564087,9.148359298706055,-1.4711816310882568,-0.06719624251127243,-0.031154128,0.046120327,302.1965,-103.96165500000001,12.489158999999999,STD
8843578000000.0,0.43627721071243286,3.269230365753174,9.150504112243652,-1.4652395248413086,-0.0646895244717598,-0.025961772999999997,0.038789943,302.1596,-103.97938,12.528097,STD
8846520000000.0,0.4412711262702942,3.268663167953491,9.154585838317871,-1.464580774307251,-0.06270703673362732,-0.04184427,0.040317107000000005,302.13596,-104.00005,12.5623665,STD
8849305000000.0,0.4462685286998749,3.2667596340179443,9.16118335723877,-1.4707905054092407,-0.0602116659283638,-0.03848451,0.0421497,302.10507,-104.02318000000001,12.594789,STD
8851942000000.0,0.45126378536224365,3.2635679244995117,9.16923713684082,-1.4820626974105835,-0.05780044198036194,-0.0421497,0.03023783,302.08477999999997,-104.04493000000001,12.618818,STD
8854439000000.0,0.4562588632106781,3.2590701580047607,9.177353858947754,-1.4961787462234497,-0.054703857749700546,-0.0571159,0.038789943,302.06763,-104.07513,12.648397000000001,STD
8856803000000.0,0.4612525701522827,3.2533328533172607,9.18529224395752,-1.5138670206069946,-0.05182112380862236,-0.08063421400000001,0.024129177,302.05896,-104.09765,12.659874,STD
8859042000000.0,0.4662497639656067,3.2463736534118652,9.192553520202637,-1.5369771718978882,-0.049157124012708664,-0.10323623,0.027488936000000002,302.05523999999997,-104.12826,12.678063,STD
8861161000000.0,0.4712481200695038,3.2383828163146973,9.198906898498535,-1.5642297267913818,-0.04666764661669731,-0.11636983,0.01863139,302.05782999999997,-104.15151999999999,12.681322999999999,STD
8863168000000.0,0.4762479066848755,3.22967529296875,9.203779220581055,-1.5932289361953735,-0.043936461210250854,-0.14782938,0.015882496,302.07257000000004,-104.17755,12.685771,STD
8865068000000.0,0.4812465310096741,3.2204108238220215,9.207334518432617,-1.6239532232284546,-0.04073229059576988,-0.16493362,0.013133603,302.09174,-104.20689,12.681222,STD
8866868000000.0,0.48626306653022766,3.2124478816986084,9.210834503173828,-1.6582921743392944,-0.037194278091192245,-0.18478674,0.007941248,302.12045,-104.23517,12.674031,STD
8868572000000.0,0.4912613034248352,3.2056171894073486,9.214265823364258,-1.6954014301300049,-0.032103147357702255,-0.21930063,0.009773844,302.1615,-104.27172,12.662878,STD
8870184000000.0,0.4962599575519562,3.19990873336792,9.21764087677002,-1.7354612350463867,-0.026599686592817307,-0.23793201,0.01038471,302.20302999999996,-104.30509,12.649791,STD
8871712000000.0,0.501268208026886,3.1953284740448,9.22109317779541,-1.7783560752868652,-0.02054309844970703,-0.25320363,0.00580322,302.25305,-104.342125,12.634722,STD
8873158000000.0,0.5062628388404846,3.192427396774292,9.226753234863281,-1.8213568925857544,-0.013995413668453693,-0.29199359999999996,0.010079277,302.31512000000004,-104.38304000000001,12.620942999999999,STD
8874528000000.0,0.5112749338150024,3.191281318664551,9.234796524047852,-1.8647242784500122,-0.006413099355995655,-0.32223140000000006,0.011911871999999999,302.3879,-104.44678,12.608425,STD
8875825000000.0,0.5162708759307861,3.191460132598877,9.244939804077148,-1.9076764583587646,0.0018557156436145306,-0.35246924,0.01282817,302.4713,-104.51257,12.595317,STD
8877053000000.0,0.5212658047676086,3.192964792251587,9.25721263885498,-1.9503426551818848,0.011067437008023262,-0.39614612,0.009162978,302.56845,-104.58816,12.582185,STD
8878215000000.0,0.5262600183486938,3.1970114707946777,9.268228530883789,-1.993720293045044,0.021041596308350563,-0.43157628,0.016187929,302.67145,-104.66898,12.571214,STD
8879316000000.0,0.5312554836273193,3.2040553092956543,9.276592254638672,-2.0382285118103027,0.0322096049785614,-0.46334129999999996,0.0067195175,302.78418,-104.74973,12.5526905,STD
8880359000000.0,0.5362514853477478,3.2137351036071777,9.280951499938965,-2.082594871520996,0.04431251436471939,-0.50579643,0.002443461,302.91125,-104.84145,12.537527,STD
8881346000000.0,0.541246771812439,3.2256717681884766,9.279809951782227,-2.1254286766052246,0.0565517395734787,-0.54702985,-0.003970624,303.0454,-104.93286,12.517435,STD
8882282000000.0,0.5462465882301331,3.242222785949707,9.274258613586426,-2.1637964248657227,0.06996176391839981,-0.59712076,-0.0009162978999999999,303.19754,-105.05186499999999,12.509482,STD
8883167000000.0,0.551249086856842,3.264509677886963,9.265081405639648,-2.196197748184204,0.08378027379512787,-0.63499445,-0.014660766,303.3555,-105.1652,12.493055,STD
8884006000000.0,0.5562498569488525,3.2917935848236084,9.251411437988281,-2.222407341003418,0.09878308326005936,-0.6924158,0.0015271631,303.5356,-105.30733500000001,12.495084,STD
8884799000000.0,0.5612449645996094,3.3234450817108154,9.232647895812988,-2.2423300743103027,0.11446759849786758,-0.73273283,0.0030543262,303.7187,-105.44429,12.487222000000001,STD
8885551000000.0,0.5662418007850647,3.356689214706421,9.207674026489258,-2.259035348892212,0.13190433382987976,-0.79259765,0.011301007,303.92242000000005,-105.60956999999999,12.509756,STD
8886263000000.0,0.5712379813194275,3.3870551586151123,9.17490291595459,-2.2773399353027344,0.15187889337539673,-0.8677341000000001,0.024129177,304.14063,-105.78241000000001,12.529856,STD
8886937000000.0,0.5762337446212769,3.416215419769287,9.139537811279297,-2.2941033840179443,0.17342588305473328,-0.9108001,0.019547688,304.36166000000003,-105.96943,12.573036,STD
8887576000000.0,0.5812313556671143,3.4455461502075195,9.10581111907959,-2.3067705631256104,0.19732420146465302,-0.9282097,-0.009162978,304.59427,-106.16605,12.608587,STD
8888181000000.0,0.5862290263175964,3.4753270149230957,9.076167106628418,-2.3142645359039307,0.22523905336856842,-0.94714653,-0.013439035,304.8435,-106.391884,12.649082,STD
8888754000000.0,0.5912253856658936,3.5058724880218506,9.053328514099121,-2.3153488636016846,0.25555655360221863,-0.9621128000000001,0.0018325957999999999,305.09384,-106.62109,12.684280000000001,STD
8889297000000.0,0.5962264537811279,3.535461187362671,9.038375854492188,-2.3153581619262695,0.28770914673805237,-1.0067059,0.040317107000000005,305.35416000000004,-106.866684,12.727432,STD
8889811000000.0,0.601291835308075,3.5623395442962646,9.033854484558105,-2.3199005126953125,0.3203293979167938,-1.0680978,0.07788532,305.62198,-107.12228,12.770494,STD
8890297000000.0,0.6062870621681213,3.586243152618408,9.03639030456543,-2.3264975547790527,0.3527575731277466,-1.0900891000000001,0.10598512,305.88577000000004,-107.378525,12.82521,STD
8890758000000.0,0.6112821102142334,3.6049468517303467,9.05004596710205,-2.334836959838867,0.3865014314651489,-1.0665708,0.10445796,306.15198,-107.64662,12.8786,STD
8891196000000.0,0.616275429725647,3.6169471740722656,9.074142456054688,-2.347470283508301,0.4207095205783844,-1.0427469999999999,0.08827003,306.42526000000004,-107.914276,12.920138,STD
8891610000000.0,0.6212700605392456,3.618851900100708,9.108200073242188,-2.3696529865264893,0.45348525047302246,-1.0512991000000003,0.07544186,306.69852000000003,-108.183205,12.958847,STD
8892002000000.0,0.6262659430503845,3.6110713481903076,9.150544166564941,-2.397878646850586,0.4820563793182373,-1.0167851,0.04917465,306.94824,-108.42323,12.968196,STD
8892373000000.0,0.631262481212616,3.5938827991485596,9.19839859008789,-2.4257421493530273,0.5073306560516357,-0.97066486,0.032070424,307.19415,-108.66341000000001,12.974708999999999,STD
8892726000000.0,0.6362593173980713,3.568587303161621,9.250892639160156,-2.4537510871887207,0.5288814902305603,-0.9095783000000002,0.026267206,307.42932,-108.87578,12.933664,STD
8893059000000.0,0.6412543654441833,3.5430898666381836,9.302397727966309,-2.4864673614501953,0.5472491383552551,-0.9098838,-0.00580322,307.66327,-109.07204399999999,12.878699000000001,STD
8893375000000.0,0.6462551355361938,3.516519546508789,9.352416038513184,-2.5237016677856445,0.5593478083610535,-0.9309586,-0.03848451,307.8812,-109.21146399999999,12.778407000000001,STD
8893675000000.0,0.6512531638145447,3.4842042922973633,9.397546768188477,-2.5643842220306396,0.5673020482063293,-0.8695666999999999,-0.06719518,308.0714,-109.34371999999999,12.676861,STD
8893959000000.0,0.6562512516975403,3.4473869800567627,9.438071250915527,-2.6080682277679443,0.5727977156639099,-0.77518797,-0.1133155,308.2613,-109.46188000000001,12.557119,STD
8894227000000.0,0.661246657371521,3.4162838459014893,9.474684715270996,-2.6514251232147217,0.5779353976249695,-0.7984009,-0.17867808,308.46124,-109.565025,12.4212675,STD
8894482000000.0,0.6662462949752808,3.390913724899292,9.507206916809082,-2.6949832439422607,0.583271324634552,-0.86345804,-0.21288654,308.6498,-109.66199499999999,12.26176,STD
8894723000000.0,0.671286404132843,3.37465238571167,9.530814170837402,-2.745413064956665,0.588713526725769,-0.88117313,-0.21135938,308.82718,-109.75408,12.098145,STD
8894952000000.0,0.6762951016426086,3.3648223876953125,9.54749870300293,-2.8001997470855713,0.5952655673027039,-0.84635377,-0.18784106,309.00977,-109.86628,11.947394000000001,STD
8895169000000.0,0.6812896132469177,3.356294870376587,9.555895805358887,-2.8588414192199707,0.6026241183280945,-0.79443026,-0.17440203,309.18953999999997,-109.97825,11.796372,STD
8895375000000.0,0.6870836019515991,3.351505756378174,9.532648086547852,-2.942927598953247,0.6162967681884766,-0.4896085,-0.028099801,309.80566,-110.79206,11.492627,STD
8895571000000.0,0.6928329467773438,3.347785711288452,9.502907752990723,-3.0296132564544678,0.630852222442627,-0.40042216,0.008552114,309.9136,-111.04048,11.467719,STD
8895757000000.0,0.6985479593276978,3.3423476219177246,9.469341278076172,-3.1133100986480713,0.6467480659484863,-0.31581733,0.04428773,310.01044,-111.34386,11.464741,STD
8895933000000.0,0.7042208313941956,3.3346879482269287,9.432958602905273,-3.192755937576294,0.6622850894927979,-0.25289822,0.092240654,310.09174,-111.650314,11.480313,STD
8896100000000.0,0.7098581790924072,3.3242971897125244,9.392599105834961,-3.2668073177337646,0.6773847341537476,-0.20922135,0.113926366,310.16112999999996,-111.97867,11.498401,STD
8896258000000.0,0.7154605388641357,3.310469388961792,9.346674919128418,-3.333719491958618,0.6910937428474426,-0.16187929,0.13439035,310.2157,-112.30675,11.534188,STD
8896408000000.0,0.7210317254066467,3.2929792404174805,9.296263694763184,-3.3923370838165283,0.7030304074287415,-0.14446963,0.14599679999999998,310.269,-112.63569,11.56763,STD
8896551000000.0,0.7265735268592834,3.27162504196167,9.242481231689453,-3.4415202140808105,0.7131263613700867,-0.13164146,0.15454891,310.3117,-112.95846999999999,11.60861,STD
8896686000000.0,0.7321012616157532,3.246483087539673,9.187150955200195,-3.484455108642578,0.7210728526115417,-0.10812314599999999,0.16615535,310.34827,-113.26879,11.649111999999999,STD
8896814000000.0,0.7375872135162354,3.2183594703674316,9.132608413696289,-3.5246217250823975,0.7262681722640991,-0.08857546,0.17623462,310.38277999999997,-113.5663,11.691295,STD
8896936000000.0,0.7430471181869507,3.1880974769592285,9.080409049987793,-3.5633974075317383,0.7290868759155273,-0.08093964,0.1826487,310.41247999999996,-113.83769,11.725631,STD
8897051000000.0,0.748481035232544,3.1569337844848633,9.032500267028809,-3.602369785308838,0.7298834323883057,-0.069027774,0.19364429,310.437,-114.09706000000001,11.765291,STD
8897160000000.0,0.7538895606994629,3.121673822402954,8.98873233795166,-3.6396450996398926,0.7279517650604248,-0.052839845,0.20311269,310.46297999999996,-114.336266,11.79529,STD
8897264000000.0,0.7592788934707642,3.0779004096984863,8.949028968811035,-3.6727068424224854,0.724104642868042,-0.018936822,0.20005837,310.48053,-114.56563999999999,11.827103,STD
8897362000000.0,0.7646448016166687,3.0267174243927,8.911994934082031,-3.7006125450134277,0.7192417979240417,0.014355333500000001,0.17318029999999998,310.49352999999996,-114.78211,11.846186999999999,STD
8897456000000.0,0.7699921727180481,2.969271659851074,8.87523365020752,-3.7211992740631104,0.7143939137458801,0.04886922,0.15088372,310.497,-114.99031000000001,11.8686905,STD
8897545000000.0,0.7753203511238098,2.9067370891571045,8.839550018310547,-3.7354397773742676,0.7082580327987671,0.08735373,0.10476339,310.48364,-115.15085,11.843145,STD
8897629000000.0,0.7806326746940613,2.841977834701538,8.807621002197266,-3.745481014251709,0.7020910382270813,0.13622294,0.058948494000000004,310.4557,-115.31013999999999,11.816725,STD
8897708000000.0,0.785926342010498,2.775665521621704,8.778839111328125,-3.751319169998169,0.6951947212219238,0.16340645,0.010995574,310.41592,-115.423325,11.751731,STD
8897785000000.0,0.7912083268165588,2.708972692489624,8.752113342285156,-3.7524096965789795,0.6877381205558777,0.19333886,-0.04184427,310.3568,-115.52706,11.679838,STD
8897857000000.0,0.7965176105499268,2.6436307430267334,8.725714683532715,-3.749171257019043,0.679099977016449,0.20738874,-0.08582657,310.28842000000003,-115.59687,11.581586999999999,STD
8897927000000.0,0.8017653226852417,2.58251953125,8.698197364807129,-3.7438604831695557,0.6695548892021179,0.21563543,-0.12705997,310.20844,-115.65615,11.474366999999999,STD
8897992000000.0,0.8070006370544434,2.5255684852600098,8.669096946716309,-3.7361223697662354,0.6586791276931763,0.20769419,-0.15699236,310.1239,-115.683426,11.348838,STD
8898053000000.0,0.8122243285179138,2.4725563526153564,8.638497352600098,-3.7260849475860596,0.6460553407669067,0.20005837,-0.17806722,310.03415,-115.69806000000001,11.217829,STD
8898112000000.0,0.8174352645874023,2.4232676029205322,8.606496810913086,-3.71388840675354,0.6313371062278748,0.21044308,-0.20280726,309.93866,-115.69811999999999,11.081336,STD
8898169000000.0,0.822633683681488,2.380479335784912,8.573453903198242,-3.7024948596954346,0.6147663593292236,0.21807889999999996,-0.22388211,309.84427,-115.688446,10.942905,STD
8898222000000.0,0.827822744846344,2.3447458744049072,8.53947925567627,-3.69268798828125,0.5963441133499146,0.24342979999999997,-0.2302962,309.74207,-115.66474,10.807364999999999,STD
8898274000000.0,0.8330019116401672,2.3156721591949463,8.504632949829102,-3.6843791007995605,0.5780409574508667,0.27183503,-0.22724187,309.6339,-115.63236,10.686060000000001,STD
8898322000000.0,0.8381736874580383,2.292938232421875,8.468940734863281,-3.6774957180023193,0.5586947798728943,0.2855795,-0.23976462,309.5213,-115.57963000000001,10.562158,STD
8898368000000.0,0.8433360457420349,2.2751660346984863,8.432890892028809,-3.6747875213623047,0.5384100675582886,0.28527406,-0.2519819,309.40625,-115.52458999999999,10.442666000000001,STD
8898412000000.0,0.848491907119751,2.261445999145508,8.39676570892334,-3.677990198135376,0.5171880125999451,0.30024028,-0.26328292,309.28314,-115.45943999999999,10.325308,STD
8898454000000.0,0.8536360263824463,2.250943660736084,8.360722541809082,-3.6866092681884766,0.4962179660797119,0.31795537,-0.26419923,309.16,-115.4247,10.252222,STD
8898494000000.0,0.8587713241577148,2.2420437335968018,8.32503604888916,-3.7002439498901367,0.4752911627292633,0.33139440000000003,-0.2706133,309.03296,-115.37789,10.177114,STD
8898532000000.0,0.8638982772827148,2.2340872287750244,8.290425300598145,-3.718358039855957,0.45513778924942017,0.33261612,-0.26725355,308.9102,-115.3621,10.118719,STD
8898568000000.0,0.8690195679664612,2.2257776260375977,8.25843620300293,-3.7401695251464844,0.4352445602416992,0.33475417,-0.26450464,308.78362999999996,-115.33827,10.061050999999999,STD
8898603000000.0,0.8741326332092285,2.2172744274139404,8.229084014892578,-3.7645530700683594,0.41514188051223755,0.33964106,-0.26236662,308.6602,-115.33247,10.008403999999999,STD
8898636000000.0,0.8792434930801392,2.2088406085968018,8.202574729919434,-3.7896835803985596,0.39493855834007263,0.33353242,-0.26389378,308.5398,-115.32316999999999,9.955383,STD
8898668000000.0,0.8843480348587036,2.2004785537719727,8.178736686706543,-3.8154890537261963,0.37442833185195923,0.3136793,-0.26633725,308.42447000000004,-115.32038,9.897962,STD
8898698000000.0,0.8894519209861755,2.1921768188476562,8.157453536987305,-3.8419740200042725,0.35379037261009216,0.31123585,-0.27000242,308.30652000000003,-115.31245,9.842039999999999,STD
8898727000000.0,0.8945462703704834,2.1841232776641846,8.138101577758789,-3.8685522079467773,0.33221757411956787,0.28985557,-0.2761111,308.1991,-115.29338,9.781373,STD
8898754000000.0,0.8996407985687256,2.1767144203186035,8.1195650100708,-3.8941450119018555,0.31026437878608704,0.27122417,-0.28802297,308.09122,-115.27006999999999,9.719214,STD
8898780000000.0,0.9047278165817261,2.169909954071045,8.101806640625,-3.918792724609375,0.2881138324737549,0.24373524,-0.29749137,307.99207,-115.24728400000001,9.648564,STD
8898805000000.0,0.9098042249679565,2.1641578674316406,8.082745552062988,-3.9412786960601807,0.2659717798233032,0.21930063,-0.30176744,307.89697,-115.21773,9.575560000000001,STD
8898829000000.0,0.9148769974708557,2.1594765186309814,8.062153816223145,-3.961547613143921,0.24391916394233704,0.1826487,-0.30573806,307.812,-115.18149,9.496882000000001,STD
8898852000000.0,0.9199461936950684,2.1560025215148926,8.036530494689941,-3.98146390914917,0.22219537198543549,0.15241088,-0.29260445,307.73236,-115.14608,9.421543,STD
8898874000000.0,0.9250098466873169,2.1536922454833984,8.005667686462402,-4.001297473907471,0.2006201148033142,0.13927728,-0.28619036,307.65722999999997,-115.10412,9.342533999999999,STD
8898895000000.0,0.9300727248191833,2.1519079208374023,7.971688747406006,-4.023065567016602,0.17999933660030365,0.12461651,-0.2779437,307.5903,-115.06741000000001,9.269649000000001,STD
8898915000000.0,0.9351308941841125,2.150465488433838,7.935325622558594,-4.047128200531006,0.15937063097953796,0.0983493,-0.27030787,307.5311,-115.02264,9.196688,STD
8898935000000.0,0.9401858448982239,2.148818254470825,7.900323867797852,-4.072887897491455,0.1389460265636444,0.09315695,-0.25778514,307.4734,-114.99605,9.135817,STD
8898954000000.0,0.9452394843101501,2.146787643432617,7.867893695831299,-4.100101470947266,0.11825889348983765,0.09865474,-0.23609942,307.42206,-114.964096,9.078636,STD
8898972000000.0,0.9502901434898376,2.1442208290100098,7.839554786682129,-4.131348133087158,0.09794174879789352,0.111177474,-0.21074851,307.3746,-114.95217,9.028248,STD
8898990000000.0,0.9553371667861938,2.141012668609619,7.8163580894470215,-4.168453216552734,0.07745400816202164,0.12644911,-0.18173242,307.32813,-114.93401999999999,8.986303999999999,STD
8899007000000.0,0.9603809714317322,2.1378073692321777,7.7978668212890625,-4.209472179412842,0.05678848177194595,0.1563815,-0.15454891,307.27924,-114.92288,8.950624000000001,STD
8899022000000.0,0.9654241800308228,2.135014772415161,7.783750057220459,-4.253146648406982,0.03588953614234924,0.18051068,-0.124005646,307.23184,-114.90883999999998,8.925116000000001,STD
8899038000000.0,0.9704638719558716,2.134030818939209,7.774303436279297,-4.299286365509033,0.016055520623922348,0.21227567,-0.07819075,307.1808,-114.91718999999999,8.90668,STD
8899053000000.0,0.975501537322998,2.1363139152526855,7.769914150238037,-4.3477888107299805,-0.004170169122517109,0.21777347,-0.049785517,307.13208,-114.91327,8.891817,STD
8899067000000.0,0.9805381298065186,2.140406370162964,7.769097328186035,-4.396603107452393,-0.02388768084347248,0.22937989,-0.030543262,307.07813,-114.92811599999999,8.887046,STD
8899081000000.0,0.9855723977088928,2.1452462673187256,7.770737648010254,-4.4442644119262695,-0.04344964772462845,0.23762658,-0.0012217305,307.02835,-114.93785,8.892669999999999,STD
8899095000000.0,0.9906038045883179,2.150247812271118,7.773139476776123,-4.491164207458496,-0.06240859255194664,0.23609942,0.030543262,306.98007,-114.95982,8.910298,STD
8899107000000.0,0.9956682324409485,2.1547365188598633,7.7743048667907715,-4.538028717041016,-0.0808292031288147,0.20525073,0.049480084,306.93964,-114.97838600000001,8.929521000000001,STD
8899120000000.0,1.0007373094558716,2.1587612628936768,7.774397373199463,-4.584641456604004,-0.09865878522396088,0.17440203,0.058337633,306.8999,-114.99906000000001,8.954646,STD
8899132000000.0,1.0057603120803833,2.162388324737549,7.773660182952881,-4.630603313446045,-0.11553817987442017,0.16676621,0.05955936,306.86377000000005,-115.01998999999999,8.981351,STD
8899144000000.0,1.0107805728912354,2.165605306625366,7.771986961364746,-4.67628288269043,-0.1318761259317398,0.172264,0.07147124,306.83313,-115.03872,9.009821,STD
8899155000000.0,1.0158040523529053,2.166609287261963,7.771573066711426,-4.726598739624023,-0.14778286218643188,0.21471913,0.07269296,306.79373,-115.05558,9.038712,STD
8899167000000.0,1.020828366279602,2.1650125980377197,7.7729644775390625,-4.782639026641846,-0.1626465618610382,0.2941316,0.07666359,306.74492999999995,-115.07493600000001,9.075804,STD
8899177000000.0,1.0258468389511108,2.162356376647949,7.777963638305664,-4.837169647216797,-0.17627865076065063,0.33750305,0.06994407,306.69617,-115.11067,9.106401,STD
8899188000000.0,1.0308659076690674,2.1590733528137207,7.787049293518066,-4.888282299041748,-0.18937957286834717,0.39095375,0.06291912,306.62433,-115.14386,9.147564,STD
8899198000000.0,1.0358833074569702,2.1585144996643066,7.802151679992676,-4.934545040130615,-0.20197764039039612,0.44043383,0.058948494000000004,306.54514,-115.19872,9.176537,STD
8899208000000.0,1.0408982038497925,2.1615688800811768,7.823616027832031,-4.975714683532715,-0.21429497003555298,0.49785519999999994,0.059864793,306.44977,-115.2502,9.2116585,STD
8899217000000.0,1.0459150075912476,2.1676928997039795,7.850874423980713,-5.0122880935668945,-0.22691623866558075,0.5561928,0.061086524,306.33725,-115.28698,9.24555,STD
8899227000000.0,1.0509312152862549,2.176457643508911,7.883356094360352,-5.044687271118164,-0.2398415356874466,0.5833763000000001,0.06627888,306.2189,-115.32123,9.283305,STD
8899236000000.0,1.0559436082839966,2.1880598068237305,7.922255516052246,-5.07060432434082,-0.25126412510871887,0.56046885,0.05100725,306.09058,-115.33939,9.326728999999998,STD
8899246000000.0,1.0609549283981323,2.2026638984680176,7.968494892120361,-5.088382244110107,-0.260336309671402,0.50579643,0.038179077,305.96506,-115.35755,9.370682,STD
8899254000000.0,1.0660094022750854,2.22409725189209,8.029533386230469,-5.100126266479492,-0.26754143834114075,0.40653083,0.014355333500000001,305.84967,-115.35946000000001,9.406908,STD
8899262000000.0,1.0710190534591675,2.252096176147461,8.103901863098145,-5.109375953674316,-0.27221396565437317,0.2941316,-0.014049901000000002,305.75095,-115.37143999999999,9.429992,STD
8899271000000.0,1.0760265588760376,2.2901837825775146,8.198151588439941,-5.117875576019287,-0.27328434586524963,0.17440203,-0.042455133,305.66852,-115.3599,9.445613,STD
8899279000000.0,1.0810350179672241,2.339550256729126,8.314242362976074,-5.126908302307129,-0.27161192893981934,0.043982297000000004,-0.07360926,305.6156,-115.35233999999998,9.438594,STD
8899288000000.0,1.0860449075698853,2.403315782546997,8.453394889831543,-5.140140056610107,-0.2670498788356781,-0.059253927000000005,-0.09407325,305.57675,-115.33442,9.437278,STD
8899295000000.0,1.091051459312439,2.4835593700408936,8.615850448608398,-5.1604108810424805,-0.2612171769142151,-0.10140363,-0.10170906,305.55432,-115.32069399999999,9.423231,STD
8899302000000.0,1.0960607528686523,2.577056646347046,8.793159484863281,-5.190447807312012,-0.25480005145072937,-0.11575896,-0.10323623,305.54138,-115.28993,9.430272,STD
8899310000000.0,1.1010751724243164,2.6812074184417725,8.978925704956055,-5.231998443603516,-0.24799242615699768,-0.14446963,-0.11362094,305.54163,-115.26456499999999,9.425991,STD
8899317000000.0,1.1060798168182373,2.779247999191284,9.146258354187012,-5.263494968414307,-0.23983848094940186,-0.17867808,-0.14049901,305.53925,-115.24082,9.461616000000001,STD
8899324000000.0,1.111084222793579,2.8569750785827637,9.271771430969238,-5.2660698890686035,-0.229905366897583,-0.24740042,-0.1826487,305.5509,-115.22113999999999,9.48109,STD
8899332000000.0,1.1160924434661865,2.914763927459717,9.356423377990723,-5.240078926086426,-0.21945986151695251,-0.32742378,-0.20036379999999998,305.57552999999996,-115.228096,9.5289755,STD
8899339000000.0,1.1210969686508179,2.9490137100219727,9.395113945007324,-5.179603099822998,-0.21267999708652496,-0.36713,-0.21502456,305.60315,-115.22084,9.56045,STD
8899346000000.0,1.1261011362075806,2.963179111480713,9.391461372375488,-5.0880913734436035,-0.21155159175395966,-0.4456262,-0.20677789,305.6526,-115.16129,9.551513,STD
8899353000000.0,1.1311054229736328,2.969829797744751,9.355472564697266,-4.976741313934326,-0.2142271101474762,-0.5152648,-0.19639318,305.70886,-115.09383400000002,9.535356,STD
8899359000000.0,1.1361289024353027,2.9688804149627686,9.286531448364258,-4.8448333740234375,-0.22489871084690094,-0.5751295999999999,-0.14508049,305.77795,-114.92998999999999,9.493300999999999,STD
8899365000000.0,1.1411306858062744,2.974092483520508,9.189072608947754,-4.702818393707275,-0.2468840628862381,-0.6203337,-0.12644911,305.85922,-114.72908999999999,9.440311,STD
8899371000000.0,1.146132230758667,2.988651752471924,9.061429023742676,-4.551202774047852,-0.2716694176197052,-0.63713247,-0.07360926,305.95862,-114.539825,9.40737,STD
8899378000000.0,1.151136875152588,3.020291805267334,8.915343284606934,-4.40592622756958,-0.3011402487754822,-0.61636305,-0.025045475,306.0533,-114.25205,9.381969999999999,STD
8899384000000.0,1.156137466430664,3.0696849822998047,8.755110740661621,-4.270634651184082,-0.3336307108402252,-0.548557,0.036957346,306.147,-113.963394,9.378687,STD
8899390000000.0,1.1611415147781372,3.136213779449463,8.592331886291504,-4.154877185821533,-0.3676288425922394,-0.45356745,0.11881329,306.23758,-113.67669,9.456186,STD
8899397000000.0,1.1661455631256104,3.2186732292175293,8.43057632446289,-4.060359477996826,-0.40043365955352783,-0.3268129,0.21899518,306.30933,-113.39527,9.56628,STD
8899403000000.0,1.1711467504501343,3.311645746231079,8.28300666809082,-3.9777944087982178,-0.43106701970100403,-0.19883664,0.31764993,306.37523999999996,-113.18127,9.787391,STD
8899409000000.0,1.1761475801467896,3.4114809036254883,8.158610343933105,-3.9007039070129395,-0.4586191475391388,-0.103847094,0.40500367,306.42438,-112.98851,10.041439,STD
8899416000000.0,1.1811494827270508,3.5040969848632812,8.069290161132812,-3.8190758228302,-0.4848006069660187,-0.08674286,0.4831944,306.47882000000004,-112.89161999999999,10.386786,STD
8899422000000.0,1.1861542463302612,3.5831573009490967,8.019718170166016,-3.728360652923584,-0.5122725367546082,-0.14049901,0.50732356,306.53006,-112.80436,10.741527,STD
8899428000000.0,1.1911580562591553,3.6424012184143066,8.013129234313965,-3.6276233196258545,-0.5422521233558655,-0.25442538,0.50518554,306.594,-112.72599,11.130707000000001,STD
8899434000000.0,1.1961607933044434,3.679109811782837,8.050308227539062,-3.5165557861328125,-0.5742475986480713,-0.38423425,0.48716503,306.6778,-112.65043,11.511919,STD
8899441000000.0,1.201204538345337,3.69120454788208,8.129562377929688,-3.3976006507873535,-0.6083142757415771,-0.528093,0.47494772,306.7775,-112.47493,11.837736999999999,STD
8899446000000.0,1.2062073945999146,3.6857783794403076,8.234519958496094,-3.2766592502593994,-0.643186092376709,-0.63407815,0.4605924,306.89984,-112.29914,12.145916999999999,STD
8899451000000.0,1.211205005645752,3.668017625808716,8.35361385345459,-3.1577835083007812,-0.6758739352226257,-0.7174611999999999,0.4529566,307.01685,-111.99059,12.340747,STD
8899456000000.0,1.2162048816680908,3.642183780670166,8.47806167602539,-3.0437803268432617,-0.7040851712226868,-0.8054258000000001,0.44501534,307.1621,-111.69381000000001,12.519289,STD
8899462000000.0,1.2212029695510864,3.612184524536133,8.598791122436523,-2.9396889209747314,-0.7257632613182068,-0.8445212,0.40011674,307.28348,-111.30893999999999,12.590603999999999,STD
8899467000000.0,1.226200819015503,3.58134126663208,8.70795726776123,-2.8499388694763184,-0.7403122782707214,-0.9083565999999998,0.36957347,307.4363,-110.95603,12.653836,STD
8899472000000.0,1.2311986684799194,3.552443504333496,8.804738998413086,-2.7760915756225586,-0.7514327168464661,-0.9101892,0.30604348,307.5656,-110.57343,12.656411,STD
8899477000000.0,1.236199975013733,3.529132843017578,8.887763023376465,-2.720597505569458,-0.7578260898590088,-0.82802784,0.24342979999999997,307.68658,-110.22966000000001,12.653555,STD
8899483000000.0,1.2411967515945435,3.5123109817504883,8.957926750183105,-2.678457021713257,-0.7617626786231995,-0.7012733,0.18631389999999998,307.7994,-109.91537,12.6318865,STD
8899488000000.0,1.246195673942566,3.503915786743164,9.0155668258667,-2.643331289291382,-0.7661731243133545,-0.5403103,0.14294247,307.87543,-109.60718999999999,12.607072,STD
8899493000000.0,1.2511953115463257,3.503305435180664,9.061034202575684,-2.6103975772857666,-0.7744829654693604,-0.398895,0.093767814,307.93475,-109.346405,12.590622999999999,STD
8899498000000.0,1.2561944723129272,3.5097413063049316,9.09430980682373,-2.5709526538848877,-0.7877702713012695,-0.30787608,0.06780604,307.9615,-109.081245,12.577389,STD
8899504000000.0,1.2611924409866333,3.5227298736572266,9.1173677444458,-2.5226449966430664,-0.8065511584281921,-0.29626966,0.05009095,307.9782,-108.83445,12.589051,STD
8899509000000.0,1.26619291305542,3.541776418685913,9.133696556091309,-2.459411144256592,-0.8296701312065125,-0.36071593,0.04428773,307.99036,-108.57488000000001,12.597907000000001,STD
8899514000000.0,1.2711914777755737,3.5650527477264404,9.144840240478516,-2.3840837478637695,-0.8556100726127625,-0.5225952,0.03573562,308.0265,-108.308365,12.631057,STD
8899519000000.0,1.2761911153793335,3.5880091190338135,9.15446949005127,-2.3026440143585205,-0.8815674781799316,-0.711658,0.04520403,308.09047999999996,-108.04421,12.661488,STD
8899525000000.0,1.2812052965164185,3.6096911430358887,9.163294792175293,-2.2170047760009766,-0.9066135883331299,-0.9086620999999999,0.04184427,308.19138,-107.755424,12.708865,STD
8899530000000.0,1.2862061262130737,3.618053436279297,9.179434776306152,-2.153203010559082,-0.9288762211799622,-1.0769554,0.03023783,308.339,-107.48176000000001,12.746896000000001,STD
8899535000000.0,1.291218638420105,3.613084077835083,9.202590942382812,-2.111316442489624,-0.948422372341156,-1.1688906000000001,0.025961772999999997,308.51453,-107.20016000000001,12.788552000000001,STD
8899540000000.0,1.2962168455123901,3.602053642272949,9.2236967086792,-2.0834977626800537,-0.966650128364563,-1.1609493,0.039095376,308.71027000000004,-106.93438,12.828735,STD
8899546000000.0,1.3012157678604126,3.5849289894104004,9.242815971374512,-2.0696632862091064,-0.9843459725379944,-1.0577132,0.053145275,308.91412,-106.682846,12.814938,STD
8899551000000.0,1.3062164783477783,3.5638270378112793,9.259403228759766,-2.0637569427490234,-1.000740647315979,-0.9077458,0.06750060599999999,309.10266,-106.44793,12.80927,STD
8899556000000.0,1.3112157583236694,3.5399746894836426,9.273271560668945,-2.062448024749756,-1.016896367073059,-0.7797695,0.08032878,309.2682,-106.22121399999999,12.8126,STD
8899561000000.0,1.316212773323059,3.513543128967285,9.284478187561035,-2.0638961791992188,-1.0321422815322876,-0.68508536,0.079107046,309.4121,-106.017944,12.793417,STD
8899567000000.0,1.321271300315857,3.483808994293213,9.292058944702148,-2.05786395072937,-1.0467548370361328,-0.64965516,0.064751714,309.53607,-105.81971999999999,12.778544,STD
8899572000000.0,1.3262676000595093,3.4524929523468018,9.297284126281738,-2.0479304790496826,-1.0605722665786743,-0.6591236,0.0571159,309.6505,-105.63107,12.752885000000001,STD
8899577000000.0,1.3312902450561523,3.4179508686065674,9.299396514892578,-2.0336313247680664,-1.0732626914978027,-0.7131852,0.04337143,309.76666,-105.44516999999999,12.722161,STD
8899582000000.0,1.336289405822754,3.3815226554870605,9.299087524414062,-2.016026496887207,-1.082851529121399,-0.732122,0.04520403,309.87158,-105.25681999999999,12.687911,STD
8899587000000.0,1.3412877321243286,3.345231056213379,9.296628952026367,-1.9950286149978638,-1.0911643505096436,-0.7535023000000001,0.056505035999999995,309.99255,-105.07073999999999,12.651345,STD
8899593000000.0,1.346284031867981,3.309077262878418,9.292146682739258,-1.9708385467529297,-1.0968854427337646,-0.7611380999999999,0.08063421400000001,310.11182,-104.8869,12.607762,STD
8899598000000.0,1.3512818813323975,3.273526668548584,9.285301208496094,-1.9444663524627686,-1.1008692979812622,-0.75441855,0.10048734,310.23315,-104.71162,12.567355000000001,STD
8899603000000.0,1.3562790155410767,3.239664316177368,9.275312423706055,-1.9180548191070557,-1.1030619144439697,-0.7281514,0.1142318,310.35143999999997,-104.553375,12.533773,STD
8899608000000.0,1.361274242401123,3.2074010372161865,9.262361526489258,-1.89161217212677,-1.103428602218628,-0.689056,0.12308934,310.46063,-104.39471400000001,12.502188,STD
8899614000000.0,1.3662688732147217,3.1766507625579834,9.246591567993164,-1.8651336431503296,-1.1018387079238892,-0.6227771,0.111177474,310.55374,-104.245186,12.47155,STD
8899619000000.0,1.371262788772583,3.1473329067230225,9.228156089782715,-1.8386223316192627,-1.098754644393921,-0.5317582,0.10140363,310.63055,-104.10775,12.447663,STD
8899624000000.0,1.3762562274932861,3.118440628051758,9.21088695526123,-1.8147770166397095,-1.0956721305847168,-0.41783184,0.08979719,310.68076,-103.97371,12.423586,STD
8899629000000.0,1.3812516927719116,3.088280200958252,9.201324462890625,-1.7982864379882812,-1.0921028852462769,-0.31031954,0.07819075,310.70592999999997,-103.84753,12.40008,STD
8899635000000.0,1.3862452507019043,3.05716872215271,9.198573112487793,-1.7878559827804565,-1.0877472162246704,-0.20830505,0.07849618,310.70047,-103.728775,12.386858,STD
8899640000000.0,1.39128577709198,3.0259454250335693,9.20110034942627,-1.7792202234268188,-1.0840305089950562,-0.13622294,0.08521569999999999,310.6725,-103.612526,12.374813,STD
8899645000000.0,1.3962849378585815,2.9951019287109375,9.2072172164917,-1.7719435691833496,-1.0796492099761963,-0.12156218,0.094989546,310.63684,-103.50142,12.348619,STD
8899650000000.0,1.4013575315475464,2.9633610248565674,9.218613624572754,-1.7658650875091553,-1.07460618019104,-0.14110987,0.10720685,310.59094,-103.396416,12.326525,STD
8899656000000.0,1.4063458442687988,2.9267077445983887,9.232771873474121,-1.7560672760009766,-1.0694737434387207,-0.18112154,0.1151481,310.54736,-103.29786999999999,12.306175,STD
8899661000000.0,1.4113332033157349,2.882603168487549,9.250974655151367,-1.741033673286438,-1.0630848407745361,-0.23518312,0.118507855,310.5151,-103.197716,12.273209,STD
8899666000000.0,1.4163206815719604,2.832205295562744,9.272575378417969,-1.7219213247299194,-1.0571014881134033,-0.2666427,0.111177474,310.48825,-103.09816,12.239593,STD
8899671000000.0,1.4213098287582397,2.781426191329956,9.294251441955566,-1.7052589654922485,-1.0517462491989136,-0.30848694,0.105068825,310.4806,-103.00579,12.206301,STD
8899677000000.0,1.4263033866882324,2.730252504348755,9.316012382507324,-1.6909315586090088,-1.04617178440094,-0.33414328,0.09773844,310.46265,-102.863106,12.125046000000001,STD
8899682000000.0,1.431295394897461,2.679856777191162,9.338743209838867,-1.681820034980774,-1.0411548614501953,-0.35216382,0.09773844,310.45514,-102.72341999999999,12.045008000000001,STD
8899687000000.0,1.436287522315979,2.630811929702759,9.362932205200195,-1.6794235706329346,-1.0347124338150024,-0.36713,0.08857546,310.45428,-102.58787,11.961425,STD
8899692000000.0,1.4412785768508911,2.584242343902588,9.388238906860352,-1.6813327074050903,-1.0279459953308105,-0.40500367,0.08124508,310.46674,-102.443146,11.864936,STD
8899698000000.0,1.4462716579437256,2.542403221130371,9.414124488830566,-1.6833007335662842,-1.0200426578521729,-0.43768495,0.06597344599999999,310.48206,-102.301796,11.765298,STD
8899703000000.0,1.4515042304992676,2.506955862045288,9.441973686218262,-1.6855322122573853,-1.011730432510376,-0.5158757,0.054061572999999995,310.52902,-102.162315,11.656525,STD
8899708000000.0,1.4564918279647827,2.4734318256378174,9.467672348022461,-1.6878666877746582,-1.0038611888885498,-0.5158757,0.054061572999999995,310.56262000000004,-102.02611,11.549729,STD
8899713000000.0,1.461478352546692,2.4419620037078857,9.486783027648926,-1.6918162107467651,-0.9974042177200317,-0.52626044,0.0580322,310.62534,-101.900185,11.45162,STD
8899719000000.0,1.466460943222046,2.4124338626861572,9.499717712402344,-1.6972744464874268,-0.9932283163070679,-0.49602258,0.057726767000000005,310.6759,-101.77468,11.354906,STD
8899724000000.0,1.471445918083191,2.3847501277923584,9.506681442260742,-1.7042022943496704,-0.9910980463027954,-0.43860126,0.07788532,310.7218,-101.65771,11.2673025,STD
8899729000000.0,1.476428747177124,2.3579914569854736,9.508543014526367,-1.7142926454544067,-0.990578830242157,-0.37384954,0.101098195,310.7575,-101.54196,11.182602000000001,STD
8899734000000.0,1.481412410736084,2.3305823802948,9.506382942199707,-1.7307668924331665,-0.9907709360122681,-0.29565877,0.122478485,310.77277000000004,-101.43326,11.105834,STD
8899740000000.0,1.4863959550857544,2.302581548690796,9.500690460205078,-1.7534056901931763,-0.9906760454177856,-0.23396139,0.13316862,310.77975,-101.34154000000001,11.042710000000001,STD
8899745000000.0,1.4913827180862427,2.274106025695801,9.493334770202637,-1.782923936843872,-0.9891212582588196,-0.17287487,0.14752395,310.7645,-101.26014,10.98883,STD
8899750000000.0,1.4963809251785278,2.2451207637786865,9.484343528747559,-1.819203495979309,-0.986070454120636,-0.118507855,0.14966199,310.74124,-101.18073000000001,10.929397999999999,STD
8899755000000.0,1.5013681650161743,2.2185425758361816,9.476694107055664,-1.8555519580841064,-0.9824171662330627,-0.09621128,0.14263703,310.7097,-101.10528000000001,10.872569,STD
8899760000000.0,1.5063556432724,2.194913625717163,9.470985412597656,-1.8907297849655151,-0.9786981344223022,-0.10018189999999999,0.14935656,310.67032,-101.03709,10.821357,STD
8899766000000.0,1.5113437175750732,2.173657178878784,9.467480659484863,-1.9236059188842773,-0.974249541759491,-0.13897185,0.15424347,310.64227,-100.9683,10.759979,STD
8899771000000.0,1.5163357257843018,2.1545450687408447,9.466185569763184,-1.953971266746521,-0.971258819103241,-0.14844026,0.14538592,310.60675,-100.89665,10.697654,STD
8899776000000.0,1.521324634552002,2.1395773887634277,9.464676856994629,-1.9877253770828247,-0.9692250490188599,-0.17256944,0.13103059,310.58652,-100.83067,10.63842,STD
8899781000000.0,1.5263134241104126,2.129275321960449,9.462217330932617,-2.0266430377960205,-0.9681949019432068,-0.21319197,0.14355333,310.57397000000003,-100.76942,10.584828,STD
8899787000000.0,1.5313138961791992,2.1235625743865967,9.45881175994873,-2.070758819580078,-0.969661295413971,-0.23854288,0.16096300000000002,310.5614,-100.70476,10.53037,STD
8899792000000.0,1.5363095998764038,2.1219632625579834,9.454571723937988,-2.119379758834839,-0.9730516076087952,-0.23732115,0.1908954,310.55298,-100.64794,10.483769,STD
8899797000000.0,1.5412991046905518,2.1149215698242188,9.45318603515625,-2.1618597507476807,-0.9778076410293579,-0.22113322,0.21563543,310.54456,-100.59241,10.439722999999999,STD
8899802000000.0,1.5462899208068848,2.100356101989746,9.45544147491455,-2.195960521697998,-0.9822776317596436,-0.20372356,0.23609942,310.53542999999996,-100.54495,10.403682,STD
8899808000000.0,1.551283359527588,2.079922676086426,9.462305068969727,-2.214043378829956,-0.9859396815299988,-0.18051068,0.23182335,310.53607,-100.529236,10.392123,STD
8899813000000.0,1.5562742948532104,2.054401397705078,9.47374439239502,-2.2151029109954834,-0.9891624450683594,-0.16523905,0.22907446,310.5338,-100.51946,10.386785,STD
8899818000000.0,1.561266303062439,2.0237348079681396,9.487186431884766,-2.2045631408691406,-0.9919041991233826,-0.16218472,0.20677789,310.51096,-100.469475,10.343528,STD
8899823000000.0,1.5662590265274048,1.9881149530410767,9.501686096191406,-2.184703826904297,-0.9940440654754639,-0.16890424,0.18417588,310.48648,-100.41971,10.299953,CSI
8899829000000.0,1.5712534189224243,1.9459398984909058,9.513970375061035,-2.1609280109405518,-0.9948816299438477,-0.16035213,0.15363261,310.4288,-100.32811,10.222221000000001,CSI
8899834000000.0,1.5762462615966797,1.8969776630401611,9.522984504699707,-2.135328531265259,-0.9930864572525024,-0.15271631,0.12583824,310.3737,-100.23456,10.140137,CSI
8899839000000.0,1.5812397003173828,1.8429675102233887,9.526949882507324,-2.116210460662842,-0.9895801544189453,-0.1685988,0.09682214,310.30078,-100.103264,10.023463000000001,CSI
8899844000000.0,1.5862337350845337,1.7851728200912476,9.524809837341309,-2.1088743209838867,-0.9839819073677063,-0.18234327,0.055588737,310.2258,-99.966125,9.897748,CSI
8899850000000.0,1.591227650642395,1.7283657789230347,9.521222114562988,-2.1141974925994873,-0.9772984385490417,-0.20280726,0.015882496,310.13802999999996,-99.787224,9.729536,CSI
8899855000000.0,1.5962241888046265,1.675531268119812,9.519148826599121,-2.1326582431793213,-0.9703851342201233,-0.22204952,-0.032375857,310.0551,-99.59925,9.550431,CSI
8899860000000.0,1.6012535095214844,1.6266835927963257,9.518681526184082,-2.1650941371917725,-0.9638239741325378,-0.24740042,-0.06078109,309.97897,-99.38845,9.343123,CSI
8899864000000.0,1.6062451601028442,1.5944533348083496,9.521805763244629,-2.2095608711242676,-0.9565056562423706,-0.27824909999999997,-0.07941248,309.91122,-99.1717,9.128732000000001,CSI
8899870000000.0,1.6112372875213623,1.5801836252212524,9.528096199035645,-2.2648720741271973,-0.9481611847877502,-0.27763826,-0.08032878,309.85803,-98.96193000000001,8.914449000000001,CSI
8899875000000.0,1.61622953414917,1.5831085443496704,9.5325345993042,-2.313948631286621,-0.9377546906471252,-0.32223140000000006,-0.076358154,309.82732999999996,-98.75374000000001,8.699810000000001,CSI
8899880000000.0,1.6212221384048462,1.6022173166275024,9.53463363647461,-2.357400894165039,-0.9264703989028931,-0.40500367,-0.07360926,309.83032000000003,-98.59865,8.531919,CSI
8899884000000.0,1.6262167692184448,1.6359751224517822,9.530303001403809,-2.397526741027832,-0.9115553498268127,-0.48380527,-0.06627888,309.8446,-98.45388,8.368866,CSI
8899889000000.0,1.6312100887298584,1.6828043460845947,9.519701957702637,-2.4349989891052246,-0.8912009596824646,-0.5687156,-0.045814894,309.89142000000004,-98.37411,8.268475,CSI
8899895000000.0,1.6362051963806152,1.736053466796875,9.500495910644531,-2.474804639816284,-0.8651111125946045,-0.6017023,-0.012217305,309.94507000000004,-98.30794499999999,8.17499,CSI
8899900000000.0,1.6412005424499512,1.794376015663147,9.473252296447754,-2.5162134170532227,-0.8339983820915222,-0.57818395,0.03848451,310.0174,-98.31673,8.1499,CSI
8899904000000.0,1.6461975574493408,1.846793532371521,9.439070701599121,-2.5526187419891357,-0.797886312007904,-0.5390885999999999,0.07544186,310.09344,-98.34228,8.13002,CSI
8899909000000.0,1.651196837425232,1.8930429220199585,9.399084091186523,-2.583296298980713,-0.757090151309967,-0.51007247,0.11209377,310.17554,-98.43018000000001,8.157452000000001,CSI
8899915000000.0,1.6561930179595947,1.926810622215271,9.362980842590332,-2.5970630645751953,-0.7133407592773438,-0.5030475000000001,0.13652839,310.25146,-98.53697,8.190597,CSI
8899920000000.0,1.6611957550048828,1.9479565620422363,9.331327438354492,-2.593806028366089,-0.6672512888908386,-0.5506949999999999,0.14141529999999997,310.32706,-98.65419,8.219516,CSI
8899925000000.0,1.66619074344635,1.952455759048462,9.312178611755371,-2.5697944164276123,-0.6195487380027771,-0.655153,0.12950343,310.41592,-98.787384,8.248028,CSI
8899929000000.0,1.6711856126785278,1.9407674074172974,9.30516529083252,-2.525557041168213,-0.5723048448562622,-0.7910705,0.09010262,310.49356,-98.867584,8.2265215,CSI
8899935000000.0,1.6761819124221802,1.9128670692443848,9.3145751953125,-2.463613748550415,-0.5256905555725098,-0.9279043,0.036651913,310.60037,-98.9546,8.194728,CSI
8899940000000.0,1.6811782121658325,1.869653344154358,9.339775085449219,-2.3851165771484375,-0.48099076747894287,-1.0797043,-0.033292156,310.74847,-99.03525,8.143158999999999,CSI
8899945000000.0,1.6861733198165894,1.817158818244934,9.383840560913086,-2.297389507293701,-0.43753373622894287,-1.1945469,-0.09101892,310.86456,-99.01094,8.001006,CSI
8899949000000.0,1.6911687850952148,1.7561637163162231,9.446145057678223,-2.201282024383545,-0.3935766816139221,-1.2843441999999998,-0.16157386,311.01526,-98.97944,7.834463,CSI
8899954000000.0,1.6961647272109985,1.6947648525238037,9.511549949645996,-2.106921434402466,-0.3471929430961609,-1.3264938999999998,-0.23884831,311.12167,-98.84161,7.5701017,CSI
8899960000000.0,1.7011611461639404,1.6338419914245605,9.578298568725586,-2.0153019428253174,-0.2972910702228546,-1.3100005,-0.31734450000000003,311.2372,-98.71078,7.290564,CSI
8899965000000.0,1.7061563730239868,1.5765472650527954,9.634471893310547,-1.934945821762085,-0.2421540915966034,-1.2287555000000001,-0.37751472,311.26758,-98.50269,6.920397,CSI
8899969000000.0,1.7111519575119019,1.5230799913406372,9.679136276245117,-1.8663548231124878,-0.181768000125885,-1.1691961000000002,-0.42730024,311.3042,-98.32182,6.542532,CSI
8899974000000.0,1.7161651849746704,1.4845285415649414,9.722105979919434,-1.8155715465545654,-0.12116552889347076,-0.95325524,-0.47250426,311.2449,-98.13735,6.1397033,CSI
8899980000000.0,1.721159815788269,1.459526538848877,9.764193534851074,-1.7803970575332642,-0.054514650255441666,-0.8738427,-0.48075095,311.21576,-98.03013,5.744554,CSI
8899985000000.0,1.7261549234390259,1.4719735383987427,9.829582214355469,-1.7612652778625488,0.011872250586748123,-0.75777835,-0.47464229999999996,311.12332000000004,-97.958916,5.3596725,CSI
8899990000000.0,1.7311652898788452,1.525414228439331,9.922017097473145,-1.758159875869751,0.08199718594551086,-0.66156703,-0.43401974,311.0231,-97.97757,4.995755,CSI
8899994000000.0,1.736160397529602,1.625938892364502,10.039222717285156,-1.7642678022384644,0.1576467752456665,-0.5748241999999999,-0.35185838,310.93807999999996,-98.12534000000001,4.7079043,CSI
8900000000000.0,1.7411558628082275,1.7765346765518188,10.182119369506836,-1.7787604331970215,0.2392428070306778,-0.5311473000000001,-0.26236662,310.8449,-98.34026999999999,4.4430532,CSI
8900005000000.0,1.7461521625518799,1.965697169303894,10.33959674835205,-1.7932734489440918,0.32713574171066284,-0.52381694,-0.16371189,310.80742999999995,-98.726,4.3518696,CSI
8900010000000.0,1.7511667013168335,2.1928818225860596,10.510642051696777,-1.806490182876587,0.42063191533088684,-0.58032197,-0.08063421400000001,310.7794,-99.17024,4.2820800000000006,CSI
8900014000000.0,1.7561616897583008,2.43637752532959,10.681963920593262,-1.8199304342269897,0.5212720632553101,-0.70157874,-0.026267206,310.806,-99.75263000000001,4.3930593,CSI
8900020000000.0,1.761159062385559,2.6948165893554688,10.85224437713623,-1.8339591026306152,0.6291149258613586,-0.8695666999999999,-0.009162978,310.8626,-100.38186,4.5067472,CSI
8900025000000.0,1.7661594152450562,2.947836399078369,11.009527206420898,-1.8470659255981445,0.7423279881477356,-1.0586295000000001,-0.03634648,310.96667,-101.08375500000001,4.743591,CSI
8900030000000.0,1.771159052848816,3.1911747455596924,11.151837348937988,-1.8589673042297363,0.8579229712486267,-1.3087788,-0.09621128,311.1325,-101.816345,4.9529705,CSI
8900034000000.0,1.7761558294296265,3.407000780105591,11.281453132629395,-1.8697316646575928,0.9743242859840393,-1.629483,-0.18631389999999998,311.36612,-102.59818,5.194822,CSI
8900039000000.0,1.7811552286148071,3.592113494873047,11.399293899536133,-1.8794101476669312,1.0891287326812744,-1.9572121999999998,-0.29352075,311.6642,-103.38425,5.385438400000001,CSI
8900045000000.0,1.7861524820327759,3.7436864376068115,11.50888729095459,-1.894091010093689,1.200793743133545,-2.2537873,-0.38912117,312.0308,-104.18075,5.5346603,CSI
8900050000000.0,1.791149616241455,3.862131118774414,11.611374855041504,-1.9150744676589966,1.3083796501159668,-2.6105325,-0.45845437,312.49523999999997,-104.97089,5.622166,CSI
8900055000000.0,1.7961474657058716,3.9606151580810547,11.710606575012207,-1.946673035621643,1.410785436630249,-2.9410107000000005,-0.51343226,313.01025,-105.73586999999999,5.59996,CSI
8900060000000.0,1.8011728525161743,4.042450904846191,11.80807876586914,-1.9909732341766357,1.5082708597183228,-3.1984904,-0.56107974,313.59174,-106.49248999999999,5.5281925,CSI
8900065000000.0,1.8061689138412476,4.095952987670898,11.894177436828613,-2.0485870838165283,1.6029375791549683,-3.4074062999999994,-0.63071835,314.2134,-107.24978,5.324338,CSI
8900070000000.0,1.811172366142273,4.114441871643066,11.965743064880371,-2.122385263442993,1.693926453590393,-3.6205983,-0.7174611999999999,314.89166,-107.99153000000001,5.072089,CSI
8900075000000.0,1.8161742687225342,4.104931831359863,12.028675079345703,-2.217778205871582,1.7787641286849976,-3.678936,-0.7620544,315.54773,-108.75373,4.757608,CSI
8900079000000.0,1.8211745023727417,4.081511974334717,12.09803581237793,-2.354426860809326,1.8582016229629517,-3.6218199999999996,-0.9202684999999999,316.20102,-109.50398,4.3726807,CSI
8900084000000.0,1.8261765241622925,4.04835844039917,12.176399230957031,-2.52767276763916,1.9317779541015625,-3.3631186,-1.106277,316.74518,-110.301125,3.8505974000000003,CSI
8900090000000.0,1.8311820030212402,4.015530109405518,12.270772933959961,-2.7277333736419678,2.0009121894836426,-2.9767463,-1.2235631,317.2205,-111.09253000000001,3.3214982,CSI
8900095000000.0,1.836185336112976,3.98097562789917,12.379012107849121,-2.9466934204101562,2.0692431926727295,-2.4605650000000003,-1.2522738000000002,317.54400000000004,-112.005104,2.7518563,CSI
8900100000000.0,1.8411873579025269,3.9311912059783936,12.4945707321167,-3.1456384658813477,2.138946056365967,-1.8249598999999999,-1.3130548,317.71222,-112.913826,2.2002735,CSI
8900104000000.0,1.8461993932724,3.8662619590759277,12.617615699768066,-3.325279951095581,2.209508180618286,-1.2889256000000002,-1.3970488,317.7621,-113.910126,1.6838839,CSI
8900110000000.0,1.851199984550476,3.772226333618164,12.7500638961792,-3.4732556343078613,2.2808837890625,-0.89980453,-1.5195273,317.67206,-114.91417,1.2030553,CSI
8900115000000.0,1.8561986684799194,3.63022518157959,12.895978927612305,-3.5736820697784424,2.3517274856567383,-0.6921103,-1.7229455000000002,317.47222999999997,-115.915146,0.72821677,CSI
8900119000000.0,1.8611925840377808,3.4561378955841064,13.04800796508789,-3.646618604660034,2.423516035079956,-0.7021896,-1.9498819,317.1668,-116.90701000000001,0.18368627,CSI
8900124000000.0,1.8661876916885376,3.259352922439575,13.20183277130127,-3.7045021057128906,2.4952714443206787,-0.6609562,-2.1337523,316.78522000000004,-117.89308,-0.35613520000000004,CSI
8900130000000.0,1.8711822032928467,3.0594723224639893,13.349645614624023,-3.769623041152954,2.569746255874634,-0.44929138,-2.2088888,316.1869,-118.8542,-1.0540087,CSI
8900135000000.0,1.8761769533157349,2.8699803352355957,13.48615550994873,-3.857358932495117,2.649937152862549,-0.03573562,-2.191479,315.55777,-119.83746000000001,-1.7103336,CSI
8900140000000.0,1.8811737298965454,2.7012922763824463,13.614622116088867,-3.9545443058013916,2.7413668632507324,0.5888741,-2.1099286,314.92938,-120.86521,-2.2975812,CSI
8900144000000.0,1.8861693143844604,2.558260679244995,13.736967086791992,-4.053796768188477,2.8488566875457764,1.0925325000000001,-2.0048597,314.26242,-121.95388999999999,-2.8054669999999997,CSI
8900150000000.0,1.8911651372909546,2.4454891681671143,13.849140167236328,-4.14394998550415,2.975457191467285,1.3643675,-1.9126191000000003,313.50635,-123.17601,-3.234742,CSI
8900155000000.0,1.8961609601974487,2.3664052486419678,13.947921752929688,-4.215954303741455,3.1175620555877686,1.5198327,-1.8121318,312.71193999999997,-124.45716999999999,-3.5570292,CSI
8900160000000.0,1.9011582136154175,2.3193442821502686,14.029792785644531,-4.269346714019775,3.267850160598755,1.6029103999999998,-1.7140878000000002,311.9536,-125.83672,-3.694307,CSI
8900164000000.0,1.9061546325683594,2.3023455142974854,14.091164588928223,-4.30375862121582,3.420530319213867,1.6377298,-1.6239853000000002,311.20865,-127.26433,-3.7783427000000005,CSI
8900169000000.0,1.9111549854278564,2.311483144760132,14.127979278564453,-4.336491107940674,3.569550037384033,1.7458528000000002,-1.5424347,310.44794,-128.67318999999998,-3.7466762000000005,CSI
8900175000000.0,1.916157841682434,2.3415846824645996,14.135324478149414,-4.389182090759277,3.711865186691284,1.9135354,-1.5103643,309.69992,-130.07974,-3.6796935,CSI
8900180000000.0,1.9211586713790894,2.382458448410034,14.107069969177246,-4.458363056182861,3.8485491275787354,2.119397,-1.4489723,308.9365,-131.49942,-3.4291751000000006,CSI
8900185000000.0,1.9261587858200073,2.4206347465515137,14.032822608947754,-4.5402092933654785,3.9806997776031494,2.2602015,-1.4040736999999999,308.17566,-132.89449,-3.1487172,CSI
8900189000000.0,1.931159257888794,2.4563729763031006,13.926544189453125,-4.623950958251953,4.106832981109619,2.324953,-1.3946053999999999,307.39517,-134.3327,-2.7796507000000004,CSI
8900195000000.0,1.936160922050476,2.4899532794952393,13.804895401000977,-4.69638729095459,4.224584102630615,2.2653937,-1.3634511999999999,306.64352,-135.73676,-2.3869777,CSI
8900200000000.0,1.9411602020263672,2.517073392868042,13.66296100616455,-4.754116058349609,4.3328857421875,2.0555615,-1.3371841,305.9051,-137.23764,-1.9772935,CSI
8900205000000.0,1.946162462234497,2.5315961837768555,13.492599487304688,-4.7917866706848145,4.427749156951904,1.7739526999999997,-1.3332133999999998,305.21075,-138.6727,-1.5862836999999999,CSI
8900209000000.0,1.9511643648147583,2.5329840183258057,13.289133071899414,-4.818568229675293,4.506992816925049,1.5699236,-1.385137,304.5409,-140.08351000000002,-1.2072108,CSI
8900215000000.0,1.9561678171157837,2.519692897796631,13.043377876281738,-4.8476996421813965,4.568063735961914,1.3695598999999998,-1.4208726,303.9411,-141.40453,-0.8780979,CSI
8900220000000.0,1.961169958114624,2.496194839477539,12.757308006286621,-4.881045341491699,4.611881732940674,1.1267409,-1.4566082,303.38568,-142.69699,-0.6233003,CSI
8900225000000.0,1.9661712646484375,2.469642162322998,12.4314546585083,-4.922184467315674,4.642117023468018,0.93645644,-1.4932601,302.85846000000004,-143.90239,-0.40288794,CSI
8900230000000.0,1.9711793661117554,2.440372943878174,12.072847366333008,-4.974865436553955,4.661527633666992,0.8213083000000001,-1.5668693999999999,302.34915,-145.14671,-0.25826994,CSI
8900234000000.0,1.976178765296936,2.409667730331421,11.7057466506958,-5.049561977386475,4.67519998550415,0.7715228,-1.6071864,301.86856,-146.33133999999998,-0.13568524,CSI
8900240000000.0,1.9811798334121704,2.3774867057800293,11.329533576965332,-5.146064281463623,4.688468933105469,0.754724,-1.6071864,301.37912,-147.62625,-0.03761641,CSI
8900245000000.0,1.9861876964569092,2.3382320404052734,10.984281539916992,-5.20977258682251,4.704905033111572,0.7125743,-1.5772540000000002,300.90582,-148.89498999999998,0.05019762,CSI
8900250000000.0,1.9911903142929077,2.292585611343384,10.668866157531738,-5.239603042602539,4.720757961273193,0.61269784,-1.50731,300.46008,-150.12604,0.13412113,CSI
8900254000000.0,1.9961899518966675,2.244112014770508,10.361883163452148,-5.245051383972168,4.732120037078857,0.41630468,-1.4257594,300.03345,-151.46533,0.19297282,CSI
8900260000000.0,2.0012295246124268,2.1921091079711914,10.061525344848633,-5.223721027374268,4.733240604400635,0.1777618,-1.3381003,299.66202000000004,-152.69348,0.23849466,CSI
8900265000000.0,2.0062599182128906,2.140617847442627,9.750261306762695,-5.18513298034668,4.721181869506836,0.0125227375,-1.25319,299.33304,-153.86325,0.26918554,CSI
8900270000000.0,2.0112524032592773,2.091191530227661,9.42320728302002,-5.134110927581787,4.6950836181640625,-0.041233405,-1.2272283000000002,299.03354,-154.95383,0.27673984,CSI
8900274000000.0,2.016245126724243,2.052361249923706,9.077914237976074,-5.069517612457275,4.6644673347473145,-0.06963864,-1.1844677,298.76248,-156.01665,0.26707843,CSI
8900280000000.0,2.0212368965148926,2.0303831100463867,8.716888427734375,-4.992508888244629,4.623958110809326,-0.07360926,-1.1688906000000001,298.49857000000003,-156.95503,0.25462005,CSI
8900285000000.0,2.026228666305542,2.0329298973083496,8.35180377960205,-4.904991149902344,4.577029705047607,-0.055283304000000005,-1.1636983,298.24242999999996,-157.94968,0.26398858,CSI
8900290000000.0,2.0312225818634033,2.0632035732269287,7.988281726837158,-4.808078289031982,4.525391578674316,-0.054367005999999996,-1.1530081,297.99875,-158.87625,0.27460619999999997,CSI
8900294000000.0,2.0362155437469482,2.1133968830108643,7.641113758087158,-4.723809719085693,4.4696526527404785,-0.0888809,-1.1233811000000002,297.72385,-159.83383,0.33568865,CSI
8900299000000.0,2.041213274002075,2.179713010787964,7.317115306854248,-4.6629557609558105,4.4110894203186035,-0.040927973,-1.0876455,297.4484,-160.74785,0.42665344,CSI
8900305000000.0,2.0462071895599365,2.260723114013672,7.0149102210998535,-4.623695373535156,4.352180004119873,0.10567969,-0.9691377,297.15344,-161.67078999999998,0.6432303,CSI
8900310000000.0,2.0512025356292725,2.3559916019439697,6.733423233032227,-4.605227947235107,4.295417308807373,0.24617869,-0.84971356,296.8678,-162.56818,0.8817891,CSI
8900314000000.0,2.0561962127685547,2.459210157394409,6.478569984436035,-4.596871852874756,4.241158485412598,0.32711834,-0.72204274,296.6093,-163.44685,1.173802,CSI
8900319000000.0,2.0611929893493652,2.5656869411468506,6.255053520202637,-4.590381145477295,4.189335823059082,0.36957347,-0.5766568,296.38358,-164.31297,1.5101613,CSI
8900325000000.0,2.0661914348602295,2.6700031757354736,6.06017541885376,-4.586477279663086,4.1390862464904785,0.33964106,-0.46792278,296.15997000000004,-165.1635,2.0129308999999997,CSI
8900330000000.0,2.0711891651153564,2.7638461589813232,5.890697002410889,-4.586330413818359,4.088715076446533,0.2611449,-0.34819320000000004,295.9846,-165.99452,2.5266156000000004,CSI
8900335000000.0,2.07621169090271,2.840548276901245,5.741968154907227,-4.586730003356934,4.036128997802734,0.28771752,-0.27824909999999997,295.81766,-166.73997,3.1251001,CSI
8900339000000.0,2.0812089443206787,2.898590326309204,5.607789039611816,-4.585341930389404,3.9801111221313477,0.3277292,-0.26328292,295.67746,-167.45396000000002,3.707792,CSI
8900345000000.0,2.086207151412964,2.9379963874816895,5.469152927398682,-4.582219123840332,3.919835090637207,0.38881573,-0.27519479999999996,295.55343999999997,-168.08972,4.3150244,CSI
8900350000000.0,2.0912036895751953,2.960644483566284,5.300327301025391,-4.577663421630859,3.8524515628814697,0.4728097,-0.29871312,295.42944,-168.66525,4.934671,CSI
8900355000000.0,2.0962014198303223,2.9680163860321045,5.106767177581787,-4.565719127655029,3.7799017429351807,0.6133086999999999,-0.32070425,295.3147,-169.18347,5.556860400000001,CSI
8900359000000.0,2.1012022495269775,2.9615190029144287,4.8935747146606445,-4.5409345626831055,3.7070512771606445,0.6951646,-0.36865717,295.18646,-169.65923999999998,6.1756682000000005,CSI
8900364000000.0,2.106199026107788,2.944277048110962,4.665247440338135,-4.5072126388549805,3.6316375732421875,0.6945538,-0.42546764,295.05697999999995,-170.20273,6.747934,CSI
8900370000000.0,2.111196994781494,2.9191837310791016,4.425384998321533,-4.468413829803467,3.5523157119750977,0.6450737,-0.45937067,294.92236,-170.7045,7.3214784,CSI
8900375000000.0,2.1161959171295166,2.8921918869018555,4.175323009490967,-4.426698207855225,3.4732494354248047,0.5519168000000001,-0.49938235,294.78052,-171.29466000000002,7.823378599999999,CSI
8900380000000.0,2.121195077896118,2.8772401809692383,3.917384386062622,-4.3869404792785645,3.390192985534668,0.46334129999999996,-0.49785519999999994,294.64752000000004,-171.81099,8.308664,CSI
8900384000000.0,2.1261940002441406,2.875717878341675,3.6575512886047363,-4.355518341064453,3.302708148956299,0.40561453,-0.4465425,294.52698,-172.39372,8.727977000000001,CSI
8900390000000.0,2.1311936378479004,2.8906354904174805,3.4057769775390625,-4.343639850616455,3.2103469371795654,0.39614612,-0.38331795,294.41714,-172.92247,9.133923,CSI
8900395000000.0,2.1361944675445557,2.919039249420166,3.162198543548584,-4.346110820770264,3.1141669750213623,0.44623706,-0.29901853,294.3227,-173.4851,9.566054,CSI
8900400000000.0,2.14119291305542,2.9558300971984863,2.927593469619751,-4.353636264801025,3.0155601501464844,0.5488624,-0.21502456,294.25027,-174.00099999999998,10.010525,CSI
8900405000000.0,2.1462020874023438,2.9968042373657227,2.699915885925293,-4.364449501037598,2.9142649173736572,0.6401868000000001,-0.1441642,294.1984,-174.4978,10.53164,CSI
8900410000000.0,2.15120267868042,3.0263259410858154,2.474351406097412,-4.371931076049805,2.8095130920410156,0.6798930000000001,-0.09193522,294.16965,-174.9476,11.063715,CSI
8900415000000.0,2.1562016010284424,3.0433340072631836,2.251509189605713,-4.377874851226807,2.700528621673584,0.66859204,-0.0693332,294.15227999999996,-175.36833000000001,11.649989999999999,CSI
8900420000000.0,2.1612017154693604,3.042832136154175,2.0349268913269043,-4.38887357711792,2.5868208408355713,0.6072,-0.064446285,294.1508,-175.7357,12.226337,CSI
8900424000000.0,2.1662020683288574,3.0255823135375977,1.8247750997543335,-4.40580940246582,2.466834545135498,0.5403103,-0.0693332,294.16806,-176.08594,12.75558,CSI
8900430000000.0,2.171200752258301,2.990966320037842,1.6245874166488647,-4.4374098777771,2.3426461219787598,0.46792278,-0.09468412,294.18737999999996,-176.38565,13.258266,CSI
8900435000000.0,2.176203966140747,2.9401566982269287,1.4332754611968994,-4.482939720153809,2.2154886722564697,0.40072759999999996,-0.129198,294.22876,-176.65912,13.678188,CSI
8900440000000.0,2.1812033653259277,2.883363962173462,1.2436912059783936,-4.536962032318115,2.086611032485962,0.36987892,-0.14966199,294.27203,-176.87973,14.080723999999998,CSI
8900445000000.0,2.186203956604004,2.82073974609375,1.0555793046951294,-4.5992350578308105,1.957065224647522,0.36010507,-0.16737708,294.3387,-177.07666,14.414528,CSI
8900449000000.0,2.191202163696289,2.7540392875671387,0.8693642020225525,-4.65428352355957,1.8274239301681519,0.37232238,-0.17623462,294.40634,-177.22923,14.737864499999999,CSI
8900455000000.0,2.1962015628814697,2.683708667755127,0.6849302053451538,-4.698734283447266,1.6981970071792603,0.4083634,-0.19242255,294.47015,-177.34206,15.057421,CSI
8900460000000.0,2.201244354248047,2.6074752807617188,0.5045939683914185,-4.739279747009277,1.5677019357681274,0.44287730000000003,-0.22143865,294.55682,-177.46236000000002,15.345142999999998,CSI
8900465000000.0,2.206239938735962,2.528015613555908,0.3308669626712799,-4.778736114501953,1.4344274997711182,0.43676865,-0.23884831,294.64624,-177.53918000000002,15.623495000000002,CSI
8900469000000.0,2.211235761642456,2.445667028427124,0.16834969818592072,-4.823907852172852,1.3039584159851074,0.41263947,-0.25473082,294.73828,-177.6404,15.873651500000001,CSI
8900475000000.0,2.216238260269165,2.3612284660339355,0.0192277655005455,-4.877885341644287,1.1702039241790771,0.3717115,-0.28008172,294.82648,-177.6587,16.110474,CSI
8900480000000.0,2.2212345600128174,2.2764666080474854,-0.11564771085977554,-4.941493034362793,1.0364806652069092,0.32009340000000003,-0.30268374,294.9292,-177.69794,16.32235,CSI
8900485000000.0,2.2262306213378906,2.1922504901885986,-0.23565711081027985,-5.015743732452393,0.9032101035118103,0.2519819,-0.3286455,295.0276,-177.68544,16.511644,CSI
8900489000000.0,2.2312283515930176,2.1113126277923584,-0.3399268090724945,-5.100758075714111,0.7721750140190125,0.16982053,-0.36346483,295.11475,-177.63353999999998,16.638128,CSI
8900494000000.0,2.2362308502197266,2.0349459648132324,-0.42833396792411804,-5.1964430809021,0.645551323890686,0.10598512,-0.38820487,295.2005,-177.56046,16.74679,CSI
8900500000000.0,2.241227865219116,1.9628888368606567,-0.5049026608467102,-5.302258491516113,0.5246990919113159,0.07788532,-0.42607849999999997,295.25104,-177.4405,16.77639,CSI
8900505000000.0,2.2462263107299805,1.8949134349822998,-0.5715917348861694,-5.418381690979004,0.4097665548324585,0.090713486,-0.4642576,295.2964,-177.31116,16.799149,CSI
8900510000000.0,2.2512261867523193,1.8296936750411987,-0.6266482472419739,-5.543030738830566,0.2992011308670044,0.12278391400000001,-0.49846604,295.31305,-177.12837,16.78495,CSI
8900514000000.0,2.256223201751709,1.766109585762024,-0.6687819361686707,-5.674442768096924,0.19368162751197815,0.17562376,-0.54611355,295.3155,-176.94734,16.780754,CSI
8900520000000.0,2.2612199783325195,1.7040631771087646,-0.6997045874595642,-5.812267303466797,0.09401343017816544,0.23548855,-0.59498274,295.2976,-176.74036999999998,16.758087,CSI
8900525000000.0,2.266218900680542,1.6434582471847534,-0.7206901907920837,-5.956216335296631,-0.0003431755758356303,0.25503623,-0.6395759,295.26813,-176.52853000000002,16.739647,CSI
8900530000000.0,2.2712182998657227,1.5849239826202393,-0.7319416999816895,-6.105456829071045,-0.08830395340919495,0.31673363,-0.6743952,295.21,-176.28726,16.719015,CSI
8900534000000.0,2.2762198448181152,1.5333656072616577,-0.7312653660774231,-6.256626129150391,-0.17061670124530792,0.37140608,-0.70829827,295.13998,-176.04488999999998,16.702675,CSI
8900540000000.0,2.2812423706054688,1.4886832237243652,-0.7182641625404358,-6.410372257232666,-0.24722431600093842,0.41233405,-0.7415904000000001,295.0459,-175.7721,16.661379999999998,CSI
8900545000000.0,2.286242723464966,1.4498940706253052,-0.6927857995033264,-6.565582752227783,-0.3168356418609619,0.46028697,-0.75319684,294.94824,-175.51627,16.639189000000002,CSI
8900550000000.0,2.2912395000457764,1.4169279336929321,-0.6545810103416443,-6.7228498458862305,-0.3804909288883209,0.49357912,-0.75533485,294.82605,-175.21724,16.62847,CSI
8900554000000.0,2.296236276626587,1.3916176557540894,-0.6045293807983398,-6.882160663604736,-0.43658682703971863,0.50579643,-0.7657196,294.69872999999995,-174.94672,16.625772,CSI
8900560000000.0,2.301234245300293,1.3739792108535767,-0.5432830452919006,-7.043438911437988,-0.4866982102394104,0.49174652,-0.74067414,294.5826,-174.68933,16.626524,CSI
8900565000000.0,2.3062305450439453,1.367126703262329,-0.47031447291374207,-7.208540916442871,-0.5292883515357971,0.48899764,-0.73456544,294.4339,-174.40268,16.633713,CSI
8900570000000.0,2.3112266063690186,1.3718295097351074,-0.38572099804878235,-7.378068923950195,-0.5663695335388184,0.50915617,-0.7101309,294.29926,-174.132,16.645,CSI
8900575000000.0,2.316225051879883,1.389068365097046,-0.29291823506355286,-7.5396833419799805,-0.5953705906867981,0.5137377000000001,-0.6597345,294.153,-173.84966,16.662775,CSI
8900579000000.0,2.3212223052978516,1.418562412261963,-0.1935950666666031,-7.689269542694092,-0.6171778440475464,0.5580254,-0.6044512,294.01492,-173.58968000000002,16.698373999999998,CSI
8900585000000.0,2.326221466064453,1.4583977460861206,-0.09428759664297104,-7.818969249725342,-0.6343883872032166,0.6640105,-0.56321776,293.86124,-173.29771000000002,16.781263,CSI
8900590000000.0,2.3312578201293945,1.5087381601333618,0.0018321742536500096,-7.923077583312988,-0.6513165831565857,0.73792523,-0.49327368,293.73322,-173.02647,16.869051000000002,CSI
8900595000000.0,2.336259603500366,1.5654308795928955,0.0923447459936142,-8.004598617553711,-0.6654544472694397,0.73639804,-0.41813725,293.59662000000003,-172.74205,17.022465,CSI
8900599000000.0,2.341254472732544,1.6284291744232178,0.17536884546279907,-8.060190200805664,-0.6765925884246826,0.68416905,-0.35705075,293.47675,-172.46724,17.179972,CSI
8900605000000.0,2.3462510108947754,1.689112663269043,0.2551770508289337,-8.096357345581055,-0.6859326362609863,0.61758476,-0.31520647,293.36914,-172.18694,17.39978,CSI
8900610000000.0,2.351250648498535,1.7410972118377686,0.33495497703552246,-8.118425369262695,-0.6943191289901733,0.5699373000000001,-0.3051272,293.27222,-171.92256,17.605529999999998,CSI
8900615000000.0,2.35624623298645,1.799941897392273,0.4174416661262512,-8.132801055908203,-0.7032678723335266,0.45845437,-0.301462,293.19442999999995,-171.6627,17.832426,CSI
8900619000000.0,2.3612418174743652,1.8807226419448853,0.5055148005485535,-8.14525032043457,-0.7109421491622925,0.35063666,-0.30024028,293.12146,-171.42018000000002,18.041372,CSI
8900625000000.0,2.366240978240967,1.9833593368530273,0.5953888893127441,-8.156295776367188,-0.7167261838912964,0.30207285,-0.30329459999999997,293.04016,-171.15259,18.218672,CSI
8900630000000.0,2.37123703956604,2.1077842712402344,0.6786208748817444,-8.167016983032227,-0.720606803894043,0.30482176,-0.30757064,292.96225,-170.89481999999998,18.376303,CSI
8900635000000.0,2.376232624053955,2.2501583099365234,0.7543482184410095,-8.176851272583008,-0.7239062190055847,0.31887165,-0.30879238,292.86852999999996,-170.60034,18.629297,CSI
8900639000000.0,2.381230354309082,2.405073881149292,0.8210075497627258,-8.184903144836426,-0.7275832295417786,0.30482176,-0.30970868,292.7753,-170.31476999999998,18.868782,CSI
8900644000000.0,2.3862295150756836,2.568415403366089,0.8812760710716248,-8.188048362731934,-0.7330827116966248,0.29993483,-0.27977628,292.7008,-170.0428,19.21724,CSI
8900650000000.0,2.391226053237915,2.733318328857422,0.9394993782043457,-8.180760383605957,-0.7405679225921631,0.30543262,-0.25228736,292.6254,-169.77231,19.555405,CSI
8900655000000.0,2.396223783493042,2.8981595039367676,0.9967368245124817,-8.163586616516113,-0.7495749592781067,0.30543262,-0.23151793,292.57928,-169.52408,19.971697,CSI
8900660000000.0,2.4013023376464844,3.055654764175415,1.0591967105865479,-8.13473892211914,-0.7600064277648926,0.25442538,-0.19028452,292.54956,-169.27504,20.366135,CSI
8900664000000.0,2.4062957763671875,3.2005953788757324,1.1224387884140015,-8.106754302978516,-0.7716887593269348,0.23060162,-0.17867808,292.51794,-169.00978,20.818499,CSI
8900670000000.0,2.4112887382507324,3.324077606201172,1.1877061128616333,-8.088845252990723,-0.7828136086463928,0.19364429,-0.15699236,292.5044,-168.75528,21.243456,CSI
8900675000000.0,2.416283130645752,3.4240221977233887,1.2571698427200317,-8.079270362854004,-0.7936548590660095,0.19394971,-0.14202617,292.47675,-168.46518,21.672258,CSI
8900680000000.0,2.4212775230407715,3.492767095565796,1.337023377418518,-8.073902130126953,-0.8022580742835999,0.21410827,-0.16340645,292.44446,-168.18979,22.084354,CSI
8900685000000.0,2.4262781143188477,3.531157970428467,1.4274846315383911,-8.073214530944824,-0.8117863535881042,0.09682214,-0.14721853,292.4211,-167.88654,22.36988,CSI
8900690000000.0,2.4312729835510254,3.5393500328063965,1.532886028289795,-8.084474563598633,-0.822109043598175,0.07788532,-0.16096300000000002,292.3744,-167.59305,22.677395,CSI
8900695000000.0,2.4362778663635254,3.519179344177246,1.6501330137252808,-8.106596946716309,-0.8286424279212952,0.10659598599999999,-0.14355333,292.3094,-167.25845,22.83642,CSI
8900700000000.0,2.4412717819213867,3.479896306991577,1.766793966293335,-8.134679794311523,-0.8304001688957214,0.15943582,-0.124005646,292.24194,-166.92953,22.992739999999998,CSI
8900704000000.0,2.4462666511535645,3.423295259475708,1.879717469215393,-8.16599178314209,-0.8272135853767395,0.21899518,-0.10629055,292.13907,-166.55739,23.035522,CSI
8900709000000.0,2.4512641429901123,3.3564038276672363,1.9763871431350708,-8.190260887145996,-0.8194601535797119,0.25900686,-0.08796459400000001,292.04175,-166.21634,23.087559,CSI
8900715000000.0,2.45625901222229,3.282008409500122,2.0558841228485107,-8.209185600280762,-0.8087993264198303,0.26542094,-0.08827003,291.9359,-165.87483,23.054739,CSI
8900720000000.0,2.4612538814544678,3.208300828933716,2.111231803894043,-8.227858543395996,-0.7989670634269714,0.24342979999999997,-0.10048734,291.83333999999996,-165.5462,23.025489999999998,CSI
8900725000000.0,2.466249942779541,3.137411594390869,2.1456496715545654,-8.243379592895508,-0.7914004921913147,0.1908954,-0.10567969,291.75677,-165.26163,22.952779999999997,CSI
8900730000000.0,2.47127103805542,3.0798895359039307,2.1686439514160156,-8.241291999816895,-0.7888110876083374,0.28955013,-0.14019357,291.65845,-164.96199,22.913006,CSI
8900735000000.0,2.476266384124756,3.033125638961792,2.1832616329193115,-8.225369453430176,-0.7874177098274231,0.37018433,-0.14110987,291.62354,-164.75467,22.851147,CSI
8900740000000.0,2.481262445449829,2.994537830352783,2.1976168155670166,-8.194793701171875,-0.787010133266449,0.35369098,-0.15149458,291.5767,-164.52454,22.786879000000003,CSI
8900745000000.0,2.48626446723938,2.9632177352905273,2.2119598388671875,-8.151850700378418,-0.7898960113525391,0.310625,-0.16187929,291.5362,-164.30371,22.796823999999997,CSI
8900749000000.0,2.4912590980529785,2.9347658157348633,2.227696418762207,-8.109518051147461,-0.7962579131126404,0.28893927,-0.1881465,291.48852999999997,-164.07728999999998,22.805305,CSI
8900755000000.0,2.4962668418884277,2.9090559482574463,2.2452232837677,-8.069598197937012,-0.8056013584136963,0.25259277,-0.23487769,291.42755,-163.82031,22.835846,CSI
8900760000000.0,2.501265048980713,2.885136365890503,2.267486810684204,-8.053018569946289,-0.8166280388832092,0.22052236,-0.33292156,291.3465,-163.54641999999998,22.853920000000002,CSI
8900765000000.0,2.506260395050049,2.8629214763641357,2.2943673133850098,-8.059032440185547,-0.8276530504226685,0.119729586,-0.38912117,291.26867999999996,-163.2577,22.847826,CSI
8900769000000.0,2.5112555027008057,2.8427250385284424,2.335070848464966,-8.106520652770996,-0.8371790051460266,-0.047036625,-0.5155702999999999,291.15277000000003,-162.95113,22.79944,CSI
8900774000000.0,2.5162532329559326,2.824629306793213,2.3932769298553467,-8.202706336975098,-0.8416233658790588,-0.32528573,-0.65240407,291.04082999999997,-162.6571,22.687160000000002,CSI
8900780000000.0,2.5212481021881104,2.806931257247925,2.4727110862731934,-8.353032112121582,-0.8352994322776794,-0.74036866,-0.7910705,290.92926,-162.38953,22.442404,CSI
8900785000000.0,2.5262436866760254,2.782198190689087,2.596224069595337,-8.597732543945312,-0.8093564510345459,-1.2076806,-0.93370754,290.81378,-162.18085,22.098595,CSI
8900790000000.0,2.5312461853027344,2.7506155967712402,2.7626149654388428,-8.934211730957031,-0.7547643780708313,-1.606881,-1.131017,290.6726,-162.03949,21.553268,CSI
8900794000000.0,2.536250114440918,2.7047033309936523,3.1092886924743652,-9.338482856750488,-0.6664087772369385,-1.9080375,-1.38025,290.51578,-162.01672,20.903301000000003,CSI
8900800000000.0,2.541255235671997,2.6443064212799072,3.6428415775299072,-9.804899215698242,-0.5502234697341919,-2.0683897,-1.5375478,290.35565,-162.11858,20.189962,CSI
8900805000000.0,2.5462520122528076,2.581143617630005,4.125472545623779,-10.156439781188965,-0.4184671640396118,-2.051591,-1.5134187,290.15814,-162.27581999999998,19.263638,CSI
8900810000000.0,2.5512492656707764,2.5182085037231445,4.494506359100342,-10.346325874328613,-0.2804664969444275,-1.8402314999999998,-1.4135422,289.9333,-162.55235,18.375935000000002,CSI
8900814000000.0,2.5562448501586914,2.453794002532959,4.655645847320557,-10.358694076538086,-0.1487785130739212,-1.425454,-1.3720033,289.3925,-162.21327,17.3888,CSI
8900820000000.0,2.5612401962280273,2.3869640827178955,4.560970783233643,-10.18724250793457,-0.04071143642067909,-0.81031275,-1.3863586,288.86922999999996,-161.92416,16.572195,CSI
8900825000000.0,2.566237688064575,2.3557240962982178,4.267977714538574,-9.92542552947998,0.030148599296808243,-0.077579886,-1.4349225,288.3576,-161.75626,16.062936999999998,CSI
8900830000000.0,2.5712342262268066,2.3727147579193115,3.8073770999908447,-9.612509727478027,0.06435206532478333,0.625526,-1.3988813999999998,287.82336000000004,-161.51703,15.733255999999999,CSI
8900834000000.0,2.576230525970459,2.443540096282959,3.274726152420044,-9.284036636352539,0.07869742810726166,1.0806206,-1.2205088,287.49352999999996,-161.7413,15.721879000000001,CSI
8900839000000.0,2.581228256225586,2.5725104808807373,2.746758222579956,-8.968473434448242,0.08785085380077362,1.1438452,-0.906524,287.18323,-161.87859,15.8108425,CSI
8900845000000.0,2.586228609085083,2.731293201446533,2.2567474842071533,-8.692876815795898,0.09916967153549194,0.8069529999999999,-0.54092115,287.1375,-162.51731999999998,16.157068,CSI
8900850000000.0,2.5912251472473145,2.884758949279785,1.8455268144607544,-8.49014663696289,0.12035161256790161,0.30726522,-0.18539760000000002,287.1951,-163.20334,16.50369,CSI
8900855000000.0,2.5962228775024414,2.9952139854431152,1.5236326456069946,-8.354798316955566,0.15721921622753143,-0.32345316,0.08063421400000001,287.38092,-164.0454,16.95516,CSI
8900860000000.0,2.601266622543335,3.015319585800171,1.3135942220687866,-8.289796829223633,0.2147638350725174,-1.0745120000000001,0.21166481,287.6847,-164.99123,17.252432000000002,CSI
8900865000000.0,2.6062610149383545,2.956038475036621,1.185144066810608,-8.24128246307373,0.2908417880535126,-1.434617,0.21838433,287.99838,-165.91576,17.451157000000002,CSI
8900870000000.0,2.6112561225891113,2.780039072036743,1.1541081666946411,-8.170369148254395,0.3711342215538025,-1.9202549999999998,0.09315695,288.3669,-166.88211,17.405825,CSI
8900875000000.0,2.6162521839141846,2.5057718753814697,1.2085096836090088,-8.080567359924316,0.44877538084983826,-2.0821342,-0.23335053,288.64508,-167.67373999999998,17.076967,CSI
8900879000000.0,2.621248245239258,2.1717817783355713,1.3250929117202759,-7.979212760925293,0.5032831430435181,-2.0546453000000002,-0.7086037,288.84972999999997,-168.37036,16.654385,CSI
8900885000000.0,2.62624454498291,1.829261064529419,1.492082953453064,-7.9275078773498535,0.5191247463226318,-1.8738291,-1.2235631,288.82755,-168.60457,15.7424345,CSI
8900890000000.0,2.631242036819458,1.5505423545837402,1.6943130493164062,-8.013794898986816,0.500200092792511,-1.5409076000000002,-1.6139059999999998,288.69043,-168.72398,14.868473000000002,CSI
8900895000000.0,2.636239528656006,1.342611312866211,1.9209767580032349,-8.218844413757324,0.46768319606781006,-1.0732902,-1.7641789,288.41815,-168.52466,13.837673,CSI
8900899000000.0,2.6412360668182373,1.2386590242385864,2.1402194499969482,-8.496820449829102,0.44878169894218445,-0.571159,-1.7522669999999998,288.0657,-168.27962,12.903316,CSI
8900904000000.0,2.6462337970733643,1.2205864191055298,2.3376002311706543,-8.796713829040527,0.45766374468803406,-0.2501493,-1.7055358,287.6375,-167.98293999999999,12.114414,CSI
8900910000000.0,2.651231527328491,1.2605478763580322,2.4885098934173584,-9.034364700317383,0.4881282448768616,-0.12339478,-1.6462818,287.20273,-167.7413,11.431125999999999,CSI
8900915000000.0,2.6562271118164062,1.3419779539108276,2.593536138534546,-9.199870109558105,0.526719331741333,-0.11759156,-1.5546521,286.7421,-167.63461,11.08174,CSI
8900920000000.0,2.6612260341644287,1.4366155862808228,2.6499874591827393,-9.26805591583252,0.5651907920837402,-0.14049901,-1.4743233,286.2915,-167.61327,10.774369,CSI
8900924000000.0,2.6662237644195557,1.5329060554504395,2.667459726333618,-9.260173797607422,0.5984216332435608,-0.27091873,-1.3817772,285.85397,-167.70795,10.688136,CSI
8900930000000.0,2.6712241172790527,1.6066621541976929,2.661991596221924,-9.212787628173828,0.6241030693054199,-0.4538729,-1.3154983999999998,285.43784,-167.80113,10.585453,CSI
8900935000000.0,2.676222562789917,1.6533838510513306,2.6410131454467773,-9.14243221282959,0.6447046399116516,-0.68569624,-1.2718215,285.0534,-167.96584,10.564686,CSI
8900940000000.0,2.6812238693237305,1.6595633029937744,2.619149923324585,-9.083086013793945,0.6627107858657837,-0.8756753,-1.2244793999999999,284.69827000000004,-168.1125,10.510204,CSI
8900945000000.0,2.6864914894104004,1.590122103691101,2.594489336013794,-9.041267395019531,0.6844126582145691,-1.0002918,-1.2449434,284.0601,-168.48203,10.234713000000001,CSI
8900951000000.0,2.691744089126587,1.4891949892044067,2.568094491958618,-9.010016441345215,0.705478847026825,-1.0296134,-1.3164146,283.775,-168.68373,9.907869,CSI
8900956000000.0,2.696985960006714,1.3688349723815918,2.535123348236084,-8.994239807128906,0.7249991297721863,-1.0897835,-1.4144584999999998,283.4799,-168.89297,9.559388,CSI
8900961000000.0,2.702209234237671,1.2308539152145386,2.496176242828369,-8.992679595947266,0.7437232732772827,-1.0607674999999999,-1.4501941,283.20508,-169.10683999999998,9.095275,CSI
8900966000000.0,2.7074155807495117,1.0910600423812866,2.467677593231201,-9.012247085571289,0.7625401616096497,-1.0198395,-1.5045611,282.8991,-169.31752,8.619545,CSI
8900972000000.0,2.7126126289367676,0.953743577003479,2.454045295715332,-9.054588317871094,0.782307505607605,-0.9401216,-1.5500705,282.5811,-169.53284,8.169857,CSI
8900977000000.0,2.7177984714508057,0.8215224742889404,2.4548821449279785,-9.098418235778809,0.8037397265434265,-0.8194756999999999,-1.6084082,282.24807999999996,-169.80505,7.627670299999999,CSI
8900982000000.0,2.722980499267578,0.6947374939918518,2.4698987007141113,-9.138838768005371,0.8259342312812805,-0.70616025,-1.6584991000000002,281.89893,-170.0819,7.114408,CSI
8900987000000.0,2.728147506713867,0.5725665092468262,2.4894628524780273,-9.158294677734375,0.8480527997016907,-0.59650993,-1.7394387999999998,281.5128,-170.3361,6.611758,CSI
8900993000000.0,2.7333035469055176,0.45465144515037537,2.5122437477111816,-9.155166625976562,0.8674787878990173,-0.6133086999999999,-1.7916678,281.12012000000004,-170.58536,6.1154304,CSI
8900998000000.0,2.7384517192840576,0.34785234928131104,2.5278587341308594,-9.152508735656738,0.8825814723968506,-0.5928446999999999,-1.8084666,280.6951,-170.7819,5.6631193,CSI
8901003000000.0,2.743593215942383,0.25303688645362854,2.534587860107422,-9.15477466583252,0.8944540023803711,-0.5858198,-1.8090773999999998,280.26132,-170.97401000000002,5.2106959999999996,CSI
8901008000000.0,2.748727798461914,0.17269021272659302,2.5245323181152344,-9.155293464660645,0.9038218855857849,-0.6215554,-1.7843374,279.82207999999997,-171.12543,4.7605143,CSI
8901014000000.0,2.753852605819702,0.10671768337488174,2.496687173843384,-9.152597427368164,0.9106558561325073,-0.65087694,-1.7867808,279.37503,-171.26291,4.3210654,CSI
8901019000000.0,2.758979320526123,0.04790738224983215,2.4321043491363525,-9.174137115478516,0.914000391960144,-0.7247916,-1.7941113000000002,278.93146,-171.4179,3.8905475,CSI
8901024000000.0,2.7640957832336426,-0.005077771842479706,2.3321683406829834,-9.220766067504883,0.9144809246063232,-0.7519751,-1.8020525,278.48648,-171.56447,3.4731553,CSI
8901029000000.0,2.7692065238952637,-0.04092894122004509,2.227092742919922,-9.260720252990723,0.9102317094802856,-0.70096785,-1.8179349999999999,278.02774,-171.74532,3.1037724,CSI
8901035000000.0,2.77431058883667,-0.054689474403858185,2.1319594383239746,-9.278620719909668,0.9036045670509338,-0.7819075,-1.7977764999999999,277.5832,-171.92318999999998,2.69869,CSI
8901040000000.0,2.7794108390808105,-0.056541040539741516,2.0469202995300293,-9.283967018127441,0.8933100700378418,-0.84757555,-1.7938058000000001,277.13318,-172.24158,2.3276572,CSI
8901045000000.0,2.784507989883423,-0.05167810246348381,1.9717566967010498,-9.281649589538574,0.8797715902328491,-0.8393288000000001,-1.7846428,276.6879,-172.54428000000001,1.9658533,CSI
8901049000000.0,2.7895960807800293,-0.04263140633702278,1.9062325954437256,-9.284918785095215,0.8628852963447571,-0.86834496,-1.7907515,276.21265,-172.79625,1.6673793999999997,CSI
8901054000000.0,2.79471492767334,-0.03018662892282009,1.850926160812378,-9.301982879638672,0.8433992862701416,-0.9636399,-1.7712038,275.74805,-173.02893,1.3611761,CSI
8901060000000.0,2.799835443496704,-0.016058387234807014,1.8005002737045288,-9.341288566589355,0.8242354989051819,-1.0189233,-1.740966,275.26892000000004,-173.23108,1.0939885,CSI
8901065000000.0,2.8049063682556152,-0.001541976584121585,1.7516205310821533,-9.404092788696289,0.805783748626709,-1.0091494,-1.7333300999999999,274.78937,-173.41527,0.82487595,CSI
8901070000000.0,2.809972047805786,0.013555806130170822,1.7039908170700073,-9.493940353393555,0.7888199687004089,-0.96944314,-1.7180585,274.3167,-173.58037,0.57131135,CSI
8901074000000.0,2.815037250518799,0.03138357773423195,1.6605089902877808,-9.60011100769043,0.7752506732940674,-0.91354895,-1.6902641,273.8487,-173.7531,0.33221918,CSI
8901080000000.0,2.820099115371704,0.052340127527713776,1.6217437982559204,-9.718857765197754,0.768703818321228,-0.9841039,-1.6334536,273.39587,-173.94754,0.07590456,CSI
8901085000000.0,2.82515549659729,0.07554735988378525,1.5865132808685303,-9.848064422607422,0.7664612531661987,-0.93615097,-1.5677856000000001,272.93512000000004,-174.16478,-0.116603345,CSI
8901090000000.0,2.830211639404297,0.10059744119644165,1.5541868209838867,-9.986809730529785,0.7704259753227234,-0.8848383,-1.4877623,272.4965,-174.42361,-0.31990397,CSI
8901094000000.0,2.835265636444092,0.13109035789966583,1.5260019302368164,-10.121453285217285,0.7823180556297302,-0.8381071,-1.3952162000000001,272.06482,-174.70982,-0.483162,CSI
8901100000000.0,2.84031343460083,0.1685062050819397,1.5024058818817139,-10.245596885681152,0.8015522956848145,-0.77854776,-1.2916746000000001,271.65765,-175.02211,-0.6210906,CSI
8901105000000.0,2.8453593254089355,0.20681582391262054,1.48074471950531,-10.34891414642334,0.8279489874839783,-0.7348709,-1.1997393,271.27026,-175.37392,-0.7314928,CSI
8901110000000.0,2.850405216217041,0.2408076524734497,1.4587205648422241,-10.422698974609375,0.8589289784431458,-0.73273283,-1.142318,270.9027,-175.74889,-0.8318544,CSI
8901114000000.0,2.855445623397827,0.2770923972129822,1.4321454763412476,-10.466778755187988,0.892245888710022,-0.73945236,-1.0598511999999998,270.54507,-176.13861,-0.87755954,CSI
8901119000000.0,2.8604836463928223,0.3220824897289276,1.396854281425476,-10.480138778686523,0.9269125461578369,-0.7538077,-0.9605855999999999,270.20972,-176.5469,-0.9217549999999999,CSI
8901125000000.0,2.865532398223877,0.3741499185562134,1.3527003526687622,-10.466079711914062,0.9616361856460571,-0.78893244,-0.8570439000000001,269.89185,-176.96333,-0.97803044,CSI
8901130000000.0,2.8705663681030273,0.4305468499660492,1.30100417137146,-10.43120288848877,0.9953719973564148,-0.83260936,-0.7528914000000001,269.60345,-177.38206,-1.0369688,CSI
8901135000000.0,2.8755979537963867,0.48880475759506226,1.246483325958252,-10.382891654968262,1.027570366859436,-0.89827734,-0.6423248,269.32922,-177.83035,-1.0658341999999998,CSI
8901139000000.0,2.880629301071167,0.5468184947967529,1.1930477619171143,-10.327533721923828,1.0578573942184448,-0.97066486,-0.52015173,269.089,-178.27188,-1.1056888,CSI
8901145000000.0,2.885662794113159,0.5995498895645142,1.144006609916687,-10.269819259643555,1.0865141153335571,-1.0207558,-0.4089743,268.86795,-178.739,-1.126098,CSI
8901150000000.0,2.8906896114349365,0.6440045237541199,1.1013062000274658,-10.212944030761719,1.113383173942566,-1.0888673,-0.32009340000000003,268.6761,-179.19527,-1.1692383999999998,CSI
8901155000000.0,2.8957157135009766,0.6782170534133911,1.0682706832885742,-10.155732154846191,1.1381367444992065,-1.1267409,-0.27336220000000006,268.48148,-179.6505,-1.1988895,CSI
8901159000000.0,2.900742530822754,0.7009602785110474,1.0471364259719849,-10.09736442565918,1.1615222692489624,-1.1893546999999998,-0.19028452,268.32272,179.90053,-1.2522031,CSI
8901165000000.0,2.9057648181915283,0.716197669506073,1.0357533693313599,-10.036429405212402,1.183742880821228,-1.3005321,-0.113926366,268.17056,179.47311000000002,-1.3483303999999998,CSI
8901170000000.0,2.9107859134674072,0.7275408506393433,1.032326579093933,-9.971391677856445,1.200742483139038,-1.3979651000000002,-0.027183502999999998,268.04427999999996,179.07578999999998,-1.455631,CSI
8901175000000.0,2.915806770324707,0.7378301620483398,1.0335190296173096,-9.896865844726562,1.2125064134597778,-1.4483615,0.08643743400000001,267.9557,178.72298,-1.6174912000000001,CSI
8901179000000.0,2.9208261966705322,0.7522712349891663,1.0333422422409058,-9.802549362182617,1.2180927991867065,-1.5280794,0.21135938,267.89346,178.40521,-1.8120747,CSI
8901184000000.0,2.9258460998535156,0.7679333686828613,1.0309741497039795,-9.689763069152832,1.2165124416351318,-1.649947,0.33658674,267.85797,178.14972,-2.0398962,CSI
8901190000000.0,2.930864095687866,0.7804666757583618,1.0251635313034058,-9.560300827026367,1.2084239721298218,-1.7745636000000002,0.46181414,267.8564,177.9285,-2.2877537999999995,CSI
8901195000000.0,2.9358837604522705,0.7724241018295288,1.0062675476074219,-9.432769775390625,1.1932952404022217,-2.0118847,0.59986967,267.88302999999996,177.74683000000002,-2.579502,CSI
8901200000000.0,2.940898895263672,0.7193154692649841,0.9608060121536255,-9.333863258361816,1.1699062585830688,-2.033876,0.7797695,267.95752000000005,177.61479,-2.8415477000000005,CSI
8901204000000.0,2.9459142684936523,0.6209057569503784,0.9016247391700745,-9.26473617553711,1.1456314325332642,-1.9605720000000002,0.93431836,268.0418,177.46962,-3.1449625,CSI
8901210000000.0,2.95093035697937,0.47197726368904114,0.8773719072341919,-9.233172416687012,1.122682809829712,-1.9581286,1.047023,268.16364,177.36638,-3.4698005,CSI
8901215000000.0,2.955941915512085,0.27632027864456177,0.8855605125427246,-9.236502647399902,1.1037243604660034,-1.9966130000000002,1.069625,268.35815,177.15962,-4.004339,CSI
8901220000000.0,2.960953712463379,0.03600724786520004,0.9182674884796143,-9.2691068649292,1.0884783267974854,-1.9782871,1.0384709,268.5663,176.95853,-4.5140667,CSI
8901224000000.0,2.96596622467041,-0.24649737775325775,0.9720132946968079,-9.328047752380371,1.078944206237793,-1.8512272,0.98563105,268.7718,176.73552,-4.995069,CSI
8901230000000.0,2.9709768295288086,-0.5629236102104187,1.0353929996490479,-9.410482406616211,1.0775848627090454,-1.750129,0.8924741,269.07403999999997,176.6516,-5.73746,CSI
8901235000000.0,2.9759867191314697,-0.9067872762680054,1.0989593267440796,-9.514238357543945,1.0803673267364502,-1.6132951000000002,0.79809546,269.3603,176.56305,-6.417433,CSI
8901240000000.0,2.98099684715271,-1.2624237537384033,1.1552128791809082,-9.629278182983398,1.0863382816314697,-1.502423,0.7315111,269.70687999999996,176.54608000000002,-7.2869673,CSI
8901245000000.0,2.9860098361968994,-1.616328477859497,1.1976168155670166,-9.746915817260742,1.0955232381820679,-1.4117095,0.67103547,270.02477999999996,176.50441,-8.0982685,CSI
8901249000000.0,2.9910197257995605,-1.964921236038208,1.2249125242233276,-9.86220932006836,1.107409119606018,-1.3692545,0.6411031,270.37823,176.46921,-9.027511,CSI
8901255000000.0,2.9960315227508545,-2.3022515773773193,1.2332416772842407,-9.966259956359863,1.1211845874786377,-1.2922854,0.61636305,270.7095,176.4157,-9.889528,CSI
8901260000000.0,3.001056671142578,-2.6285812854766846,1.2228020429611206,-10.059995651245117,1.1353815793991089,-1.0867293,0.589485,271.03076,176.31046,-10.738241,CSI
8901265000000.0,3.006063938140869,-2.936192274093628,1.1958473920822144,-10.150822639465332,1.1514426469802856,-1.0180069,0.6010914,271.34653,176.18636999999998,-11.574022,CSI
8901269000000.0,3.011073350906372,-3.2259817123413086,1.1519659757614136,-10.239053726196289,1.1667616367340088,-0.87995136,0.65148777,271.65274,175.99953,-12.340074000000001,CSI
8901275000000.0,3.016087293624878,-3.4966466426849365,1.0933310985565186,-10.331660270690918,1.1808085441589355,-0.77366084,0.71593404,271.96017,175.80852,-13.070707,CSI
8901280000000.0,3.021097421646118,-3.747206687927246,1.0225975513458252,-10.434555053710938,1.1953927278518677,-0.6453791,0.768163,272.27588,175.61491,-13.733463,CSI
8901285000000.0,3.0261037349700928,-3.980510950088501,0.94302898645401,-10.544416427612305,1.2112668752670288,-0.5403103,0.8145888000000001,272.5785,175.3493,-14.3458605,CSI
8901289000000.0,3.0311086177825928,-4.202132225036621,0.8618854284286499,-10.65367603302002,1.227043867111206,-0.42424592,0.8539896,272.89294,175.09421,-14.901179,CSI
8901295000000.0,3.0361135005950928,-4.4126973152160645,0.7792192697525024,-10.762393951416016,1.2424683570861816,-0.31520647,0.87872964,273.18674,174.785,-15.374787,CSI
8901300000000.0,3.041121006011963,-4.608503341674805,0.6949551701545715,-10.864625930786133,1.2570545673370361,-0.17501289,0.8790351000000001,273.48587000000003,174.484,-15.792491,CSI
8901305000000.0,3.046128988265991,-4.787078857421875,0.6091415286064148,-10.956124305725098,1.2696589231491089,-0.09132435,0.8668178,273.78766,174.19537,-16.182837,CSI
8901310000000.0,3.0511634349823,-4.9490251541137695,0.5213085412979126,-11.033199310302734,1.2783035039901733,-0.008552114,0.8359690999999999,274.07986,173.90013000000002,-16.518124,CSI
8901314000000.0,3.0561635494232178,-5.096859455108643,0.43291354179382324,-11.096395492553711,1.282906413078308,0.04337143,0.77274454,274.35892,173.61635,-16.826815,CSI
8901320000000.0,3.0611634254455566,-5.224678039550781,0.34283363819122314,-11.13698673248291,1.2842038869857788,0.07086037,0.72784597,274.61548,173.3292,-17.090107,CSI
8901325000000.0,3.066164493560791,-5.330104351043701,0.2508769929409027,-11.1514253616333,1.2804512977600098,0.06566802,0.70096785,274.85828,173.07314,-17.339170000000003,CSI
8901330000000.0,3.071164846420288,-5.417212009429932,0.15151743590831757,-11.146350860595703,1.270452857017517,0.096516706,0.66553766,275.08047,172.82037,-17.553759,CSI
8901334000000.0,3.076164722442627,-5.489067077636719,0.0407792329788208,-11.126641273498535,1.2530276775360107,0.11698069400000001,0.6197228,275.29028,172.60343999999998,-17.765627,CSI
8901340000000.0,3.0811667442321777,-5.545945167541504,-0.0828363373875618,-11.092642784118652,1.2298411130905151,0.14691310000000002,0.5195409000000001,275.4613,172.37842,-17.933094,CSI
8901345000000.0,3.0861763954162598,-5.588043212890625,-0.22066910564899445,-11.044546127319336,1.20269775390625,0.11789699,0.41844269999999995,275.6162,172.18661,-18.10601,CSI
8901350000000.0,3.0911741256713867,-5.611523628234863,-0.37111642956733704,-10.979582786560059,1.1706202030181885,0.07971791,0.30726522,275.7197,171.97083,-18.250864,CSI
8901354000000.0,3.0961759090423584,-5.60820198059082,-0.5355897545814514,-10.89052677154541,1.1368989944458008,-0.05131268,0.27000242,275.80933,171.76793999999998,-18.426544,CSI
8901360000000.0,3.1011760234832764,-5.584786891937256,-0.7110679149627686,-10.785914421081543,1.095534086227417,-0.19150625,0.18753563,275.83157,171.54425,-18.584621,CSI
8901365000000.0,3.106175661087036,-5.551590442657471,-0.8934878706932068,-10.679607391357422,1.0475349426269531,-0.21838433,0.090713486,275.8372,171.33417,-18.742601,CSI
8901370000000.0,3.111173629760742,-5.510035037994385,-1.080361247062683,-10.571614265441895,0.9957457184791565,-0.27550024,-0.009162978,275.7812,171.07156,-18.891531,CSI
8901374000000.0,3.1161749362945557,-5.462429523468018,-1.2667930126190186,-10.4616117477417,0.9410194158554077,-0.3109304,-0.08552113,275.70232999999996,170.84694,-19.036016,CSI
8901380000000.0,3.1212079524993896,-5.411737442016602,-1.4534715414047241,-10.351296424865723,0.8832683563232422,-0.37843102,-0.15027285,275.57336000000004,170.59418,-19.168960000000002,CSI
8901385000000.0,3.1262054443359375,-5.36503791809082,-1.6375797986984253,-10.24593734741211,0.8227026462554932,-0.5222898,-0.18509217,275.4239,170.36864,-19.328522,CSI
8901390000000.0,3.13120436668396,-5.32231330871582,-1.8203680515289307,-10.145132064819336,0.7572584748268127,-0.54550266,-0.27855456,275.22652999999997,170.1398,-19.445917,CSI
8901395000000.0,3.136207342147827,-5.28041410446167,-1.9970088005065918,-10.035219192504883,0.69359290599823,-0.4877759,-0.37751472,275.01232999999996,169.90681,-19.575367,CSI
8901399000000.0,3.1412038803100586,-5.238767147064209,-2.1667118072509766,-9.914575576782227,0.6344922184944153,-0.4538729,-0.4529566,274.77325,169.69537,-19.710876000000003,CSI
8901405000000.0,3.146204710006714,-5.193352222442627,-2.327479124069214,-9.7899169921875,0.5792899131774902,-0.5149594,-0.54367006,274.49097,169.45313000000002,-19.851318,CSI
8901410000000.0,3.1512038707733154,-5.143585205078125,-2.4792115688323975,-9.663261413574219,0.5257273316383362,-0.6084218000000001,-0.6597345,274.17816,169.20808,-19.982271,CSI
8901415000000.0,3.1562016010284424,-5.083527088165283,-2.6170194149017334,-9.527905464172363,0.4742867648601532,-0.66675943,-0.73273283,273.84766,168.93645,-20.127423999999998,CSI
8901419000000.0,3.1611993312835693,-5.010190963745117,-2.7385895252227783,-9.380407333374023,0.423097163438797,-0.75716746,-0.79779,273.47592000000003,168.67183,-20.297129,CSI
8901425000000.0,3.16619873046875,-4.93385648727417,-2.85210919380188,-9.247044563293457,0.3701593279838562,-0.9230174000000001,-0.8216136999999999,273.0813,168.41423,-20.484903,CSI
8901430000000.0,3.1711971759796143,-4.859087944030762,-2.9613306522369385,-9.138554573059082,0.31309226155281067,-1.0137309,-0.86651236,272.6584,168.17481999999998,-20.666874,CSI
8901435000000.0,3.1761951446533203,-4.783323764801025,-3.060229539871216,-9.046748161315918,0.2548994719982147,-0.98746365,-0.89858276,272.22577,167.95581,-20.82938,CSI
8901439000000.0,3.18119478225708,-4.705260753631592,-3.146000862121582,-8.967185020446777,0.19933588802814484,-0.9764681000000001,-0.904386,271.77814,167.75131000000002,-21.015373,CSI
8901445000000.0,3.186196804046631,-4.6267781257629395,-3.2142703533172607,-8.899734497070312,0.14736826717853546,-0.98654735,-0.8891144,271.324,167.56685,-21.164509,CSI
8901450000000.0,3.191209316253662,-4.548797130584717,-3.2625999450683594,-8.844292640686035,0.09773065149784088,-1.0067059,-0.86162543,270.87088,167.39172,-21.309639999999998,CSI
8901455000000.0,3.1962099075317383,-4.473203182220459,-3.2936813831329346,-8.800456047058105,0.05036398023366928,-1.0073168,-0.8491027,270.425,167.24347,-21.421204,CSI
8901460000000.0,3.20125412940979,-4.400554656982422,-3.3054986000061035,-8.770062446594238,0.005879711825400591,-1.0094548,-0.782213,270.0017,167.10338000000002,-21.54082,CSI
8901464000000.0,3.206249237060547,-4.3315606117248535,-3.3054113388061523,-8.748258590698242,-0.035110726952552795,-1.0073168,-0.7519751,269.5866,167.01648,-21.640473999999998,CSI
8901470000000.0,3.2112443447113037,-4.266632080078125,-3.2930846214294434,-8.735002517700195,-0.07354229688644409,-0.9816604,-0.700357,269.1996,166.9414,-21.73751,CSI
8901475000000.0,3.2162415981292725,-4.205555438995361,-3.2690725326538086,-8.729897499084473,-0.10904676467180252,-0.9495899999999999,-0.6404922,268.84354,166.92505,-21.823673,CSI
8901480000000.0,3.221237897872925,-4.145247459411621,-3.2359931468963623,-8.728124618530273,-0.14148713648319244,-0.9202684999999999,-0.5897904,268.5022,166.90988000000002,-21.904352,CSI
8901484000000.0,3.226234197616577,-4.084928035736084,-3.1947529315948486,-8.72843074798584,-0.17180800437927246,-0.91904676,-0.5506949999999999,268.176,166.89937,-21.98536,CSI
8901490000000.0,3.231231689453125,-4.025630474090576,-3.1497411727905273,-8.736820220947266,-0.20025256276130676,-0.9074403,-0.50640726,267.88837,166.9504,-22.05218,CSI
8901495000000.0,3.2362332344055176,-3.9676504135131836,-3.1025214195251465,-8.755127906799316,-0.22596043348312378,-0.8558222,-0.47739118,267.6114,166.99658,-22.107788,CSI
8901500000000.0,3.24122953414917,-3.910646438598633,-3.0521669387817383,-8.780534744262695,-0.24718928337097168,-0.8045095,-0.42638394,267.3702,167.07396,-22.15559,CSI
8901504000000.0,3.2462270259857178,-3.854170799255371,-2.997469663619995,-8.810860633850098,-0.2628268003463745,-0.7535023000000001,-0.36132678,267.1462,167.14224,-22.191128,CSI
8901510000000.0,3.2512259483337402,-3.7987143993377686,-2.9415955543518066,-8.840039253234863,-0.27491262555122375,-0.75228053,-0.31795537,266.9391,167.23065,-22.206244,CSI
8901515000000.0,3.25622296333313,-3.7448673248291016,-2.8881607055664062,-8.861202239990234,-0.28244778513908386,-0.7504479000000001,-0.25625798,266.76117,167.29932,-22.212568,CSI
8901520000000.0,3.2612204551696777,-3.696542739868164,-2.839311122894287,-8.87644100189209,-0.28665146231651306,-0.72784597,-0.18387043,266.6078,167.3918,-22.199888,CSI
8901524000000.0,3.266218900680542,-3.656515598297119,-2.7965478897094727,-8.887384414672852,-0.29001256823539734,-0.7076874,-0.10567969,266.4748,167.48277,-22.191999999999997,CSI
8901529000000.0,3.2712156772613525,-3.6241440773010254,-2.7560524940490723,-8.896577835083008,-0.2935526669025421,-0.6960809,-0.03573562,266.35977,167.56708,-22.189383,CSI
8901535000000.0,3.2762129306793213,-3.5989129543304443,-2.714362859725952,-8.906312942504883,-0.2977668046951294,-0.68325275,0.0421497,266.27222,167.65929,-22.186356,CSI
8901540000000.0,3.2812118530273438,-3.578347682952881,-2.670633554458618,-8.920099258422852,-0.30330270528793335,-0.66553766,0.12217305,266.20447,167.75082,-22.20875,CSI
8901545000000.0,3.286212682723999,-3.5603232383728027,-2.6241769790649414,-8.940857887268066,-0.3082505762577057,-0.6203337,0.20830505,266.1648,167.84546,-22.2247,CSI
8901549000000.0,3.291208505630493,-3.5445003509521484,-2.568751335144043,-8.95921516418457,-0.31116053462028503,-0.5907066999999999,0.2443461,266.13982999999996,167.95604,-22.261385,CSI
8901555000000.0,3.2962074279785156,-3.530534505844116,-2.4942266941070557,-8.961384773254395,-0.3130527138710022,-0.5363397,0.30970868,266.15405,168.08041,-22.28509,CSI
8901560000000.0,3.301208734512329,-3.515619993209839,-2.4092884063720703,-8.958441734313965,-0.31259778141975403,-0.464563,0.3866777,266.19412,168.21677,-22.293098,CSI
8901565000000.0,3.306206703186035,-3.495321273803711,-2.327552556991577,-8.967793464660645,-0.3089604675769806,-0.5338961999999999,0.45081854,266.24323,168.34746,-22.328144,CSI
