timestamp,rel_time,acc_x,acc_y,acc_z,gyro_x,gyro_y,gyro_z,azimuth,pitch,roll,label
0.0,0.0,0.0,0.0,0.0,0.0,-0.06597344599999999,-0.049480084,199.69579,-88.76017,-0.6565423,STD
39317150000.0,1.4925223695172463e-05,-0.0008849590667523444,0.0294994805008173,-0.004461885895580053,-0.00025031468248926103,-0.062002823,-0.048563786,199.7484,-88.86417,-0.64127415,STD
117366284000.0,7.455061131622642e-05,-0.002700408222153783,0.08808944374322891,-0.013299202546477318,-0.0007999680819921196,-0.0580322,-0.04276056599999999,199.80081,-88.965836,-0.62421393,STD
232998160000.0,0.00020700020832009614,-0.005476369988173246,0.1749362051486969,-0.02636243775486946,-0.001638692687265575,-0.070249505,-0.03726278,199.85646,-89.062386,-0.60707945,STD
384540200000.0,0.0004392651899252087,-0.009229260496795177,0.288812518119812,-0.04344332218170166,-0.002770150313153863,-0.07422013,-0.030848695,199.90833999999998,-89.1531,-0.5882458,STD
569854400000.0,0.0007966593257151544,-0.01396208070218563,0.42814040184020996,-0.06428176164627075,-0.004113839473575354,-0.08216137400000001,-0.027794369,199.9646,-89.23899999999999,-0.5689521,STD
786408540000.0,0.001299734110943973,-0.01965993456542492,0.5910415053367615,-0.08857600390911102,-0.005657745525240898,-0.092240654,-0.023518313,200.02232,-89.31898000000001,-0.5476948,STD
1031356400000.0,0.0019676913507282734,-0.02629845216870308,0.775400698184967,-0.11598950624465942,-0.007434350438416004,-0.0983493,-0.021380282999999996,200.0809,-89.39098,-0.5264187,STD
1301623200000.0,0.0028160891961306334,-0.033841151744127274,0.9789276123046875,-0.14616213738918304,-0.009326447732746601,-0.095294975,-0.019242255,200.1394,-89.4546,-0.504182,STD
1593990600000.0,0.0038590701296925545,-0.042221494019031525,1.1992113590240479,-0.17870819568634033,-0.010973651893436909,-0.09162979,-0.016493361,200.19914,-89.50652,-0.48142385,STD
1905178400000.0,0.0051023284904658794,-0.05108392983675003,1.4336562156677246,-0.21312622725963593,-0.012611692771315575,-0.08093964,-0.011911871999999999,200.25568,-89.542,-0.4578085,STD
2231920000000.0,0.006552784703671932,-0.06032681465148926,1.6797980070114136,-0.24902144074440002,-0.014384878799319267,-0.08002335,-0.010995574,200.29512,-90.48201999999999,-0.47708568,STD
2571027600000.0,0.00823531486093998,-0.06984316557645798,1.935230016708374,-0.2859782576560974,-0.015968922525644302,-0.074830994,-0.008552114,200.33014,-90.51726,-0.49408240000000003,STD
2919448700000.0,0.010105972178280354,-0.07955972105264664,2.1976568698883057,-0.32371222972869873,-0.01758640632033348,-0.08246681,-0.008246681,200.36845,-90.56143,-0.51092625,STD
3274308800000.0,0.012184470891952515,-0.08938117325305939,2.4649083614349365,-0.3618531823158264,-0.018894599750638008,-0.0842994,-0.007330383,200.40352,-90.61376,-0.5264049,STD
3632945200000.0,0.014467369765043259,-0.09922859072685242,2.7349774837493896,-0.40009453892707825,-0.02026110328733921,-0.08582657,-0.014966198,200.44054,-90.67128000000001,-0.54378587,STD
3992928600000.0,0.016947723925113678,-0.10903159528970718,3.0060336589813232,-0.43816298246383667,-0.021759886294603348,-0.09560041,-0.009773844,200.48033,-90.7299,-0.55680066,STD
4352076200000.0,0.01961825229227543,-0.11872740834951401,3.2764322757720947,-0.47581470012664795,-0.023387031629681587,-0.11881329,-0.0067195175,200.52423000000002,-90.79236,-0.5721839,STD
4708455400000.0,0.022470558062195778,-0.1282612830400467,3.54471755027771,-0.5128370523452759,-0.02531111054122448,-0.13652839,-0.0067195175,200.56914,-90.853775,-0.5865331,STD
5060381600000.0,0.025496460497379303,-0.1375858634710312,3.8096201419830322,-0.5490461587905884,-0.02685440517961979,-0.15393804,-0.008857545999999999,200.62032,-90.91809,-0.6002856,STD
5406409600000.0,0.028685307130217552,-0.14666210114955902,4.070052623748779,-0.5842903852462769,-0.02863328531384468,-0.16493362,-0.013744468000000001,200.67435,-90.97807,-0.61446244,STD
5745322000000.0,0.03202689066529274,-0.15545761585235596,4.325097560882568,-0.6184439659118652,-0.030857127159833908,-0.19394971,-0.011911871999999999,200.73808,-91.037575,-0.6270588,STD
6076112600000.0,0.03551333397626877,-0.16394540667533875,4.573997974395752,-0.6514021158218384,-0.03313690423965454,-0.20280726,-0.00580322,200.7987,-91.097145,-0.6393734999999999,STD
6397970000000.0,0.039132680743932724,-0.17210613191127777,4.816143989562988,-0.6830896735191345,-0.03575839847326279,-0.22052236,-0.018020526000000002,200.86948999999998,-91.15460999999999,-0.6561683,STD
6710259000000.0,0.04287566617131233,-0.1799246072769165,5.051058292388916,-0.7134477496147156,-0.03851401060819626,-0.24342979999999997,-0.023518313,200.9437,-91.20952,-0.66899544,STD
7012503000000.0,0.04673545062541962,-0.18738938868045807,5.278381824493408,-0.7424318194389343,-0.04096579551696777,-0.25259277,-0.03023783,201.01823000000002,-91.26568,-0.6852661,STD
7304364700000.0,0.05070383846759796,-0.19449381530284882,5.497861862182617,-0.770016074180603,-0.043406035751104355,-0.27397305,-0.029321532999999997,201.102,-91.3179,-0.70065737,STD
7585629500000.0,0.05476303771138191,-0.20123906433582306,5.709339141845703,-0.7962051033973694,-0.046213626861572266,-0.27855456,-0.027794369,201.18266,-91.36914,-0.71727306,STD
7856188300000.0,0.058910761028528214,-0.20762284100055695,5.912731647491455,-0.8209900259971619,-0.04904812574386597,-0.28160888,-0.021685716,201.26808,-91.41971600000001,-0.731954,STD
8116023000000.0,0.06314069777727127,-0.21364730596542358,6.108026504516602,-0.8443792462348938,-0.05196533724665642,-0.2929099,-0.0290161,201.35613999999998,-91.46838000000001,-0.74966705,STD
8365191000000.0,0.0674443244934082,-0.21931789815425873,6.295269012451172,-0.8663938641548157,-0.05453580990433693,-0.29993483,-0.022296581,201.44299999999998,-91.514565,-0.76119053,STD
8603816700000.0,0.07181614637374878,-0.22464066743850708,6.474552631378174,-0.8870575428009033,-0.05725672468543053,-0.301462,-0.019242255,201.53043,-91.55795,-0.7754456000000001,STD
8832074000000.0,0.07624927163124084,-0.22962389886379242,6.646010398864746,-0.9064023494720459,-0.060120392590761185,-0.29962940000000005,-0.017715093,201.6179,-91.60079,-0.7878400999999999,STD
9050182000000.0,0.08073755353689194,-0.23427683115005493,6.809807300567627,-0.9244641661643982,-0.06251692026853561,-0.29321529999999996,-0.007941248,201.70356999999998,-91.64282,-0.7965937,STD
9258392000000.0,0.0852760300040245,-0.2386092245578766,6.966135025024414,-0.9412809014320374,-0.06477363407611847,-0.2941316,-0.004276057,201.78976,-91.68185,-0.806338,STD
9456983000000.0,0.08986300975084305,-0.2426302134990692,7.115203380584717,-0.9568880796432495,-0.06701973080635071,-0.27672195,0.0027488936,201.86801,-91.71933,-0.81183434,STD
9646254000000.0,0.09448929131031036,-0.24635279178619385,7.257238864898682,-0.9713361859321594,-0.06901933997869492,-0.26328292,0.007941248,201.94673,-91.75714,-0.81657237,STD
9826518000000.0,0.09915249049663544,-0.24978743493556976,7.392477989196777,-0.9846658706665039,-0.07059334218502045,-0.24068089999999998,0.010690141499999998,202.01701,-91.79411999999999,-0.81956947,STD
9998097000000.0,0.10384858399629593,-0.25294560194015503,7.5211639404296875,-0.996921718120575,-0.07232837378978729,-0.23548855,0.015577064,202.0877,-91.82739000000001,-0.8203166999999999,STD
10161318000000.0,0.10857638716697693,-0.25583770871162415,7.6435441970825195,-1.0081441402435303,-0.07334525138139725,-0.24007004,0.024740042,202.15407,-91.86508,-0.8188061,STD
10316511000000.0,0.11333009600639343,-0.258476197719574,7.759868144989014,-1.0183814764022827,-0.07361315190792084,-0.22907446,0.02321288,202.21378,-91.902084,-0.8186651999999999,STD
10464006000000.0,0.11810903996229172,-0.2608712911605835,7.8703837394714355,-1.0276734828948975,-0.07389961183071136,-0.2302962,0.022602014,202.27773,-91.936775,-0.81571597,STD
10604127000000.0,0.12291242182254791,-0.2630331814289093,7.97533655166626,-1.0360596179962158,-0.07426752150058746,-0.21533000000000002,0.03573562,202.33338999999998,-91.97256999999999,-0.8089629,STD
10737196000000.0,0.12773497402668,-0.26497381925582886,8.074969291687012,-1.0435864925384521,-0.07404112070798874,-0.21044308,0.040011674,202.3916,-92.01212,-0.80495316,STD
10863526000000.0,0.13257530331611633,-0.2667032778263092,8.169519424438477,-1.0502930879592896,-0.0738101601600647,-0.21563543,0.04062254,202.44798,-92.046776,-0.7981999,STD
10983425000000.0,0.13743481040000916,-0.26823022961616516,8.259217262268066,-1.056213140487671,-0.07376750558614731,-0.21380283,0.040317107000000005,202.50047,-92.082436,-0.7904145,STD
11097190000000.0,0.1423088163137436,-0.2695656716823578,8.344287872314453,-1.061389446258545,-0.07330913096666336,-0.21013765,0.039095376,202.55342,-92.1207,-0.78279054,STD
11205109000000.0,0.14719438552856445,-0.27071961760520935,8.424949645996094,-1.0658607482910156,-0.07272946089506149,-0.19975294,0.043676864,202.60345,-92.1556,-0.7735441999999999,STD
11307463000000.0,0.15208971500396729,-0.27170124650001526,8.501413345336914,-1.0696626901626587,-0.07248584181070328,-0.20311269,0.036651913,202.65576000000001,-92.191086,-0.76810765,STD
11404519000000.0,0.15703745186328888,-0.27253079414367676,8.573847770690918,-1.072891354560852,-0.07170640677213669,-0.19517145,0.04153884,202.70157,-92.229485,-0.75780165,STD
11496537000000.0,0.16195350885391235,-0.27333885431289673,8.64238166809082,-1.0761033296585083,-0.07140336185693741,-0.19211712,0.041233405,202.74915,-92.26194,-0.7510998000000001,STD
11583764000000.0,0.16687984764575958,-0.27413034439086914,8.707181930541992,-1.0793266296386719,-0.07119688391685486,-0.17959438,0.036957346,202.7392,-92.26651,-0.733671,STD
11666439000000.0,0.17180995643138885,-0.2749055325984955,8.768438339233398,-1.0825567245483398,-0.07098501175642014,-0.18112154,0.03726278,202.73256,-92.26909,-0.71547574,STD
11744790000000.0,0.17674928903579712,-0.2756657600402832,8.826324462890625,-1.0857969522476196,-0.07102695107460022,-0.16646078,0.035124752999999995,202.71785,-92.27060999999999,-0.6992041,STD
11819036000000.0,0.18169553577899933,-0.27641159296035767,8.881011009216309,-1.089045524597168,-0.0712771937251091,-0.15851954,0.03481932,202.70571999999999,-92.272255,-0.6827191,STD
11889384000000.0,0.1866450011730194,-0.2771434485912323,8.932662963867188,-1.0922999382019043,-0.0716439038515091,-0.15241088,0.03573562,202.69012,-92.27325400000001,-0.66666114,STD
11956033000000.0,0.19159960746765137,-0.2778622508049011,8.981433868408203,-1.095561146736145,-0.07179682701826096,-0.12889257,0.03848451,202.66756,-92.274826,-0.6501992,STD
12019174000000.0,0.19655832648277283,-0.2785685956478119,9.027472496032715,-1.0988283157348633,-0.07231466472148895,-0.118202426,0.03848451,202.64717,-92.27308000000001,-0.6346459,STD
12078986000000.0,0.20152054727077484,-0.27926307916641235,9.070919036865234,-1.1021009683609009,-0.07257808744907379,-0.11178834,0.036957346,202.62167,-92.27546,-0.61886895,STD
12135642000000.0,0.2064896523952484,-0.2799466550350189,9.111905097961426,-1.1053811311721802,-0.07279515266418457,-0.09468412,0.036957346,202.5905,-92.2749,-0.6027581999999999,STD
12189305000000.0,0.2114613801240921,-0.2806195318698883,9.15056037902832,-1.1086658239364624,-0.07337411493062973,-0.09040806,0.03604105,202.56158,-92.273705,-0.5877446,STD
12240130000000.0,0.21643787622451782,-0.2812824845314026,9.187005043029785,-1.1119563579559326,-0.07374384254217148,-0.08979719,0.04184427,202.52943,-92.27516999999999,-0.57099533,STD
12288266000000.0,0.22141757607460022,-0.2819358706474304,9.221354484558105,-1.1152514219284058,-0.07425642013549805,-0.08796459400000001,0.03940081,202.49611000000002,-92.27369,-0.5571371,STD
12333853000000.0,0.22643516957759857,-0.2825835645198822,9.253697395324707,-1.1185742616653442,-0.07469312101602554,-0.08857546,0.0421497,202.46397,-92.27359,-0.5405004,STD
12377024000000.0,0.23141422867774963,-0.28321871161460876,9.284184455871582,-1.1218734979629517,-0.07520416378974915,-0.0842994,0.04184427,202.43039,-92.27239,-0.5256997,STD
12417906000000.0,0.23639579117298126,-0.2838457226753235,9.312889099121094,-1.1251765489578247,-0.076240673661232,-0.07941248,0.03756821,202.3973,-92.26924,-0.51158965,STD
12456619000000.0,0.24137920141220093,-0.284464955329895,9.33990478515625,-1.1284828186035156,-0.07727095484733582,-0.06658431,0.04184427,202.36133999999998,-92.26782,-0.49532124,STD
12493278000000.0,0.24636369943618774,-0.285076767206192,9.365321159362793,-1.1317917108535767,-0.07829532027244568,-0.052839845,0.03634648,202.3241,-92.26455,-0.48332529999999996,STD
12527990000000.0,0.25134754180908203,-0.2856813669204712,9.389223098754883,-1.1351020336151123,-0.07900514453649521,-0.036651913,0.04062254,202.28322,-92.261955,-0.46748465,STD
12560858000000.0,0.2563355565071106,-0.2862796187400818,9.411687850952148,-1.1384167671203613,-0.08021386712789536,-0.020463986,0.044593163,202.23897,-92.255424,-0.4534678,STD
12591981000000.0,0.261324405670166,-0.2868715524673462,9.432793617248535,-1.1417337656021118,-0.08176492899656296,-0.009162978,0.03970624,202.19215,-92.251335,-0.44097929999999996,STD
12621449000000.0,0.26631420850753784,-0.28745752573013306,9.452611923217773,-1.1450529098510742,-0.08310342580080032,0.003970624,0.04550946,202.1411,-92.24663000000001,-0.42446855,STD
12649351000000.0,0.27130576968193054,-0.2880379259586334,9.471210479736328,-1.1483746767044067,-0.08422437310218811,0.022907447,0.042455133,202.08578,-92.24083,-0.41205853,STD
12675769000000.0,0.2762978971004486,-0.288612961769104,9.488654136657715,-1.151698112487793,-0.08575743436813354,0.04276056599999999,0.052839845,202.02753,-92.231674,-0.39437306,STD
12700781000000.0,0.2812899947166443,-0.2891828417778015,9.505003929138184,-1.1550228595733643,-0.08732282370328903,0.05222898,0.05161811400000001,201.96759,-92.22613,-0.38116062,STD
12724465000000.0,0.2862824499607086,-0.28974786400794983,9.520318984985352,-1.1583490371704102,-0.08849582076072693,0.04886922,0.05009095,201.90675,-92.22008000000001,-0.36542952,STD
12746887000000.0,0.2912750542163849,-0.29030829668045044,9.534653663635254,-1.1616765260696411,-0.08986671268939972,0.05131268,0.05100725,201.8426,-92.210625,-0.34961477,STD
12768117000000.0,0.2962785065174103,-0.29086539149284363,9.548052787780762,-1.1650123596191406,-0.09126226603984833,0.052839845,0.049785517,201.78063999999998,-92.20405,-0.33530527,STD
12788217000000.0,0.30127108097076416,-0.29141730070114136,9.560579299926758,-1.1683419942855835,-0.09255100041627884,0.061086524,0.05009095,201.71707,-92.19693000000001,-0.32060817,STD
12807246000000.0,0.3062652051448822,-0.29196545481681824,9.572272300720215,-1.1716736555099487,-0.0935758650302887,0.07238753,0.043066,201.6531,-92.190735,-0.30870557,CSI
12825264000000.0,0.31125906109809875,-0.29250985383987427,9.58317756652832,-1.1750060319900513,-0.0948878824710846,0.09162979,0.05009095,201.58566000000002,-92.1815,-0.29291478,CSI
12842322000000.0,0.3162529766559601,-0.29305076599121094,9.593337059020996,-1.1783393621444702,-0.09699250757694244,0.08704830000000001,0.048563786,201.52268999999998,-92.17132600000001,-0.28207174,CSI
12858473000000.0,0.3212519586086273,-0.2935888171195984,9.60278606414795,-1.1816768646240234,-0.09865958988666534,0.093462385,0.04184427,201.4522,-92.1658,-0.27077872,CSI
12873763000000.0,0.32625073194503784,-0.29412370920181274,9.611566543579102,-1.185015082359314,-0.10082374513149261,0.105374254,0.033292156,201.38248000000002,-92.15124,-0.2608356,CSI
12888238000000.0,0.331245481967926,-0.2946552336215973,9.61971664428711,-1.1883512735366821,-0.10339341312646866,0.10995574,0.028099801,201.31406,-92.1391,-0.25220808,CSI
12901943000000.0,0.33624374866485596,-0.29518428444862366,9.627264022827148,-1.1916905641555786,-0.10571228712797165,0.12644911,0.022907447,201.23982,-92.127815,-0.24608649999999999,CSI
12914918000000.0,0.34123992919921875,-0.2957104444503784,9.634244918823242,-1.1950291395187378,-0.1086074635386467,0.13744467,0.013744468000000001,201.16685,-92.11,-0.24287969,CSI
12927204000000.0,0.34623658657073975,-0.296234130859375,9.640687942504883,-1.1983686685562134,-0.11108801513910294,0.15149458,0.016798794,201.08948,-92.09801,-0.23771599,CSI
12938834000000.0,0.35123211145401,-0.296755313873291,9.646622657775879,-1.2017080783843994,-0.11415253579616547,0.16035213,0.0076358155,201.01138,-92.07812,-0.23883189999999999,CSI
12949845000000.0,0.3562299311161041,-0.29716500639915466,9.652057647705078,-1.2050000429153442,-0.11708635091781616,0.15943582,0.0018325957999999999,200.93335,-92.06339,-0.23830426,CSI
12960270000000.0,0.36122673749923706,-0.2962592542171478,9.656835556030273,-1.207698106765747,-0.1200266182422638,0.17745635,-0.004886922,200.84845,-92.04488,-0.24057192,CSI
12970140000000.0,0.3662376403808594,-0.294034868478775,9.660969734191895,-1.2098102569580078,-0.12310320883989334,0.17715092,-0.005497787,200.77249,-92.04120999999999,-0.24554348,CSI
12979483000000.0,0.37123972177505493,-0.29066991806030273,9.664525985717773,-1.2114025354385376,-0.12686222791671753,0.18295415,-0.0030543262,200.69077,-92.03387,-0.25135008,CSI
12988330000000.0,0.3762397766113281,-0.2861945331096649,9.667526245117188,-1.2124927043914795,-0.1305023431777954,0.18967366,-0.0033597588,200.60997,-92.02925,-0.2581393,CSI
12996705000000.0,0.38123592734336853,-0.28067746758461,9.670001983642578,-1.2131105661392212,-0.13394851982593536,0.20341812,0.0021380284,200.52675,-92.02044000000001,-0.26249704,CSI
13004635000000.0,0.3862321972846985,-0.27415549755096436,9.671977043151855,-1.2132753133773804,-0.13734127581119537,0.22999077,0.009468411,200.43912,-92.010635,-0.26627925,CSI
13012141000000.0,0.391231894493103,-0.266666054725647,9.673473358154297,-1.213005781173706,-0.1401626169681549,0.25625798,0.01038471,200.34883,-92.00386,-0.27029118,CSI
13019249000000.0,0.3962305784225464,-0.25828149914741516,9.674521446228027,-1.212332010269165,-0.14354979991912842,0.28802297,0.008857545999999999,200.25075,-91.99054,-0.27275264,CSI
13025977000000.0,0.40122902393341064,-0.24904587864875793,9.675145149230957,-1.2112741470336914,-0.14706574380397797,0.3210097,0.028405233999999998,200.14643999999998,-91.980774,-0.26881242,CSI
13032348000000.0,0.4062284827232361,-0.23899856209754944,9.67536449432373,-1.2098509073257446,-0.1511756181716919,0.34819320000000004,0.03573562,200.0361,-91.96546,-0.26875272,CSI
13038380000000.0,0.41122764348983765,-0.22818905115127563,9.675203323364258,-1.2080836296081543,-0.15508277714252472,0.37415496,0.036651913,199.9185,-91.952354,-0.26494142,CSI
13044090000000.0,0.41622722148895264,-0.21665431559085846,9.674680709838867,-1.2059895992279053,-0.15928630530834198,0.37507126,0.04734206,199.80225,-91.9322,-0.25660425,CSI
13049497000000.0,0.4212295711040497,-0.20442157983779907,9.673812866210938,-1.2035824060440063,-0.1638355255126953,0.36560285,0.06017022599999999,199.68347,-91.91189,-0.24763954,CSI
13054615000000.0,0.42622870206832886,-0.19155636429786682,9.672625541687012,-1.2008880376815796,-0.1686469167470932,0.35735616,0.06688975,199.56599999999997,-91.88951999999999,-0.23780228,CSI
13059461000000.0,0.4312276244163513,-0.17807859182357788,9.671133041381836,-1.1979172229766846,-0.17362511157989502,0.35216382,0.073303826,199.4523,-91.86463,-0.22495538,CSI
13064049000000.0,0.4362283945083618,-0.16401103138923645,9.669347763061523,-1.1946815252304077,-0.17845195531845093,0.35185838,0.08399397,199.34145,-91.83894000000001,-0.20953360000000001,CSI
13068393000000.0,0.4412277936935425,-0.14940020442008972,9.667290687561035,-1.1912000179290771,-0.18341223895549774,0.3475823,0.093462385,199.23498999999998,-91.81004,-0.19327421,CSI
13072506000000.0,0.4462268650531769,-0.13427037000656128,9.664974212646484,-1.1874841451644897,-0.18822212517261505,0.35796702,0.10751228,199.12627,-91.782265,-0.17311479999999999,CSI
13076399000000.0,0.4512237012386322,-0.11865855008363724,9.66241455078125,-1.1835495233535767,-0.19318261742591858,0.37140608,0.12125675400000001,199.01965,-91.75140999999999,-0.15099089,CSI
13080086000000.0,0.4562232494354248,-0.10256678611040115,9.659618377685547,-1.1794002056121826,-0.1969672441482544,0.3915646,0.11636983,198.90984,-91.72797,-0.13073505,CSI
13083577000000.0,0.4612230062484741,-0.08603234589099884,9.656601905822754,-1.1750513315200806,-0.19976887106895447,0.39858958,0.119729586,198.8019,-91.702095,-0.1049664,CSI
13086881000000.0,0.46622252464294434,-0.0690808966755867,9.653376579284668,-1.1705142259597778,-0.20188406109809875,0.40378192,0.119729586,198.69048999999998,-91.6808,-0.08213561,CSI
13090010000000.0,0.4712234437465668,-0.05172661319375038,9.649951934814453,-1.1657962799072266,-0.20401674509048462,0.40866885,0.1255328,198.5791,-91.66073,-0.057348832,CSI
13092972000000.0,0.4762229919433594,-0.03400421887636185,9.646342277526855,-1.1609114408493042,-0.20536839962005615,0.42180246,0.12156218,198.46565,-91.648544,-0.035942163,CSI
13095777000000.0,0.4812663197517395,-0.015713462606072426,9.642495155334473,-1.1557974815368652,-0.20497147738933563,0.43004912,0.122478485,198.35416999999998,-91.64166999999999,-0.012194446999999999,CSI
13098432000000.0,0.48626673221588135,0.0027039574924856424,9.63853931427002,-1.150599718093872,-0.20293542742729187,0.4456262,0.112704635,198.23862,-91.63884,0.006850679,CSI
13100946000000.0,0.49126413464546204,0.02142477221786976,9.634428977966309,-1.1452633142471313,-0.1995917558670044,0.4636467000000001,0.11209377,198.12201000000002,-91.64399999999999,0.028232586,CSI
13103327000000.0,0.49626147747039795,0.04044632986187935,9.630168914794922,-1.1397911310195923,-0.1965402215719223,0.4718934,0.10170906,198.00558,-91.64979,0.043510865,CSI
13105580000000.0,0.5012590885162354,0.059754155576229095,9.625765800476074,-1.1341900825500488,-0.19319553673267365,0.49174652,0.08521569999999999,197.88266000000002,-91.66594,0.056599215,CSI
13107714000000.0,0.5062558650970459,0.07932779937982559,9.62122917175293,-1.128468632698059,-0.19071274995803833,0.50915617,0.08002335,197.76012,-91.67513000000001,0.06952621,CSI
13109734000000.0,0.5112538933753967,0.09916297346353531,9.61656379699707,-1.122630000114441,-0.1889808177947998,0.5665775,0.07391469,197.62233999999998,-91.68659,0.07760975,CSI
13111648000000.0,0.5162517428398132,0.11923923343420029,9.611778259277344,-1.116682529449463,-0.18924562633037567,0.6267477,0.0711658,197.48088,-91.68719499999999,0.08497184,CSI
13113460000000.0,0.5212516188621521,0.13955439627170563,9.6068754196167,-1.1106284856796265,-0.19070084393024445,0.70188415,0.07819075,197.32103,-91.68809499999999,0.093637645,CSI
13115175000000.0,0.5262497663497925,0.1600777804851532,9.601866722106934,-1.1044795513153076,-0.19375507533550262,0.7312057,0.08735373,197.15958,-91.67628,0.10180742,CSI
13116800000000.0,0.5312484502792358,0.18080922961235046,9.596755027770996,-1.0982370376586914,-0.19676047563552856,0.7699956,0.09743301,196.97678,-91.66671,0.112447165,CSI
13118338000000.0,0.5362468957901001,0.20173373818397522,9.591547012329102,-1.0919073820114136,-0.20009402930736542,0.7861836,0.112399206,196.79506999999998,-91.64683000000001,0.12652081,CSI
13119794000000.0,0.5412454009056091,0.22284232079982758,9.586246490478516,-1.0854946374893188,-0.20338015258312225,0.80573124,0.12583824,196.60443,-91.62892,0.14270328,CSI
13121173000000.0,0.5462436079978943,0.24412360787391663,9.580860137939453,-1.0790038108825684,-0.206084206700325,0.8222246,0.16187929,196.41342,-91.61286,0.1689757,CSI
13122479000000.0,0.5512826442718506,0.26576876640319824,9.575334548950195,-1.0723743438720703,-0.20776519179344177,0.8533788,0.20738874,196.21597,-91.60022,0.20124169,CSI
13123715000000.0,0.5562931299209595,0.2870723009109497,9.56972599029541,-1.0656812191009521,-0.2079404592514038,0.86009824,0.22235495,196.02411,-91.59373000000001,0.234008,CSI
13124885000000.0,0.5612888336181641,0.30403849482536316,9.563509941101074,-1.0584747791290283,-0.2076343446969986,0.8707884,0.24892759999999997,195.82611,-91.5904,0.28216988,CSI
13125994000000.0,0.5662853717803955,0.3167104125022888,9.556665420532227,-1.0507313013076782,-0.2046099454164505,0.89644474,0.27305678,195.61171000000002,-91.60558,0.43932380000000004,CSI
13127043000000.0,0.571283757686615,0.32530340552330017,9.549221992492676,-1.0424758195877075,-0.20026549696922302,0.93492925,0.28955013,195.39609,-91.63311999999999,0.59852415,CSI
13128037000000.0,0.576279878616333,0.3300855755805969,9.541226387023926,-1.0337493419647217,-0.1944597214460373,0.97127575,0.31429017,195.17944,-91.692375,0.76365095,CSI
13128979000000.0,0.5812767744064331,0.331222802400589,9.532697677612305,-1.0245667695999146,-0.18751467764377594,1.0045679,0.32314770000000004,194.95816000000002,-91.76886999999999,0.92565805,CSI
13129870000000.0,0.5862738490104675,0.3289167582988739,9.523666381835938,-1.0149545669555664,-0.17931202054023743,1.0299188,0.34269542,194.73466000000002,-91.867935,1.0944181999999998,CSI
13130714000000.0,0.5912709832191467,0.32335230708122253,9.514159202575684,-1.00493586063385,-0.16939789056777954,1.0421360999999998,0.35308012,194.51111,-91.98179,1.259665,CSI
13131513000000.0,0.5962679386138916,0.31470581889152527,9.504202842712402,-0.994533121585846,-0.15869364142417908,1.058324,0.37995818,194.28513999999998,-92.109634,1.4318459,CSI
13132270000000.0,0.6012659072875977,0.30312666296958923,9.493816375732422,-0.983762800693512,-0.14785993099212646,1.0650436,0.39095375,194.06403999999998,-92.244865,1.5989225,CSI
13132988000000.0,0.6062636971473694,0.28878530859947205,9.483027458190918,-0.9726483225822449,-0.13669204711914062,1.0641272,0.40866885,193.84642,-92.39354,1.7720731,CSI
13133667000000.0,0.6112613677978516,0.2718289792537689,9.471857070922852,-0.9612079858779907,-0.12589144706726074,1.0732902,0.42271876,193.62965,-92.543755,1.9438375,CSI
13134310000000.0,0.6162594556808472,0.2523895800113678,9.460323333740234,-0.9494572281837463,-0.11542227864265442,1.0735956,0.44165558,193.42136000000002,-92.70135,2.1183796000000004,CSI
13134919000000.0,0.6213011145591736,0.2300514578819275,9.448290824890137,-0.9372636079788208,-0.10497388988733292,1.0775663,0.45356745,193.21486000000002,-92.86086999999999,2.2914002,CSI
13135496000000.0,0.6262972354888916,0.2060711681842804,9.436097145080566,-0.9249501824378967,-0.09521254152059555,1.0806206,0.46975538,193.01405,-93.0226,2.4673743,CSI
13136042000000.0,0.6312933564186096,0.17998890578746796,9.42359733581543,-0.9123746752738953,-0.08603651076555252,1.1078042,0.47464229999999996,192.81042,-93.184296,2.6401067000000005,CSI
13136560000000.0,0.6362902522087097,0.1519065499305725,9.41080379486084,-0.8995482921600342,-0.07760993391275406,1.142318,0.4841107,192.60915,-93.34763000000001,2.815181,CSI
13137051000000.0,0.6412851810455322,0.1219651848077774,9.39774227142334,-0.8864937424659729,-0.06847673654556274,1.1801916000000001,0.49754974,192.40436,-93.51453000000001,2.989407,CSI
13137515000000.0,0.6462807059288025,0.09023276716470718,9.384418487548828,-0.8732147216796875,-0.05878852680325508,1.2211196000000002,0.50854534,192.1941,-93.67934,3.1622837,CSI
13137955000000.0,0.6512749791145325,0.05682775005698204,9.37085247039795,-0.8597294688224792,-0.04831443727016449,1.2495247999999999,0.52839845,191.98216000000002,-93.85058000000001,3.3380985,CSI
13138371000000.0,0.6562705039978027,0.02180882729589939,9.357048988342285,-0.8460407257080078,-0.03610343486070633,1.2837333999999998,0.54733527,191.7624,-94.026505,3.5135680000000002,CSI
13138766000000.0,0.6612666249275208,-0.014731227420270443,9.343022346496582,-0.8321611285209656,-0.022508524358272552,1.3060299,0.5555819000000001,191.54355,-94.20386500000001,3.6881013,CSI
13139141000000.0,0.6662628650665283,-0.05270593613386154,9.32878589630127,-0.8181023597717285,-0.00623615738004446,1.3359623,0.5717699,191.31865,-94.39354,3.8670654000000004,CSI
13139495000000.0,0.6712599396705627,-0.09204696118831635,9.314349174499512,-0.8038716912269592,0.012196596711874008,1.3662001,0.5849035,191.093,-94.58465,4.0440903,CSI
13139831000000.0,0.676257312297821,-0.13267607986927032,9.299723625183105,-0.7894798517227173,0.03330942243337631,1.3997977,0.59895337,190.86378,-94.78599,4.222795,CSI
13140148000000.0,0.6812540888786316,-0.17451314628124237,9.28492259979248,-0.7749384641647339,0.05608051270246506,1.4468343000000001,0.605062,190.62796,-94.98959,4.3999143,CSI
13140449000000.0,0.6862478256225586,-0.21746264398097992,9.269965171813965,-0.7602640390396118,0.08016105741262436,1.5173893,0.6001751000000001,190.38173999999998,-95.198006,4.5751038,CSI
13140735000000.0,0.6912401914596558,-0.2614842653274536,9.254853248596191,-0.7454584240913391,0.10525339096784592,1.5958854,0.59406644,190.12593,-95.40956,4.748958999999999,CSI
13141005000000.0,0.6962326765060425,-0.3065391182899475,9.239590644836426,-0.7305237054824829,0.13029439747333527,1.6713273999999998,0.58184916,189.85696000000002,-95.61764000000001,4.9171915,CSI
13141262000000.0,0.7012253999710083,-0.3525734841823578,9.224184036254883,-0.7154663801193237,0.15409855544567108,1.7385224999999997,0.57787853,189.5745,-95.8245,5.083715,CSI
13141505000000.0,0.7062187790870667,-0.39953991770744324,9.208641052246094,-0.7002917528152466,0.17481106519699097,1.8188512,0.5488624,189.27292,-96.01576999999999,5.237610299999999,CSI
13141736000000.0,0.7112123370170593,-0.4473839998245239,9.19296932220459,-0.6850072741508484,0.1910177767276764,1.8842138,0.5183192,188.96329,-96.197136,5.387487,CSI
13141954000000.0,0.7162059545516968,-0.4960575997829437,9.177176475524902,-0.6696192026138306,0.20108693838119507,1.9339993999999998,0.46975538,188.64153000000002,-96.35251600000001,5.5216603,CSI
13142161000000.0,0.7212020754814148,-0.5455469489097595,9.161260604858398,-0.6541247963905334,0.20402716100215912,1.9446895,0.43218717,188.31916999999999,-96.48631999999999,5.647416000000001,CSI
13142357000000.0,0.7261966466903687,-0.5957598686218262,9.145241737365723,-0.6385429501533508,0.2035389393568039,1.9566013999999998,0.408058,187.98883,-96.60266999999999,5.760829,CSI
13142542000000.0,0.7311913967132568,-0.6466774344444275,9.129118919372559,-0.6228730082511902,0.1978679895401001,1.9217819999999999,0.3735441,187.67505,-96.68167,5.8566957,CSI
13142718000000.0,0.7361927032470703,-0.6983439922332764,9.112875938415527,-0.6070974469184875,0.19249925017356873,1.8445076,0.36285394,187.53977879001098,-96.7114036983451,5.9008303477257,CSI
13142886000000.0,0.7411924600601196,-0.7506214380264282,9.096546173095703,-0.5912485122680664,0.17963606119155884,1.7342464,0.35094208,187.40833999999998,-96.74029499999999,5.943714599999999,CSI
13143045000000.0,0.7461903095245361,-0.8034712076187134,9.0801362991333,-0.5753317475318909,0.16776765882968903,1.6087136,0.34300083,187.13991000000001,-96.799675,6.022755,CSI
13143196000000.0,0.7511874437332153,-0.8568762540817261,9.06364631652832,-0.5593470931053162,0.15807810425758362,1.493871,0.33750305,186.92708000000002,-96.83651,6.090523,CSI
13143338000000.0,0.7561984062194824,-0.9102269411087036,9.047234535217285,-0.5433683395385742,0.15067915618419647,1.4086553,0.30695978,186.74559,-96.86553,6.1451306,CSI
13143473000000.0,0.7611976861953735,-0.9543586373329163,9.033364295959473,-0.528873860836029,0.14530225098133087,1.3585643,0.29016098,186.59073,-96.8992,6.1989540000000005,CSI
13143602000000.0,0.7661969661712646,-0.9894845485687256,9.02197265625,-0.5158121585845947,0.14061883091926575,1.2983941,0.2611449,186.29832,-96.65796,5.9807987,CSI
13143724000000.0,0.7711980938911438,-1.0160406827926636,9.012939453125,-0.5041112303733826,0.13511070609092712,1.2556334999999998,0.24220806,186.0188,-96.41814000000001,5.761675,CSI
13143839000000.0,0.7761973142623901,-1.034572958946228,9.006115913391113,-0.4936896860599518,0.128398597240448,1.2751812,0.22266038,185.74142,-96.173676,5.535815,CSI
13143949000000.0,0.7811965346336365,-1.0454649925231934,9.001395225524902,-0.4844837188720703,0.12005836516618729,1.3454306999999999,0.21868975,185.46457,-95.92781,5.3109126,CSI
13144053000000.0,0.7861973643302917,-1.0490840673446655,8.998675346374512,-0.4764325022697449,0.10840253531932831,1.4376712999999999,0.20922135,185.17831,-95.670975,5.0812063,CSI
13144152000000.0,0.7911968231201172,-1.0458883047103882,8.997832298278809,-0.46946749091148376,0.09351015090942383,1.5015068,0.20922135,184.88329,-95.41385,4.855321400000001,CSI
13144246000000.0,0.7961961627006531,-1.0362129211425781,8.998772621154785,-0.46353358030319214,0.07501653581857681,1.5653422,0.1777618,184.56482,-95.13937,4.620307,CSI
13144335000000.0,0.8011953830718994,-1.020403265953064,9.0014009475708,-0.4585758149623871,0.05233230069279671,1.6032158,0.14172074,184.2392,-94.85636,4.3856454000000005,CSI
13144420000000.0,0.8061951398849487,-0.9987702965736389,9.005632400512695,-0.4545437693595886,0.02459019236266613,1.5775595,0.11911872,183.91724,-94.56023,4.1470294,CSI
13144501000000.0,0.8111961483955383,-0.9716057181358337,9.011385917663574,-0.45138993859291077,-0.00785885564982891,1.5109752,0.09743301,183.59972,-94.24866999999999,3.8995839999999995,CSI
13144578000000.0,0.8161971569061279,-0.9392322301864624,9.018572807312012,-0.4490647614002228,-0.042110785841941833,1.3756685,0.10262536,183.31285,-93.93678,3.6538758000000002,CSI
13144650000000.0,0.8212004899978638,-0.9018715620040894,9.027132034301758,-0.4475296437740326,-0.07697894424200058,1.2916746000000001,0.08552113,183.03297,-93.61081,3.3968682,CSI
13144719000000.0,0.8262020349502563,-0.859887957572937,9.036964416503906,-0.44673267006874084,-0.11042837053537369,1.0824533,0.074830994,182.83008,-93.29449,3.143191,CSI
13144785000000.0,0.8312035202980042,-0.8134878873825073,9.048012733459473,-0.4466384947299957,-0.14183473587036133,0.8313876,0.064446285,182.6648,-92.98189,2.886279,CSI
13144847000000.0,0.8362073302268982,-0.762846827507019,9.060227394104004,-0.44721558690071106,-0.1707860678434372,0.6426301999999999,0.046120327,182.54208,-92.67714000000001,2.6260705,CSI
13144906000000.0,0.8412081599235535,-0.7083198428153992,9.073512077331543,-0.4484153687953949,-0.19733180105686188,0.52320606,0.025961772999999997,182.47061000000002,-92.38410999999999,2.364872,CSI
13144962000000.0,0.8462086915969849,-0.6500515341758728,9.0878267288208,-0.450210839509964,-0.2222675085067749,0.43554693,0.004886922,182.44232,-92.103386,2.1013593999999998,CSI
13145016000000.0,0.8512067794799805,-0.5882944464683533,9.103102684020996,-0.4525650143623352,-0.24584177136421204,0.38637227,-0.003970624,182.43488,-88.15751999999999,1.8393286,CSI
13145067000000.0,0.8562076687812805,-0.5231068134307861,9.119321823120117,-0.4554607570171356,-0.2681271433830261,0.38851030000000003,-0.009468411,182.4351,-88.3952,1.576231,CSI
13145115000000.0,0.8612081408500671,-0.45474863052368164,9.136414527893066,-0.4588615596294403,-0.28860631585121155,0.3930918,0.016798794,182.4458,-88.58959,1.3238258,CSI
13145162000000.0,0.8662082552909851,-0.3833875358104706,9.154333114624023,-0.4627406597137451,-0.30682215094566345,0.42058071,0.028710667000000002,182.4466,-88.74096999999999,1.0697652,CSI
13145206000000.0,0.871209979057312,-0.30913564562797546,9.173047065734863,-0.4670772850513458,-0.322602242231369,0.46303585,0.048258353,182.43913,-88.82545,0.8292255999999999,CSI
13145248000000.0,0.8762404918670654,-0.2314656525850296,9.192691802978516,-0.47191470861434937,-0.3367600440979004,0.49113566,0.055283304000000005,182.4257,-88.843956,0.59220946,CSI
13145287000000.0,0.881239652633667,-0.152023583650589,9.212835311889648,-0.47708094120025635,-0.3507004976272583,0.5140431,0.064446285,182.39972,-88.79443,0.3648203,CSI
13145325000000.0,0.8862420916557312,-0.07008013129234314,9.23366641998291,-0.48264023661613464,-0.36493977904319763,0.5332854,0.069027774,182.36518999999998,-88.69250500000001,0.14147888,CSI
13145362000000.0,0.8912407755851746,0.014059743843972683,9.25510311126709,-0.48855456709861755,-0.37993401288986206,0.52626044,0.063224554,182.33033999999998,-88.5458,-0.07882839999999999,CSI
13145396000000.0,0.8962393999099731,0.10036547482013702,9.277135848999023,-0.49481362104415894,-0.3941291570663452,0.52748215,0.059253927000000005,182.28645,-88.375404,-0.29420117,CSI
13145430000000.0,0.9012377858161926,0.1887189894914627,9.29973316192627,-0.5013988018035889,-0.4082840085029602,0.54519725,0.037873644,182.23892,-88.1752,-0.51308155,CSI
13145461000000.0,0.9062371253967285,0.27903908491134644,9.322871208190918,-0.5082954168319702,-0.4231494665145874,0.5907066999999999,0.027488936000000002,182.18198999999998,-87.96149399999999,-0.7270085999999999,CSI
13145492000000.0,0.9112359881401062,0.37118637561798096,9.346511840820312,-0.5154834985733032,-0.4395015239715576,0.62125,0.019242255,182.12351999999998,-87.73269,-0.9432427999999999,CSI
13145521000000.0,0.9162349700927734,0.46507811546325684,9.370633125305176,-0.5229489803314209,-0.4569028615951538,0.6554584,0.010690141499999998,182.0504,-87.49478,-1.1598182,CSI
13145549000000.0,0.9212369918823242,0.5606945157051086,9.395227432250977,-0.5306842923164368,-0.47516733407974243,0.67011917,-0.0027488936,181.97382,-87.24481,-1.3771394,CSI
13145575000000.0,0.9262359142303467,0.6577946543693542,9.420231819152832,-0.5386602878570557,-0.4930444359779358,0.70188415,-0.004886922,181.8822,-86.99355,-1.5911677,CSI
13145600000000.0,0.9312354326248169,0.7563872337341309,9.445646286010742,-0.5468728542327881,-0.5110105872154236,0.75441855,-0.0033597588,181.78036,-86.73345,-1.8054035,CSI
13145624000000.0,0.9362382888793945,0.8564619421958923,9.471467971801758,-0.5553162097930908,-0.5280029773712158,0.7715228,0.01863139,181.6793,-86.481995,-2.0113328,CSI
13145647000000.0,0.9412374496459961,0.957769513130188,9.49763011932373,-0.5639612078666687,-0.5443665385246277,0.77488256,0.052534412999999995,181.56725,-86.23105,-2.2110124,CSI
13145669000000.0,0.9462535381317139,1.0607538223266602,9.524248123168945,-0.5728476643562317,-0.5585232973098755,0.8426886,0.046731193,181.43256,-85.98849,-2.414205,CSI
13145690000000.0,0.9512492418289185,1.1644153594970703,9.55105972290039,-0.5818724036216736,-0.5705583095550537,0.9202684999999999,0.032986722999999996,181.29436,-85.75352,-2.6077127,CSI
13145711000000.0,0.9562423229217529,1.26913583278656,9.578163146972656,-0.5910694599151611,-0.5800800323486328,0.93279123,0.033292156,181.15625,-85.53192,-2.7963438,CSI
13145731000000.0,0.9612407684326172,1.367798089981079,9.603696823120117,-0.5985559821128845,-0.5871084332466125,0.9407325000000001,0.035430185,180.99886,-85.31828,-2.9869783,CSI
13145750000000.0,0.9662396311759949,1.4592949151992798,9.627370834350586,-0.6040688753128052,-0.5924763679504395,0.8857546000000001,0.025045475,180.85764,-85.110725,-3.1775696,CSI
13145768000000.0,0.9712433815002441,1.543976068496704,9.649275779724121,-0.6076869368553162,-0.5963863134384155,0.7883216,0.03634648,180.9015,-85.3562,-2.7555285,CSI
13145785000000.0,0.976243793964386,1.6222612857818604,9.669520378112793,-0.6095576882362366,-0.5974020957946777,0.67164636,0.04642576,180.96573999999998,-85.57791,-2.3468558999999996,CSI
13145802000000.0,0.9812425971031189,1.6944806575775146,9.688190460205078,-0.6097654104232788,-0.5953361392021179,0.51893,0.06750060599999999,181.06622,-85.77476999999999,-1.9403949,CSI
13145818000000.0,0.9862428903579712,1.7609362602233887,9.705364227294922,-0.6083811521530151,-0.5905317664146423,0.44959682,0.076052725,181.174,-85.94654,-1.544704,CSI
13145834000000.0,0.9912415742874146,1.8219560384750366,9.721126556396484,-0.6055070757865906,-0.5833464860916138,0.36743546,0.08277224,181.3257,-86.09622,-1.1508937,CSI
13145848000000.0,0.9962406754493713,1.8778164386749268,9.735549926757812,-0.6012115478515625,-0.5738421082496643,0.29626966,0.09987647,181.49031000000002,-86.22272,-0.76074886,CSI
13145863000000.0,1.001239538192749,1.9287970066070557,9.748706817626953,-0.5955740809440613,-0.5624514818191528,0.28099802,0.095294975,181.65894,-86.32028000000001,-0.38426188,CSI
13145877000000.0,1.0062388181686401,1.975152850151062,9.760663032531738,-0.5886620879173279,-0.5496332049369812,0.31490102,0.10048734,181.82932,-86.39043000000001,-0.009328331,CSI
13145890000000.0,1.0112378597259521,2.01713490486145,9.771483421325684,-0.5805473327636719,-0.5362446904182434,0.31795537,0.11148291,182.00885,-86.428276,0.35745162,CSI
13145903000000.0,1.0162385702133179,2.054962635040283,9.78122615814209,-0.5712825059890747,-0.5226093530654907,0.29810223,0.13103059,182.18137,-86.43515,0.71887404,CSI
13145916000000.0,1.0212428569793701,2.08884334564209,9.78994369506836,-0.560917317867279,-0.5101238489151001,0.29840767,0.14813483,182.3437,-86.402855,1.0734822,CSI
13145928000000.0,1.0262433290481567,2.1190388202667236,9.797704696655273,-0.549552857875824,-0.4982549250125885,0.34636059999999996,0.15882497,182.49456999999998,-86.34159,1.4227326,CSI
13145940000000.0,1.0312416553497314,2.145735263824463,9.804557800292969,-0.5372338891029358,-0.48644882440567017,0.42119157,0.17959438,182.63419,-86.24585,1.7708862,CSI
13145951000000.0,1.0362415313720703,2.169093370437622,9.81054401397705,-0.5239902138710022,-0.47520679235458374,0.4541782999999999,0.20005837,182.76936,-86.118645,2.1136935,CSI
13145963000000.0,1.0412410497665405,2.1893041133880615,9.815712928771973,-0.5098817944526672,-0.4639127850532532,0.45662177,0.22540927,182.88956000000002,-85.96885,2.4550319,CSI
13145973000000.0,1.0462394952774048,2.20654034614563,9.820110321044922,-0.4949588179588318,-0.45263469219207764,0.4447099,0.26236662,183.00241,-85.79313,2.7972919999999997,CSI
13145984000000.0,1.0512354373931885,2.2209718227386475,9.823779106140137,-0.47927412390708923,-0.4415832459926605,0.43127087,0.28863382,183.11345,-85.59956,3.1358817,CSI
13145994000000.0,1.05623459815979,2.2327070236206055,9.82674789428711,-0.46283432841300964,-0.4309254288673401,0.40561453,0.31398472,183.22968,-85.38648,3.4773312000000005,CSI
13146004000000.0,1.061233401298523,2.241914987564087,9.829060554504395,-0.4457007348537445,-0.4208518862724304,0.36896262,0.33292156,183.3515,-85.15874000000001,3.8170884,CSI
13146013000000.0,1.0662329196929932,2.2487220764160156,9.830750465393066,-0.427903413772583,-0.4113802909851074,0.33078352,0.35613444,183.4796,-84.916374,4.158075,CSI
13146022000000.0,1.0712321996688843,2.253263235092163,9.831851959228516,-0.409483402967453,-0.4029180705547333,0.2959642,0.36774087,183.61595,-84.66481999999999,4.4941177,CSI
13146032000000.0,1.0762313604354858,2.2556581497192383,9.832396507263184,-0.39047324657440186,-0.3950370252132416,0.25778514,0.37934732,183.76265,-84.40446,4.8299694,CSI
13146040000000.0,1.0812299251556396,2.2560253143310547,9.832414627075195,-0.3709075450897217,-0.38791781663894653,0.25442538,0.3839288,183.90794,-84.1386,5.15987,CSI
13146049000000.0,1.0862369537353516,2.2544071674346924,9.831916809082031,-0.3507618010044098,-0.38171517848968506,0.26572640000000003,0.38026363,184.05844,-83.87017,5.4839535,CSI
13146057000000.0,1.0912359952926636,2.2510244846343994,9.830961227416992,-0.3301619291305542,-0.37652674317359924,0.26267207,0.38362336,184.21243,-83.59785,5.8046656,CSI
13146065000000.0,1.0962347984313965,2.2459192276000977,9.829558372497559,-0.3090890347957611,-0.3718101382255554,0.24984388,0.3857614,184.36473,-83.327866,6.117235,CSI
13146074000000.0,1.1012338399887085,2.2391793727874756,9.82773208618164,-0.2875651717185974,-0.36749139428138733,0.19303341,0.4071417,184.52899,-83.0525,6.4303327,CSI
13146082000000.0,1.1062331199645996,2.2308926582336426,9.8255033493042,-0.2656150162220001,-0.36296331882476807,0.10598512,0.40683624,184.7046,-82.78553000000001,6.731992699999999,CSI
13146090000000.0,1.1112327575683594,2.221140146255493,9.822895050048828,-0.24326002597808838,-0.3585788905620575,0.0125227375,0.39553526,184.89677,-82.51774,7.031096499999999,CSI
13146097000000.0,1.1162327527999878,2.2099990844726562,9.819926261901855,-0.22052115201950073,-0.35594192147254944,-0.022602014,0.40072759999999996,185.09503,-82.24662,7.329044000000001,CSI
13146104000000.0,1.1212321519851685,2.1975514888763428,9.816617965698242,-0.19742543995380402,-0.35354313254356384,-0.110872045,0.40317106,185.33327,-81.98516,7.6188807,CSI
13146112000000.0,1.1262316703796387,2.183861494064331,9.812987327575684,-0.17398719489574432,-0.3515489101409912,-0.1432479,0.41172317,185.56274,-81.72123,7.9059289999999995,CSI
13146119000000.0,1.1312309503555298,2.168997287750244,9.809051513671875,-0.15022656321525574,-0.34992140531539917,-0.18020524,0.41477749999999997,185.81601,-81.46163,8.187614,CSI
13146126000000.0,1.136230707168579,2.153017044067383,9.804825782775879,-0.12615695595741272,-0.3490154445171356,-0.18692477,0.41386122,186.06668,-81.20356,8.465121,CSI
13146134000000.0,1.1412303447723389,2.135984420776367,9.80032730102539,-0.10179828852415085,-0.3480275273323059,-0.19333886,0.39278635,186.32487,-80.954796,8.732773,CSI
13146141000000.0,1.1462287902832031,2.1179630756378174,9.795572280883789,-0.07717225700616837,-0.3475317656993866,-0.18845193,0.40744713,186.57805,-80.69861999999999,9.005096,CSI
13146148000000.0,1.1512250900268555,2.099012613296509,9.790575981140137,-0.05229877680540085,-0.3468182682991028,-0.16279559,0.41996986,186.82402,-80.4538,9.265602000000001,CSI
13146155000000.0,1.156222939491272,2.0791573524475098,9.785345077514648,-0.027170274406671524,-0.3459637463092804,-0.13958271,0.42394048,187.06602,-80.21054000000001,9.522864,CSI
13146161000000.0,1.1612228155136108,2.0611138343811035,9.779605865478516,-0.002622740576043725,-0.34526869654655457,-0.13805555,0.41050145,187.30397,-79.9726,9.773744,CSI
13146167000000.0,1.1662225723266602,2.0449881553649902,9.773368835449219,0.02130497619509697,-0.34438279271125793,-0.15149458,0.40011674,187.53671,-79.73736,10.021676,CSI
13146173000000.0,1.1712232828140259,2.030681610107422,9.766657829284668,0.0446486622095108,-0.34343016147613525,-0.18661933,0.37720928,187.73006999999998,-79.62963,10.113772,CSI
13146180000000.0,1.176222801208496,2.018090009689331,9.759505271911621,0.06743407249450684,-0.3423818051815033,-0.19028452,0.39431350000000004,187.91343999999998,-79.515724,10.212672999999999,CSI
13146186000000.0,1.181222677230835,2.007126808166504,9.75192928314209,0.0896945372223854,-0.34125909209251404,-0.19822577,0.3915646,188.10419,-79.415504,10.298492999999999,CSI
13146192000000.0,1.186224102973938,1.9977099895477295,9.743948936462402,0.111461341381073,-0.33967533707618713,-0.19517145,0.38453966,188.28824,-79.31411999999999,10.386521,CSI
13146199000000.0,1.1912237405776978,1.9897456169128418,9.735595703125,0.13275252282619476,-0.3377527892589569,-0.17928895,0.37140608,188.46666000000002,-79.21695,10.470612,CSI
13146205000000.0,1.1962238550186157,1.983163595199585,9.726882934570312,0.15359880030155182,-0.3355908691883087,-0.20769419,0.34025195,188.65323999999998,-79.128975,10.546786,CSI
13146211000000.0,1.2012640237808228,1.9780325889587402,9.717710494995117,0.17412623763084412,-0.3338208794593811,-0.21227567,0.34941490000000003,188.82396,-79.03475,10.629037,CSI
13146218000000.0,1.2062582969665527,1.9739748239517212,9.708354949951172,0.19413556158542633,-0.3320312798023224,-0.20738874,0.34697145,188.99663999999999,-78.95472,10.698308,CSI
13146224000000.0,1.211251974105835,1.9710865020751953,9.698697090148926,0.21376486122608185,-0.3295394480228424,-0.19303341,0.33964106,189.16383000000002,-78.875435,10.767714999999999,CSI
13146230000000.0,1.216248631477356,1.96931791305542,9.688742637634277,0.23304347693920135,-0.327831506729126,-0.1908954,0.33475417,189.32928,-78.79571,10.836232,CSI
13146236000000.0,1.2212494611740112,1.9686142206192017,9.678503036499023,0.2519935369491577,-0.32605183124542236,-0.18906279,0.32498032,189.48718,-78.72284,10.900101,CSI
13146242000000.0,1.226246953010559,1.9688926935195923,9.668015480041504,0.27061381936073303,-0.3248227536678314,-0.1994475,0.32467487,189.64438,-78.64823,10.96452,CSI
13146247000000.0,1.2312411069869995,1.9701004028320312,9.657294273376465,0.2889214754104614,-0.32333362102508545,-0.21594086,0.31826079999999995,189.79959,-78.580505,11.023619,CSI
13146252000000.0,1.2362327575683594,1.972190022468567,9.64634895324707,0.30693483352661133,-0.32242846488952637,-0.22999077,0.27152961,189.95428,-78.52338,11.070403,CSI
13146257000000.0,1.2412277460098267,1.975135326385498,9.635174751281738,0.3246844708919525,-0.3220272958278656,-0.24098633,0.29199359999999996,190.10849,-78.45104,11.134021,CSI
13146263000000.0,1.246221899986267,1.9788763523101807,9.623796463012695,0.34217408299446106,-0.32241255044937134,-0.22143865,0.2968805,190.2552,-78.39555,11.179091,CSI
13146268000000.0,1.2512152194976807,1.9833701848983765,9.612224578857422,0.35941725969314575,-0.32292377948760986,-0.20433442,0.29168814,190.4021,-78.33833,11.226759,CSI
13146273000000.0,1.2562103271484375,1.9885860681533813,9.60046100616455,0.37643373012542725,-0.32357051968574524,-0.19120082,0.29168814,190.541,-78.27815,11.276458,CSI
13146278000000.0,1.2612055540084839,1.994479775428772,9.588521957397461,0.393231600522995,-0.32465484738349915,-0.172264,0.28160888,190.67033,-78.22243,11.320837,CSI
13146284000000.0,1.266200065612793,2.0010125637054443,9.576417922973633,0.4098205864429474,-0.3262348175048828,-0.16523905,0.27885997,190.79625,-78.16524,11.366706,CSI
13146289000000.0,1.2712197303771973,2.0082430839538574,9.564081192016602,0.4262785017490387,-0.3279259204864502,-0.15302174,0.267559,190.91266000000002,-78.11389,11.406307,CSI
13146294000000.0,1.2762144804000854,2.015958786010742,9.55167007446289,0.44248613715171814,-0.3305686414241791,-0.17073683,0.2593123,191.03311000000002,-78.06121,11.445857,CSI
13146299000000.0,1.281209111213684,2.024218797683716,9.539117813110352,0.4585178792476654,-0.33342862129211426,-0.17318029999999998,0.25992316,191.14303999999998,-78.010735,11.483789999999999,CSI
13146305000000.0,1.2862054109573364,2.0329995155334473,9.526427268981934,0.47438719868659973,-0.3377639353275299,-0.16554448,0.2415972,191.25302,-77.964905,11.513681,CSI
13146310000000.0,1.291200876235962,2.0422654151916504,9.513612747192383,0.4900969862937927,-0.34234023094177246,-0.16798794,0.22571471,191.36406000000002,-77.9202,11.544266,CSI
13146315000000.0,1.296196699142456,2.0519943237304688,9.500677108764648,0.5056585073471069,-0.34672150015830994,-0.16249016,0.2134974,191.46826000000001,-77.87829,11.570094000000001,CSI
13146320000000.0,1.3011921644210815,2.0621590614318848,9.487629890441895,0.5210776925086975,-0.35036465525627136,-0.15363261,0.21013765,191.5698,-77.83901999999999,11.593689,CSI
13146326000000.0,1.3061884641647339,2.0727405548095703,9.474472999572754,0.5363653302192688,-0.35334163904190063,-0.12950343,0.19730948,191.66321000000002,-77.80605,11.610566,CSI
13146331000000.0,1.3111847639083862,2.083714246749878,9.461214065551758,0.551526665687561,-0.3557693064212799,-0.13988814,0.17562376,191.762,-77.777596,11.624293,CSI
13146336000000.0,1.316179871559143,2.0950546264648438,9.447861671447754,0.5665650963783264,-0.3579048216342926,-0.13469578,0.15699236,191.84726,-77.752625,11.634418,CSI
13146341000000.0,1.3211842775344849,2.1067795753479004,9.4343900680542,0.5815141797065735,-0.3603008985519409,-0.122478485,0.12858713,191.93188,-77.73621999999999,11.635659,CSI
13146346000000.0,1.3261860609054565,2.1188275814056396,9.4208402633667,0.5963490605354309,-0.36216235160827637,-0.11056661,0.101098195,192.01326,-77.72636999999999,11.631895,CSI
13146352000000.0,1.331187129020691,2.131187677383423,9.407211303710938,0.6110801696777344,-0.363810658454895,-0.07727446,0.07788532,192.08319,-77.72195,11.620878,CSI
13146357000000.0,1.3361867666244507,2.1438405513763428,9.393509864807129,0.6257114410400391,-0.3650130331516266,-0.03145956,0.06383542,192.14427,-77.72344,11.604567999999999,CSI
13146362000000.0,1.3411895036697388,2.1567866802215576,9.379725456237793,0.6402595043182373,-0.36636292934417725,0.008857545999999999,0.038179077,192.19609,-77.7333,11.578284,CSI
13146367000000.0,1.3461891412734985,2.1699886322021484,9.365880966186523,0.6547132134437561,-0.3665502965450287,0.018936822,0.01740966,192.24200000000002,-77.748245,11.549638999999999,CSI
13146373000000.0,1.3511881828308105,2.183441400527954,9.351972579956055,0.6690839529037476,-0.3679485023021698,0.023823743999999997,-0.01740966,192.2772,-77.768974,11.509611,CSI
13146378000000.0,1.356184482574463,2.1971237659454346,9.338010787963867,0.6833701729774475,-0.37024882435798645,0.04550946,-0.045814894,192.30363,-77.795334,11.465701,CSI
13146383000000.0,1.3611843585968018,2.208756923675537,9.329299926757812,0.6970775127410889,-0.3733218014240265,0.044593163,-0.074830994,192.33469,-77.828384,11.412991,CSI
13146388000000.0,1.3661832809448242,2.2182071208953857,9.326103210449219,0.7101746201515198,-0.3759380280971527,0.070554934,-0.08735373,192.35062,-77.86415,11.356924000000001,CSI
13146394000000.0,1.3711888790130615,2.2255465984344482,9.328269004821777,0.722697377204895,-0.37812182307243347,0.09162979,-0.11545353400000001,192.20387,-77.77703000000001,11.405008,CSI
13146399000000.0,1.3761892318725586,2.2309558391571045,9.33529281616211,0.7346711158752441,-0.3798637092113495,0.1255328,-0.13286320000000001,192.04877,-77.69253499999999,11.450522,CSI
13146404000000.0,1.3811882734298706,2.23587965965271,9.346487045288086,0.7475807666778564,-0.3810732662677765,0.15302174,-0.14385876,191.80123999999998,-77.59725999999999,11.505638000000001,CSI
13146409000000.0,1.3861883878707886,2.2409985065460205,9.361429214477539,0.7620890736579895,-0.38226720690727234,0.17959438,-0.12736541,191.54877,-77.50091,11.561344,CSI
13146415000000.0,1.3911882638931274,2.2480885982513428,9.371923446655273,0.7780999541282654,-0.3825836479663849,0.21135938,-0.112704635,191.17401,-77.40867,11.611505000000001,CSI
13146420000000.0,1.3961877822875977,2.259345293045044,9.367940902709961,0.7955297827720642,-0.38206934928894043,0.21288654,-0.14660765,190.8086,-77.32744,11.650426,CSI
13146425000000.0,1.4011868238449097,2.273649215698242,9.354056358337402,0.8112988471984863,-0.38244515657424927,0.21502456,-0.15210545,190.30774,-77.20549,11.721511,CSI
13146430000000.0,1.4061870574951172,2.290353298187256,9.332883834838867,0.8237949013710022,-0.38306137919425964,0.23457226,-0.17318029999999998,189.81316999999999,-77.103096,11.774854,CSI
13146436000000.0,1.4111918210983276,2.3066420555114746,9.308152198791504,0.8356274962425232,-0.3839540183544159,0.25411993,-0.17531833,189.22253,-76.948265,11.874897,CSI
13146441000000.0,1.4161900281906128,2.320327043533325,9.283002853393555,0.8488131165504456,-0.38380616903305054,0.2779437,-0.17562376,188.63824,-76.80521,11.964916,CSI
13146446000000.0,1.4211938381195068,2.33256459236145,9.260765075683594,0.8626746535301208,-0.3834545910358429,0.32375857,-0.1685988,187.9135,-76.61791,12.098949000000001,CSI
13146451000000.0,1.4261952638626099,2.3443970680236816,9.244158744812012,0.8765385746955872,-0.3832194209098816,0.35277468,-0.16493362,187.20372,-76.438896,12.226484,CSI
13146457000000.0,1.4311941862106323,2.3521833419799805,9.235124588012695,0.8945391774177551,-0.3829154074192047,0.37934732,-0.15302174,186.38861,-76.24269,12.365946000000001,CSI
13146462000000.0,1.4361940622329712,2.3520514965057373,9.23582649230957,0.9210843443870544,-0.3828229308128357,0.40439278,-0.13927728,185.5845,-76.0505,12.500368,CSI
13146467000000.0,1.4411925077438354,2.350614309310913,9.240018844604492,0.953040361404419,-0.38384222984313965,0.41141775,-0.11759156,184.65712,-75.83213,12.657039,CSI
13146472000000.0,1.4461919069290161,2.356226682662964,9.239900588989258,0.9866596460342407,-0.38446539640426636,0.43585235,-0.08307768,183.73886000000002,-75.61739,12.812988,CSI
13146478000000.0,1.4511897563934326,2.367269992828369,9.237783432006836,1.0202208757400513,-0.38430657982826233,0.43371433,-0.086132,182.8522,-75.43105,12.915422999999999,CSI
13146483000000.0,1.4561899900436401,2.3806705474853516,9.238724708557129,1.0498510599136353,-0.3862234652042389,0.43310347,-0.10079276599999999,181.97493,-75.23865,13.017984,CSI
13146488000000.0,1.4611858129501343,2.3942370414733887,9.244048118591309,1.0756475925445557,-0.38938918709754944,0.44104472,-0.11545353400000001,180.89085,-74.9672,13.1870165,CSI
13146493000000.0,1.4661848545074463,2.4044723510742188,9.256390571594238,1.097461223602295,-0.39381861686706543,0.46822822,-0.119729586,179.8294,-74.700874,13.34518,CSI
13146499000000.0,1.4711862802505493,2.4114177227020264,9.273356437683105,1.1169155836105347,-0.3988747000694275,0.49449542,-0.10934488,178.57123,-74.388145,13.543538,CSI
13146504000000.0,1.4761872291564941,2.415065288543701,9.291669845581055,1.1362340450286865,-0.4031729996204376,0.5296202,-0.096516706,177.34116,-74.08875,13.727825,CSI
13146509000000.0,1.4811838865280151,2.416262626647949,9.311149597167969,1.1553997993469238,-0.4071933925151825,0.58062744,-0.089186326,176.01886000000002,-73.78891999999999,13.903970999999999,CSI
13146514000000.0,1.4861845970153809,2.4195969104766846,9.331241607666016,1.17436945438385,-0.41152042150497437,0.61758476,-0.086132,174.73148999999998,-73.50075,14.068710000000001,CSI
13146520000000.0,1.4911818504333496,2.4253010749816895,9.351007461547852,1.1934001445770264,-0.41522619128227234,0.6585127,-0.07666359,173.34900000000002,-73.20734399999999,14.2256565,CSI
13146525000000.0,1.4961817264556885,2.4345829486846924,9.367778778076172,1.2133575677871704,-0.41824615001678467,0.6826419,-0.069027774,172.0046,-72.92704,14.368977,CSI
13146530000000.0,1.5011801719665527,2.4471185207366943,9.3816499710083,1.2344231605529785,-0.42071449756622314,0.70646566,-0.058643065,170.69206,-72.65263,14.507569,CSI
13146535000000.0,1.5061814785003662,2.462236166000366,9.392073631286621,1.2584288120269775,-0.42217233777046204,0.75502944,-0.054367005999999996,169.40735,-72.39445,14.632504,CSI
13146540000000.0,1.5111796855926514,2.4799184799194336,9.39920711517334,1.2848100662231445,-0.4228688180446625,0.7715228,-0.050396382999999996,168.16812,-72.12906,14.766352,CSI
13146546000000.0,1.5161784887313843,2.5007481575012207,9.40289306640625,1.312341332435608,-0.4231375455856323,0.818254,-0.040927973,166.9458,-71.87613,14.888335000000001,CSI
13146551000000.0,1.5211822986602783,2.52470064163208,9.403254508972168,1.3402714729309082,-0.42264318466186523,0.8585710999999999,-0.039095376,165.65184,-71.59226,15.024754999999999,CSI
13146556000000.0,1.5262231826782227,2.55239200592041,9.400056838989258,1.366123080253601,-0.42092180252075195,0.89766645,-0.038789943,164.3864,-71.32309000000001,15.149939999999999,CSI
13146561000000.0,1.5312215089797974,2.583953857421875,9.395630836486816,1.3886361122131348,-0.4189015030860901,0.94225967,-0.038179077,163.14209,-71.04393,15.281963000000001,CSI
13146567000000.0,1.5362191200256348,2.6245267391204834,9.393181800842285,1.4034837484359741,-0.41667962074279785,0.98654735,-0.046731193,161.92755,-70.78354,15.399281,CSI
13146572000000.0,1.5412182807922363,2.672783851623535,9.392662048339844,1.4121148586273193,-0.41482028365135193,1.0632110000000001,-0.04550946,160.71438999999998,-70.513214,15.527594,CSI
13146577000000.0,1.5462162494659424,2.7247352600097656,9.39411449432373,1.4189895391464233,-0.4131251573562622,1.144456,-0.03970624,159.52669,-70.258,15.6424,CSI
13146582000000.0,1.5512123107910156,2.7801640033721924,9.397428512573242,1.4242055416107178,-0.4115854799747467,1.2287555000000001,-0.023518313,158.36885,-69.99531999999999,15.784201999999999,CSI
13146588000000.0,1.5562121868133545,2.8396828174591064,9.399889945983887,1.4311349391937256,-0.4107789397239685,1.2944235,-0.004886922,157.23006999999998,-69.74155999999999,15.914569,CSI
13146593000000.0,1.5612165927886963,2.9024980068206787,9.401065826416016,1.440063714981079,-0.41128501296043396,1.3567316999999999,0.017715093,156.10368,-69.49351,16.036047,CSI
13146598000000.0,1.566213607788086,2.9591753482818604,9.401016235351562,1.4480516910552979,-0.4130012094974518,1.3900238,0.029321532999999997,155.01035,-69.238976,16.17193,CSI
13146603000000.0,1.5712133646011353,3.0099356174468994,9.399762153625488,1.45513117313385,-0.41543981432914734,1.4312572000000001,0.05222898,153.88466,-68.95234,16.334312,CSI
13146609000000.0,1.5762134790420532,3.052455186843872,9.3971529006958,1.4622371196746826,-0.4189204275608063,1.4862351,0.073303826,152.78221000000002,-68.67156999999999,16.485882,CSI
13146614000000.0,1.5812100172042847,3.087028741836548,9.39326286315918,1.4694377183914185,-0.4233061373233795,1.5271631,0.1133155,151.70555,-68.39194,16.637314,CSI
13146619000000.0,1.5862079858779907,3.110377073287964,9.386625289916992,1.4804195165634155,-0.4282882511615753,1.5601498,0.16096300000000002,150.62444,-68.11946,16.78087,CSI
13146624000000.0,1.5912033319473267,3.122248649597168,9.377016067504883,1.4959322214126587,-0.4335094690322876,1.591304,0.20005837,149.56598,-67.84965,16.921257,CSI
13146630000000.0,1.5962423086166382,3.1234076023101807,9.362875938415527,1.5177230834960938,-0.43895700573921204,1.6001616,0.22968534,148.53128,-67.594124,17.043160999999998,CSI
13146635000000.0,1.6012368202209473,3.1175050735473633,9.345671653747559,1.5436553955078125,-0.4443584084510803,1.5986344,0.21166481,147.52581999999998,-67.35083,17.153242000000002,CSI
13146640000000.0,1.6062341928482056,3.1029608249664307,9.32343578338623,1.5660239458084106,-0.4492603540420532,1.5909985,0.23273966,146.48335,-67.10435,17.248762,CSI
13146645000000.0,1.6112277507781982,3.0803017616271973,9.296212196350098,1.582755446434021,-0.45464980602264404,1.5848898999999999,0.25809056,145.47641000000002,-66.86697,17.334085,CSI
13146651000000.0,1.6162269115447998,3.0548603534698486,9.268986701965332,1.5943272113800049,-0.46061474084854126,1.6035211999999999,0.28191432,144.47188,-66.63422,17.389357,CSI
13146655000000.0,1.6212272644042969,3.0286083221435547,9.243453025817871,1.601190209388733,-0.46735236048698425,1.6096298999999998,0.28710666,143.50531,-66.40593,17.442791,CSI
13146660000000.0,1.6262315511703491,3.004988670349121,9.224763870239258,1.6016415357589722,-0.47558653354644775,1.6074919,0.2947425,142.54124,-66.19641999999999,17.480373,CSI
13146665000000.0,1.6312296390533447,2.9856765270233154,9.215201377868652,1.5952088832855225,-0.4851723909378052,1.6016886000000001,0.26175576,141.61147,-65.99903,17.5041,CSI
13146670000000.0,1.636229395866394,2.9643404483795166,9.211321830749512,1.5832782983779907,-0.4970959424972534,1.5903877,0.28588495,140.68153,-65.79559,17.535934,CSI
13146675000000.0,1.641228199005127,2.9380252361297607,9.211177825927734,1.5668082237243652,-0.5105814933776855,1.6261233,0.32436943,139.77200000000002,-65.59985999999999,17.555998000000002,CSI
13146680000000.0,1.6462258100509644,2.9037532806396484,9.213873863220215,1.551053524017334,-0.5250412225723267,1.6722436,0.36346483,138.89659,-65.41893,17.581032,CSI
13146685000000.0,1.651222825050354,2.8586835861206055,9.218575477600098,1.54097318649292,-0.5392674803733826,1.7116444,0.37965274,138.04012,-65.238754,17.604408,CSI
13146690000000.0,1.6562204360961914,2.806615114212036,9.224267959594727,1.5343568325042725,-0.5533215999603271,1.7122552,0.398895,137.15941999999998,-65.07840999999999,17.606834,CSI
13146695000000.0,1.6612190008163452,2.7500789165496826,9.230292320251465,1.5297448635101318,-0.567456841468811,1.6896533,0.41080686,136.30266,-64.921,17.607595,CSI
13146700000000.0,1.666215419769287,2.6893982887268066,9.236623764038086,1.5270110368728638,-0.5804156064987183,1.6432275,0.41844269999999995,135.4523,-64.79124,17.56549,CSI
13146705000000.0,1.6712151765823364,2.6246485710144043,9.243258476257324,1.5260885953903198,-0.593074381351471,1.6120733999999999,0.43951756,134.62994,-64.656784,17.529913,CSI
13146710000000.0,1.6762138605117798,2.5558667182922363,9.248863220214844,1.5267163515090942,-0.6053026914596558,1.5922203000000001,0.46944994,133.81483,-64.52111,17.506157,CSI
13146716000000.0,1.6812140941619873,2.482975482940674,9.252520561218262,1.5287243127822876,-0.6183280348777771,1.5824465,0.49205196,133.03113000000002,-64.38293,17.486948,CSI
13146720000000.0,1.68620765209198,2.407104253768921,9.255108833312988,1.532212734222412,-0.631391704082489,1.5919148,0.51007247,132.26277,-64.28209,17.402067000000002,CSI
13146725000000.0,1.6912024021148682,2.3293089866638184,9.257843017578125,1.5375043153762817,-0.6460542678833008,1.5790867,0.5149594,131.52531000000002,-64.1725,17.323475,CSI
13146730000000.0,1.6961966753005981,2.25081729888916,9.25851058959961,1.544516682624817,-0.6621816754341125,1.5668693999999999,0.52534413,130.80911,-64.07943,17.205603,CSI
13146734000000.0,1.701190710067749,2.172461748123169,9.25560188293457,1.5531787872314453,-0.6794191598892212,1.5613716,0.552833,130.1107,-63.97779499999999,17.095892000000003,CSI
13146740000000.0,1.7061856985092163,2.093217611312866,9.24658203125,1.563127875328064,-0.69624263048172,1.5552629,0.5647449000000001,129.43585,-63.889509999999994,16.96169,CSI
13146745000000.0,1.7111809253692627,2.0123629570007324,9.229673385620117,1.574068546295166,-0.7142041921615601,1.5464053,0.5708536,128.77628,-63.786053,16.835947,CSI
13146750000000.0,1.7161757946014404,1.933741807937622,9.20492172241211,1.5856642723083496,-0.7324944734573364,1.4957036,0.56138515,128.14551,-63.687702,16.699223999999997,CSI
13146755000000.0,1.7211732864379883,1.860329270362854,9.172320365905762,1.597660779953003,-0.7504285573959351,1.4077389,0.49999319999999997,127.54575,-63.594975,16.556858,CSI
13146760000000.0,1.7261704206466675,1.780582308769226,9.13016128540039,1.6133852005004883,-0.7683672308921814,1.2675453,0.46089783,126.99103500000001,-63.49463299999999,16.411701,CSI
13146765000000.0,1.7311674356460571,1.6849719285964966,9.076992988586426,1.6355856657028198,-0.7864730358123779,1.183246,0.453262,126.45938000000001,-63.398655000000005,16.264229,CSI
13146770000000.0,1.7361663579940796,1.5777394771575928,9.016717910766602,1.6650173664093018,-0.8051602840423584,1.1301007,0.45173484,125.959274,-63.28075,16.133035999999997,CSI
13146775000000.0,1.7411675453186035,1.4675709009170532,8.957491874694824,1.703694224357605,-0.8244142532348633,1.0998629,0.4269948,125.48886999999999,-63.165867000000006,16.001910000000002,CSI
13146780000000.0,1.746164321899414,1.3580297231674194,8.901246070861816,1.7479008436203003,-0.8435862064361572,1.0329732,0.41966440000000005,125.05118600000002,-63.05921,15.797223,CSI
13146785000000.0,1.7511649131774902,1.2538211345672607,8.850775718688965,1.7930349111557007,-0.8624852299690247,0.93218035,0.41416663,124.64043000000001,-62.951378000000005,15.5953665,CSI
13146790000000.0,1.756163477897644,1.15566086769104,8.807997703552246,1.8352128267288208,-0.8804909586906433,0.80756384,0.40622538,124.25397,-62.833183,15.366125,CSI
13146795000000.0,1.761164665222168,1.065047025680542,8.77676010131836,1.867682695388794,-0.8970162868499756,0.6795876000000001,0.39278635,123.90301000000001,-62.71629300000001,15.1475725,CSI
13146800000000.0,1.7661644220352173,0.9810516238212585,8.757261276245117,1.8916751146316528,-0.9121237397193909,0.55924714,0.39431350000000004,123.57987,-62.59339,14.938547,CSI
13146806000000.0,1.7711763381958008,0.9024838209152222,8.751168251037598,1.9084436893463135,-0.9265074729919434,0.46150870000000005,0.40072759999999996,123.291306,-62.471484999999994,14.741598000000002,CSI
13146810000000.0,1.7761787176132202,0.827314019203186,8.75599479675293,1.9188954830169678,-0.9401572346687317,0.3747658,0.34972036,123.042175,-62.392303000000005,14.549686,CSI
13146815000000.0,1.7811787128448486,0.7437758445739746,8.76561450958252,1.9237394332885742,-0.9535190463066101,0.27183503,0.35735616,122.8203,-62.300906999999995,14.390795,CSI
13146820000000.0,1.7861791849136353,0.6523568630218506,8.779727935791016,1.9242308139801025,-0.9683336615562439,0.18112154,0.39828414,122.623795,-62.244213,14.2341585,CSI
13146825000000.0,1.7911795377731323,0.5548716187477112,8.79731559753418,1.9284249544143677,-0.9833028316497803,0.106901415,0.42821655,122.45433,-62.191162,14.090204,CSI
13146830000000.0,1.7961831092834473,0.45186200737953186,8.818351745605469,1.936210036277771,-0.9985322952270508,0.031154128,0.4886922,122.30123999999999,-62.169247,13.920479,CSI
13146835000000.0,1.8011823892593384,0.3482813835144043,8.84386157989502,1.9477760791778564,-1.0136175155639648,0.005497787,0.516792,122.15774499999999,-62.14386999999999,13.756844000000001,CSI
13146840000000.0,1.8061792850494385,0.24412448704242706,8.873639106750488,1.9629462957382202,-1.028647541999817,-0.014660766,0.52931476,122.02101,-62.125896,13.561888,CSI
13146845000000.0,1.811179518699646,0.1520790457725525,8.908123016357422,1.986074686050415,-1.0425835847854614,-0.032070424,0.5739079,121.88586399999998,-62.099102,13.389604,CSI
13146850000000.0,1.8161801099777222,0.07292556762695312,8.947061538696289,2.017167091369629,-1.0547515153884888,-0.10629055,0.6123924,121.77318000000001,-62.0698,13.232251000000002,CSI
13146855000000.0,1.821184515953064,0.0038239252753555775,8.983327865600586,2.0635931491851807,-1.0653105974197388,-0.18997909,0.6469063,121.65446000000001,-62.04395699999999,13.057516,CSI
13146860000000.0,1.8261855840682983,-0.05646540969610214,9.015353202819824,2.126011848449707,-1.0728490352630615,-0.24770586,0.6835581999999999,121.54624,-62.022380000000005,12.903509,CSI
13146866000000.0,1.8311851024627686,-0.10928009450435638,9.043485641479492,2.2067677974700928,-1.0772837400436401,-0.29779682,0.6957755,121.45576000000001,-61.968975,12.792542999999998,CSI
13146870000000.0,1.836182951927185,-0.1552087664604187,9.067963600158691,2.305492877960205,-1.0787962675094604,-0.38026363,0.6994406999999999,121.38813999999999,-61.922253000000005,12.703244,CSI
13146875000000.0,1.8411831855773926,-0.19048626720905304,9.086417198181152,2.4180660247802734,-1.0790562629699707,-0.48258355,0.68966687,121.33133000000001,-61.810226,12.643489,CSI
13146880000000.0,1.8461796045303345,-0.21419154107570648,9.098234176635742,2.541870355606079,-1.0780816078186035,-0.6047566,0.63132924,121.30933999999999,-61.717228000000006,12.58721,CSI
13146885000000.0,1.8511862754821777,-0.23536762595176697,9.105365753173828,2.6640727519989014,-1.076507806777954,-0.7470882,0.571159,121.30911,-61.54440699999999,12.55832,CSI
13146890000000.0,1.856184720993042,-0.2559058368206024,9.108682632446289,2.781970500946045,-1.0736993551254272,-0.82986045,0.5699373000000001,121.32680500000001,-61.381924,12.539556,CSI
13146895000000.0,1.8611843585968018,-0.2694976031780243,9.107211112976074,2.8957860469818115,-1.071056842803955,-0.87872964,0.5549710999999999,121.37576999999999,-61.150985999999996,12.554686,CSI
13146900000000.0,1.8661836385726929,-0.27513590455055237,9.100997924804688,3.005704641342163,-1.0685226917266846,-0.93859446,0.5216789000000001,121.45258999999999,-60.93204,12.577705,CSI
13146905000000.0,1.8711888790130615,-0.26979565620422363,9.089235305786133,3.1048367023468018,-1.0668071508407593,-0.98929626,0.48685959999999995,121.54178999999999,-60.70231999999999,12.601683999999999,CSI
13146911000000.0,1.876193881034851,-0.25299787521362305,9.071972846984863,3.191027879714966,-1.0654923915863037,-1.0332786,0.47128254,121.64703999999999,-60.479319999999994,12.629939,CSI
13146915000000.0,1.8811928033828735,-0.2320505529642105,9.053291320800781,3.26179575920105,-1.064215064048767,-1.0363328,0.45601090000000005,121.75958,-60.232043999999995,12.685214,CSI
13146920000000.0,1.8862278461456299,-0.20924754440784454,9.034523963928223,3.3147425651550293,-1.0641615390777588,-1.0030408000000002,0.44409904,121.87548000000001,-59.982806999999994,12.738581,CSI
13146925000000.0,1.8912255764007568,-0.1822468489408493,9.0167875289917,3.362877368927002,-1.0642085075378418,-0.9266825999999999,0.43249258,121.99517,-59.736686999999996,12.841122,CSI
13146931000000.0,1.896223545074463,-0.1485016644001007,9.000560760498047,3.411550998687744,-1.0622997283935547,-0.8698720999999999,0.42852196,122.1111,-59.49955,12.939630000000001,CSI
13146935000000.0,1.9012207984924316,-0.11114677041769028,8.972826957702637,3.4610414505004883,-1.0567163228988647,-0.8726209999999999,0.44409904,122.23473,-59.307033999999994,13.056947000000001,CSI
13146940000000.0,1.9062186479568481,-0.07124453037977219,8.929931640625,3.5114240646362305,-1.0504212379455566,-0.7641924,0.45173484,122.315704,-59.11534,13.147433,CSI
13146945000000.0,1.9112186431884766,-0.028664635494351387,8.87961483001709,3.567396402359009,-1.0420364141464233,-0.63438356,0.45142943,122.39034,-58.93121,13.266719,CSI
13146950000000.0,1.9162180423736572,0.01649007759988308,8.824954986572266,3.6303160190582275,-1.032731056213379,-0.5580254,0.45814893,122.44821,-58.7482,13.380341,CSI
13146956000000.0,1.921230435371399,0.06466899812221527,8.766277313232422,3.6999683380126953,-1.021398663520813,-0.51343226,0.47952923,122.47695,-58.533348,13.512606,CSI
13146960000000.0,1.9262316226959229,0.11542288959026337,8.704604148864746,3.7749693393707275,-1.0072845220565796,-0.44868052,0.50762904,122.47883999999999,-58.33124,13.633039000000002,CSI
13146965000000.0,1.9312303066253662,0.1666538566350937,8.6408052444458,3.859786033630371,-0.9920506477355957,-0.38728857,0.5537493,122.45731,-58.079243000000005,13.775594,CSI
13146970000000.0,1.9362294673919678,0.21713152527809143,8.575464248657227,3.956639528274536,-0.9768310189247131,-0.39125920000000003,0.59773165,122.43252,-57.839153,13.92242,CSI
13146975000000.0,1.9412286281585693,0.2620001435279846,8.508415222167969,4.056787490844727,-0.9621946215629578,-0.3817908,0.6200281999999999,122.3836,-57.55919,14.083272000000001,CSI
13146980000000.0,1.9462279081344604,0.29774442315101624,8.439553260803223,4.15375280380249,-0.9494776725769043,-0.355829,0.6230826,122.32831000000002,-57.278130000000004,14.245515,CSI
13146985000000.0,1.951224446296692,0.3270719647407532,8.372967720031738,4.24680233001709,-0.9393103122711182,-0.32498032,0.63194007,122.245125,-56.93111,14.4102125,CSI
13146990000000.0,1.9562573432922363,0.3509123623371124,8.310623168945312,4.335816383361816,-0.9301893711090088,-0.3051272,0.6435465,122.15796999999999,-56.59053,14.571173000000002,CSI
13146995000000.0,1.9612499475479126,0.37111330032348633,8.252985954284668,4.421995639801025,-0.9217010140419006,-0.31581733,0.64812803,122.07094,-56.243959999999994,14.703370000000001,CSI
13147000000000.0,1.966247797012329,0.3910832107067108,8.205466270446777,4.51344633102417,-0.9136813282966614,-0.35277468,0.6747006999999999,121.98145,-55.897312,14.842447,CSI
13147005000000.0,1.9712470769882202,0.41732174158096313,8.165815353393555,4.606412410736084,-0.905828595161438,-0.34147367,0.67011917,121.88734,-55.567192000000006,14.947567000000001,CSI
13147010000000.0,1.9762465953826904,0.4635741710662842,8.130080223083496,4.6935224533081055,-0.8989803194999695,-0.30634892,0.6588182,121.79453999999998,-55.236194999999995,15.057185,CSI
13147015000000.0,1.9812524318695068,0.5277599692344666,8.0978364944458,4.774420261383057,-0.892431914806366,-0.29962940000000005,0.6563747,121.70158,-54.902958,15.1607,CSI
13147020000000.0,1.9862513542175293,0.5896519422531128,8.065683364868164,4.841616630554199,-0.8855488300323486,-0.31245756,0.66828656,121.60553999999999,-54.575626,15.260810000000001,CSI
13147025000000.0,1.991249442100525,0.6493975520133972,8.03357982635498,4.895631790161133,-0.8775676488876343,-0.3005457,0.6835581999999999,121.518906,-54.230709999999995,15.457479999999999,CSI
13147030000000.0,1.9962475299835205,0.7071142196655273,8.001518249511719,4.937142848968506,-0.8682863712310791,-0.23365596,0.6948592,121.42136399999998,-53.895905000000006,15.645414,CSI
13147035000000.0,2.0012474060058594,0.7620691061019897,7.969821929931641,4.967252731323242,-0.8587835431098938,-0.18967366,0.70921457,121.3331,-53.570225,15.834585,CSI
13147040000000.0,2.0062456130981445,0.8044008016586304,7.942458629608154,4.992673397064209,-0.849217414855957,-0.07819075,0.7125743,121.2124,-53.258163,15.998879,CSI
13147045000000.0,2.0112385749816895,0.8349011540412903,7.919165134429932,5.013692378997803,-0.8388589024543762,0.040317107000000005,0.7302894,121.10157,-52.998585,16.187808999999998,CSI
13147050000000.0,2.0162370204925537,0.8497157096862793,7.894151210784912,5.042545318603516,-0.8277502655982971,0.15607607,0.75655663,120.96311000000001,-52.744724,16.358347,CSI
13147055000000.0,2.021233558654785,0.8487513661384583,7.865801811218262,5.082392692565918,-0.8162569999694824,0.29901853,0.75961095,120.791275,-52.500824,16.500624,CSI
13147060000000.0,2.0262277126312256,0.8396835327148438,7.834297180175781,5.133094787597656,-0.8066458702087402,0.4092797,0.75502944,120.59833,-52.287964,16.582096,CSI
13147065000000.0,2.031221389770508,0.8258442282676697,7.799769878387451,5.194370269775391,-0.8009651899337769,0.45265114,0.75747293,120.3876,-52.0722,16.651777,CSI
13147070000000.0,2.0362186431884766,0.8166306614875793,7.761470317840576,5.262063026428223,-0.7993472814559937,0.4569272,0.7703011,120.1343,-51.82724,16.636744,CSI
13147075000000.0,2.0412161350250244,0.8133609890937805,7.719511032104492,5.335071086883545,-0.8018035292625427,0.42485678,0.77854776,119.88306999999999,-51.56981,16.61968,CSI
13147080000000.0,2.0462141036987305,0.8186679482460022,7.673976898193359,5.409424304962158,-0.8065053820610046,0.40286562,0.79534656,119.60332,-51.26533,16.578692999999998,CSI
13147085000000.0,2.051212787628174,0.8328396081924438,7.625024795532227,5.484134674072266,-0.8117705583572388,0.38423425,0.818254,119.33191000000001,-50.953087,16.545343,CSI
13147090000000.0,2.056213140487671,0.8636781573295593,7.574476718902588,5.555965900421143,-0.8174875974655151,0.39095375,0.8206975000000001,119.05067,-50.58838,16.530882000000002,CSI
13147095000000.0,2.0612142086029053,0.912407636642456,7.522866249084473,5.6242194175720215,-0.8248369693756104,0.40439278,0.82986045,118.77087,-50.21691,16.523888,CSI
13147100000000.0,2.066213607788086,0.9757676720619202,7.4744744300842285,5.690454483032227,-0.8333572745323181,0.42424592,0.8500190000000001,118.48366999999999,-49.80953,16.555227,CSI
13147106000000.0,2.071216583251953,1.0525938272476196,7.430532932281494,5.755264759063721,-0.843002438545227,0.42760566,0.89644474,118.19452,-49.395916,16.592945,CSI
13147110000000.0,2.0762181282043457,1.138741374015808,7.383647918701172,5.816440105438232,-0.8521010279655457,0.43157628,0.9401216,117.9163,-48.95443,16.7141,CSI
13147115000000.0,2.0812180042266846,1.2311421632766724,7.328165054321289,5.872337818145752,-0.8603729009628296,0.4297437,0.9801333000000001,117.634254,-48.510059999999996,16.841295000000002,CSI
13147120000000.0,2.086215019226074,1.3268427848815918,7.266757011413574,5.920534133911133,-0.8667227029800415,0.45051312,0.9932669,117.36076000000001,-48.055725,17.038435,CSI
13147125000000.0,2.091212272644043,1.4234007596969604,7.2016282081604,5.958909034729004,-0.8717249035835266,0.49388456,0.9896017,117.08146,-47.606792,17.231061999999998,CSI
13147130000000.0,2.096212387084961,1.518898367881775,7.132058143615723,5.995749473571777,-0.8747513890266418,0.5296202,0.99265605,116.794266,-47.134777,17.478003,CSI
13147135000000.0,2.101210117340088,1.6117852926254272,7.05776834487915,6.037318706512451,-0.8766562342643738,0.5390885999999999,0.98837996,116.50832,-46.674034000000006,17.71268,CSI
13147140000000.0,2.1062068939208984,1.7012076377868652,6.985875129699707,6.087921619415283,-0.8782642483711243,0.5213734999999999,0.979217,116.23475,-46.220079999999996,17.979084,CSI
13147146000000.0,2.111205577850342,1.7863819599151611,6.922988414764404,6.151611804962158,-0.8776542544364929,0.46639562,0.9975429,115.965965,-45.7847,18.24904,CSI
13147150000000.0,2.1162030696868896,1.8706926107406616,6.860468864440918,6.2168073654174805,-0.8755955100059509,0.39675698,0.9776898,115.69133000000001,-45.312992,18.51651,CSI
13147155000000.0,2.121204376220703,1.9571640491485596,6.790788650512695,6.273665904998779,-0.8723605871200562,0.37598756,0.9437868,115.42003000000001,-44.85808,18.77913,CSI
13147160000000.0,2.126206636428833,2.046152353286743,6.715597152709961,6.320963382720947,-0.8702746629714966,0.35002577,0.9254609,115.14599,-44.380688,19.026669000000002,CSI
13147165000000.0,2.13120698928833,2.137939214706421,6.636369228363037,6.357696533203125,-0.8684138655662537,0.33994650000000004,0.9193522,114.88009,-43.925156,19.263758,CSI
13147170000000.0,2.136207103729248,2.233830690383911,6.555311679840088,6.387034893035889,-0.8658709526062012,0.3631594,0.91232723,114.61925500000001,-43.45425,19.531760000000002,CSI
13147175000000.0,2.141207218170166,2.335052013397217,6.4745965003967285,6.412075519561768,-0.8631054162979126,0.38056904,0.91813046,114.36283999999999,-42.988215999999994,19.79701,CSI
13147180000000.0,2.146206855773926,2.437357187271118,6.394336223602295,6.431110382080078,-0.8593316078186035,0.39431350000000004,0.93187493,114.11555,-42.525459999999995,20.10229,CSI
13147185000000.0,2.151205062866211,2.5356807708740234,6.314676761627197,6.442023277282715,-0.8537893295288086,0.40958515,0.93828905,113.866394,-42.07594,20.395998000000002,CSI
13147190000000.0,2.1562001705169678,2.6265320777893066,6.236547470092773,6.446264743804932,-0.8466216921806335,0.42943826,0.9443976999999999,113.62008999999999,-41.619279999999996,20.735826,CSI
13147195000000.0,2.161201000213623,2.70332670211792,6.161528587341309,6.445804595947266,-0.8378176689147949,0.46639562,0.95081174,113.36700400000001,-41.17841,21.062098000000002,CSI
13147200000000.0,2.1661977767944336,2.7649385929107666,6.090162754058838,6.441679954528809,-0.8281480669975281,0.44623706,0.9324858,113.13930500000001,-40.757453999999996,21.40642,CSI
13147205000000.0,2.171201467514038,2.8080639839172363,6.023360252380371,6.434988021850586,-0.8164708018302917,0.4392121,0.91690874,112.90056000000001,-40.356308,21.734522,CSI
13147210000000.0,2.176199197769165,2.8400447368621826,5.962124824523926,6.4265360832214355,-0.803218424320221,0.43218717,0.91813046,112.66273999999999,-39.981697,22.025164,CSI
13147215000000.0,2.1812000274658203,2.873370409011841,5.908980846405029,6.417518138885498,-0.7883934378623962,0.42302418,0.9221011,112.43162,-39.626263,22.308697,CSI
13147220000000.0,2.186197519302368,2.907547950744629,5.86275053024292,6.4095869064331055,-0.7732842564582825,0.42210788,0.9272934000000002,112.18982,-39.305138,22.52127,CSI
13147225000000.0,2.1911988258361816,2.941718101501465,5.821575164794922,6.406743049621582,-0.7591755986213684,0.42149702,0.92179567,111.95358999999999,-38.994285999999995,22.729694,CSI
13147230000000.0,2.1961967945098877,2.974838972091675,5.785670757293701,6.408690452575684,-0.7460955381393433,0.41813725,0.91813046,111.732925,-38.706579999999995,22.94535,CSI
13147235000000.0,2.201197385787964,3.004534959793091,5.756185531616211,6.415513515472412,-0.733777642250061,0.44684792,0.9108001,111.50986499999999,-38.424538,23.147867,CSI
13147240000000.0,2.206195592880249,3.0309157371520996,5.732407093048096,6.428475379943848,-0.7222464084625244,0.49816059999999995,0.906524,111.27808,-38.139804999999996,23.339342000000002,CSI
13147245000000.0,2.2112324237823486,3.053006887435913,5.712202548980713,6.462084770202637,-0.7120459079742432,0.5363397,0.9034697,111.0468,-37.85742,23.521744,CSI
13147250000000.0,2.2162296772003174,3.071697950363159,5.69441032409668,6.5099101066589355,-0.7043749094009399,0.57910025,0.90224797,110.80196000000001,-37.579052000000004,23.666613,CSI
13147256000000.0,2.2212331295013428,3.086190700531006,5.675389289855957,6.574142932891846,-0.7008890509605408,0.6001751000000001,0.90377516,110.55665,-37.29385,23.804094,CSI
13147260000000.0,2.226243257522583,3.096702814102173,5.655200004577637,6.653945446014404,-0.700551450252533,0.5653558000000001,0.9080511999999998,110.28118,-36.975629999999995,23.898982999999998,CSI
13147265000000.0,2.231241464614868,3.103658676147461,5.634049415588379,6.747232437133789,-0.7022827863693237,0.49388456,0.8979719,110.01579,-36.65228,23.991814,CSI
13147270000000.0,2.2362568378448486,3.1058828830718994,5.611607551574707,6.852841377258301,-0.7058913707733154,0.39614612,0.89552844,109.7646,-36.32046,24.096714000000002,CSI
13147276000000.0,2.2412548065185547,3.0940499305725098,5.586716175079346,6.944458961486816,-0.7116353511810303,0.34208453,0.8918633,109.52531,-35.985459999999996,24.202333,CSI
13147280000000.0,2.2462477684020996,3.0682790279388428,5.559340953826904,7.0224528312683105,-0.7189776301383972,0.33414328,0.89552844,109.22079,-35.56265,24.241262,CSI
13147285000000.0,2.251243829727173,3.039074182510376,5.530478477478027,7.094067573547363,-0.7279796004295349,0.32803464,0.8903360999999999,108.9346,-35.139294,24.286376999999998,CSI
13147290000000.0,2.256237268447876,3.0096001625061035,5.500545978546143,7.161604881286621,-0.7377877235412598,0.34880406,0.88270026,108.64917,-34.719505,24.324607999999998,CSI
13147295000000.0,2.2612359523773193,2.9828624725341797,5.473036766052246,7.230942726135254,-0.7484729886054993,0.35369098,0.8720101,108.37205,-34.322716,24.316673,CSI
13147300000000.0,2.2662353515625,2.959266185760498,5.448464393615723,7.302960395812988,-0.7603630423545837,0.35827246,0.88239485,108.09225,-33.92396,24.304926000000002,CSI
13147305000000.0,2.271238327026367,2.93830943107605,5.426329612731934,7.374177932739258,-0.7726123332977295,0.38606682,0.88178396,107.81168999999998,-33.526759999999996,24.277159,CSI
13147310000000.0,2.2762389183044434,2.9197216033935547,5.406376361846924,7.443603515625,-0.7861946821212769,0.41691554,0.88270026,107.5316,-33.122578000000004,24.248179999999998,CSI
13147315000000.0,2.281273603439331,2.903538942337036,5.385742664337158,7.507611274719238,-0.8012343645095825,0.42852196,0.8924741,107.24625,-32.709896,24.213823,CSI
13147321000000.0,2.286271810531616,2.8893067836761475,5.364250183105469,7.5660319328308105,-0.8182234168052673,0.4529566,0.9120218000000001,106.9553,-32.29172,24.170034,CSI
13147325000000.0,2.291269063949585,2.869551420211792,5.331235408782959,7.616854667663574,-0.8360487222671509,0.45631635,0.9098838,106.67411000000001,-31.87612,24.126558,CSI
13147330000000.0,2.2962663173675537,2.8414947986602783,5.283041954040527,7.6596598625183105,-0.8529566526412964,0.45998153,0.90285885,106.39023600000002,-31.46183,24.078749,CSI
13147335000000.0,2.3012638092041016,2.8122196197509766,5.227598667144775,7.704891204833984,-0.8685240149497986,0.5009095,0.9379835999999999,106.0984,-31.041115,24.036732,CSI
13147341000000.0,2.3062613010406494,2.784759283065796,5.168484687805176,7.756886005401611,-0.8848732113838196,0.5494733,0.97066486,105.81241599999998,-30.61988,23.989124,CSI
13147345000000.0,2.311258554458618,2.7573843002319336,5.108882427215576,7.812119483947754,-0.9027601480484009,0.5448918,0.97433007,105.500824,-30.162924,23.928318,CSI
13147350000000.0,2.3162546157836914,2.729358434677124,5.0501708984375,7.868980407714844,-0.9213215708732605,0.49571714,0.98868537,105.18285,-29.704359999999998,23.872142999999998,CSI
13147355000000.0,2.3212504386901855,2.700711250305176,4.992297649383545,7.927392959594727,-0.9403099417686462,0.44929138,0.990518,104.849434,-29.206235999999997,23.806229000000002,CSI
13147360000000.0,2.3262476921081543,2.6673622131347656,4.935375690460205,7.990884304046631,-0.9600768685340881,0.38606682,0.99112886,104.529655,-28.705940000000002,23.756582,CSI
13147365000000.0,2.33124041557312,2.628643035888672,4.8794450759887695,8.05992603302002,-0.979978621006012,0.33994650000000004,0.9963211999999999,104.21875,-28.210012,23.713285,CSI
13147370000000.0,2.3362374305725098,2.5884621143341064,4.8289265632629395,8.131754875183105,-0.9999103546142578,0.3304781,0.9944886000000001,103.90050500000001,-27.695220000000003,23.654818,CSI
13147375000000.0,2.341231346130371,2.547835350036621,4.784463405609131,8.20544719696045,-1.0200332403182983,0.33078352,0.98471475,103.59463000000001,-27.183771000000004,23.602982,CSI
13147380000000.0,2.34622859954834,2.5148651599884033,4.745951175689697,8.277230262756348,-1.0398324728012085,0.3277292,0.979217,103.27429000000001,-26.662159999999997,23.514421,CSI
13147385000000.0,2.3512256145477295,2.4902939796447754,4.713049411773682,8.346611022949219,-1.0593904256820679,0.29352075,0.99204516,102.96239,-26.142817,23.43365,CSI
13147390000000.0,2.3562233448028564,2.473970651626587,4.684645652770996,8.409919738769531,-1.0786547660827637,0.29199359999999996,1.0076222,102.6496,-25.634779,23.324564000000002,CSI
13147395000000.0,2.361217498779297,2.465444564819336,4.660153865814209,8.466124534606934,-1.0975110530853271,0.32925636,1.0216721,102.339264,-25.13157,23.215187,CSI
13147400000000.0,2.3662173748016357,2.4626433849334717,4.639898777008057,8.521965980529785,-1.1163878440856934,0.38484509999999994,1.0375546,102.04238000000001,-24.637823,23.126082999999998,CSI
13147406000000.0,2.3712239265441895,2.464895486831665,4.623758792877197,8.578801155090332,-1.1346005201339722,0.40072759999999996,1.0647381999999999,101.74491,-24.150717,23.040264,CSI
13147410000000.0,2.376227855682373,2.466332197189331,4.603519439697266,8.641220092773438,-1.15182626247406,0.3640757,1.0919216,101.46788000000001,-23.678732,22.984951000000002,CSI
13147415000000.0,2.381226062774658,2.463848829269409,4.574878215789795,8.711586952209473,-1.168850302696228,0.2910773,1.1007791999999998,101.19678499999999,-23.209562,22.935398,CSI
13147420000000.0,2.3862247467041016,2.468400478363037,4.541597366333008,8.786161422729492,-1.1852437257766724,0.15943582,1.1032226,100.94527,-22.752249,22.925173,CSI
13147425000000.0,2.3912253379821777,2.4853971004486084,4.505776405334473,8.8628511428833,-1.199558973312378,0.105374254,1.1142181999999998,100.69328,-22.305495999999998,22.914686,CSI
13147430000000.0,2.3962254524230957,2.5147311687469482,4.471784591674805,8.941903114318848,-1.2110929489135742,0.011911871999999999,1.1270463,100.42905999999999,-21.8221,22.92055,CSI
13147435000000.0,2.4012250900268555,2.5561251640319824,4.441917419433594,9.023425102233887,-1.2209705114364624,-0.09743301,1.1643091,100.16826,-21.345146,22.947123,CSI
13147440000000.0,2.406224489212036,2.610870122909546,4.412454128265381,9.098278045654297,-1.226577877998352,-0.25045475,1.2024882,99.92181,-20.869660999999997,23.05111,CSI
13147445000000.0,2.4112234115600586,2.6792566776275635,4.381504058837891,9.162009239196777,-1.2303237915039062,-0.30879238,1.2183707000000001,99.67663,-20.396547,23.156893,CSI
13147450000000.0,2.41622257232666,2.7567994594573975,4.35017728805542,9.209831237792969,-1.2330398559570312,-0.31703907,1.210124,99.45536,-19.940289,23.328039999999998,CSI
13147455000000.0,2.4212310314178467,2.84132719039917,4.319004058837891,9.23918628692627,-1.2339184284210205,-0.18020524,1.2760975,99.20114000000001,-19.494034,23.479898000000002,CSI
13147460000000.0,2.426231622695923,2.9410576820373535,4.289495468139648,9.263733863830566,-1.2335456609725952,-0.11942416,1.3209959999999998,98.993866,-19.054228,23.721567,CSI
13147465000000.0,2.431230306625366,3.062330722808838,4.262602806091309,9.29218864440918,-1.2314999103546143,-0.10323623,1.3264938999999998,98.77125,-18.630167,23.934603,CSI
13147471000000.0,2.436229705810547,3.204977512359619,4.23160982131958,9.32049560546875,-1.2283422946929932,-0.110872045,1.3283265,98.572174,-18.223335000000002,24.207228,CSI
13147475000000.0,2.441229820251465,3.368337631225586,4.192656993865967,9.346254348754883,-1.2239043712615967,-0.12797627,1.3445143999999998,98.36882,-17.830265,24.472467,CSI
13147480000000.0,2.4462287425994873,3.543022871017456,4.14383602142334,9.364063262939453,-1.218937873840332,-0.13927728,1.3435981000000001,98.21700000000001,-17.442733999999998,24.825658999999998,CSI
13147485000000.0,2.4512250423431396,3.723978281021118,4.084471702575684,9.371429443359375,-1.213910460472107,-0.16768251,1.3426818,98.06478,-17.064072,25.179083,CSI
13147490000000.0,2.456224203109741,3.9023194313049316,4.018668174743652,9.371581077575684,-1.2083534002304077,-0.16768251,1.3267993,97.94546,-16.662388,25.633132999999997,CSI
13147495000000.0,2.461223602294922,4.071411609649658,3.9497339725494385,9.3671293258667,-1.2013345956802368,-0.17440203,1.2971723,97.8327,-16.274507999999997,26.08073,CSI
13147500000000.0,2.466221570968628,4.229190349578857,3.8761050701141357,9.361234664916992,-1.192020297050476,-0.13591751,1.2586879,97.74018000000001,-15.8644705,26.592411,CSI
13147505000000.0,2.4712250232696533,4.3742241859436035,3.7964515686035156,9.35616397857666,-1.1818677186965942,-0.13255776,1.2305881,97.65403,-15.464362,27.097016999999997,CSI
13147510000000.0,2.4762306213378906,4.511722564697266,3.713080883026123,9.349609375,-1.1715887784957886,-0.13041973,1.2046263000000001,97.5618,-15.064370000000002,27.584846000000002,CSI
13147515000000.0,2.481229543685913,4.645625114440918,3.6279327869415283,9.339920997619629,-1.1613693237304688,-0.13072516,1.1676688999999998,97.47833,-14.680472,28.054075,CSI
13147520000000.0,2.4862277507781982,4.769165515899658,3.5423362255096436,9.329861640930176,-1.1506038904190063,-0.14966199,1.1313223999999997,97.366005,-14.276017999999999,28.494858,CSI
13147525000000.0,2.491227388381958,4.876519203186035,3.4575107097625732,9.321854591369629,-1.1396796703338623,-0.16157386,1.105666,97.25921,-13.881870000000001,28.918669,CSI
13147530000000.0,2.4962263107299805,4.966585636138916,3.370412826538086,9.31313705444336,-1.1283609867095947,-0.18631389999999998,1.0885619,97.1606,-13.484665,29.360917999999998,CSI
13147536000000.0,2.501225471496582,5.038201808929443,3.2780978679656982,9.301092147827148,-1.1149271726608276,-0.20219639,1.0458013000000002,97.076035,-13.112142,29.787253999999997,CSI
13147540000000.0,2.5062243938446045,5.09135103225708,3.1837408542633057,9.286343574523926,-1.1001583337783813,-0.20005837,0.9960158000000001,96.96568,-12.73597,30.16137,CSI
13147545000000.0,2.511223554611206,5.1258955001831055,3.0905888080596924,9.269513130187988,-1.0847930908203125,-0.19333886,0.9434814,96.86981,-12.381782000000001,30.524794,CSI
13147550000000.0,2.5162220001220703,5.141703128814697,2.997037649154663,9.253900527954102,-1.0679190158843994,-0.17806722,0.91446525,96.73491999999999,-12.019999499999999,30.830240000000003,CSI
13147555000000.0,2.521225929260254,5.137047290802002,2.899905204772949,9.245752334594727,-1.049958348274231,-0.15577064,0.8732319,96.61995999999999,-11.678447,31.119333,CSI
13147560000000.0,2.5262255668640137,5.115701675415039,2.806013822555542,9.24627685546875,-1.0306109189987183,-0.1563815,0.8258898000000001,96.48461999999999,-11.34982,31.347252,CSI
13147565000000.0,2.5312252044677734,5.080605506896973,2.7224955558776855,9.257267951965332,-1.0090879201889038,-0.18173242,0.7812967,96.36325,-11.045333,31.567859999999996,CSI
13147570000000.0,2.5362212657928467,5.035906791687012,2.641942024230957,9.2748384475708,-0.9862214922904968,-0.21319197,0.7501425,96.196396,-10.727948,31.708475,CSI
13147575000000.0,2.541220188140869,4.9876837730407715,2.551814079284668,9.293013572692871,-0.9623599648475647,-0.23273966,0.7339545999999999,96.04249,-10.433575,31.847298,CSI
13147580000000.0,2.5462141036987305,4.93629264831543,2.453017473220825,9.31171703338623,-0.9384353756904602,-0.28008172,0.7058548000000001,95.888565,-10.172291,31.920631,CSI
13147585000000.0,2.5512118339538574,4.881712913513184,2.345569372177124,9.33096981048584,-0.9147602915763855,-0.34483343,0.65209866,95.753815,-9.930655499999999,31.999775,CSI
13147590000000.0,2.556208372116089,4.826125621795654,2.23616886138916,9.350021362304688,-0.8911912441253662,-0.38606682,0.5864305999999999,95.63295,-9.705164,32.08076,CSI
13147595000000.0,2.5612070560455322,4.773241996765137,2.136483907699585,9.367539405822754,-0.8671854138374329,-0.39736784,0.5412266,95.527725,-9.495907,32.167316,CSI
13147600000000.0,2.566204786300659,4.724608421325684,2.0502450466156006,9.386100769042969,-0.8438078165054321,-0.35277468,0.52778757,95.34342,-9.198722,32.206463,CSI
13147605000000.0,2.5712080001831055,4.683096408843994,1.9847080707550049,9.410216331481934,-0.8219853639602661,-0.33475417,0.52595496,95.17564,-8.914877,32.2523,CSI
13147610000000.0,2.5762085914611816,4.645707130432129,1.9377179145812988,9.4352388381958,-0.8024978637695312,-0.33444872,0.5143485,95.02843,-8.652528,32.286358,CSI
13147615000000.0,2.581207036972046,4.606529235839844,1.9069398641586304,9.451601028442383,-0.7846348881721497,-0.3454443,0.4908302,94.88835999999999,-8.398022000000001,32.31641,CSI
13147620000000.0,2.5862057209014893,4.566013813018799,1.8896403312683105,9.4587984085083,-0.7680168747901917,-0.33964106,0.48502702,94.78891,-8.1965685,32.339546,CSI
13147625000000.0,2.5912046432495117,4.526400089263916,1.8740172386169434,9.452282905578613,-0.7534726858139038,-0.29138273,0.4709771,94.7009,-7.997008,32.351279999999996,CSI
13147630000000.0,2.5962026119232178,4.4889984130859375,1.8588050603866577,9.434330940246582,-0.7410871982574463,-0.23732115,0.45142943,94.66317,-7.857685000000001,32.357533000000004,CSI
13147635000000.0,2.601203680038452,4.463869571685791,1.8351519107818604,9.41656494140625,-0.7331544160842896,-0.22999077,0.43096542,94.632324,-7.7069893,32.36227,CSI
13147640000000.0,2.6062300205230713,4.451485633850098,1.803109884262085,9.398845672607422,-0.7290626168251038,-0.24068089999999998,0.42119157,94.61955999999999,-7.5654580000000005,32.37859,CSI
13147645000000.0,2.611229181289673,4.4500837326049805,1.7660541534423828,9.381110191345215,-0.7267352342605591,-0.27366763,0.41538838,94.61473000000001,-7.4203470000000005,32.397934,CSI
13147650000000.0,2.6162264347076416,4.459570407867432,1.7246553897857666,9.362029075622559,-0.7255899310112,-0.29840767,0.41325033,94.60311,-7.2332187,32.454803000000005,CSI
13147655000000.0,2.621224880218506,4.477263927459717,1.6835790872573853,9.336430549621582,-0.7259054780006409,-0.31703907,0.41325033,94.59569499999999,-7.0414076,32.517765000000004,CSI
13147660000000.0,2.6262402534484863,4.502954006195068,1.6424819231033325,9.305147171020508,-0.7272622585296631,-0.31429017,0.42730024,94.58037,-6.822312400000001,32.62141,CSI
13147665000000.0,2.631237268447876,4.532176494598389,1.599373698234558,9.279031753540039,-0.7298814654350281,-0.31642818,0.44684792,94.56571,-6.598567,32.72953,CSI
13147670000000.0,2.6362528800964355,4.565505027770996,1.553782343864441,9.258081436157227,-0.7330610156059265,-0.33017266,0.4709771,94.56694,-6.37193,32.888733,CSI
13147675000000.0,2.6412546634674072,4.603208541870117,1.5069756507873535,9.236653327941895,-0.7377639412879944,-0.34025195,0.48624873,94.565315,-6.137003,33.044579999999996,CSI
13147680000000.0,2.6462485790252686,4.645183086395264,1.4589418172836304,9.214738845825195,-0.7432742714881897,-0.33841935,0.5152648,94.54403,-5.882264,33.209732,CSI
13147686000000.0,2.6512441635131836,4.695671558380127,1.4067304134368896,9.190136909484863,-0.749093234539032,-0.3368922,0.5357288,94.52196500000001,-5.6253023,33.374287,CSI
13147690000000.0,2.6562376022338867,4.754891872406006,1.3501002788543701,9.16262435913086,-0.7548136711120605,-0.3277292,0.5644395000000001,94.48808000000001,-5.3639545,33.53368,CSI
13147695000000.0,2.6612346172332764,4.820509910583496,1.2915043830871582,9.133034706115723,-0.7590247392654419,-0.32375857,0.59223384,94.4496,-5.09439,33.71908,CSI
13147700000000.0,2.6662333011627197,4.891581058502197,1.2316839694976807,9.101696968078613,-0.7618231177330017,-0.33017266,0.6426301999999999,94.39475,-4.820333,33.902084,CSI
13147705000000.0,2.6712310314178467,4.95778751373291,1.1744108200073242,9.069378852844238,-0.7633492350578308,-0.33139440000000003,0.6826419,94.33465600000001,-4.5292,34.130238,CSI
13147710000000.0,2.676225423812866,5.0170063972473145,1.1204370260238647,9.036312103271484,-0.7655102014541626,-0.33841935,0.7131852,94.26165999999999,-4.2335142999999995,34.35737,CSI
13147715000000.0,2.681225061416626,5.0729660987854,1.0719155073165894,9.005541801452637,-0.7676699757575989,-0.32162055,0.7528914000000001,94.17635,-3.9292269999999996,34.612324,CSI
13147720000000.0,2.686221122741699,5.126936435699463,1.0292067527770996,8.977900505065918,-0.7699099779129028,-0.32009340000000003,0.8078693,94.07635,-3.6189720000000003,34.868027000000005,CSI
13147725000000.0,2.691215753555298,5.1836395263671875,0.9898592233657837,8.951383590698242,-0.7722910642623901,-0.34697145,0.8313876,93.97314,-3.3129952000000005,35.11442,CSI
13147730000000.0,2.6962084770202637,5.244668483734131,0.9528710246086121,8.925230026245117,-0.7743499279022217,-0.37048978,0.8881981,93.84007,-2.998727,35.355137,CSI
13147735000000.0,2.701202869415283,5.312254905700684,0.9164764285087585,8.897780418395996,-0.7752247452735901,-0.376293,0.97158116,93.70232,-2.6962099999999998,35.591904,CSI
13147740000000.0,2.7061948776245117,5.386540412902832,0.8802186846733093,8.86870288848877,-0.775483250617981,-0.35979962,1.0586295000000001,93.54467,-2.3871572,35.823640000000005,CSI
13147745000000.0,2.711190938949585,5.461738109588623,0.8445020914077759,8.836376190185547,-0.7752071022987366,-0.32803464,1.1389582,93.371635,-2.076711,36.074596,CSI
13147750000000.0,2.7161853313446045,5.536466598510742,0.8094252347946167,8.8007173538208,-0.7746526598930359,-0.301462,1.2049317,93.17439,-1.7605107,36.316235,CSI
13147755000000.0,2.7211830615997314,5.6157097816467285,0.7893487811088562,8.777485847473145,-0.7740951776504517,-0.29626966,1.3041973,92.95374,-1.4283814,36.592556,CSI
13147760000000.0,2.726177453994751,5.700069904327393,0.7862450480461121,8.769123077392578,-0.7741371393203735,-0.31734450000000003,1.4150693,92.7069,-1.086661,36.861366,CSI
13147765000000.0,2.7311742305755615,5.7830328941345215,0.7809839248657227,8.776907920837402,-0.7739489674568176,-0.28496864,1.4923438,92.44264,-0.7392536,37.13006,CSI
13147770000000.0,2.7361702919006348,5.863260269165039,0.7697433829307556,8.80016803741455,-0.7729895114898682,-0.30634892,1.5628988000000001,92.143776,-0.3791585,37.411964000000005,CSI
13147775000000.0,2.7411727905273438,5.927176475524902,0.7589356303215027,8.813873291015625,-0.7726671695709229,-0.2565634,1.6426166000000002,91.86571500000001,-0.0627131,37.654484000000004,CSI
13147780000000.0,2.746184825897217,5.970086574554443,0.7509994506835938,8.808738708496094,-0.7724271416664124,-0.16584991,1.6777414000000002,91.5811,0.24823034,37.882977000000004,CSI
13147785000000.0,2.751183271408081,6.001064777374268,0.7520084381103516,8.79256820678711,-0.7719557285308838,-0.09101892,1.7394387999999998,91.21915,0.6023467,38.053925,CSI
13147790000000.0,2.7561841011047363,6.023351192474365,0.7651248574256897,8.767871856689453,-0.771297812461853,-0.05467244,1.8072448,90.84736,0.9583235999999999,38.202843,CSI
13147795000000.0,2.7611827850341797,6.037275314331055,0.7878548502922058,8.736495971679688,-0.770723819732666,-0.035124752999999995,1.8616118000000001,90.465775,1.310638,38.317963,CSI
13147800000000.0,2.766188621520996,6.042220592498779,0.8146875500679016,8.70254135131836,-0.7709943056106567,-0.02321288,1.9269744,90.06179,1.6733407,38.419167,CSI
13147805000000.0,2.7711899280548096,6.038886547088623,0.8423017859458923,8.665575981140137,-0.7713154554367065,-0.014660766,1.971873,89.70266,1.9809221000000001,38.516712,CSI
13147810000000.0,2.776191473007202,6.027289390563965,0.8632706999778748,8.623773574829102,-0.7711800336837769,0.035124752999999995,2.0018053,89.33182,2.2935858,38.59446,CSI
13147814000000.0,2.781187057495117,6.011470317840576,0.8771252036094666,8.579485893249512,-0.7714587450027466,0.06566802,2.031127,88.95201,2.5984356,38.651959999999995,CSI
13147820000000.0,2.786189079284668,5.996998310089111,0.8824335336685181,8.535795211791992,-0.7723574042320251,0.124311075,2.0457878000000003,88.57465,2.8998367999999997,38.684082000000004,CSI
13147825000000.0,2.791185140609741,5.982609748840332,0.8778249621391296,8.494532585144043,-0.773842990398407,0.19394971,2.0598376,88.17128000000001,3.223045,38.689747,CSI
13147830000000.0,2.796186923980713,5.965645790100098,0.858551561832428,8.459582328796387,-0.7772678136825562,0.24281894,2.0702224,87.77241,3.5507941,38.682137,CSI
13147835000000.0,2.8011839389801025,5.945457458496094,0.8262307643890381,8.428726196289062,-0.7825447916984558,0.25320363,2.0690005,87.35056,3.906186,38.664635,CSI
13147840000000.0,2.80618953704834,5.91969108581543,0.7815576195716858,8.397467613220215,-0.7900797724723816,0.2761111,2.065641,86.93606,4.267074,38.627544,CSI
13147845000000.0,2.8111867904663086,5.889046669006348,0.7260412573814392,8.365951538085938,-0.7988083958625793,0.2764165,2.0628919999999997,86.467476,4.6822653,38.56134,CSI
13147850000000.0,2.8161892890930176,5.853469371795654,0.6595941185951233,8.334094047546387,-0.8084554076194763,0.33567044,2.0653354999999998,86.01166500000001,5.0997996,38.469883,CSI
13147855000000.0,2.8211939334869385,5.813948154449463,0.585606038570404,8.302809715270996,-0.820306658744812,0.37812558,2.0723602999999997,85.557106,5.524396,38.379220000000004,CSI
13147860000000.0,2.8261966705322266,5.773418426513672,0.5153214335441589,8.275588989257812,-0.8346027135848999,0.45570546,2.0851886000000004,85.114334,5.950002,38.260117,CSI
13147865000000.0,2.8311989307403564,5.7316389083862305,0.44727596640586853,8.251729965209961,-0.8510668277740479,0.49877146,2.0931299,84.56294,6.491472,38.087757,CSI
13147870000000.0,2.836199998855591,5.6852498054504395,0.3657667934894562,8.224936485290527,-0.8672558069229126,0.5030475000000001,2.0638082,84.03664,7.021961,37.903877,CSI
13147875000000.0,2.8411989212036133,5.633874893188477,0.27108457684516907,8.195501327514648,-0.8821913599967957,0.48075095,2.053729,83.503204,7.5587077,37.69372,CSI
13147881000000.0,2.8461992740631104,5.573286533355713,0.1603432595729828,8.164329528808594,-0.8968355655670166,0.49968776,2.0546453000000002,82.99353,8.088669,37.470837,CSI
13147885000000.0,2.8511979579925537,5.504426956176758,0.034932639449834824,8.130607604980469,-0.9126363396644592,0.54275376,2.0958786,82.42352,8.685935,37.221775,CSI
13147890000000.0,2.856199026107788,5.43013334274292,-0.10225483030080795,8.086797714233398,-0.9284414649009705,0.5839871999999999,2.1331415000000002,81.87187,9.269751,36.966834999999996,CSI
13147895000000.0,2.8611972332000732,5.352511405944824,-0.2499120980501175,8.03405475616455,-0.9440228343009949,0.6407976,2.1804836,81.23618,9.947006,36.643826000000004,CSI
13147900000000.0,2.866199254989624,5.292603015899658,-0.4037620425224304,7.977577209472656,-0.9577158093452454,0.73273283,2.1786508999999996,80.63008,10.606794,36.298794,CSI
13147906000000.0,2.8712239265441895,5.250302791595459,-0.5642422437667847,7.917530536651611,-0.9697186350822449,0.8017605999999999,2.175291,79.96203,11.34733,35.923363,CSI
13147910000000.0,2.876225233078003,5.219857215881348,-0.7236369848251343,7.865164279937744,-0.97828209400177,0.8521569999999999,2.2003367000000003,79.31296,12.067571000000001,35.524208,CSI
13147915000000.0,2.8812193870544434,5.201222896575928,-0.882461667060852,7.820343494415283,-0.9838011264801025,0.8784242,2.2437081,78.66882,12.825063,35.168785,CSI
13147920000000.0,2.8862192630767822,5.187525272369385,-1.0413559675216675,7.783841609954834,-0.9878215193748474,0.90194255,2.2317963,78.0616,13.558614000000002,34.80128,CSI
13147925000000.0,2.89121413230896,5.176063537597656,-1.20006263256073,7.755307197570801,-0.9904882311820984,0.9266825999999999,2.2244658,77.46285,14.27677,34.421986,CSI
13147930000000.0,2.8962161540985107,5.162764072418213,-1.3599107265472412,7.731029033660889,-0.99185711145401,0.9379835999999999,2.2455406000000004,76.87114,15.002711999999999,34.061268,CSI
13147935000000.0,2.901214361190796,5.14650297164917,-1.5207829475402832,7.709513187408447,-0.991492748260498,0.9663888,2.255009,76.3117,15.705195999999999,33.6907,CSI
13147940000000.0,2.906214952468872,5.123916149139404,-1.6842308044433594,7.682298183441162,-0.9904966950416565,1.0042624,2.2470677,75.749374,16.421547,33.29763,CSI
13147946000000.0,2.9112131595611572,5.0940117835998535,-1.8504972457885742,7.646257400512695,-0.9879260063171387,1.0647381999999999,2.2357669999999996,75.212776,17.113617,32.89136,CSI
13147950000000.0,2.916217565536499,5.059703826904297,-2.016914129257202,7.604382038116455,-0.9839622378349304,1.1389582,2.218357,74.67734499999999,17.825879999999998,32.446205,CSI
13147955000000.0,2.92122220993042,5.022616386413574,-2.1819803714752197,7.558432579040527,-0.9780448079109192,1.1838568,2.2104158,74.16848,18.513718,31.995487,CSI
13147960000000.0,2.926222562789917,4.988640785217285,-2.3394391536712646,7.5169525146484375,-0.9691547155380249,1.1893546999999998,2.1838431000000003,73.65394599999999,19.231144,31.520646999999997,CSI
13147965000000.0,2.9312517642974854,4.962234973907471,-2.484941244125366,7.486458778381348,-0.9577271342277527,1.1328496000000001,2.1719313,73.15706,19.927232999999998,31.052916999999997,CSI
13147970000000.0,2.9362499713897705,4.935298919677734,-2.620539903640747,7.467010498046875,-0.9443529844284058,1.0564915000000001,2.1407773,72.666725,20.630318,30.584532,CSI
13147975000000.0,2.941248655319214,4.902196884155273,-2.747077226638794,7.461180686950684,-0.9309916496276855,0.95081174,2.1111503,72.18825,21.313382999999998,30.143127000000003,CSI
13147980000000.0,2.94624662399292,4.861032485961914,-2.8688251972198486,7.468234062194824,-0.9173006415367126,0.8686504,2.0653354999999998,71.748726,21.937586,29.729785999999997,CSI
13147985000000.0,2.951241970062256,4.810593128204346,-2.988927125930786,7.487399578094482,-0.9029394388198853,0.7849618,2.0250182,71.31824499999999,22.541076999999998,29.35029,CSI
13147990000000.0,2.956235408782959,4.75056791305542,-3.1094202995300293,7.509923458099365,-0.8875530362129211,0.70707655,1.9874501,70.89625500000001,23.1045,28.943419,CSI
13147995000000.0,2.9612343311309814,4.680530548095703,-3.231984853744507,7.529359340667725,-0.8689987063407898,0.66981375,1.9339993999999998,70.499146,23.631273,28.558937,CSI
13148000000000.0,2.9662349224090576,4.605556488037109,-3.3542983531951904,7.546011924743652,-0.8465988039970398,0.6392705,1.8655825000000001,70.09978000000001,24.136179000000002,28.128759999999996,CSI
13148005000000.0,2.9712398052215576,4.533002853393555,-3.472980499267578,7.560202121734619,-0.8209977746009827,0.59620446,1.806634,69.7188,24.606735,27.722746,CSI
13148010000000.0,2.976236581802368,4.4638190269470215,-3.5881645679473877,7.569571495056152,-0.7935056090354919,0.5665775,1.7525723999999998,69.33122,25.087118,27.274889,CSI
13148015000000.0,2.9812357425689697,4.39933443069458,-3.7002463340759277,7.570344924926758,-0.7651346325874329,0.552833,1.6969836999999999,68.96880999999999,25.53163,26.848402,CSI
13148020000000.0,2.9862308502197266,4.33900785446167,-3.807018280029297,7.563012599945068,-0.7357200980186462,0.5439755000000001,1.6771306000000001,68.61,25.960821,26.429268,CSI
13148025000000.0,2.9912304878234863,4.282149791717529,-3.9045469760894775,7.5474419593811035,-0.7066686153411865,0.54000485,1.6493362,68.278305,26.366394,26.027237,CSI
13148030000000.0,2.9962244033813477,4.224992752075195,-3.989427328109741,7.522948265075684,-0.6764958500862122,0.49816059999999995,1.6181821,67.950806,26.762166999999998,25.659126,CSI
13148036000000.0,3.0012600421905518,4.157557964324951,-4.05037784576416,7.484408855438232,-0.6449523568153381,0.35246924,1.5833627000000001,67.624504,27.137453000000004,25.327503,CSI
13148040000000.0,3.0062551498413086,4.078617095947266,-4.0969672203063965,7.438835620880127,-0.6118344068527222,0.30329459999999997,1.5668693999999999,67.32304,27.489084000000002,25.004883,CSI
13148045000000.0,3.0112528800964355,3.9731688499450684,-4.135913372039795,7.390531063079834,-0.5797163844108582,0.24068089999999998,1.5464053,67.01475500000001,27.825808000000002,24.730919,CSI
13148050000000.0,3.0162510871887207,3.8435275554656982,-4.167945861816406,7.340941429138184,-0.5469498038291931,0.20433442,1.5128077,66.724915,28.100723,24.455624,CSI
13148056000000.0,3.0212554931640625,3.6932213306427,-4.194544792175293,7.295485019683838,-0.5136668682098389,0.19272798,1.4899003999999998,66.43814,28.365503000000004,24.194662,CSI
13148060000000.0,3.0262537002563477,3.5246052742004395,-4.216247081756592,7.254117012023926,-0.48057878017425537,0.17684549,1.4538593,66.129005,28.627947,23.836143,CSI
13148065000000.0,3.031249761581421,3.3383560180664062,-4.234048366546631,7.219069957733154,-0.447447270154953,0.12889257,1.4318681,65.82125,28.871634999999998,23.494358,CSI
13148070000000.0,3.0362448692321777,3.1356043815612793,-4.2482008934021,7.188112258911133,-0.41425836086273193,0.044898596,1.3860531999999999,65.50259,29.101076000000003,23.0668,CSI
13148075000000.0,3.0412402153015137,2.9181594848632812,-4.2590742111206055,7.1547651290893555,-0.38137322664260864,-0.04184427,1.3399329,65.187126,29.314627,22.660381,CSI
13148080000000.0,3.0462350845336914,2.687195301055908,-4.268276691436768,7.118005752563477,-0.3480594754219055,-0.11911872,1.2831223999999999,64.86118,29.506752000000002,22.185827,CSI
13148085000000.0,3.051231622695923,2.4445455074310303,-4.281282424926758,7.073607921600342,-0.3146817684173584,-0.16798794,1.219287,64.54463,29.680628000000002,21.739101,CSI
13148090000000.0,3.0562286376953125,2.1915383338928223,-4.297794818878174,7.021736145019531,-0.28166672587394714,-0.22602014,1.1606439,64.21293,29.852575,21.235382,CSI
13148096000000.0,3.061224937438965,1.9315483570098877,-4.317265033721924,6.961627960205078,-0.24888105690479279,-0.2660318,1.0839803,63.901996999999994,29.999052000000002,20.756899,CSI
13148100000000.0,3.066223621368408,1.666723370552063,-4.338701248168945,6.8936872482299805,-0.21665439009666443,-0.30298916,0.9993755,63.57754,30.179325,20.223774,CSI
13148105000000.0,3.071242332458496,1.4046032428741455,-4.358464241027832,6.817958831787109,-0.18420816957950592,-0.34116822,0.9202684999999999,63.26928,30.334019,19.716213,CSI
13148110000000.0,3.076237440109253,1.1478995084762573,-4.376410961151123,6.737682342529297,-0.15130992233753204,-0.3680463,0.82986045,62.963737,30.515793,19.166466,CSI
13148115000000.0,3.0812370777130127,0.9036064147949219,-4.390353679656982,6.660160541534424,-0.11806514114141464,-0.43585235,0.7452555999999999,62.668602,30.674381,18.651262,CSI
13148120000000.0,3.0862348079681396,0.6719720363616943,-4.400633335113525,6.585777282714844,-0.08572936058044434,-0.5222898,0.70371675,62.368632999999996,30.844953999999998,18.121809,CSI
13148125000000.0,3.0912282466888428,0.4608914852142334,-4.408056259155273,6.5192060470581055,-0.05376582592725754,-0.61941737,0.6096435,62.095183999999996,30.9832,17.636116,CSI
13148130000000.0,3.0962204933166504,0.2699635326862335,-4.41197395324707,6.460137367248535,-0.022350026294589043,-0.754724,0.5122104999999999,61.817577,31.101728,17.187647,CSI
13148135000000.0,3.1012139320373535,0.10294605791568756,-4.406442642211914,6.4087114334106445,0.008010078221559525,-0.8894198,0.4175264,61.551143999999994,31.203363,16.779593,CSI
13148140000000.0,3.1062097549438477,-0.041726645082235336,-4.391778469085693,6.36434268951416,0.038526441901922226,-1.0180069,0.32223140000000006,61.299213,31.258383000000002,16.448545000000003,CSI
13148145000000.0,3.111203670501709,-0.16986893117427826,-4.366806983947754,6.324102401733398,0.07060686498880386,-1.1233811000000002,0.22632557,61.056152000000004,31.29212,16.161238,CSI
13148150000000.0,3.1162025928497314,-0.2823275327682495,-4.332061767578125,6.28813362121582,0.10382616519927979,-1.2049317,0.13836098,60.83931,31.253344,15.968919,CSI
13148155000000.0,3.121198892593384,-0.38252773880958557,-4.29164981842041,6.260096073150635,0.13805854320526123,-1.2776246,0.06658431,60.629303,31.191584000000002,15.813127,CSI
13148161000000.0,3.126202344894409,-0.4706588089466095,-4.245904922485352,6.239155292510986,0.17422665655612946,-1.3222178,0.00030543262000000003,60.449974,31.049849,15.721695,CSI
13148165000000.0,3.1311967372894287,-0.5448626279830933,-4.1992411613464355,6.216932773590088,0.21191807091236115,-1.3435981000000001,-0.071776666,60.28455400000001,30.890327000000003,15.654109,CSI
13148170000000.0,3.1361937522888184,-0.6054725646972656,-4.151558876037598,6.193390846252441,0.2507423460483551,-1.3298537,-0.15302174,60.15354,30.660292,15.623614000000002,CSI
13148175000000.0,3.1411921977996826,-0.6532570123672485,-4.102928638458252,6.168611526489258,0.29042747616767883,-1.3020593,-0.22510384,60.03974,30.411270000000002,15.604035999999999,CSI
13148180000000.0,3.1461877822875977,-0.6890446543693542,-4.05345344543457,6.142697811126709,0.33016255497932434,-1.2495247999999999,-0.29321529999999996,59.953964,30.146763,15.586204,CSI
13148185000000.0,3.1511850357055664,-0.7125102281570435,-4.011930465698242,6.1212334632873535,0.37030303478240967,-1.2089024,-0.34819320000000004,59.88831,29.863509999999998,15.571798999999999,CSI
13148190000000.0,3.1561803817749023,-0.7243907451629639,-3.9785256385803223,6.104357719421387,0.4101436734199524,-1.1533136,-0.40286562,59.85264,29.570759000000002,15.550317000000001,CSI
13148195000000.0,3.1611790657043457,-0.7246173620223999,-3.953138589859009,6.092614650726318,0.4499445855617523,-1.1343768,-0.45265114,59.84698,29.23305,15.625360500000001,CSI
13148200000000.0,3.166177272796631,-0.7138766050338745,-3.9352967739105225,6.085784435272217,0.4904729127883911,-1.1319333,-0.50671273,59.864357,28.881733,15.697626999999999,CSI
13148205000000.0,3.1711766719818115,-0.6914206147193909,-3.923166513442993,6.084688186645508,0.5323898792266846,-1.1820242,-0.5561928,59.893443999999995,28.52745,15.82458,CSI
13148210000000.0,3.176175832748413,-0.6574881076812744,-3.915907144546509,6.0893659591674805,0.5748564004898071,-1.2159271999999999,-0.6096435,59.941906,28.162857000000002,15.952913,CSI
13148215000000.0,3.1811747550964355,-0.6205101013183594,-3.9141714572906494,6.09801721572876,0.6177780628204346,-1.2834278000000001,-0.6377433000000001,59.990486,27.793622999999997,16.148785,CSI
13148220000000.0,3.186173439025879,-0.5841712951660156,-3.9180757999420166,6.109757900238037,0.6593726873397827,-1.3445143999999998,-0.6762278,60.05290600000001,27.419489000000002,16.357111,CSI
13148226000000.0,3.191173791885376,-0.5483039617538452,-3.928311586380005,6.1241278648376465,0.6995644569396973,-1.3946053999999999,-0.7284568,60.12146800000001,27.033886,16.632149,CSI
13148230000000.0,3.196174144744873,-0.5127019286155701,-3.945958375930786,6.140475749969482,0.7381351590156555,-1.382388,-0.7874053000000001,60.202819999999996,26.647049,16.908068,CSI
13148235000000.0,3.2011730670928955,-0.4755038022994995,-3.9659667015075684,6.160994529724121,0.7752525806427002,-1.3139712,-0.84329945,60.293983,26.275509000000003,17.183544,CSI
13148240000000.0,3.2061736583709717,-0.4351167678833008,-3.9841699600219727,6.18756103515625,0.8119871020317078,-1.2226468000000001,-0.8915578000000002,60.403890000000004,25.897654,17.451439,CSI
13148245000000.0,3.2111709117889404,-0.38793841004371643,-3.998265504837036,6.218352794647217,0.8460803031921387,-1.1343768,-0.9184359000000001,60.523838,25.558092000000002,17.70382,CSI
13148250000000.0,3.2161710262298584,-0.3291832208633423,-4.005319118499756,6.251529216766357,0.8778356909751892,-1.022283,-0.95417154,60.674442000000006,25.2102,17.92918,CSI
13148255000000.0,3.22117280960083,-0.2578109800815582,-4.00471830368042,6.293598651885986,0.9065639972686768,-0.8668178,-1.0094548,60.859524,24.851925,18.138401,CSI
13148260000000.0,3.2261736392974854,-0.1721159815788269,-3.9954490661621094,6.353727340698242,0.9340705871582031,-0.7654141999999999,-1.0427469999999999,61.054993,24.493088,18.329716,CSI
13148265000000.0,3.2311716079711914,-0.07183152437210083,-3.978104829788208,6.42889928817749,0.9595252871513367,-0.73273283,-1.0564915000000001,61.293102000000005,24.10172,18.56302,CSI
13148270000000.0,3.2361714839935303,0.04554389417171478,-3.9531140327453613,6.51392936706543,0.9818817377090454,-0.7425067,-1.0546589,61.541492000000005,23.720379,18.778212,CSI
13148275000000.0,3.2411701679229736,0.17798563838005066,-3.920783281326294,6.6067094802856445,1.0000842809677124,-0.72601336,-1.0485502,61.836543999999996,23.261685999999997,19.03862,CSI
13148280000000.0,3.24617075920105,0.322349488735199,-3.8808085918426514,6.702679634094238,1.0156890153884888,-0.6994406999999999,-1.0403035,62.126984,22.814928,19.291605,CSI
