timestamp,rel_time,acc_x,acc_y,acc_z,gyro_x,gyro_y,gyro_z,azimuth,pitch,roll,label
0.0,0.0,0.0,0.0,0.0,0.0,-0.021685716,0.06505715,151.07,-94.46889499999999,2.6491919999999998,STD
16653654000.0,1.5002990949142259e-05,0.0005580311408266425,0.03021078184247017,-0.0023924652487039566,2.3752487322781235e-05,-0.052534412999999995,0.084910266,151.01706000000001,-94.48700000000001,2.6374652000000003,STD
49713120000.0,7.437780004693195e-05,0.00164310191757977,0.09017418324947357,-0.007093579042702913,0.0001854982547229156,-0.07696902,0.08735373,150.96948,-94.50413499999999,2.6236794,STD
98691620000.0,0.00020650052465498447,0.0032168107572942972,0.17899882793426514,-0.013986465521156788,0.000704359554219991,-0.103847094,0.10629055,150.93338,-94.53307,2.6197906000000004,STD
162880720000.0,0.00043819626444019377,0.005234364420175552,0.29539161920547485,-0.02292460948228836,0.0016675476217642426,-0.13500121,0.12583824,150.90662,-94.56466,2.6162827,STD
241374820000.0,0.0007945167599245906,0.007645586971193552,0.4377022683620453,-0.033735767006874084,0.003253466682508588,-0.15241088,0.13255776,150.88452,-94.60462,2.6141143,STD
333101370000.0,0.0012959063751623034,0.01039812434464693,0.6039788722991943,-0.046230971813201904,0.005464400630444288,-0.15668693,0.14080444,150.86852,-94.65074,2.6172814,STD
436854820000.0,0.0019626908469945192,0.013435166329145432,0.7920283675193787,-0.06020215526223183,0.007868364453315735,-0.14172074,0.13836098,150.8523,-94.69536,2.6189225,STD
551332740000.0,0.0028109324630349874,0.016699858009815216,0.999483048915863,-0.0754341259598732,0.010650286450982094,-0.11026118,0.13225232,150.833,-94.74656999999999,2.6216052000000003,STD
675171900000.0,0.0038518437650054693,0.020136984065175056,1.22386634349823,-0.09171078354120255,0.013320397585630417,-0.08216137400000001,0.10903945,150.81044,-94.78737,2.6184847,STD
806983100000.0,0.005094542168080807,0.023692039772868156,1.462654948234558,-0.10881564021110535,0.015849711373448372,-0.014355333500000001,0.092240654,150.76821999999999,-94.82867399999999,2.6165119999999997,STD
945382500000.0,0.006545195356011391,0.027312975376844406,1.713336706161499,-0.12653782963752747,0.017262402921915054,0.07086037,0.055588737,150.71303999999998,-94.85134000000001,2.6030145,STD
1089020040000.0,0.008205899968743324,0.030952012166380882,1.9734612703323364,-0.144677996635437,0.017703555524349213,0.15515977,0.021380282999999996,150.63988,-94.87045,2.586812,STD
1236602600000.0,0.010076472535729408,0.03456506505608559,2.240682601928711,-0.16304877400398254,0.017150405794382095,0.22876903,-0.005192355,150.54695,-94.875046,2.5642502,STD
1386912700000.0,0.012155023403465748,0.03811195120215416,2.5127923488616943,-0.18147654831409454,0.01566488668322563,0.28008172,-0.026572637000000003,150.43849,-94.86833,2.5353668,STD
1538822200000.0,0.014437757432460785,0.04155700281262398,2.787745237350464,-0.19980382919311523,0.014063683338463306,0.3381139,-0.043676864,150.30992,-94.85721,2.502711,STD
1691302500000.0,0.016918210312724113,0.04486998915672302,3.063676357269287,-0.21789179742336273,0.012248406186699867,0.36468655,-0.054367005999999996,150.17905,-94.83753,2.4672816,STD
1843428900000.0,0.019588720053434372,0.04802516847848892,3.3389103412628174,-0.23561875522136688,0.010293516330420971,0.36621370000000003,-0.06169739,150.04253,-94.81659,2.4298083999999998,STD
1994382800000.0,0.022443925961852074,0.05099865049123764,3.6119637489318848,-0.2528746426105499,0.008093735203146935,0.36041048,-0.06383542,149.90458999999998,-94.79383,2.3924086,STD
2143450600000.0,0.02546956203877926,0.053776971995830536,3.8815457820892334,-0.269579142332077,0.005934182088822126,0.3472769,-0.06536258,149.77225,-94.77193,2.3542242,STD
2290020300000.0,0.028659259900450706,0.056344080716371536,4.146547794342041,-0.2856537997722626,0.003719315165653825,0.32284227,-0.057726767000000005,149.64888,-94.7499,2.3189387000000004,STD
2433575800000.0,0.03200263902544975,0.05869029462337494,4.406036853790283,-0.3010406792163849,0.001790769281797111,0.31429017,-0.05131268,149.52838,-94.73048399999999,2.2841325,STD
2573691500000.0,0.03548837825655937,0.06080972030758858,4.659243583679199,-0.3156963586807251,-0.0005830884911119938,0.29199359999999996,-0.04184427,149.42242,-94.70881999999999,2.2527027000000004,STD
2710023200000.0,0.039106447249650955,0.06269829720258713,4.90554666519165,-0.32958731055259705,-0.002489547012373805,0.25870144,-0.022907447,149.32562,-94.6965,2.226443,STD
2842302300000.0,0.042847778648138046,0.06435377895832062,5.144461154937744,-0.34268927574157715,-0.004367602989077568,0.23487769,-0.0030543262,149.23563000000001,-94.6812,2.2038292999999998,STD
2970326700000.0,0.046705394983291626,0.0657745972275734,5.375622749328613,-0.354984313249588,-0.005726175382733345,0.21227567,0.0033597588,149.15749,-94.67206,2.1828938,STD
3093953200000.0,0.05066797882318497,0.06696455180644989,5.598775386810303,-0.3664701282978058,-0.0063548884354531765,0.20005837,0.013744468000000001,149.08594,-94.667534,2.1690936,STD
3213091400000.0,0.05472557991743088,0.06792815774679184,5.813756942749023,-0.3771497309207916,-0.007372601889073849,0.19242255,0.028710667000000002,149.02177,-94.661415,2.1585862999999996,STD
3327695000000.0,0.058876778930425644,0.06866493076086044,6.02048397064209,-0.38701874017715454,-0.008381304331123829,0.16890424,0.040011674,148.96761999999998,-94.66193,2.1498258,STD
3437756200000.0,0.06310602277517319,0.06918652355670929,6.218946933746338,-0.39610135555267334,-0.009305008687078953,0.16218472,0.04276056599999999,148.91269,-94.66155,2.143392,STD
3543299500000.0,0.06740963459014893,0.06949660181999207,6.409191608428955,-0.40440717339515686,-0.010417784564197063,0.13713925,0.056505035999999995,148.87163999999999,-94.66256,2.1426822999999997,STD
3644377000000.0,0.07178324460983276,0.06960029155015945,6.59131383895874,-0.41195082664489746,-0.011391987092792988,0.12583824,0.06169739,148.8298,-94.66465,2.1406426,STD
3741063000000.0,0.07621405273675919,0.06950994580984116,6.765451908111572,-0.4187639653682709,-0.012707649730145931,0.11178834,0.0580322,148.7971,-94.663765,2.1395150000000003,STD
3833450000000.0,0.08070260286331177,0.06892462074756622,6.93173360824585,-0.42575016617774963,-0.013594122603535652,0.105068825,0.06811147,148.76689,-94.66955,2.1437630000000003,STD
3921644400000.0,0.08524122834205627,0.0677940845489502,7.090347766876221,-0.4331127405166626,-0.01437824871391058,0.098043874,0.057726767000000005,148.74108999999999,-94.668655,2.1408882,STD
4005764800000.0,0.08982676267623901,0.0661376416683197,7.241511344909668,-0.4408363401889801,-0.015422656200826168,0.093767814,0.062308256,148.61885,-94.63616,2.1209514,STD
4085937300000.0,0.0944531112909317,0.06398207694292068,7.385457515716553,-0.44889703392982483,-0.015822432935237885,0.09315695,0.055588737,148.50034,-94.60661999999999,2.0957548999999998,STD
4162294600000.0,0.0991169884800911,0.06134846806526184,7.522429943084717,-0.4572782814502716,-0.015872733667492867,0.089186326,0.04886922,148.38718,-94.575935,2.072664,STD
4234973300000.0,0.103814035654068,0.058260705322027206,7.652678966522217,-0.46596038341522217,-0.015431089326739311,0.09773844,0.049480084,148.27366999999998,-94.55003,2.050935,STD
4304112000000.0,0.1085420772433281,0.054738014936447144,7.776459217071533,-0.47492945194244385,-0.015296092256903648,0.09315695,0.04520403,148.16777,-94.52135,2.0264697,STD
4369850300000.0,0.1132969930768013,0.05080406367778778,7.894026756286621,-0.4841662645339966,-0.014961223118007183,0.08796459400000001,0.034513887,148.06242,-94.49758,2.0013900000000002,STD
4432327600000.0,0.11807584017515182,0.046479858458042145,8.005637168884277,-0.4936548173427582,-0.014308524318039417,0.098043874,0.035430185,147.95702,-94.47480999999999,1.9795023,STD
4491681700000.0,0.1228766143321991,0.0417841412127018,8.111542701721191,-0.5033817291259766,-0.013257483020424843,0.093462385,0.023823743999999997,147.85959,-94.451454,1.9515034,STD
4548049000000.0,0.1277332454919815,0.036654479801654816,8.21197509765625,-0.513431966304779,-0.012547243386507034,0.098043874,0.027488936000000002,147.75977,-94.429016,1.9293839,STD
4601562000000.0,0.13256879150867462,0.031277965754270554,8.30721378326416,-0.523587703704834,-0.011921040713787079,0.09101892,0.030543262,147.66705,-94.4091,1.9043580000000002,STD
4652350300000.0,0.13742312788963318,0.025578124448657036,8.397477149963379,-0.5339504480361938,-0.010331641882658005,0.10354166,0.024129177,147.57005,-94.392944,1.8790209999999998,STD
4700541000000.0,0.14229169487953186,0.0195782333612442,8.482995986938477,-0.5445005893707275,-0.009353972971439362,0.099265605,0.016493361,147.48245,-94.36999,1.8545511000000001,STD
4746255500000.0,0.1471717804670334,0.013297040946781635,8.563995361328125,-0.5552236437797546,-0.008136842399835587,0.105374254,0.014660766,147.39093,-94.35649000000001,1.8311611,STD
4789612600000.0,0.15206967294216156,0.006732554640620947,8.640687942504883,-0.5661301016807556,-0.007401433307677507,0.10079276599999999,0.009773844,147.30602,-94.33628,1.8052613999999998,STD
4830725700000.0,0.15697431564331055,-7.854928844608366e-05,8.713286399841309,-0.577183187007904,-0.006204054690897465,0.09590584,0.005192355,147.22194,-94.32249,1.779856,STD
4869704400000.0,0.16188856959342957,-0.007131433114409447,8.781989097595215,-0.5883845090866089,-0.0050365496426820755,0.09896017,0.0027488936,147.13925,-94.3047,1.7545688000000002,STD
4906654000000.0,0.16681163012981415,-0.014413398690521717,8.8469877243042,-0.5997258424758911,-0.0037682349793612957,0.10140363,0.002443461,147.06042,-94.29037,1.7292941000000002,STD
4941676000000.0,0.17174264788627625,-0.021912159398198128,8.908467292785645,-0.6111990809440613,-0.002145659178495407,0.083383106,-0.0021380284,146.98872,-94.27733,1.7025694,STD
4974866600000.0,0.17668066918849945,-0.02961558848619461,8.966604232788086,-0.6227961182594299,-0.0011419598013162613,0.08460484,-0.009468411,146.91301,-94.2606,1.6761813,STD
5006318000000.0,0.18162329494953156,-0.037508733570575714,9.021568298339844,-0.6345050930976868,-0.0006280437228269875,0.081855945,0.0021380284,146.84592,-94.24856,1.6542282,STD
5036118600000.0,0.1865735650062561,-0.045589372515678406,9.073518753051758,-0.6463292837142944,0.00015050877118483186,0.07238753,-0.0012217305,146.78197,-94.23561,1.6266059,STD
5064352600000.0,0.1915283054113388,-0.05384167283773422,9.122611045837402,-0.6582552194595337,0.0012771361507475376,0.07299839999999999,0.0012217305,146.71815,-94.2235,1.6048312,STD
5091100000000.0,0.1965239942073822,-0.06233951449394226,9.168973922729492,-0.6703779697418213,0.0019228297751396894,0.07391469,0.005192355,146.65874,-94.20912,1.5830618,STD
5116438000000.0,0.2014894187450409,-0.07091458141803741,9.212780952453613,-0.682498574256897,0.002356037963181734,0.06658431,-0.0012217305,146.60307,-94.19749,1.5595315,STD
5140438300000.0,0.2064545452594757,-0.0796268880367279,9.254150390625,-0.6946948170661926,0.0024255947209894657,0.076358154,-0.005497787,146.54407,-94.18406,1.5387242,STD
5163171000000.0,0.21142394840717316,-0.08847956359386444,9.293206214904785,-0.7069751620292664,0.00284860422834754,0.06963864,0.0012217305,146.49358,-94.17421999999999,1.5194185,STD
5184702000000.0,0.21639573574066162,-0.09746158868074417,9.330069541931152,-0.7193307280540466,0.0032330071553587914,0.07696902,0.009162978,146.4378,-94.16102,1.5003781,STD
5205093500000.0,0.22137050330638885,-0.10656780749559402,9.36485481262207,-0.7317594885826111,0.0029636372346431017,0.07788532,0.008552114,146.3873,-94.14676999999999,1.4811583000000001,STD
5224405700000.0,0.226347416639328,-0.1157902330160141,9.397669792175293,-0.7442558407783508,0.002822251757606864,0.07971791,0.018325957,146.3363,-94.13844,1.4678603000000001,STD
5242694400000.0,0.23132449388504028,-0.12511855363845825,9.428619384765625,-0.7568110823631287,0.002135900780558586,0.06505715,0.017715093,146.29105,-94.1229,1.4516573999999998,STD
5260013700000.0,0.23630604147911072,-0.13455694913864136,9.457798957824707,-0.7694339752197266,0.001225916901603341,0.07849618,0.028405233999999998,146.23906000000002,-94.11191,1.4425056,STD
5276414500000.0,0.24128885567188263,-0.14409293234348297,9.48530387878418,-0.7821127772331238,7.16324575478211e-05,0.07696902,0.032070424,146.19669,-94.09761999999999,1.4310528,STD
5291945000000.0,0.2462720423936844,-0.15371949970722198,9.511221885681152,-0.7948423027992249,-0.001232721726410091,0.07849618,0.032070424,146.15108,-94.08354,1.422309,STD
5306651000000.0,0.2512608766555786,-0.16344381868839264,9.53563404083252,-0.8076344132423401,-0.0030693928711116314,0.07360926,0.032375857,146.10908999999998,-94.06683000000001,1.4149032,STD
5320576300000.0,0.2562481164932251,-0.17324510216712952,9.558622360229492,-0.8204668164253235,-0.004954845644533634,0.077579886,0.027794369,146.06528,-94.051315,1.4066478999999998,STD
5333761700000.0,0.2612377405166626,-0.18312802910804749,9.58026123046875,-0.8333479762077332,-0.007439396344125271,0.089491755,0.020463986,146.02171,-94.03025,1.3981059999999998,STD
5346246500000.0,0.26622992753982544,-0.19308900833129883,9.600621223449707,-0.8462761640548706,-0.010263538919389248,0.105374254,0.015271631,145.97701999999998,-94.00989,1.3893931000000002,STD
5358067600000.0,0.271218478679657,-0.2031102329492569,9.619773864746094,-0.8592323064804077,-0.013344161212444305,0.10903945,0.0033597588,145.93336000000002,-93.98561,1.3770987,STD
5369260700000.0,0.2762097716331482,-0.20956650376319885,9.63814640045166,-0.8716052174568176,-0.016797751188278198,0.12217305,-0.007941248,145.88374,-93.95857,1.3644472,STD
5379858600000.0,0.2812000513076782,-0.21200843155384064,9.655844688415527,-0.8833073377609253,-0.020523130893707275,0.13041973,-0.014966198,145.83566000000002,-93.929985,1.3501476000000001,STD
5389893000000.0,0.28619346022605896,-0.2105923742055893,9.672910690307617,-0.8943740129470825,-0.02569345198571682,0.12217305,-0.018020526000000002,145.70703,-93.90602,1.2669153,STD
5399393600000.0,0.2911871075630188,-0.2055603712797165,9.689373970031738,-0.904839038848877,-0.03151601552963257,0.09437868,-0.030848695,145.58426,-93.88438000000001,1.1806681,STD
5408389000000.0,0.2961796522140503,-0.197123184800148,9.705265045166016,-0.914734423160553,-0.03849303722381592,0.070554934,-0.03390302,145.46568,-93.854866,1.0982983999999998,STD
5416905300000.0,0.3011758327484131,-0.18539613485336304,9.720619201660156,-0.9240902066230774,-0.04631901904940605,0.038789943,-0.032986722999999996,145.3598,-93.82383,1.0148431,STD
5424969000000.0,0.3061710298061371,-0.17061564326286316,9.73546028137207,-0.9329352378845215,-0.053435489535331726,0.011911871999999999,-0.01985312,145.26192,-93.79658,0.9357894,STD
5432603000000.0,0.31116676330566406,-0.15292350947856903,9.749817848205566,-0.9412966370582581,-0.0600266195833683,-0.01863139,-0.02321288,145.17604,-93.764015,0.8537609,STD
5439831400000.0,0.3161623477935791,-0.1324836015701294,9.763715744018555,-0.9492000937461853,-0.06550196558237076,-0.06169739,-0.0070249503,145.10397,-93.740974,0.78233546,STD
5446675000000.0,0.32115891575813293,-0.10942670702934265,9.777180671691895,-0.9566698670387268,-0.0705067366361618,-0.106901415,-0.00030543262000000003,145.04273999999998,-93.71731,0.7086005,STD
5453154000000.0,0.3261556327342987,-0.08390253037214279,9.790233612060547,-0.9637291431427002,-0.0746428444981575,-0.15760323,0.0061086523,144.99702,-93.702965,0.64028376,STD
5459289000000.0,0.3311506509780884,-0.056067630648612976,9.802895545959473,-0.9703997373580933,-0.07844474911689758,-0.19761491,0.023518313,144.96251,-93.68982,0.5780725,STD
5465097000000.0,0.3361474871635437,-0.025997763499617577,9.815190315246582,-0.9767022132873535,-0.08087238669395447,-0.23732115,0.030848695,144.94296,-93.687035,0.5154438,STD
5470595600000.0,0.34114500880241394,0.006173950619995594,9.827136993408203,-0.9826562404632568,-0.08151068538427353,-0.26908615,0.047036625,144.93341,-93.690025,0.46112126,STD
5475802000000.0,0.34614118933677673,0.040308162569999695,9.838751792907715,-0.9882804155349731,-0.08086180686950684,-0.28619036,0.05955936,144.9311,-93.69839,0.40864340000000005,STD
5480731000000.0,0.3511388897895813,0.0763387605547905,9.850054740905762,-0.9935922026634216,-0.07910822331905365,-0.28924468,0.07238753,144.93396,-93.716286,0.36158237,STD
5485398000000.0,0.3561370372772217,0.11415137350559235,9.861062049865723,-0.9986082315444946,-0.0753810703754425,-0.3005457,0.0888809,144.94406,-93.746735,0.31954518,STD
5489816500000.0,0.36113646626472473,0.15366287529468536,9.871789932250977,-1.003344178199768,-0.07048532366752625,-0.2855795,0.101098195,144.94737,-93.77983,0.28110778,STD
5494000000000.0,0.3661348521709442,0.19475166499614716,9.882251739501953,-1.0078151226043701,-0.06591551750898361,-0.27305678,0.1020145,144.95433,-93.816124,0.24440198,STD
5497960300000.0,0.37113362550735474,0.2373528927564621,9.892461776733398,-1.0120351314544678,-0.0632656142115593,-0.28160888,0.090713486,144.96277,-93.85054000000001,0.20794727,STD
5501710500000.0,0.3761322498321533,0.2813785672187805,9.902434349060059,-1.0160175561904907,-0.06355639547109604,-0.2929099,0.096516706,144.96861,-93.87824,0.17719929,STD
5505261000000.0,0.3811292350292206,0.3267320394515991,9.912178993225098,-1.019775152206421,-0.06848670542240143,-0.35521814,0.10323623,144.99108999999999,-93.886444,0.14284842,STD
5508622700000.0,0.38612863421440125,0.3733980059623718,9.921712875366211,-1.0233196020126343,-0.07867200672626495,-0.4569272,0.11728613,145.02798,-93.875114,0.11185808,STD
5511805000000.0,0.39112767577171326,0.4212695360183716,9.931044578552246,-1.0266624689102173,-0.09375094622373581,-0.5723807,0.13194689,145.08595,-93.839905,0.082245745,STD
5514819000000.0,0.3961254060268402,0.4702690839767456,9.940183639526367,-1.029814600944519,-0.11323491483926773,-0.6933321,0.15424347,145.17331000000001,-93.777794,0.05767412,STD
5517672000000.0,0.40112531185150146,0.5203838348388672,9.94914436340332,-1.0327858924865723,-0.13592888414859772,-0.7816021,0.18784106,145.28229,-93.69388599999999,0.040009536,STD
5520373000000.0,0.40612301230430603,0.5714951753616333,9.957930564880371,-1.0355862379074097,-0.15858548879623413,-0.81153446,0.21960606,145.406,-93.60139000000001,0.02812843,STD
5522930500000.0,0.4111253321170807,0.623643159866333,9.966560363769531,-1.0382243394851685,-0.1792372316122055,-0.7809911999999999,0.25289822,145.53415,-93.50003000000001,0.026815321,STD
5525352000000.0,0.41612860560417175,0.6767251491546631,9.975037574768066,-1.0407090187072754,-0.19582609832286835,-0.7021896,0.26816985,145.65294,-93.40743,0.030539483,STD
5527645000000.0,0.42112964391708374,0.7306478023529053,9.983366012573242,-1.0430487394332886,-0.20840580761432648,-0.6197228,0.2574797,145.75804,-93.32313,0.037414066,STD
5529816000000.0,0.42612984776496887,0.7853839993476868,9.991556167602539,-1.0452510118484497,-0.21712487936019897,-0.5314528000000001,0.23396139,145.83572,-93.25764000000001,0.04656824,STD
5531872000000.0,0.43112999200820923,0.8409007787704468,9.999615669250488,-1.047323226928711,-0.2250537872314453,-0.42821655,0.20647246,145.88281,-93.195465,0.05320034,STD
5533818000000.0,0.43613100051879883,0.8971690535545349,10.007553100585938,-1.0492721796035767,-0.23189280927181244,-0.31703907,0.17012598,145.90016,-93.15351,0.052174117,STD
5535661000000.0,0.4411315321922302,0.9541310667991638,10.015373229980469,-1.0511045455932617,-0.2375209778547287,-0.25473082,0.13530666,145.90079,-93.11545,0.04483678,STD
5537405600000.0,0.4461297392845154,1.0117238759994507,10.023079872131348,-1.0528266429901123,-0.2411726713180542,-0.14355333,0.11636983,145.85544,-93.08655999999999,0.034642722,STD
5539057600000.0,0.4511733651161194,1.070574402809143,10.030734062194824,-1.054442048072815,-0.24379964172840118,-0.05681047,0.08552113,145.79921000000002,-93.05868000000001,0.012333615,STD
5540622000000.0,0.45617198944091797,1.12939453125,10.038236618041992,-1.0559606552124023,-0.2451472133398056,0.015882496,0.057726767000000005,145.71653999999998,-93.04239,-0.012272142,STD
5542103000000.0,0.4611714780330658,1.1887893676757812,10.045646667480469,-1.0573855638504028,-0.24554400146007538,0.07849618,0.03726278,145.61383,-93.030045,-0.041503645,STD
5543505700000.0,0.4661720097064972,1.248731255531311,10.052968978881836,-1.058721661567688,-0.24569176137447357,0.13836098,0.027183502999999998,145.49367,-93.02117,-0.07356799,STD
5544833700000.0,0.47116586565971375,1.309084415435791,10.060199737548828,-1.059974193572998,-0.24659667909145355,0.21105394,0.04337143,145.35527,-93.01226,-0.10164862,STD
5546091500000.0,0.476164847612381,1.3680251836776733,10.066795349121094,-1.0600240230560303,-0.24934153258800507,0.2883284,0.06658431,145.20203999999998,-92.99906999999999,-0.12840596,STD
5547282000000.0,0.48116400837898254,1.4251638650894165,10.07266902923584,-1.0587066411972046,-0.25275397300720215,0.36713,0.10323623,145.03217,-92.9876,-0.14443476,STD
5548410000000.0,0.48616358637809753,1.480597972869873,10.077859878540039,-1.0560935735702515,-0.2560008466243744,0.45601090000000005,0.16249016,144.8357,-92.89964,0.08550375,STD
5549478000000.0,0.4911630153656006,1.534415602684021,10.082404136657715,-1.0522565841674805,-0.2587328553199768,0.52320606,0.22418754,144.62485,-92.830925,0.32339746,STD
5550489000000.0,0.4961619973182678,1.5867012739181519,10.08633804321289,-1.0472625494003296,-0.2606518864631653,0.5726861999999999,0.28619036,144.3962,-92.78983000000001,0.5750228000000001,STD
5551446600000.0,0.5011640787124634,1.6375542879104614,10.089688301086426,-1.0411550998687744,-0.26105254888534546,0.58368176,0.35308012,144.16217,-92.7851,0.841501,STD
5552353600000.0,0.5061631798744202,1.6870213747024536,10.092494010925293,-1.0340238809585571,-0.25928324460983276,0.57879484,0.42363504,143.92148,-92.82158000000001,1.1223675,STD
5553212400000.0,0.5111640095710754,1.735198974609375,10.094778060913086,-1.0259002447128296,-0.25554102659225464,0.56046885,0.48166725,143.68434,-92.898834,1.4136236,STD
5554025500000.0,0.5161649584770203,1.7821487188339233,10.09657096862793,-1.016844391822815,-0.24879160523414612,0.5131268,0.5338961999999999,143.45988,-93.02611999999999,1.717575,STD
5554795700000.0,0.5211617350578308,1.8279139995574951,10.097904205322266,-1.0069284439086914,-0.23976494371891022,0.46761733,0.5748241999999999,143.24286,-93.18937,2.0290567999999998,STD
5555525000000.0,0.5261603593826294,1.8725874423980713,10.098793983459473,-0.9961681962013245,-0.22874519228935242,0.40225476,0.5992588000000001,143.04752,-93.38856,2.3441240000000003,STD
5556216000000.0,0.5311580896377563,1.9162135124206543,10.099267959594727,-0.9846225380897522,-0.21601760387420654,0.33200526,0.61361414,142.86891,-93.61514,2.6614522999999997,STD
5556870300000.0,0.5361576080322266,1.9588618278503418,10.099345207214355,-0.972319483757019,-0.20269866287708282,0.21930063,0.59681535,142.7228,-93.852936,2.9695367999999998,STD
5557490000000.0,0.5411566495895386,2.00057315826416,10.09904956817627,-0.95931077003479,-0.1884617954492569,0.15027285,0.59406644,142.58616999999998,-94.10991,3.2794044,STD
5558076700000.0,0.5461550354957581,2.0413966178894043,10.098400115966797,-0.9456349015235901,-0.1753091961145401,0.021685716,0.5696318,142.49951000000001,-94.357315,3.5702844,STD
5558632400000.0,0.5511566996574402,2.0813989639282227,10.097411155700684,-0.9313074350357056,-0.16376905143260956,-0.11209377,0.54702985,142.43506000000002,-94.60741999999999,3.8541834,STD
5559159000000.0,0.5561567544937134,2.1206002235412598,10.096107482910156,-0.9163874387741089,-0.15471580624580383,-0.25381452,0.50823987,142.40964,-94.842674,4.1191597,STD
5559657400000.0,0.561157763004303,2.159055709838867,10.094502449035645,-0.9008936285972595,-0.14819598197937012,-0.38820487,0.48014009999999996,142.42029,-95.0701,4.3737383,STD
5560130000000.0,0.5661597847938538,2.196805715560913,10.092612266540527,-0.884856104850769,-0.14508375525474548,-0.5186246,0.43860126,142.46916000000002,-95.27486999999999,4.60654,STD
5560577000000.0,0.5711604356765747,2.2338759899139404,10.0904541015625,-0.8683157563209534,-0.14501847326755524,-0.63224554,0.39064834,142.55023,-95.46422,4.823163,STD
5561001000000.0,0.5761605501174927,2.2703068256378174,10.088042259216309,-0.8512953519821167,-0.1480819135904312,-0.73823065,0.3368922,142.66432,-95.631615,5.020233999999999,STD
5561403000000.0,0.5811575055122375,2.306118965148926,10.085393905639648,-0.8338341116905212,-0.15339115262031555,-0.82924956,0.27275133,142.80393999999998,-95.77753,5.195346400000001,STD
5561783400000.0,0.5861559510231018,2.341367721557617,10.082514762878418,-0.81593257188797,-0.1604846715927124,-0.9077458,0.22327125,142.96745,-95.90589,5.3545356,STD
5562143600000.0,0.591152012348175,2.376063823699951,10.079422950744629,-0.7976338863372803,-0.16951152682304382,-0.9642508,0.16798794,143.14713,-96.00959,5.489800499999999,STD
5562485000000.0,0.5961495637893677,2.4102559089660645,10.07612419128418,-0.7789397835731506,-0.17839914560317993,-1.0070114,0.12339478,143.34186,-96.10258499999999,5.6104927,STD
5562808400000.0,0.6011491417884827,2.443974018096924,10.07262897491455,-0.7598681449890137,-0.1865852326154709,-1.0244209999999998,0.08857546,143.54175,-96.17983000000001,5.7155569999999996,STD
5563115000000.0,0.6061474680900574,2.477227210998535,10.068952560424805,-0.7404553890228271,-0.19428622722625732,-1.0375546,0.063224554,143.74886,-96.24674,5.808180999999999,STD
5563405600000.0,0.611146867275238,2.510051727294922,10.06510066986084,-0.7207080125808716,-0.20003047585487366,-1.0500773,0.044593163,143.95703,-96.30944000000001,5.8908095000000005,STD
5563681000000.0,0.6161450743675232,2.542459487915039,10.061086654663086,-0.7006552815437317,-0.20452451705932617,-1.0693196000000003,0.027183502999999998,144.16718,-96.36442,5.9647559999999995,STD
5563942000000.0,0.6211438179016113,2.5744807720184326,10.056916236877441,-0.6803050637245178,-0.20671182870864868,-1.0842858999999998,0.011301007,144.37599,-96.41934,6.032195,STD
5564189400000.0,0.6261423826217651,2.606132745742798,10.052597999572754,-0.6596766710281372,-0.2065688520669937,-1.0958921999999998,0.00061086525,144.58568,-96.47231,6.0945263,CSI
5564423700000.0,0.6311416625976562,2.637439489364624,10.048139572143555,-0.6387803554534912,-0.20399188995361328,-1.1142181999999998,-0.0015271631,144.79793,-96.52658000000001,6.1531157,CSI
5564646000000.0,0.6361424922943115,2.668424129486084,10.043546676635742,-0.6176257729530334,-0.1996803730726242,-1.1267409,-0.009468411,145.00806,-96.57826,6.205516,CSI
5564857000000.0,0.6411428451538086,2.699093818664551,10.038829803466797,-0.5962367057800293,-0.1947033703327179,-1.1288790000000002,-0.00030543262000000003,145.21695,-96.635345,6.2606554,CSI
5565056500000.0,0.6461416482925415,2.729459762573242,10.03399658203125,-0.5746314525604248,-0.18935678899288177,-1.1288790000000002,0.0012217305,145.42494,-96.68972,6.3097525,CSI
5565246000000.0,0.6511436700820923,2.759561777114868,10.029047012329102,-0.5527974963188171,-0.18409980833530426,-1.1163563,0.0061086523,145.62642,-96.74687,6.3610505999999996,CSI
5565425000000.0,0.6561429500579834,2.7893848419189453,10.023995399475098,-0.5307767391204834,-0.1790904402732849,-1.0965031,0.022602014,145.82228,-96.80696,6.414688,CSI
5565595000000.0,0.6611431837081909,2.8189618587493896,10.018841743469238,-0.5085605978965759,-0.1735992729663849,-1.0491611,0.047036625,146.0032,-96.8707,6.470956299999999,CSI
5565756500000.0,0.666143536567688,2.848301649093628,10.013592720031738,-0.4861638844013214,-0.16778220236301422,-0.98868537,0.06963864,146.17136000000002,-96.93672,6.530264,CSI
5565909600000.0,0.6711387038230896,2.8773903846740723,10.008261680603027,-0.46362319588661194,-0.16175426542758942,-0.9224065,0.096516706,146.3213,-97.01002,6.596755,CSI
5566055000000.0,0.6761391758918762,2.902729034423828,10.002068519592285,-0.44226112961769104,-0.15588480234146118,-0.84604836,0.1255328,146.4483,-97.08872,6.669430999999999,CSI
5566192000000.0,0.6811397671699524,2.9235687255859375,9.994867324829102,-0.42239439487457275,-0.1499374806880951,-0.77182823,0.17287487,146.55476000000002,-97.1791,6.753968700000001,CSI
5566322700000.0,0.6861406564712524,2.9401473999023438,9.986710548400879,-0.40394356846809387,-0.1440303921699524,-0.72021013,0.22266038,146.61183,-97.336365,6.944487,CSI
5566446400000.0,0.6911418437957764,2.9526922702789307,9.977648735046387,-0.38683316111564636,-0.1382916122674942,-0.63438356,0.26389378,146.63618,-97.50413499999999,7.143953999999999,CSI
5566564000000.0,0.6961427330970764,2.9614243507385254,9.967733383178711,-0.3709910213947296,-0.13258196413516998,-0.5644395000000001,0.3115413,146.64911999999998,-97.687035,7.356224,CSI
5566675600000.0,0.7011430263519287,2.966550827026367,9.957011222839355,-0.3563491404056549,-0.12750214338302612,-0.4877759,0.35277468,146.63428000000002,-97.87765,7.57563,CSI
5566781500000.0,0.7061439752578735,2.968249797821045,9.945520401000977,-0.3428451418876648,-0.1228395327925682,-0.40530908,0.3857614,146.59676000000002,-98.07831,7.8030386,CSI
5566882000000.0,0.7111461162567139,2.9666972160339355,9.933298110961914,-0.3304191529750824,-0.1181812435388565,-0.32528573,0.4092797,146.53714,-98.28607,8.036055000000001,CSI
5566977500000.0,0.7161471843719482,2.9620914459228516,9.920393943786621,-0.319010853767395,-0.11333172023296356,-0.23457226,0.43096542,146.45021,-98.500534,8.274536999999999,CSI
5567068000000.0,0.7211474180221558,2.9545938968658447,9.906844139099121,-0.3085661828517914,-0.10813838243484497,-0.15851954,0.44929138,146.34415,-98.71885999999999,8.514949,CSI
5567154000000.0,0.7261468172073364,2.944359302520752,9.892683029174805,-0.29903367161750793,-0.10309159010648727,-0.079107046,0.46609017,146.211,-98.94031,8.757462,CSI
5567236000000.0,0.7311460375785828,2.931525468826294,9.877939224243164,-0.29036566615104675,-0.09821609407663345,-0.009773844,0.47158796,146.059,-99.16166,8.997977,CSI
5567313600000.0,0.7361462116241455,2.9162182807922363,9.862639427185059,-0.28251752257347107,-0.09304699301719666,0.011911871999999999,0.47372600000000004,145.89844,-99.384476,9.237979,CSI
5567387500000.0,0.7411458492279053,2.8985865116119385,9.846819877624512,-0.2754436135292053,-0.08732322603464127,0.04550946,0.45662177,145.71503,-99.60074,9.470123,CSI
5567458000000.0,0.7461440563201904,2.8787648677825928,9.830513000488281,-0.26910147070884705,-0.08201843500137329,0.07238753,0.43768495,145.52817,-99.81362,9.697911,CSI
5567524400000.0,0.7511473298072815,2.8567943572998047,9.813712120056152,-0.2634606659412384,-0.0773056223988533,0.089491755,0.39584067,145.33522,-100.01261,9.910033,CSI
5567588000000.0,0.7561482191085815,2.8328745365142822,9.796480178833008,-0.2584741711616516,-0.07336484640836716,0.093462385,0.35308012,145.13939,-100.20268,10.112353,CSI
5567648000000.0,0.7611525058746338,2.807041883468628,9.778812408447266,-0.2541147768497467,-0.07077349722385406,0.083383106,0.31612277,144.94383,-100.37911,10.300473,CSI
5567705000000.0,0.7661545276641846,2.779463291168213,9.760758399963379,-0.2503416836261749,-0.0697852075099945,0.0720821,0.25992316,144.74858,-100.53489,10.467255,CSI
5567760000000.0,0.7711549401283264,2.750225305557251,9.74233627319336,-0.24712437391281128,-0.07002155482769012,0.0711658,0.21655174,144.55463999999998,-100.68109,10.623805,CSI
5567811700000.0,0.7761958837509155,2.7189199924468994,9.72335433959961,-0.24448952078819275,-0.07166143506765366,0.04734206,0.1685988,144.37187,-100.80726999999999,10.759825,CSI
5567861000000.0,0.781193733215332,2.686619758605957,9.704252243041992,-0.2422969937324524,-0.07379990816116333,0.02443461,0.11789699,144.19054,-100.91866,10.880025999999999,CSI
5567907600000.0,0.7861918807029724,2.6528923511505127,9.684829711914062,-0.24057823419570923,-0.07725682109594345,-0.006414085,0.059253927000000005,144.01984,-101.011986,10.981775,CSI
5567952000000.0,0.7911897301673889,2.6178202629089355,9.665106773376465,-0.23930726945400238,-0.080562062561512,-0.03940081,0.01863139,143.85793999999999,-101.095505,11.072128,CSI
5567994700000.0,0.7961880564689636,2.5814661979675293,9.645094871520996,-0.23846124112606049,-0.08536772429943085,-0.08979719,-0.029626964,143.71147,-101.158615,11.14178,CSI
5568035000000.0,0.8011895418167114,2.5438671112060547,9.624796867370605,-0.23802107572555542,-0.09069859236478806,-0.15851954,-0.057421334000000004,143.58142,-101.21607,11.204249,CSI
5568074000000.0,0.8061877489089966,2.5051627159118652,9.60425853729248,-0.23795677721500397,-0.09672200679779053,-0.23732115,-0.07391469,143.4703,-101.26262,11.255066000000001,CSI
5568110500000.0,0.8111895322799683,2.4653329849243164,9.583459854125977,-0.23825731873512268,-0.10304295271635056,-0.3268129,-0.092240654,143.38343999999998,-101.30089,11.296517999999999,CSI
5568145700000.0,0.8161891102790833,2.424504280090332,9.562442779541016,-0.2388956993818283,-0.11091521382331848,-0.42638394,-0.110872045,143.32335,-101.33442,11.332457000000002,CSI
5568179000000.0,0.8211871385574341,2.382723093032837,9.541215896606445,-0.23985469341278076,-0.12038633227348328,-0.5305365,-0.10873401,143.29118,-101.36912,11.368569,CSI
5568211000000.0,0.8261847496032715,2.3400282859802246,9.519784927368164,-0.24111856520175934,-0.13128970563411713,-0.63499445,-0.11453723,143.28826999999998,-101.39676999999999,11.39676,CSI
5568241600000.0,0.8311811089515686,2.296478509902954,9.49816608428955,-0.24266992509365082,-0.14415128529071808,-0.68569624,-0.13225232,143.29976000000002,-78.57765,11.421911,CSI
5568271000000.0,0.836179256439209,2.252084255218506,9.476353645324707,-0.24449744820594788,-0.1578575074672699,-0.80664754,-0.14141529999999997,143.36154,-78.55045,11.447746,CSI
5568299000000.0,0.8411773443222046,2.206911087036133,9.454366683959961,-0.24658407270908356,-0.1732911616563797,-0.9062186,-0.16157386,143.43098,-78.530045,11.465482000000002,CSI
5568325500000.0,0.8462028503417969,2.1606764793395996,9.432076454162598,-0.248952716588974,-0.1900509148836136,-0.9993755,-0.19028452,143.53253,-78.51337,11.478405,CSI
5568351000000.0,0.8512003421783447,2.1140739917755127,9.409770011901855,-0.2515161633491516,-0.20834283530712128,-1.0818423000000001,-0.2302962,143.65833999999998,-78.50374599999999,11.482796,CSI
5568376000000.0,0.8561973571777344,2.0668153762817383,9.387317657470703,-0.2542989253997803,-0.22896422445774078,-1.1499538,-0.2565634,143.80508,-78.4959,11.48361,CSI
5568399400000.0,0.861198365688324,2.018883228302002,9.364705085754395,-0.2572952210903168,-0.25125378370285034,-1.2092078000000002,-0.28221974,143.97101999999998,-78.49665,11.474138,CSI
5568422000000.0,0.8661972880363464,1.970382809638977,9.341970443725586,-0.26048582792282104,-0.2755458354949951,-1.2498302,-0.3145956,144.14893,-78.50291,11.456430000000001,CSI
5568443400000.0,0.8711899518966675,1.9213954210281372,9.319141387939453,-0.26385459303855896,-0.30054542422294617,-1.282817,-0.34819320000000004,144.3392,-78.51331,11.432433,CSI
5568464000000.0,0.8761882185935974,1.8754888772964478,9.298995018005371,-0.26770859956741333,-0.32639387249946594,-1.3041973,-0.36713,144.53513,-78.52379,11.404967999999998,CSI
5568484000000.0,0.881186306476593,1.8338932991027832,9.282437324523926,-0.27212342619895935,-0.35197165608406067,-1.3200798,-0.36835176,144.73613,-78.53472,11.37473,CSI
5568502700000.0,0.8861851096153259,1.7963848114013672,9.269286155700684,-0.27707162499427795,-0.3777652084827423,-1.3356569,-0.37934732,144.7812,-78.7802,11.106869,CSI
5568521000000.0,0.8911834955215454,1.7627382278442383,9.259349822998047,-0.28252172470092773,-0.4031445384025574,-1.3570372,-0.37598756,144.8326,-79.01301600000001,10.849,CSI
5568539000000.0,0.8961820602416992,1.7327518463134766,9.252462387084961,-0.28844863176345825,-0.42790380120277405,-1.3768903000000001,-0.35888332,144.88803000000001,-79.23522,10.598131,CSI
5568555600000.0,0.9011843204498291,1.7062551975250244,9.248494148254395,-0.294837087392807,-0.45240160822868347,-1.4010194999999999,-0.3381139,144.95067,-79.44549599999999,10.355497,CSI
5568572000000.0,0.9061827659606934,1.6830111742019653,9.247220993041992,-0.30164146423339844,-0.4770425260066986,-1.4349225,-0.31673363,145.02141,-79.640915,10.124037,CSI
5568587600000.0,0.9111858010292053,1.6629035472869873,9.248576164245605,-0.3088630735874176,-0.5006307363510132,-1.4929546,-0.3005457,145.10548,-79.8237,9.903138,CSI
5568603000000.0,0.9161841869354248,1.6457023620605469,9.252334594726562,-0.3164539337158203,-0.5236454606056213,-1.5418239,-0.2883284,145.19579,-79.99101999999999,9.692949,CSI
5568617500000.0,0.9211829304695129,1.6312861442565918,9.258414268493652,-0.32440799474716187,-0.5468498468399048,-1.6026049999999998,-0.28130344,145.30513,-80.14583,9.491945,CSI
5568631700000.0,0.9261802434921265,1.6194939613342285,9.266674041748047,-0.33270081877708435,-0.5703639388084412,-1.6667458,-0.28313604,145.42818,-80.29053499999999,9.297604,CSI
5568645300000.0,0.9311772584915161,1.6101936101913452,9.277007102966309,-0.34131744503974915,-0.5936992168426514,-1.704925,-0.2910773,145.55956,-80.42568,9.108893,CSI
5568658400000.0,0.9361757636070251,1.6032640933990479,9.28931999206543,-0.35024553537368774,-0.6169140338897705,-1.7892243000000003,-0.30665436,145.72087,-80.55297,8.9239,CSI
5568671000000.0,0.9411740303039551,1.598568320274353,9.303492546081543,-0.35946401953697205,-0.6392985582351685,-1.8606955000000003,-0.31978795,145.8873,-80.67329000000001,8.742554,CSI
5568683000000.0,0.9461705684661865,1.59597647190094,9.319411277770996,-0.36895298957824707,-0.6606854796409607,-1.9370537,-0.34147367,146.07715,-80.790665,8.560492,CSI
5568695000000.0,0.9511713981628418,1.5954177379608154,9.337038040161133,-0.37871503829956055,-0.6810954213142395,-1.9981402,-0.37507126,146.28053,-80.9063,8.376922,CSI
5568706600000.0,0.9561706185340881,1.5967439413070679,9.356228828430176,-0.38871923089027405,-0.6994084715843201,-2.0286834,-0.40683624,146.49399,-81.02181,8.193064999999999,CSI
5568717700000.0,0.9611737132072449,1.5998926162719727,9.376951217651367,-0.39896827936172485,-0.7159968018531799,-2.017077,-0.42760566,146.70953,-81.13494,8.00773,CSI
5568728700000.0,0.9661707878112793,1.604698657989502,9.399032592773438,-0.40942123532295227,-0.7305942177772522,-1.9501873,-0.44318274,146.91454,-81.25085,7.818891499999999,CSI
5568739000000.0,0.9711686372756958,1.6111193895339966,9.42246150970459,-0.42008593678474426,-0.7445602416992188,-1.8603901000000003,-0.4538729,147.10617,-81.36236600000001,7.629385000000001,CSI
5568749600000.0,0.9761659502983093,1.6190598011016846,9.447153091430664,-0.4309474229812622,-0.756723940372467,-1.7119498,-0.45998153,147.25858,-81.475334,7.4386864,CSI
5568759600000.0,0.9811620116233826,1.6284332275390625,9.473033905029297,-0.4419928789138794,-0.7673603892326355,-1.5387696000000002,-0.46914452,147.3756,-81.58381,7.2462100000000005,CSI
5568769000000.0,0.9861582517623901,1.6391733884811401,9.500053405761719,-0.45321667194366455,-0.7767626643180847,-1.3432927,-0.48685959999999995,147.44203000000002,-81.69096,7.050431,CSI
5568778500000.0,0.9911562204360962,1.6512179374694824,9.528165817260742,-0.46461358666419983,-0.7842151522636414,-1.1291844,-0.52320606,147.45316,-81.80226,6.8470726,CSI
5568788000000.0,0.9961547255516052,1.664489984512329,9.557302474975586,-0.4761713445186615,-0.7899683117866516,-0.9074403,-0.5467244000000001,147.40645,-81.908775,6.642462700000001,CSI
5568797000000.0,1.001159906387329,1.6789675951004028,9.587467193603516,-0.4878993034362793,-0.7934452891349792,-0.6966918000000001,-0.5873469,147.30421,-82.02653000000001,6.422835,CSI
5568805700000.0,1.006159782409668,1.6945041418075562,9.618494033813477,-0.49975448846817017,-0.7949138879776001,-0.46670106,-0.623388,147.13611,-82.14418,6.1972504,CSI
5568814000000.0,1.0111645460128784,1.711113691329956,9.650432586669922,-0.5117591023445129,-0.7960763573646545,-0.22021692,-0.6429357,146.90736,-82.2599,5.9646797,CSI
5568822500000.0,1.0161675214767456,1.7286936044692993,9.683172225952148,-0.523886501789093,-0.7969815731048584,-0.010995574,-0.6606508000000001,146.62941,-82.38023000000001,5.723231,CSI
5568831000000.0,1.0211668014526367,1.7471779584884644,9.716651916503906,-0.5361242890357971,-0.7975130081176758,0.15088372,-0.66339964,146.30100000000002,-82.493484,5.481387000000001,CSI
5568839000000.0,1.0261651277542114,1.766536831855774,9.750856399536133,-0.5484740734100342,-0.796811580657959,0.22082779,-0.6591236,145.94683999999998,-82.60351999999999,5.2395830000000005,CSI
5568846600000.0,1.0311626195907593,1.7867239713668823,9.785747528076172,-0.560930073261261,-0.7932664155960083,0.33658674,-0.6536258,145.54155,-82.71225,4.9981235999999996,CSI
5568854500000.0,1.036162257194519,1.8077157735824585,9.821316719055176,-0.573495090007782,-0.7888033390045166,0.41355577,-0.64934975,145.13583,-82.809296,4.7626963,CSI
5568862000000.0,1.0411604642868042,1.8294450044631958,9.857495307922363,-0.5861533284187317,-0.7819737195968628,0.4456262,-0.64843345,144.7187,-82.91493,4.5320325,CSI
5568869000000.0,1.046157717704773,1.8518747091293335,9.894253730773926,-0.5989006757736206,-0.7738966345787048,0.48655418,-0.63438356,144.28576999999999,-83.00986,4.309992,CSI
5568876500000.0,1.0511583089828491,1.8749977350234985,9.931601524353027,-0.6117448806762695,-0.7658267617225647,0.5369505,-0.6047566,143.84961,-83.100235,4.097418299999999,CSI
5568884000000.0,1.0561575889587402,1.8987454175949097,9.969464302062988,-0.6246677041053772,-0.7577962875366211,0.5674938,-0.5751295999999999,143.4162,-83.18793000000001,3.8940187000000006,CSI
5568890700000.0,1.061156153678894,1.9230890274047852,10.007821083068848,-0.6376668214797974,-0.7508774399757385,0.56779927,-0.5506949999999999,142.9856,-83.26212,3.7025506,CSI
5568897500000.0,1.0661544799804688,1.947999358177185,10.046648979187012,-0.6507392525672913,-0.7451737523078918,0.5726861999999999,-0.5195409000000001,142.55313,-83.32549,3.5257601999999997,CSI
5568904300000.0,1.0711495876312256,1.9734249114990234,10.085893630981445,-0.6638723015785217,-0.741108775138855,0.5729916,-0.48014009999999996,142.13,-83.37318,3.3634152000000004,CSI
5568911000000.0,1.0761477947235107,1.995841145515442,10.121286392211914,-0.67418372631073,-0.7389532923698425,0.57757306,-0.44868052,141.71245,-83.40703,3.2121427000000002,CSI
5568918000000.0,1.0811452865600586,2.014505624771118,10.151930809020996,-0.6810960173606873,-0.7381660342216492,0.5626069,-0.40866885,141.30774,-83.42579,3.0794593999999997,CSI
5568925000000.0,1.0861440896987915,2.0295979976654053,10.178056716918945,-0.6847674250602722,-0.7383973598480225,0.5122104999999999,-0.37323865,140.97772,-83.41266999999999,3.062385,CSI
5568931000000.0,1.0911426544189453,2.0413239002227783,10.199921607971191,-0.6853878498077393,-0.7397394776344299,0.45234573,-0.33505958,140.65646,-83.38735,3.0584705000000003,CSI
5568937300000.0,1.0961402654647827,2.0498692989349365,10.217761039733887,-0.6831272840499878,-0.7420192956924438,0.38026363,-0.3136793,140.3554,-83.355835,3.061704,CSI
5568943600000.0,1.1011388301849365,2.055386781692505,10.231769561767578,-0.6781203746795654,-0.7456262707710266,0.31520647,-0.30543262,140.07146,-83.31407,3.0733473,CSI
5568950000000.0,1.1061378717422485,2.0580410957336426,10.242156028747559,-0.6705169677734375,-0.7499525547027588,0.24251351,-0.30787608,139.8125,-83.26934,3.0899520000000003,CSI
5568956000000.0,1.1111361980438232,2.0579957962036133,10.249125480651855,-0.6604679822921753,-0.7562945485115051,0.11881329,-0.33658674,139.58955,-83.214554,3.1043367,CSI
5568962500000.0,1.1161350011825562,2.0553841590881348,10.252847671508789,-0.648091733455658,-0.7647727131843567,-0.008246681,-0.37934732,139.39095,-83.15739,3.115796,CSI
5568969000000.0,1.1211345195770264,2.050339698791504,10.25349235534668,-0.6335088014602661,-0.7747361063957214,-0.13316862,-0.43188173,139.22988999999998,-83.098145,3.119524,CSI
5568974600000.0,1.1261334419250488,2.0430049896240234,10.251237869262695,-0.6168511509895325,-0.7862682938575745,-0.21013765,-0.46120325,139.09328,-83.029976,3.1198587000000004,CSI
5568980300000.0,1.1311320066452026,2.0334999561309814,10.246236801147461,-0.5982270240783691,-0.7978857755661011,-0.42302418,-0.5393939999999999,139.03497,-82.97348000000001,3.0993242000000003,CSI
5568986000000.0,1.136132001876831,2.021923542022705,10.238615989685059,-0.5777223110198975,-0.8099910020828247,-0.64476824,-0.6093381,139.00236999999998,-82.908615,3.0757467999999997,CSI
5568992000000.0,1.1411312818527222,2.008405923843384,10.228538513183594,-0.5554596185684204,-0.822623074054718,-0.86070913,-0.64843345,139.03003999999999,-82.84693,3.0457146,CSI
5568997600000.0,1.1461299657821655,1.9930490255355835,10.216133117675781,-0.5315308570861816,-0.8354935050010681,-1.1044444,-0.69913524,139.13034,-82.79193000000001,3.0011692,CSI
5569003400000.0,1.151132345199585,1.9759104251861572,10.201478004455566,-0.5059796571731567,-0.8484430909156799,-1.3875803999999998,-0.75319684,139.30292,-82.737755,2.953614,CSI
5569009000000.0,1.156131625175476,1.9571481943130493,10.18476390838623,-0.47896280884742737,-0.8616954684257507,-1.6517796999999999,-0.79137594,139.5379,-82.68278000000001,2.9044084999999997,CSI
5569015000000.0,1.1611309051513672,1.9368211030960083,10.166069030761719,-0.450527548789978,-0.8745834231376648,-1.8429805000000001,-0.8335256,139.83081,-82.63455,2.8465437999999996,CSI
5569020700000.0,1.166130781173706,1.915006399154663,10.145492553710938,-0.42074263095855713,-0.8860846161842346,-1.9929477999999998,-0.86345804,140.18329,-82.590294,2.7895484,CSI
5569026500000.0,1.171165943145752,1.8914499282836914,10.122761726379395,-0.38930830359458923,-0.8958985805511475,-2.1313088,-0.90408057,140.5832,-82.55261999999999,2.7244484,CSI
5569032000000.0,1.1761637926101685,1.8669252395629883,10.098752975463867,-0.3570712208747864,-0.9029595255851746,-2.2644775000000004,-0.96486163,141.01998999999998,-82.53002,2.650791,CSI
5569038000000.0,1.1811609268188477,1.8411494493484497,10.073160171508789,-0.3237013518810272,-0.9069584012031555,-2.3432791,-1.0390818000000002,141.47598,-82.52084,2.5653646,CSI
5569043000000.0,1.186159372329712,1.814171314239502,10.046048164367676,-0.2892390787601471,-0.90721195936203,-2.3719897,-1.1129965,141.95064,-82.53288,2.4662735000000002,CSI
5569048500000.0,1.1911572217941284,1.7860718965530396,10.017516136169434,-0.2537614703178406,-0.9036594033241272,-2.3188446,-1.1731668,142.41905,-82.56461999999999,2.3506699,CSI
5569053700000.0,1.1961561441421509,1.7568960189819336,9.98762321472168,-0.21730604767799377,-0.8975452780723572,-2.2153027,-1.2327261,142.87625,-82.613785,2.2144202999999996,CSI
5569059000000.0,1.2011553049087524,1.7267076969146729,9.956449508666992,-0.1799323558807373,-0.8883875608444214,-2.0983222,-1.3066407,143.30959,-82.68894,2.0557368,CSI
5569064000000.0,1.206153392791748,1.6955736875534058,9.924077987670898,-0.14170365035533905,-0.8783668875694275,-1.9339993999999998,-1.3414601000000002,143.69357,-82.76550999999999,1.8875445,CSI
5569069400000.0,1.211151361465454,1.663535714149475,9.890562057495117,-0.10265575349330902,-0.8679524660110474,-1.7522669999999998,-1.3692545,144.03486999999998,-82.85723,1.6975759999999998,CSI
5569074700000.0,1.2161493301391602,1.6306413412094116,9.855962753295898,-0.06283175945281982,-0.8564490079879761,-1.536937,-1.4025466,144.3151,-82.956314,1.491665,CSI
5569080000000.0,1.2211498022079468,1.5969116687774658,9.82030963897705,-0.022245585918426514,-0.8449563384056091,-1.4107933000000001,-1.3906348,144.56305,-83.04718000000001,1.2902666,CSI
5569085000000.0,1.226149082183838,1.562425136566162,9.783697128295898,0.01902441866695881,-0.8386663794517517,-1.1368201999999998,-1.3848315,144.70451,-83.1137,1.0686535,CSI
5569090400000.0,1.2311478853225708,1.527216911315918,9.746170997619629,0.06094752252101898,-0.834257960319519,-1.0732902,-1.3961325,144.86607,-83.19214000000001,0.8515271000000001,CSI
5569095700000.0,1.2361481189727783,1.4913064241409302,9.707757949829102,0.10351007431745529,-0.8210668563842773,-1.0699303999999998,-1.3909402,144.96323,-83.29417,0.6371895000000001,CSI
5569101000000.0,1.2411448955535889,1.4547778367996216,9.668558120727539,0.14662596583366394,-0.7983077168464661,-0.9984591999999999,-1.3521502,145.01979,-83.3873,0.42869744,CSI
5569106000000.0,1.24614417552948,1.4176075458526611,9.628549575805664,0.19032861292362213,-0.7707876563072205,-0.9108001,-1.3261883999999997,145.0684,-83.49850500000001,0.22083761,CSI
5569111400000.0,1.2511430978775024,1.3798565864562988,9.58780574798584,0.23455700278282166,-0.7398998737335205,-0.7901541999999999,-1.2815952,145.08278,-83.650085,0.028977076,CSI
5569116600000.0,1.2561423778533936,1.341549038887024,9.546358108520508,0.2792905569076538,-0.7057098746299744,-0.6429357,-1.2223413,145.06108,-83.826164,-0.15194458,CSI
5569122000000.0,1.261141300201416,1.3027219772338867,9.504252433776855,0.324494332075119,-0.669305145740509,-0.51007247,-1.1667526000000001,145.00609,-84.015236,-0.32159767,CSI
5569127000000.0,1.2661411762237549,1.2633906602859497,9.46151065826416,0.37015700340270996,-0.6318455338478088,-0.39858958,-1.1047498,144.91212,-84.21778,-0.47355255,CSI
5569132400000.0,1.2711403369903564,1.2235972881317139,9.418182373046875,0.4162369668483734,-0.5956334471702576,-0.28527406,-1.0665708,144.77827,-84.42199000000001,-0.6176728,CSI
5569137600000.0,1.2761393785476685,1.166900873184204,9.3648042678833,0.46875521540641785,-0.5589584708213806,-0.23701571,-0.99173975,144.62843,-84.645706,-0.7324757,CSI
5569143000000.0,1.281137228012085,1.090445637702942,9.299751281738281,0.5287383198738098,-0.5217312574386597,-0.2321288,-0.9306532,144.45863,-84.86694,-0.8397831,CSI
5569148000000.0,1.2861369848251343,0.9941762685775757,9.231704711914062,0.604600727558136,-0.4864066243171692,-0.22388211,-0.89949906,143.76355,-84.940674,-1.1449661,CSI
5569153300000.0,1.2911360263824463,0.8791145086288452,9.163211822509766,0.6977980732917786,-0.45361563563346863,-0.26267207,-0.8732319,143.11441000000002,-85.00456,-1.4186661,CSI
5569158600000.0,1.296133041381836,0.7488815188407898,9.101374626159668,0.8122369647026062,-0.42416733503341675,-0.33017266,-0.84116143,142.5893,-84.94626,-1.7489637999999998,CSI
5569164000000.0,1.301133394241333,0.6045868992805481,9.047955513000488,0.9487506747245789,-0.397704541683197,-0.45601090000000005,-0.8038987,142.10973,-84.87065,-2.0566766,CSI
5569169000000.0,1.3061317205429077,0.45095759630203247,9.000932693481445,1.0929404497146606,-0.37405189871788025,-0.59803706,-0.75991637,141.80103,-84.65696,-2.4043102000000003,CSI
5569174300000.0,1.3111287355422974,0.2895481586456299,8.95952033996582,1.2405344247817993,-0.35473617911338806,-0.7516696999999999,-0.729984,141.53828000000001,-84.42173000000001,-2.73317,CSI
5569179500000.0,1.3161269426345825,0.12139353901147842,8.919817924499512,1.3858458995819092,-0.3399820327758789,-0.82833326,-0.68936145,141.34063999999998,-84.05931,-3.0950563,CSI
5569185000000.0,1.3211264610290527,-0.052293941378593445,8.877582550048828,1.5225929021835327,-0.32954636216163635,-0.96974856,-0.67256266,141.20966,-83.683014,-3.4405900000000003,CSI
5569190000000.0,1.326126217842102,-0.22451767325401306,8.832671165466309,1.6411422491073608,-0.3207574188709259,-1.067487,-0.63438356,141.07973,-83.24217,-3.8201165,CSI
5569195300000.0,1.331130027770996,-0.3909424841403961,8.784954071044922,1.7354371547698975,-0.31386926770210266,-1.1554517,-0.59589905,140.99075,-82.79085,-4.18089,CSI
5569200500000.0,1.3361282348632812,-0.5454411506652832,8.729796409606934,1.8099675178527832,-0.30812951922416687,-1.2098186000000002,-0.5458081,140.87466,-82.31997,-4.572565,CSI
5569206000000.0,1.3411272764205933,-0.6844976544380188,8.664155960083008,1.8671032190322876,-0.3015725314617157,-1.2574661,-0.49266282,140.78421,-81.863174,-4.9392533,CSI
5569211000000.0,1.3461283445358276,-0.8070540428161621,8.589132308959961,1.9142675399780273,-0.29337912797927856,-1.2913691,-0.44959682,140.56241,-81.438965,-5.329681,CSI
5569216000000.0,1.3511322736740112,-0.9124212265014648,8.5056734085083,1.9573957920074463,-0.2836853861808777,-1.3274101999999999,-0.42027529999999996,140.35971,-81.03034,-5.696129,CSI
5569221500000.0,1.356133222579956,-0.9995302557945251,8.412808418273926,1.9977728128433228,-0.272636353969574,-1.3680326999999999,-0.40408736,139.94705,-80.65673000000001,-6.0666400000000005,CSI
5569226700000.0,1.36113440990448,-1.0671772956848145,8.309331893920898,2.036491870880127,-0.25978338718414307,-1.4092661,-0.38362336,139.55693,-80.30324,-6.414869,CSI
5569232000000.0,1.3661364316940308,-1.1175081729888916,8.196554183959961,2.0719046592712402,-0.24613413214683533,-1.4205671999999998,-0.36163223,139.1346,-79.971855,-6.7255425,CSI
5569237000000.0,1.3711374998092651,-1.152899146080017,8.075996398925781,2.1021103858947754,-0.23295184969902039,-1.4025466,-0.36896262,138.73021,-79.64813000000001,-7.0283375,CSI
5569242500000.0,1.3761380910873413,-1.1723623275756836,7.9504547119140625,2.126249074935913,-0.2218068391084671,-1.3420709,-0.34910949999999996,138.17757,-79.35174,-7.283498299999999,CSI
5569247700000.0,1.381137728691101,-1.1746857166290283,7.823049068450928,2.1433143615722656,-0.21200452744960785,-1.3063353000000002,-0.39767328,137.65143,-79.049126,-7.5502768,CSI
5569253000000.0,1.386139154434204,-1.1658132076263428,7.6948771476745605,2.1617660522460938,-0.2078031450510025,-1.2287555000000001,-0.43768495,136.98676,-78.73389399999999,-7.798891499999999,CSI
5569257700000.0,1.3911398649215698,-1.153090476989746,7.567432880401611,2.1919491291046143,-0.2075531780719757,-1.1523973,-0.42760566,136.34361,-78.4284,-8.038208000000001,CSI
5569262400000.0,1.3961371183395386,-1.1355942487716675,7.4414801597595215,2.231799602508545,-0.21146725118160248,-1.1007791999999998,-0.43035457,135.36668,-78.11269,-8.288879,CSI
5569267600000.0,1.4011434316635132,-1.1116682291030884,7.317727565765381,2.279500961303711,-0.2207721471786499,-1.0308351999999998,-0.42485678,134.42833000000002,-77.79086,-8.524261,CSI
5569273000000.0,1.4061403274536133,-1.084279179573059,7.198389530181885,2.334556818008423,-0.23648275434970856,-0.9859365,-0.43066000000000004,133.58831999999998,-77.40265,-8.745531,CSI
5569277600000.0,1.411141037940979,-1.0620157718658447,7.091333389282227,2.39936900138855,-0.2599179744720459,-0.9275989,-0.41630468,132.77873,-77.00227,-8.949634,CSI
5569283000000.0,1.4161380529403687,-1.048615574836731,6.997775077819824,2.4729390144348145,-0.2890546917915344,-0.91782504,-0.40225476,132.08053999999998,-76.558815,-9.117496000000001,CSI
5569287600000.0,1.421138882637024,-1.0510058403015137,6.9207611083984375,2.5549004077911377,-0.31891748309135437,-0.9492845999999999,-0.38973203,131.42197,-76.11193,-9.26942,CSI
5569293000000.0,1.4261341094970703,-1.0693925619125366,6.860576629638672,2.6443898677825928,-0.3536997437477112,-0.9816604,-0.36468655,130.85419,-75.575096,-9.414958,CSI
5569297500000.0,1.4311339855194092,-1.1072522401809692,6.820517539978027,2.741482734680176,-0.391853392124176,-1.0021244,-0.35369098,130.32756,-75.04309,-9.546194999999999,CSI
5569303000000.0,1.436131238937378,-1.1622320413589478,6.8007073402404785,2.845176935195923,-0.4324825406074524,-1.0115929,-0.36560285,130.0813,-74.44348000000001,-9.672783,CSI
5569307500000.0,1.4411325454711914,-1.2315512895584106,6.805502414703369,2.9545962810516357,-0.4744786322116852,-1.0442741,-0.38851030000000003,129.85811,-73.83394,-9.785630000000001,CSI
5569312700000.0,1.4461312294006348,-1.313966989517212,6.832884788513184,3.069824695587158,-0.5174270272254944,-1.0778716999999998,-0.42088616,129.83423,-73.16334,-9.919075999999999,CSI
5569318000000.0,1.4511381387710571,-1.4092912673950195,6.882200241088867,3.1928014755249023,-0.5615536570549011,-1.1215485,-0.47586402,129.82567,-72.477776,-10.052497,CSI
5569322700000.0,1.4561362266540527,-1.5154989957809448,6.950717449188232,3.320528984069824,-0.606681764125824,-1.1621711000000001,-0.5403103,129.88478,-71.74563,-10.218293,CSI
5569328000000.0,1.461137056350708,-1.6304800510406494,7.037233352661133,3.4399030208587646,-0.6518464684486389,-1.1527027,-0.6246096999999999,129.94583,-71.00395,-10.394596,CSI
5569332600000.0,1.466138243675232,-1.7532248497009277,7.139305591583252,3.5516574382781982,-0.6961506009101868,-1.1261301000000001,-0.7079928000000001,130.07596,-70.2118,-10.610180999999999,CSI
5569338000000.0,1.4711393117904663,-1.8803836107254028,7.247142314910889,3.65807843208313,-0.7389563322067261,-1.0546589,-0.7672467,130.19276000000002,-69.42142,-10.834838000000001,CSI
5569342600000.0,1.476145625114441,-2.0119402408599854,7.360660552978516,3.75946307182312,-0.7789599299430847,-0.9443976999999999,-0.8179486,130.3187,-68.648224,-11.111017,CSI
5569348000000.0,1.4811447858810425,-2.147165060043335,7.479051113128662,3.856051206588745,-0.8142598271369934,-0.81092364,-0.9221011,130.42616,-67.88492600000001,-11.413675999999999,CSI
5569353000000.0,1.4861536026000977,-2.2856481075286865,7.601771354675293,3.9483203887939453,-0.8488993048667908,-0.66431594,-1.061073,130.52542,-67.105255,-11.743433999999999,CSI
5569358000000.0,1.491153597831726,-2.412930727005005,7.71300745010376,4.0392680168151855,-0.8837762475013733,-0.5326744999999999,-1.1701124,130.59853,-66.34359,-12.091751,CSI
5569363000000.0,1.496209740638733,-2.5283093452453613,7.812520503997803,4.130305767059326,-0.918959379196167,-0.4728097,-1.2110404,130.69904,-65.58435,-12.510582000000001,CSI
5569368000000.0,1.5012112855911255,-2.627277135848999,7.910552978515625,4.228564739227295,-0.9536510705947876,-0.39003745,-1.1976013,130.76256,-64.83304,-12.944383,CSI
5569372500000.0,1.5062028169631958,-2.708709716796875,8.007928848266602,4.33601188659668,-0.9865915775299072,-0.42271876,-1.1520919,130.8727,-64.0778,-13.3484535,CSI
5569377700000.0,1.5111998319625854,-2.7632856369018555,8.088787078857422,4.444986820220947,-1.0180532932281494,-0.5131268,-1.0812315000000001,130.97153,-63.34301800000001,-13.730115,CSI
5569382400000.0,1.5161943435668945,-2.7902843952178955,8.149595260620117,4.552853107452393,-1.0497428178787231,-0.55955255,-1.0454959000000001,131.0657,-62.622673,-14.096516000000001,CSI
5569387700000.0,1.5211924314498901,-2.801929473876953,8.18764591217041,4.6607666015625,-1.0811595916748047,-0.6383542,-0.9618073,131.18944,-61.914375,-14.358863000000001,CSI
5569393000000.0,1.526189923286438,-2.8058736324310303,8.202427864074707,4.769222736358643,-1.1136530637741089,-0.7165449,-0.8695666999999999,131.31831,-61.219128000000005,-14.592319,CSI
5569397700000.0,1.5311866998672485,-2.803969621658325,8.204498291015625,4.885554313659668,-1.147816777229309,-0.75686204,-0.7696901999999999,131.44485,-60.52845,-14.719163,CSI
5569403000000.0,1.5361864566802979,-2.797107219696045,8.198616027832031,5.012889385223389,-1.1845546960830688,-0.79290307,-0.64873886,131.5737,-59.856083,-14.798670999999999,CSI
5569407600000.0,1.5411845445632935,-2.7865653038024902,8.18388557434082,5.154445648193359,-1.224510908126831,-0.8344419,-0.50762904,131.75436000000002,-59.14665600000001,-14.824034,CSI
5569413000000.0,1.5461828708648682,-2.773001194000244,8.159955978393555,5.31175422668457,-1.2684906721115112,-0.91538155,-0.37995818,131.93524,-58.443419999999996,-14.804923,CSI
5569417600000.0,1.5511856079101562,-2.764639139175415,8.151001930236816,5.491422176361084,-1.317386269569397,-1.0626001,-0.26816985,132.16823,-57.678776,-14.715532999999999,CSI
5569423000000.0,1.556183934211731,-2.765030860900879,8.167448997497559,5.694747447967529,-1.371717095375061,-1.2046263000000001,-0.10903945,132.38783,-56.91916,-14.565933,CSI
5569427500000.0,1.5611823797225952,-2.768540620803833,8.20206069946289,5.908958435058594,-1.429842472076416,-1.366811,0.074830994,132.66997,-56.077286,-14.337076000000001,CSI
5569433000000.0,1.5662317276000977,-2.7724108695983887,8.253715515136719,6.130367755889893,-1.4913486242294312,-1.5018122,0.27519479999999996,132.94199,-55.232094,-14.044229500000002,CSI
5569437500000.0,1.5712275505065918,-2.7779674530029297,8.316535949707031,6.344079494476318,-1.5554856061935425,-1.6624697,0.48899764,133.24864,-54.341995,-13.666004000000001,CSI
5569443000000.0,1.5762234926223755,-2.78710675239563,8.394294738769531,6.542800426483154,-1.621559739112854,-1.8075503000000002,0.6969972,133.53583,-53.458009999999994,-13.222326,CSI
5569447500000.0,1.5812183618545532,-2.802161455154419,8.480037689208984,6.727731704711914,-1.6862612962722778,-1.9089539,0.8927795000000001,133.82144,-52.57881999999999,-12.701392,CSI
5569452700000.0,1.5862151384353638,-2.824594497680664,8.569392204284668,6.899832725524902,-1.749940037727356,-1.9602666000000002,1.0604621,134.07869,-51.701206,-12.127561,CSI
5569457400000.0,1.5912116765975952,-2.8577566146850586,8.655121803283691,7.0600481033325195,-1.811218023300171,-2.07572,1.1963795,134.34403999999998,-50.87972,-11.5048685,CSI
5569462700000.0,1.596208930015564,-2.9044837951660156,8.731255531311035,7.209211826324463,-1.869669795036316,-2.262034,1.3057245000000002,134.59207,-50.06994,-10.836053999999999,CSI
5569468000000.0,1.6012048721313477,-2.9578492641448975,8.791984558105469,7.346748352050781,-1.9253158569335938,-2.362216,1.3976597,134.83357,-49.290005,-10.169539,CSI
5569472600000.0,1.606202244758606,-3.011326313018799,8.831496238708496,7.472028732299805,-1.9780288934707642,-2.350915,1.4453071000000002,135.06023000000002,-48.521167999999996,-9.485025,CSI
5569478000000.0,1.611199140548706,-3.0665338039398193,8.856971740722656,7.575893878936768,-2.0282256603240967,-2.3417517999999995,1.4871514,135.30606,-47.749590000000005,-8.819666,CSI
5569482600000.0,1.616197943687439,-3.1257505416870117,8.877485275268555,7.645387649536133,-2.077244997024536,-2.3295345000000003,1.5186110000000002,135.52296,-46.98183,-8.158021000000002,CSI
5569488000000.0,1.6211947202682495,-3.1763756275177,8.883204460144043,7.695049285888672,-2.124351739883423,-2.2809708,1.6297885,135.71143,-46.19894,-7.5036254,CSI
5569492500000.0,1.6261909008026123,-3.201853036880493,8.860812187194824,7.7428297996521,-2.169973611831665,-2.1358902000000004,1.7003433999999997,135.86143,-45.413994,-6.8818529999999996,CSI
5569498000000.0,1.6311856508255005,-3.2071752548217773,8.816776275634766,7.784002780914307,-2.2139291763305664,-2.0549506999999996,1.6502525000000001,136.02968,-44.687675,-6.29835,CSI
5569502500000.0,1.6361806392669678,-3.1983585357666016,8.759005546569824,7.8120951652526855,-2.254549264907837,-1.9459113000000001,1.611768,136.1327,-43.9774,-5.7409697,CSI
5569508000000.0,1.6411759853363037,-3.176257371902466,8.685518264770508,7.8256940841674805,-2.2922070026397705,-1.7922786,1.582141,136.22173999999998,-43.20275,-5.167453299999999,CSI
5569512500000.0,1.6461718082427979,-3.1417806148529053,8.59216594696045,7.821690559387207,-2.3258068561553955,-1.6258179,1.5054774,136.29248,-42.446087,-4.644744,CSI
5569517700000.0,1.6511681079864502,-3.095536470413208,8.48073673248291,7.802657604217529,-2.354539632797241,-1.4856243,1.4052955,136.35907,-41.69462,-4.128954,CSI
5569522400000.0,1.6561663150787354,-3.037987232208252,8.353404998779297,7.772294044494629,-2.376988172531128,-1.3738358999999998,1.3151928,136.40386999999998,-40.97123,-3.6624972999999996,CSI
5569527700000.0,1.6611603498458862,-2.9643728733062744,8.213769912719727,7.733371734619141,-2.393357276916504,-1.2867876,1.2134838,136.46266,-40.249190000000006,-3.2148724,CSI
5569532400000.0,1.6661583185195923,-2.849317789077759,8.072113990783691,7.694575309753418,-2.4041008949279785,-1.2483031999999998,1.1994339,136.50235,-39.561783,-2.787213,CSI
5569537600000.0,1.6711528301239014,-2.698395252227783,7.9301862716674805,7.658126354217529,-2.409388780593872,-1.2437216,1.1850786,136.55981,-38.87528,-2.3561732999999996,CSI
5569543000000.0,1.6761500835418701,-2.5170891284942627,7.7907328605651855,7.62845516204834,-2.4094953536987305,-1.2803736000000001,1.2104294,136.60484,-38.223644,-1.9248736000000002,CSI
5569547600000.0,1.6811466217041016,-2.314685821533203,7.6528425216674805,7.604597568511963,-2.4046804904937744,-1.3658947,1.2366967,136.71906,-37.599438,-1.3535371,CSI
5569553000000.0,1.686145305633545,-2.108370304107666,7.514444351196289,7.585052490234375,-2.395141363143921,-1.45783,1.2647965,136.82384,-37.007557,-0.7738036,CSI
5569557600000.0,1.6911424398422241,-1.8948293924331665,7.379377841949463,7.571569919586182,-2.381471633911133,-1.5293012,1.2910636999999998,136.98676,-36.426888,-0.053571745999999996,CSI
5569563000000.0,1.6961413621902466,-1.6645299196243286,7.25706148147583,7.56915283203125,-2.364900588989258,-1.6456709999999999,1.4605788,137.11641,-35.867184,0.7173883000000001,CSI
5569567500000.0,1.701143503189087,-1.4182028770446777,7.146847724914551,7.577271461486816,-2.3471453189849854,-1.7180585,1.5555683,137.26148999999998,-35.29038,1.5218664,CSI
5569573000000.0,1.7061450481414795,-1.1570826768875122,7.048016548156738,7.595223903656006,-2.32883882522583,-1.7330246999999999,1.6291776000000002,137.36462,-34.726166,2.3524811000000003,CSI
5569577500000.0,1.7111455202102661,-0.8870805501937866,6.959178924560547,7.620920658111572,-2.309929132461548,-1.7195857,1.6633861,137.41318,-34.126373,3.2930546,CSI
5569582700000.0,1.716144323348999,-0.6264182329177856,6.8770952224731445,7.648530006408691,-2.2923364639282227,-1.6609426,1.7165313999999998,137.42224,-33.51896,4.22653,CSI
5569587400000.0,1.7211415767669678,-0.3798960745334625,6.79883337020874,7.676331996917725,-2.2770323753356934,-1.575116,1.7302758000000003,137.39992,-32.903366,5.1753206,CSI
5569592700000.0,1.7261406183242798,-0.16800186038017273,6.713870525360107,7.697848796844482,-2.2635366916656494,-1.4373658999999999,1.676825,137.35391,-32.286429999999996,6.079197,CSI
5569597400000.0,1.7311370372772217,0.018631787970662117,6.625437259674072,7.715358257293701,-2.250760316848755,-1.2629639,1.4822645,137.34592,-31.674667,6.9401155,CSI
5569602700000.0,1.7361361980438232,0.2175271362066269,6.547268867492676,7.73849630355835,-2.238274097442627,-1.1209377,1.5039502,137.27263,-31.053542999999998,7.7842693,CSI
5569607400000.0,1.7411335706710815,0.426290363073349,6.4785003662109375,7.766626358032227,-2.2268764972686768,-1.0354166,1.4975361999999999,137.25633,-30.436476000000003,8.504066,CSI
5569612600000.0,1.7461316585540771,0.6350496411323547,6.4171037673950195,7.797953128814697,-2.2160701751708984,-0.9761627,1.4651603000000002,137.21373,-29.827816,9.182182000000001,CSI
5569618000000.0,1.7511353492736816,0.8430345058441162,6.361756324768066,7.831721782684326,-2.2050909996032715,-0.93309665,1.4789047,137.14897,-29.209831,9.895021,CSI
5569622600000.0,1.7561345100402832,1.0388423204421997,6.300736427307129,7.860047340393066,-2.193410873413086,-0.91690874,1.4966198,137.07799,-28.600448999999998,10.582092999999999,CSI
5569628000000.0,1.7611523866653442,1.2230262756347656,6.233590602874756,7.882901191711426,-2.179049015045166,-0.9129381,1.4758505,136.99803,-28.002715999999996,11.269514,CSI
5569632500000.0,1.766152024269104,1.396355390548706,6.161825180053711,7.901072978973389,-2.1626365184783936,-0.90408057,1.461495,136.90215,-27.412558,11.9411,CSI
5569638000000.0,1.7711485624313354,1.5593494176864624,6.08522367477417,7.914616584777832,-2.142866611480713,-0.8927795000000001,1.4504995,136.81671,-26.850763,12.595086,CSI
5569642500000.0,1.776146650314331,1.7215042114257812,5.995697498321533,7.921787261962891,-2.1198692321777344,-0.8729264000000001,1.4419475,136.72527,-26.309215999999996,13.229442,CSI
5569648000000.0,1.7811442613601685,1.883548378944397,5.893378734588623,7.922804832458496,-2.093377113342285,-0.8405505999999999,1.4370604999999999,136.6264,-25.796703,13.843403,CSI
5569652500000.0,1.786142349243164,2.024512529373169,5.744630813598633,7.920705318450928,-2.0642762184143066,-0.84299403,1.3161091999999999,136.57643000000002,-25.282314000000003,14.454272,CSI
5569657700000.0,1.7911394834518433,2.143153429031372,5.54821252822876,7.915983200073242,-2.0342845916748047,-0.78038037,1.2220358999999998,136.49976999999998,-24.786419,15.030126000000001,CSI
5569662400000.0,1.7961399555206299,2.2985105514526367,5.350812911987305,7.91041898727417,-2.004133462905884,-0.71593404,1.3261883999999997,136.3943,-24.248814000000003,15.643436999999999,CSI
5569667700000.0,1.8011447191238403,2.51812744140625,5.1751508712768555,7.90490198135376,-1.9732125997543335,-0.6795876000000001,1.4239268,136.30087,-23.738613,16.222520000000003,CSI
5569672400000.0,1.806142807006836,2.761096477508545,5.007845401763916,7.897302627563477,-1.9413678646087646,-0.67073005,1.5030339,136.15305,-23.071106,16.801586,CSI
5569677600000.0,1.8111404180526733,3.0033111572265625,4.840374946594238,7.886216640472412,-1.9105528593063354,-0.65057147,1.5225816,135.97437,-22.410227,17.362152,CSI
5569683000000.0,1.8161383867263794,3.242414712905884,4.6796555519104,7.8740949630737305,-1.879589557647705,-0.62858033,1.5399913,135.72162,-21.734928,18.109123,CSI
5569687600000.0,1.821147084236145,3.4774088859558105,4.529659748077393,7.862379550933838,-1.8481113910675049,-0.559858,1.5543466000000001,135.44658,-21.067749,18.823164000000002,CSI
5569693000000.0,1.8261454105377197,3.70104718208313,4.384335517883301,7.851446151733398,-1.8171876668930054,-0.49510628,1.6029103999999998,135.12857,-20.367859,19.561203,CSI
5569697500000.0,1.8311426639556885,3.9044575691223145,4.235907554626465,7.841787815093994,-1.7858284711837769,-0.41874814,1.6786577,134.78185,-19.684366,20.265009,CSI
5569703000000.0,1.836139440536499,4.09066915512085,4.09241247177124,7.832972049713135,-1.754496455192566,-0.3472769,1.7278323,134.40475,-19.005779999999998,20.958614,CSI
5569707500000.0,1.8411381244659424,4.268362522125244,3.9849557876586914,7.823502063751221,-1.7246226072311401,-0.28344148,1.6236799,134.0385,-18.345057999999998,21.609468,CSI
5569713000000.0,1.846136212348938,4.43420934677124,3.9024500846862793,7.8176422119140625,-1.6957385540008545,-0.16432275,1.6569718999999998,133.59734,-17.645746,22.209099,CSI
5569717500000.0,1.851136565208435,4.582576751708984,3.8290321826934814,7.822216510772705,-1.6670265197753906,-0.070249505,1.813048,133.14261000000002,-16.955835,22.784208,CSI
5569722700000.0,1.8561656475067139,4.712801456451416,3.7643587589263916,7.833803653717041,-1.636800765991211,-0.034208454,1.9220876,132.6886,-16.362144,23.300318,CSI
5569727400000.0,1.861162781715393,4.826897144317627,3.7065553665161133,7.845313549041748,-1.6062651872634888,-0.009162978,1.9624046000000002,132.20197,-15.766225,23.788763,CSI
5569732700000.0,1.8661612272262573,4.924490928649902,3.655714750289917,7.856822967529297,-1.5752570629119873,0.03848451,2.0005836,131.69753,-15.195703,24.22167,CSI
5569738000000.0,1.8711607456207275,5.003048419952393,3.609395980834961,7.871870994567871,-1.5430041551589966,0.09254608,2.068695,131.1719,-14.636431,24.639536,CSI
5569742600000.0,1.8761546611785889,5.063043117523193,3.5667850971221924,7.8910746574401855,-1.5098981857299805,0.14110987,2.1352794,130.63481000000002,-14.087666500000001,25.036839999999998,CSI
5569747400000.0,1.881150722503662,5.104358196258545,3.5238654613494873,7.91856050491333,-1.4769777059555054,0.15424347,2.1813998,130.0843,-13.561376999999998,25.364428,CSI
5569752600000.0,1.8861465454101562,5.127910614013672,3.47946834564209,7.955123424530029,-1.444004774093628,0.15943582,2.1951442,129.52565,-13.051074,25.674166,CSI
5569758000000.0,1.8911464214324951,5.128484725952148,3.4222636222839355,7.986884117126465,-1.4124960899353027,0.17806722,2.1539109,128.98962,-12.556678,25.91762,CSI
5569762600000.0,1.896143913269043,5.1057515144348145,3.3493359088897705,8.009443283081055,-1.3818527460098267,0.20799962,2.0576997,128.47218,-12.085844,26.146435,CSI
5569768000000.0,1.9011436700820923,5.065901756286621,3.271239757537842,8.019001007080078,-1.3529075384140015,0.24770586,2.028378,127.97311,-11.601269,26.304707,CSI
5569772500000.0,1.9061414003372192,5.0121750831604,3.192225933074951,8.01484203338623,-1.3230633735656738,0.38912117,2.0302107,127.49224,-11.149629,26.417165999999998,CSI
5569778000000.0,1.9111419916152954,4.950552940368652,3.1075925827026367,8.008113861083984,-1.2933121919631958,0.47128254,2.0015,127.0631,-10.654094,26.480372999999997,CSI
5569782500000.0,1.9161425828933716,4.883615493774414,3.016003370285034,8.002938270568848,-1.2621514797210693,0.47342056,1.9504926999999999,126.64355,-10.191968,26.525227,CSI
5569787700000.0,1.921142339706421,4.808959007263184,2.920849561691284,8.000276565551758,-1.2297214269638062,0.46395215,1.8848247999999999,126.23948,-9.753161,26.526196000000002,CSI
5569792400000.0,1.9261384010314941,4.725304126739502,2.8244106769561768,8.000669479370117,-1.1964316368103027,0.46303585,1.8170186000000002,125.85904,-9.344561,26.522663,CSI
5569797700000.0,1.9311375617980957,4.634122848510742,2.727433204650879,8.00578498840332,-1.1624255180358887,0.45051312,1.7614299,125.453896,-8.922333,26.479909999999997,CSI
5569803000000.0,1.9361382722854614,4.53649377822876,2.6303648948669434,8.01615047454834,-1.1276761293411255,0.4297437,1.6975945,125.0819,-8.533246,26.438839,CSI
5569807600000.0,1.941138505935669,4.436495304107666,2.5348775386810303,8.029056549072266,-1.0923532247543335,0.40011674,1.6496416,124.67669,-8.152256,26.347494,CSI
5569813000000.0,1.9461368322372437,4.33553409576416,2.4414587020874023,8.043540000915527,-1.0560967922210693,0.36132678,1.6026049999999998,124.30272,-7.802803999999999,26.265003000000004,CSI
5569817600000.0,1.9511419534683228,4.23767614364624,2.347987651824951,8.058929443359375,-1.0201122760772705,0.30940324,1.5690073999999998,123.89967,-7.460942299999999,26.147768,CSI
5569823000000.0,1.9561433792114258,4.144342422485352,2.253971815109253,8.074880599975586,-0.9830667972564697,0.25625798,1.5470163000000001,123.51936,-7.151250999999999,26.043146,CSI
5569827600000.0,1.9611438512802124,4.055521011352539,2.1582229137420654,8.09105110168457,-0.9461724758148193,0.20066923,1.5253305,123.12858,-6.8443995,25.919947,CSI
5569833000000.0,1.9661445617675781,3.9711661338806152,2.0598385334014893,8.107159614562988,-0.9091120362281799,0.13683382,1.5326608,122.74744,-6.559336,25.816982,CSI
5569837500000.0,1.9711440801620483,3.8913705348968506,1.9571936130523682,8.123516082763672,-0.872773289680481,0.07391469,1.5137241000000001,122.36433999999998,-6.2648306,25.713648000000003,CSI
5569843000000.0,1.9761446714401245,3.816087007522583,1.8493738174438477,8.140298843383789,-0.8366619944572449,0.07391469,1.5143349,122.174933081,-6.12671205684,25.6831179862,CSI
5569847500000.0,1.9811441898345947,3.7435972690582275,1.740157961845398,8.161694526672363,-0.8016775846481323,-0.06383542,1.5143349,121.98688500000002,-5.9895844,25.652807,CSI
5569852700000.0,1.98614501953125,3.6729633808135986,1.631367802619934,8.189728736877441,-0.7670601010322571,-0.1386664,1.498147,121.59633000000001,-5.6949844,25.578667000000003,CSI
5569857500000.0,1.9911447763442993,3.6041040420532227,1.5230278968811035,8.223978996276855,-0.7331968545913696,-0.25625798,1.4657712,121.17863500000001,-5.3759445999999995,25.542437,CSI
5569862700000.0,1.9961415529251099,3.5369389057159424,1.415152907371521,8.264058113098145,-0.7021963596343994,-0.38270709999999997,1.4370604999999999,120.7759,-5.0610995,25.530182,CSI
5569868000000.0,2.0011491775512695,3.4778473377227783,1.3140262365341187,8.299134254455566,-0.6735804080963135,-0.43890667,1.4150693,120.37843000000001,-4.749237,25.502373000000002,CSI
5569872700000.0,2.0061540603637695,3.43084716796875,1.223909854888916,8.321866035461426,-0.6460825800895691,-0.42027529999999996,1.4175128000000001,119.99167,-4.443925,25.489206,CSI
5569878000000.0,2.011153221130371,3.4009037017822266,1.148341417312622,8.327153205871582,-0.6201966404914856,-0.35033122,1.4608842,119.56008999999999,-4.101082,25.446417,CSI
5569882600000.0,2.0161519050598145,3.3912980556488037,1.0895997285842896,8.3115873336792,-0.5942903757095337,-0.2302962,1.5317446000000001,119.12548999999999,-3.7702248,25.384228,CSI
5569888000000.0,2.0211498737335205,3.4008538722991943,1.0478664636611938,8.2765531539917,-0.5661674737930298,-0.07819075,1.6148223,118.68931,-3.4367793,25.274179999999998,CSI
5569892600000.0,2.0261480808258057,3.4284634590148926,1.0242682695388794,8.22349739074707,-0.5343670845031738,0.09040806,1.7198911,118.232735,-3.1150227000000004,25.131092000000002,CSI
5569898000000.0,2.031144618988037,3.4698565006256104,1.0143074989318848,8.158163070678711,-0.4977830648422241,0.23945917,1.8173241999999998,117.75237,-2.832189,24.986342999999998,CSI
5569902500000.0,2.0361440181732178,3.520169258117676,1.012747049331665,8.087355613708496,-0.4567517042160034,0.38331795,1.8955148000000002,117.25761000000001,-2.5721626,24.802544,CSI
5569908000000.0,2.041142463684082,3.575212240219116,1.0145180225372314,8.018560409545898,-0.41170534491539,0.47342056,1.9511036,116.71101000000002,-2.407486,24.71039,CSI
5569912500000.0,2.046140670776367,3.6315884590148926,1.015441656112671,7.957949638366699,-0.36398109793663025,0.5458081,1.9785925,116.15767,-2.2665067000000003,24.584116,CSI
5569918000000.0,2.0511388778686523,3.6863863468170166,1.004416823387146,7.916551113128662,-0.31393328309059143,0.61819565,1.9792033,115.58628999999999,-2.1789572,24.47626,CSI
5569922500000.0,2.056137800216675,3.736790895462036,0.9706575870513916,7.905099391937256,-0.2629879117012024,0.65484756,1.9321668,115.02959399999999,-2.1150756,24.359385,CSI
5569927700000.0,2.0611393451690674,3.7822556495666504,0.9218413233757019,7.9133782386779785,-0.21374838054180145,0.65118235,1.8606955000000003,114.47438000000001,-2.0625162,24.236979,CSI
5569933000000.0,2.066143035888672,3.8219711780548096,0.867950439453125,7.92812442779541,-0.16618886590003967,0.59620446,1.7864754,113.94321399999998,-2.0351871999999998,24.120882,CSI
5569937700000.0,2.071139335632324,3.8543171882629395,0.8101985454559326,7.946835994720459,-0.1199105754494667,0.5448918,1.7140878000000002,113.40212,-1.9309566999999999,23.947065,CSI
5569943000000.0,2.076138734817505,3.876321315765381,0.7495579719543457,7.966538906097412,-0.07655435055494308,0.51007247,1.640784,112.89648000000001,-1.8351398,23.786892,CSI
5569947600000.0,2.0811398029327393,3.8884174823760986,0.6858958005905151,7.987080097198486,-0.03655044734477997,0.48991394,1.5968018,112.39328,-1.7210547999999999,23.60613,CSI
5569953000000.0,2.0861387252807617,3.889202117919922,0.6154443025588989,8.007253646850586,-6.203638622537255e-05,0.45051312,1.5662584,111.92081499999999,-1.6133603,23.444204,CSI
5569958000000.0,2.0911550521850586,3.8785767555236816,0.5379299521446228,8.02701187133789,0.03384698927402496,0.42119157,1.5201381,111.46056000000002,-1.4879777,23.229554999999998,CSI
5569963000000.0,2.0961520671844482,3.8603415489196777,0.4575060307979584,8.043672561645508,0.06599774211645126,0.42241332,1.4746287,111.02208999999999,-1.3667426,23.022894,CSI
5569967600000.0,2.101151704788208,3.8342206478118896,0.3737408220767975,8.057230949401855,0.09640253335237503,0.4370741,1.457219,110.582054,-1.2039691000000001,22.752428,CSI
5569973000000.0,2.106149911880493,3.807781219482422,0.2877245247364044,8.067375183105469,0.12435682862997055,0.44409904,1.416902,110.17723000000001,-1.0506853,22.49297,CSI
5569978000000.0,2.111158847808838,3.7823781967163086,0.1996670961380005,8.074188232421875,0.15041442215442657,0.46914452,1.3970488,109.78429399999999,-0.9042709999999999,22.233511,CSI
5569983000000.0,2.116157054901123,3.7633254528045654,0.11334990710020065,8.079048156738281,0.175669327378273,0.49602258,1.3860531999999999,109.39603000000001,-0.73368216,21.91798,CSI
5569987500000.0,2.121155261993408,3.750485420227051,0.028561677783727646,8.081995010375977,0.19998525083065033,0.5213734999999999,1.3704761,108.99618999999998,-0.5461655,21.596119,CSI
5569992700000.0,2.1261537075042725,3.7456140518188477,-0.05506032705307007,8.08251953125,0.22427494823932648,0.5326744999999999,1.3701707,108.60928999999999,-0.37197387,21.283873,CSI
5569997400000.0,2.1311511993408203,3.748534917831421,-0.13760261237621307,8.080678939819336,0.2481328845024109,0.54458636,1.3765849,108.23846,-0.20490609,20.976934,CSI
5570002700000.0,2.136150598526001,3.7561724185943604,-0.2176760882139206,8.074949264526367,0.27127280831336975,0.54336464,1.3952162000000001,107.82706499999999,-0.040266532,20.714998,CSI
5570007400000.0,2.1411476135253906,3.7679736614227295,-0.2952597439289093,8.065462112426758,0.29524675011634827,0.528093,1.3946053999999999,107.432304,0.10643831,20.462435,CSI
5570012600000.0,2.1461455821990967,3.781339406967163,-0.3679122030735016,8.055252075195312,0.32105204463005066,0.49724430000000003,1.4052955,106.99655,0.25322154,20.258724,CSI
5570018000000.0,2.1511435508728027,3.795987606048584,-0.43569549918174744,8.044589042663574,0.3485422432422638,0.45937067,1.4306464,106.567955,0.38763672,20.066412,CSI
5570022600000.0,2.156141996383667,3.808181047439575,-0.4961487948894501,8.034801483154297,0.378164678812027,0.40622538,1.4501941,106.135994,0.5082384,19.920433,CSI
5570027300000.0,2.1611368656158447,3.817598819732666,-0.5493646264076233,8.026007652282715,0.4106033444404602,0.36621370000000003,1.4697418,105.706635,0.6093668000000001,19.78452,CSI
5570032600000.0,2.1661365032196045,3.819791555404663,-0.5943715572357178,8.023558616638184,0.4452849328517914,0.32589662,1.4902058,105.23448,0.6843063,19.675066,CSI
5570038000000.0,2.171133518218994,3.8138046264648438,-0.6313360333442688,8.028765678405762,0.4811946749687195,0.29840767,1.5008959,104.76951,0.74123365,19.575257999999998,CSI
5570042500000.0,2.176132917404175,3.8001914024353027,-0.6657719612121582,8.042980194091797,0.5176485776901245,0.2761111,1.4990633,104.29649,0.76011986,19.475804999999998,CSI
5570048000000.0,2.1811323165893555,3.77946400642395,-0.6986032724380493,8.06589126586914,0.5532828569412231,0.27305678,1.4752395,103.83671,0.7688086,19.380604,CSI
5570052500000.0,2.1861326694488525,3.7534523010253906,-0.7198652029037476,8.098998069763184,0.5866274833679199,0.26419923,1.4553863999999999,103.407265,0.75016487,19.249159,CSI
5570057700000.0,2.1911301612854004,3.723268747329712,-0.7252650260925293,8.142568588256836,0.6176416277885437,0.25381452,1.4587462,102.9881,0.72670895,19.122633,CSI
5570062500000.0,2.196129560470581,3.689021348953247,-0.7186445593833923,8.193276405334473,0.6462704539299011,0.24556783,1.4669929,102.56012,0.6977134,18.932426,CSI
5570067700000.0,2.2011311054229736,3.6509151458740234,-0.7012563943862915,8.250178337097168,0.6730642914772034,0.22143865,1.4608842,102.14698,0.66801697,18.756117,CSI
5570072400000.0,2.2061309814453125,3.613002300262451,-0.6662153601646423,8.309321403503418,0.6983162760734558,0.17745635,1.4596626,101.74541500000001,0.5836079000000001,18.545866,CSI
5570077700000.0,2.2111294269561768,3.576406240463257,-0.6121653318405151,8.369535446166992,0.7215877175331116,0.07544186,1.5222761999999999,101.33725,0.50904787,18.367004,CSI
5570083000000.0,2.2161383628845215,3.538499593734741,-0.5544160604476929,8.427735328674316,0.7463372349739075,0.03573562,1.525636,100.956055,0.36195114,18.141464000000003,CSI
5570087600000.0,2.221137285232544,3.4980900287628174,-0.5026710629463196,8.482035636901855,0.7694910764694214,-0.004581489,1.4886786,100.57907,0.2367308,17.95381,CSI
5570093000000.0,2.2261364459991455,3.4592249393463135,-0.45102712512016296,8.529434204101562,0.7891159057617188,-0.03573562,1.4553863999999999,100.21304,0.017180486000000002,17.774908,CSI
5570097600000.0,2.2311348915100098,3.423189401626587,-0.3975858986377716,8.569252014160156,0.8057090044021606,-0.07360926,1.4285084,99.86524,-0.20163098,17.616986999999998,CSI
5570103000000.0,2.2361347675323486,3.3852901458740234,-0.34254735708236694,8.601037979125977,0.8206853270530701,-0.07696902,1.3842206,99.54578000000001,-0.40580797,17.442518,CSI
5570107500000.0,2.2411341667175293,3.3440191745758057,-0.2860775589942932,8.624968528747559,0.8343589305877686,-0.08552113,1.3264938999999998,99.24724599999999,-0.6013126999999999,17.28755,CSI
5570113000000.0,2.2461330890655518,3.3018009662628174,-0.22593049705028534,8.640670776367188,0.8474829196929932,-0.093462385,1.2880094,98.91881,-0.8212754999999999,17.150116,CSI
5570118000000.0,2.251171588897705,3.2590670585632324,-0.16041506826877594,8.647239685058594,0.8611608147621155,-0.08704830000000001,1.2586879,98.612946,-1.0446541,17.016636,CSI
5570123000000.0,2.256169080734253,3.2190864086151123,-0.08751800656318665,8.650188446044922,0.8756561279296875,-0.13225232,1.2449434,98.31343000000001,-1.2899662,16.887806,CSI
5570127500000.0,2.2611663341522217,3.182823896408081,-0.003953191451728344,8.650333404541016,0.8918205499649048,-0.15393804,1.2287555000000001,98.03088000000001,-1.5450615,16.756239,CSI
5570132700000.0,2.266162872314453,3.1486120223999023,0.08119893074035645,8.6425142288208,0.9094837307929993,-0.12095132,1.1856893999999998,97.75525999999999,-1.8422058999999997,16.62567,CSI
5570137400000.0,2.271160364151001,3.1157240867614746,0.16430963575839996,8.624876022338867,0.926628828048706,-0.074830994,1.1475104,97.490036,-2.1381037,16.502287,CSI
5570142700000.0,2.276157855987549,3.0828521251678467,0.24525673687458038,8.60482120513916,0.9428276419639587,-0.036651913,1.1154399,97.23491,-2.4993818,16.384258,CSI
5570148000000.0,2.2811567783355713,3.049333095550537,0.3240489065647125,8.586075782775879,0.9586189389228821,-0.043982297000000004,1.0708468,97.00036999999999,-2.8637650000000003,16.270285,CSI
5570152600000.0,2.286155939102173,3.0178799629211426,0.4073313772678375,8.571990966796875,0.9759289026260376,-0.07819075,1.0271700000000001,96.764046,-3.248884,16.17314,CSI
5570158000000.0,2.2911550998687744,2.9908151626586914,0.5008201599121094,8.565436363220215,0.9945788979530334,-0.112399206,1.0122037,96.53748,-3.6315402999999997,16.081928,CSI
5570162600000.0,2.296152353286743,2.9674453735351562,0.5937783718109131,8.55990219116211,1.0163531303405762,-0.20586158,0.9972375,96.32226999999999,-4.0460057,16.007576,CSI
5570168000000.0,2.3011560440063477,2.9473836421966553,0.6804934740066528,8.551827430725098,1.0384645462036133,-0.2275473,0.95111716,96.12489000000001,-4.4560585,15.925310000000001,CSI
5570172600000.0,2.3061554431915283,2.9288175106048584,0.7603992819786072,8.548340797424316,1.0599184036254883,-0.24984388,0.9056076999999999,95.952805,-4.927986,15.873035,CSI
5570178000000.0,2.311155080795288,2.9107325077056885,0.8332499861717224,8.553430557250977,1.0787477493286133,-0.26572640000000003,0.8518515999999999,95.80125,-5.393602400000001,15.826659,CSI
5570182500000.0,2.3161540031433105,2.89371657371521,0.9037097692489624,8.568059921264648,1.0950597524642944,-0.30879238,0.8032878000000001,95.631325,-5.8580356,15.809396,CSI
5570188000000.0,2.3211495876312256,2.8781018257141113,0.9746160507202148,8.592536926269531,1.1089073419570923,-0.35369098,0.7538077,95.48186,-6.310886,15.797559,CSI
5570192500000.0,2.326148748397827,2.867410659790039,1.0501290559768677,8.62657356262207,1.1197381019592285,-0.4266894,0.72204274,95.34569499999999,-6.733609700000001,15.793879,CSI
5570197700000.0,2.331148386001587,2.86411714553833,1.1330788135528564,8.669525146484375,1.1275663375854492,-0.49357912,0.6963864000000001,95.22728000000001,-7.1430169999999995,15.801263,CSI
5570202400000.0,2.336148262023926,2.867112636566162,1.2248560190200806,8.719386100769043,1.1311521530151367,-0.5861251999999999,0.6621779000000001,95.11355999999999,-7.545281,15.827604000000001,CSI
5570207700000.0,2.3411474227905273,2.875258445739746,1.3269482851028442,8.77407169342041,1.131812334060669,-0.6356053,0.61636305,95.01516,-7.9356017,15.859933999999999,CSI
5570213000000.0,2.346148729324341,2.8848469257354736,1.4326658248901367,8.82801628112793,1.1304514408111572,-0.6093381,0.5555819000000001,94.933105,-8.346662,15.9101,CSI
5570217600000.0,2.35115122795105,2.889782190322876,1.5309371948242188,8.871967315673828,1.1224894523620605,-0.5564981999999999,0.49816059999999995,94.86657,-8.7141695,15.964163000000001,CSI
5570223000000.0,2.356149196624756,2.8904013633728027,1.6221981048583984,8.906609535217285,1.1078548431396484,-0.5158757,0.42485678,94.82563,-9.124952,16.022306,CSI
5570227600000.0,2.3611485958099365,2.886843681335449,1.706782579421997,8.932283401489258,1.0884332656860352,-0.48655418,0.35705075,94.79894,-9.504131,16.065920000000002,CSI
5570233000000.0,2.3661465644836426,2.882051944732666,1.7841817140579224,8.949896812438965,1.0676864385604858,-0.4783075,0.28160888,94.783485,-9.863746,16.103394,CSI
5570237600000.0,2.3711469173431396,2.880190134048462,1.853380560874939,8.960330963134766,1.0468733310699463,-0.45845437,0.22235495,94.781334,-10.197277,16.126665,CSI
5570243000000.0,2.3761448860168457,2.881056070327759,1.9148863554000854,8.964076042175293,1.0255579948425293,-0.46792278,0.18570304,94.78411,-10.514402,16.139507000000002,CSI
5570247500000.0,2.3811447620391846,2.8845467567443848,1.9690444469451904,8.961389541625977,1.0050204992294312,-0.48288897,0.14508049,94.8048,-10.830583,16.145248000000002,CSI
5570253000000.0,2.3861427307128906,2.890925884246826,2.016169548034668,8.952683448791504,0.9843404293060303,-0.49449542,0.105374254,94.83026,-11.131685000000001,16.153589999999998,CSI
5570257500000.0,2.391141653060913,2.90087890625,2.056347370147705,8.938179016113281,0.9645020365715027,-0.50762904,0.07941248,94.86452,-11.432025,16.165054,CSI
5570262700000.0,2.3961374759674072,2.912432909011841,2.089846611022949,8.920061111450195,0.945346474647522,-0.5225952,0.07574729,94.89739,-11.695628,16.218011999999998,CSI
5570268000000.0,2.4011423587799072,2.9227421283721924,2.1165292263031006,8.901273727416992,0.9262351393699646,-0.5335908,0.06566802,94.94018,-11.952635,16.270256,CSI
5570272700000.0,2.406137228012085,2.931915760040283,2.1371002197265625,8.881963729858398,0.9069703221321106,-0.5626069,0.04520403,94.97336999999999,-12.191578999999999,16.35541,CSI
5570277400000.0,2.411137104034424,2.939981460571289,2.1516222953796387,8.862072944641113,0.8880159854888916,-0.57635134,0.025045475,95.00918,-12.424561,16.4367,CSI
5570282700000.0,2.416135311126709,2.946920871734619,2.1611711978912354,8.841663360595703,0.8687207698822021,-0.5934556,0.00580322,95.04853,-12.646606,16.527952,CSI
5570288000000.0,2.4211363792419434,2.952402353286743,2.1685791015625,8.820710182189941,0.8481749892234802,-0.6047566,-0.019547688,95.096,-12.858527,16.61739,CSI
5570292600000.0,2.426132917404175,2.9563369750976562,2.1741857528686523,8.798588752746582,0.8264453411102295,-0.6151413,-0.04520403,95.13544,-13.026937,16.712538000000002,CSI
5570298000000.0,2.4311330318450928,2.9582974910736084,2.17848539352417,8.773612976074219,0.803562343120575,-0.6221663000000001,-0.08032878,95.18534,-13.183582000000001,16.80505,CSI
5570302600000.0,2.436131715774536,2.9593889713287354,2.180912494659424,8.746953010559082,0.7790828347206116,-0.6267477,-0.14355333,95.24535999999999,-13.324601999999999,16.895699,CSI
5570308000000.0,2.4411330223083496,2.962552785873413,2.179588556289673,8.721501350402832,0.7537593245506287,-0.6209445,-0.19853121,95.31251,-13.457158999999999,16.981026,CSI
5570312500000.0,2.446131467819214,2.967637777328491,2.1747820377349854,8.697196960449219,0.7282389998435974,-0.6114761,-0.2519819,95.390976,-13.582945,17.060570000000002,CSI
5570318000000.0,2.451136350631714,2.980720043182373,2.1740310192108154,8.670194625854492,0.7023370862007141,-0.6044512,-0.34238997,95.49497,-13.702679000000002,17.130411,CSI
5570322500000.0,2.4561333656311035,3.002082109451294,2.178307294845581,8.640142440795898,0.6757320165634155,-0.5891795,-0.42180246,95.60878000000001,-13.814559,17.190174,CSI
5570328000000.0,2.461134433746338,3.029940128326416,2.193788528442383,8.60522174835205,0.6491449475288391,-0.5290093000000001,-0.44776422,95.72205,-13.905128,17.244328,CSI
5570332500000.0,2.4661316871643066,3.0634186267852783,2.2206947803497314,8.565546989440918,0.6215983033180237,-0.45814893,-0.44929138,95.84744,-13.9833555,17.285467,CSI
5570337700000.0,2.47113299369812,3.102515935897827,2.260143518447876,8.528168678283691,0.593029260635376,-0.39492437,-0.44898596,95.985504,-14.073278,17.350222,CSI
5570342400000.0,2.476128339767456,3.1466894149780273,2.3113152980804443,8.494757652282715,0.562564492225647,-0.35063666,-0.43585235,96.11448,-14.14401,17.399704,CSI
5570347700000.0,2.4811272621154785,3.1987268924713135,2.373990297317505,8.465972900390625,0.53092360496521,-0.30909783,-0.40591997,96.25097,-14.254248,17.46228,CSI
5570352400000.0,2.486123561859131,3.258864164352417,2.447232723236084,8.441756248474121,0.49810412526130676,-0.28955013,-0.34972036,96.37250999999999,-14.341766,17.520117000000003,CSI
5570357600000.0,2.4911251068115234,3.3264081478118896,2.5205256938934326,8.421316146850586,0.4655687212944031,-0.2415972,-0.30390546,96.49911999999999,-14.469021,17.575247,CSI
5570362300000.0,2.496122121810913,3.4004340171813965,2.5906503200531006,8.404178619384766,0.4318535625934601,-0.17684549,-0.20219639,96.5887,-14.562538,17.627317,CSI
5570367600000.0,2.501124858856201,3.4821670055389404,2.6552343368530273,8.38711929321289,0.39833998680114746,-0.18600847,-0.16279559,96.69852,-14.702295999999999,17.713778,CSI
5570373000000.0,2.5061230659484863,3.5712084770202637,2.7137033939361572,8.369025230407715,0.36491960287094116,-0.21227567,-0.124005646,96.77399,-14.815498999999999,17.793283,CSI
5570377500000.0,2.511124610900879,3.6653518676757812,2.7630550861358643,8.349590301513672,0.33173394203186035,-0.23090707,-0.07941248,96.83997,-14.91107,17.907797,CSI
5570383000000.0,2.5161283016204834,3.763197422027588,2.802147150039673,8.32873821258545,0.29881933331489563,-0.25137106,-0.032070424,96.89529,-14.9928255,18.031034,CSI
5570387500000.0,2.5211291313171387,3.8608548641204834,2.8317463397979736,8.307684898376465,0.2670077383518219,-0.2510656,0.005497787,96.94025400000001,-15.0521555,18.196451,CSI
5570393000000.0,2.526127576828003,3.957386016845703,2.852376699447632,8.286733627319336,0.23601248860359192,-0.23762658,0.023518313,96.97724000000001,-15.099239,18.362944,CSI
5570397500000.0,2.531127452850342,4.051838397979736,2.8651437759399414,8.266480445861816,0.20616446435451508,-0.23640485,0.040317107000000005,97.00109,-15.111668,18.566515,CSI
5570402700000.0,2.536128282546997,4.144034385681152,2.870666742324829,8.247055053710938,0.1768490970134735,-0.21930063,0.049785517,97.01921999999999,-15.115728,18.759321,CSI
5570407400000.0,2.5411295890808105,4.234696388244629,2.8696820735931396,8.227825164794922,0.14896580576896667,-0.204029,0.06017022599999999,97.02496,-15.091232000000002,18.967453,CSI
5570412700000.0,2.546130418777466,4.324077129364014,2.8626630306243896,8.208605766296387,0.1216244027018547,-0.1966986,0.06566802,97.028595,-15.057463,19.169823,CSI
5570418000000.0,2.551133632659912,4.411095142364502,2.8499248027801514,8.188433647155762,0.09546338766813278,-0.19028452,0.0720821,97.021286,-14.999757999999998,19.380482,CSI
5570422600000.0,2.556137800216675,4.495490074157715,2.831822156906128,8.167070388793945,0.07033846527338028,-0.15913039999999998,0.077579886,97.01003,-14.937648999999999,19.57901,CSI
5570428000000.0,2.56113862991333,4.576838970184326,2.80885648727417,8.144775390625,0.047480326145887375,-0.14446963,0.08063421400000001,96.99425,-14.857295,19.79435,CSI
5570432600000.0,2.566136598587036,4.655111789703369,2.7813210487365723,8.121652603149414,0.026735614985227585,-0.12461651,0.083383106,96.97408,-14.776125,19.996422,CSI
5570438000000.0,2.571135997772217,4.728873252868652,2.750699281692505,8.099790573120117,0.007942868396639824,-0.106901415,0.08857546,96.94771,-14.677875,20.205215,CSI
5570443000000.0,2.5761711597442627,4.797572612762451,2.7171852588653564,8.080083847045898,-0.007960188202559948,-0.089186326,0.092240654,96.919525,-14.591045999999999,20.405092,CSI
5570448000000.0,2.5811684131622314,4.861749172210693,2.6820108890533447,8.06218147277832,-0.02244601957499981,-0.08277224,0.08857546,96.88600000000001,-14.482732999999998,20.6087,CSI
5570452500000.0,2.586167812347412,4.9215006828308105,2.6446902751922607,8.046112060546875,-0.03441818431019783,-0.081855945,0.092240654,96.848495,-14.390464999999999,20.806407999999998,CSI
5570458000000.0,2.5911662578582764,4.978820323944092,2.6060938835144043,8.032191276550293,-0.04515005648136139,-0.083383106,0.09682214,96.8142,-14.296802,21.001194,CSI
5570462500000.0,2.5961644649505615,5.0348944664001465,2.56671142578125,8.020563125610352,-0.05487050861120224,-0.08063421400000001,0.09590584,96.78024,-14.212795000000002,21.191107000000002,CSI
5570467700000.0,2.601163625717163,5.089064121246338,2.52738356590271,8.013230323791504,-0.06407292932271957,-0.08307768,0.09437868,96.73655,-14.098462,21.375367999999998,CSI
5570472400000.0,2.606163263320923,5.1410346031188965,2.4885475635528564,8.011099815368652,-0.07179201394319534,-0.09468412,0.10231992599999999,96.69104,-13.992320000000001,21.558796,CSI
5570477700000.0,2.6111624240875244,5.190739631652832,2.450963020324707,8.013684272766113,-0.07861140370368958,-0.0888809,0.10018189999999999,96.64603000000001,-13.873722,21.739954,CSI
5570483000000.0,2.6161627769470215,5.2380523681640625,2.4156382083892822,8.020495414733887,-0.08477437496185303,-0.08124508,0.09987647,96.59918,-13.760102999999999,21.92109,CSI
5570487600000.0,2.6211607456207275,5.282125949859619,2.3830981254577637,8.030403137207031,-0.09031591564416885,-0.08277224,0.09040806,96.551636,-13.64066,22.095928,CSI
5570493000000.0,2.626159429550171,5.321779251098633,2.35410475730896,8.042113304138184,-0.09614811837673187,-0.07666359,0.09132435,96.50019,-13.519416,22.263873999999998,CSI
5570497600000.0,2.631157875061035,5.3593854904174805,2.327329635620117,8.058462142944336,-0.10189738869667053,-0.089491755,0.09101892,96.45233,-13.402066,22.428055,CSI
5570503000000.0,2.636157751083374,5.397741317749023,2.3012304306030273,8.082951545715332,-0.10826807469129562,-0.112704635,0.09682214,96.403015,-13.279829000000001,22.590635,CSI
5570507600000.0,2.641155481338501,5.435898780822754,2.2757744789123535,8.112321853637695,-0.11431552469730377,-0.12736541,0.1020145,96.35884,-13.168219,22.741934,CSI
5570513000000.0,2.6461524963378906,5.472531318664551,2.2509121894836426,8.14216136932373,-0.1201871857047081,-0.13652839,0.10567969,96.31505,-13.053089,22.895182000000002,CSI
5570517500000.0,2.6511504650115967,5.5077223777771,2.2259175777435303,8.17284870147705,-0.12582731246948242,-0.15882497,0.11728613,96.26680999999999,-12.927403,23.051584,CSI
5570523000000.0,2.6561496257781982,5.541547775268555,2.1997053623199463,8.204959869384766,-0.13173657655715942,-0.18448131,0.1255328,96.21973,-12.801039999999999,23.20799,CSI
5570527500000.0,2.6611440181732178,5.570887565612793,2.17203950881958,8.234842300415039,-0.13724952936172485,-0.18203785,0.13133603,96.16811,-12.674241,23.358843,CSI
5570532700000.0,2.666141986846924,5.590340614318848,2.1422810554504395,8.256473541259766,-0.1422082483768463,-0.17592919,0.14660765,96.11313,-12.546028999999999,23.513348,CSI
5570537500000.0,2.6711370944976807,5.601332187652588,2.1092309951782227,8.27068042755127,-0.14687015116214752,-0.1554652,0.14355333,96.05391,-12.409821,23.658926,CSI
5570542700000.0,2.6761374473571777,5.607097625732422,2.0670242309570312,8.278671264648438,-0.15079528093338013,-0.14172074,0.13775012,95.991455,-12.278406,23.801954000000002,CSI
5570547400000.0,2.6811347007751465,5.608950614929199,2.0217432975769043,8.279748916625977,-0.1535671502351761,-0.13072516,0.10598512,95.93366,-12.149405499999999,23.9182,CSI
5570552700000.0,2.6861343383789062,5.609172344207764,1.9860272407531738,8.271318435668945,-0.15493793785572052,-0.09590584,0.079107046,95.87398,-12.026933,24.021269,CSI
5570557400000.0,2.691131591796875,5.606579303741455,1.9587774276733398,8.256348609924316,-0.15547063946723938,-0.07696902,0.04428773,95.81801,-11.879906,24.118807,CSI
5570562600000.0,2.696134567260742,5.597869396209717,1.9385130405426025,8.240973472595215,-0.15433093905448914,0.0030543262,0.036651913,95.75567,-11.745854,24.187529,CSI
5570568000000.0,2.7011325359344482,5.5833845138549805,1.924193024635315,8.225552558898926,-0.15147773921489716,0.113926366,0.025961772999999997,95.71454,-11.656934,24.245098000000002,CSI
5570572600000.0,2.7061336040496826,5.561617374420166,1.9121949672698975,8.212252616882324,-0.14628615975379944,0.17928895,0.019547688,95.67246,-11.581435,24.291470999999998,CSI
5570578000000.0,2.711132287979126,5.533271312713623,1.9022243022918701,8.201340675354004,-0.1396946907043457,0.23365596,0.013439035,95.63634,-11.537837,24.286120999999998,CSI
5570582500000.0,2.7161359786987305,5.499499320983887,1.893298864364624,8.195377349853516,-0.13169653713703156,0.27397305,0.0030543262,95.6004,-11.508706,24.265926,CSI
5570588000000.0,2.7211337089538574,5.461187362670898,1.88492751121521,8.19404411315918,-0.12352237105369568,0.29352075,-0.0009162978999999999,95.562904,-11.490101,24.207476,CSI
5570592500000.0,2.7261338233947754,5.421071529388428,1.8736696243286133,8.198165893554688,-0.11467696726322174,0.29260445,-0.004581489,95.52762,-11.483913000000001,24.144160999999997,CSI
5570598000000.0,2.7311320304870605,5.379306793212891,1.8598867654800415,8.207369804382324,-0.10459384322166443,0.28680122,-0.0067195175,95.49051,-11.485289,24.047134,CSI
5570602500000.0,2.7361326217651367,5.335930347442627,1.8450474739074707,8.221455574035645,-0.09473880380392075,0.27275133,-0.0021380284,95.45363,-11.484836999999999,23.954931,CSI
5570607700000.0,2.7411305904388428,5.291096210479736,1.8294408321380615,8.239788055419922,-0.0854252427816391,0.22876903,-0.012217305,95.418655,-11.477739999999999,23.852272,CSI
5570612400000.0,2.7461318969726562,5.244731903076172,1.8151271343231201,8.25944995880127,-0.07610343396663666,0.18906279,-0.01160644,95.38033,-11.47295,23.755709,CSI
5570617700000.0,2.7511329650878906,5.196972370147705,1.8020310401916504,8.2803373336792,-0.06700169295072556,0.14019357,-0.026572637000000003,95.34839000000001,-11.460989999999999,23.653275,CSI
5570623000000.0,2.756133556365967,5.149809837341309,1.7893738746643066,8.300326347351074,-0.05854778364300728,0.10018189999999999,-0.036957346,95.3176,-11.448881,23.562193,CSI
5570627600000.0,2.7611453533172607,5.103456974029541,1.7769980430603027,8.31911849975586,-0.050902508199214935,0.05681047,-0.049480084,95.29601,-11.439257000000001,23.4867,CSI
5570633000000.0,2.7661519050598145,5.057968616485596,1.7649112939834595,8.336786270141602,-0.04366467148065567,0.027794369,-0.055588737,95.27684,-11.432737,23.399701999999998,CSI
5570637600000.0,2.7711474895477295,5.01333475112915,1.7531063556671143,8.353391647338867,-0.03715438023209572,-0.0009162978999999999,-0.062002823,95.26518,-11.424227,23.325294,CSI
5570643000000.0,2.7761473655700684,4.969272136688232,1.7441319227218628,8.367216110229492,-0.03146308660507202,-0.01985312,-0.076052725,95.25925,-11.4167185,23.257168,CSI
5570647600000.0,2.7811429500579834,4.925765514373779,1.7384523153305054,8.377999305725098,-0.025863490998744965,-0.031154128,-0.08368854,95.25485,-11.410969,23.196474,CSI
5570653000000.0,2.786144256591797,4.883610725402832,1.7350815534591675,8.385656356811523,-0.020725086331367493,-0.04917465,-0.089186326,95.25449,-11.400836,23.132078,CSI
5570657500000.0,2.7911391258239746,4.842959880828857,1.7336231470108032,8.390430450439453,-0.016332564875483513,-0.05955936,-0.10293079,95.25924,-11.392116999999999,23.069323,CSI
5570663000000.0,2.7961394786834717,4.803340435028076,1.735941767692566,8.392875671386719,-0.011913695372641087,-0.07941248,-0.1133155,95.26984,-11.399638000000001,23.012455,CSI
5570667500000.0,2.8011369705200195,4.764647006988525,1.7421681880950928,8.393293380737305,-0.007355940528213978,-0.08307768,-0.122478485,95.28371,-11.406682,22.954588,CSI
5570672700000.0,2.8061368465423584,4.727090835571289,1.7526204586029053,8.391084671020508,-0.003089912934228778,-0.09315695,-0.1255328,95.30032,-11.422881,22.905217999999998,CSI
5570677400000.0,2.8111321926116943,4.690762042999268,1.7671610116958618,8.386155128479004,0.0008022699621506035,-0.09162979,-0.13072516,95.31958,-11.441332000000001,22.854069,CSI
5570682700000.0,2.8161354064941406,4.656535625457764,1.7867531776428223,8.377485275268555,0.0048288521356880665,-0.08857546,-0.13286320000000001,95.34624000000001,-11.479834,22.803,CSI
5570687400000.0,2.8211333751678467,4.624623775482178,1.8111870288848877,8.365108489990234,0.008689678274095058,-0.09285152,-0.13286320000000001,95.373825,-11.515833,22.754442,CSI
5570692600000.0,2.8261332511901855,4.594062805175781,1.8393032550811768,8.350104331970215,0.012377305887639523,-0.08674286,-0.12950343,95.40675999999999,-11.572492,22.703245000000003,CSI
5570698000000.0,2.831132411956787,4.564421653747559,1.8704122304916382,8.333063125610352,0.01515220571309328,-0.084910266,-0.1151481,95.436516,-11.62345,22.656088,CSI
5570702600000.0,2.8361339569091797,4.536632061004639,1.9023442268371582,8.31519889831543,0.017063019797205925,-0.08093964,-0.089186326,95.47065,-11.698455000000001,22.61499,CSI
5570708000000.0,2.841135025024414,4.511388778686523,1.933373212814331,8.29748821258545,0.018334848806262016,-0.076358154,-0.07299839999999999,95.50272,-11.769016,22.574228,CSI
5570712600000.0,2.8461358547210693,4.488519191741943,1.9627130031585693,8.280756950378418,0.01898546889424324,-0.07544186,-0.062002823,95.53566,-11.853692,22.535616,CSI
5570718000000.0,2.8511369228363037,4.4678778648376465,1.989984393119812,8.265421867370605,0.01870616152882576,-0.07574729,-0.04917465,95.562515,-11.930636,22.497877,CSI
5570722500000.0,2.856137990951538,4.449624061584473,2.0142571926116943,8.250946998596191,0.017481375485658646,-0.08827003,-0.05222898,95.590836,-12.007439,22.468307,CSI
5570728000000.0,2.8611388206481934,4.433802604675293,2.0350472927093506,8.237000465393066,0.015507994219660759,-0.09407325,-0.03940081,95.609726,-12.076103,22.4393,CSI
5570732500000.0,2.8661417961120605,4.421600818634033,2.0521557331085205,8.222989082336426,0.012581751681864262,-0.10354166,-0.025045475,95.627975,-12.135475,22.419995999999998,CSI
5570737700000.0,2.8711421489715576,4.413945198059082,2.065495491027832,8.208425521850586,0.009241749532520771,-0.09101892,-0.016187929,95.64260999999999,-12.191421,22.396935,CSI
5570742500000.0,2.8761415481567383,4.411142349243164,2.0745644569396973,8.193349838256836,0.005607702769339085,-0.09285152,-0.017104227,95.65465999999999,-12.231987,22.387718,CSI
5570747700000.0,2.881141185760498,4.413352966308594,2.0790538787841797,8.177797317504883,0.0013534568715840578,-0.092240654,-0.018020526000000002,95.66289,-12.266419,22.37504,CSI
5570753000000.0,2.8861422538757324,4.420173168182373,2.0800838470458984,8.16149616241455,-0.002901951316744089,-0.076358154,-0.017104227,95.66598499999999,-12.289802,22.376556,CSI
5570757700000.0,2.8911423683166504,4.431203842163086,2.0785179138183594,8.144285202026367,-0.007337511051446199,-0.059253927000000005,-0.010690141499999998,95.667496,-12.307441,22.377636,CSI
5570763000000.0,2.896141767501831,4.4454498291015625,2.073960781097412,8.127371788024902,-0.0121063943952322,-0.051923547,-0.013133603,95.66804499999999,-12.306814,22.395468,CSI
5570768000000.0,2.901172637939453,4.462549209594727,2.06575608253479,8.111637115478516,-0.016556020826101303,-0.041233405,-0.0076358155,95.66282,-12.305748,22.40815,CSI
5570773000000.0,2.9061715602874756,4.481490135192871,2.0558016300201416,8.097225189208984,-0.020963843911886215,-0.026572637000000003,-0.010995574,95.65691,-12.292097,22.43647,CSI
5570777600000.0,2.911170482635498,4.502443313598633,2.044614791870117,8.08433723449707,-0.024860046803951263,-0.008246681,-0.017104227,95.64921,-12.281046,22.46033,CSI
5570783000000.0,2.916170358657837,4.524184703826904,2.033510684967041,8.073020935058594,-0.02771846391260624,0.010995574,-0.021380282999999996,95.63649000000001,-12.256869,22.491392,CSI
5570787500000.0,2.921168327331543,4.545520782470703,2.0237514972686768,8.063312530517578,-0.030945423990488052,0.017715093,-0.02565634,95.62531,-12.228538499999999,22.519794,CSI
5570793000000.0,2.9261655807495117,4.566597938537598,2.015211582183838,8.05537223815918,-0.03396785631775856,0.02687807,-0.020158553,95.60876999999999,-12.198174,22.551834,CSI
5570797500000.0,2.931163787841797,4.5875725746154785,2.0077645778656006,8.049386024475098,-0.03713848441839218,0.039095376,-0.029321532999999997,95.5974,-12.166239,22.579268,CSI
5570803000000.0,2.936161994934082,4.608447074890137,2.0013504028320312,8.045245170593262,-0.0397983156144619,0.04428773,-0.030543262,95.58155,-12.139054,22.609945,CSI
5570807500000.0,2.9411609172821045,4.62923002243042,1.9959160089492798,8.042856216430664,-0.042202457785606384,0.05375614,-0.027183502999999998,95.56605,-12.11026,22.635143,CSI
5570812700000.0,2.9461588859558105,4.649104118347168,1.9918068647384644,8.042339324951172,-0.044071540236473083,0.05955936,-0.021380282999999996,95.55023,-12.084951,22.659457999999997,CSI
5570818000000.0,2.951159954071045,4.667156219482422,1.9894431829452515,8.043885231018066,-0.04665488377213478,0.06169739,-0.023823743999999997,95.53564,-12.055202,22.68135,CSI
5570822700000.0,2.9561562538146973,4.683342456817627,1.9882615804672241,8.047382354736328,-0.04822157695889473,0.056199603,-0.03359759,95.52261,-12.038449,22.705054999999998,CSI
5570828000000.0,2.961156129837036,4.697515487670898,1.987654447555542,8.05286693572998,-0.05037214607000351,0.047036625,-0.05955936,95.515526,-12.012628,22.727497,CSI
5570832600000.0,2.966153860092163,4.709804534912109,1.9875811338424683,8.06019115447998,-0.05270109698176384,0.040011674,-0.06261369,95.508865,-11.995915,22.744802,SIT
5570837300000.0,2.97114896774292,4.720314025878906,1.9880115985870361,8.069249153137207,-0.054840825498104095,0.035124752999999995,-0.04917465,95.50555,-11.979053500000001,22.763070000000003,SIT
5570842600000.0,2.976144552230835,4.7291765213012695,1.9910156726837158,8.079254150390625,-0.05626425892114639,0.0421497,-0.03023783,95.50112,-11.963438,22.77971,SIT
5570848000000.0,2.9811439514160156,4.736549377441406,1.9999624490737915,8.088980674743652,-0.057497892528772354,0.044593163,-0.010995574,95.49322,-11.944506,22.799426999999998,SIT
5570852600000.0,2.9861392974853516,4.7421555519104,2.0109176635742188,8.099403381347656,-0.05868205800652504,0.046120327,0.01282817,95.47709,-11.92703,22.80386,SIT
5570858000000.0,2.9911386966705322,4.745304584503174,2.017211675643921,8.112388610839844,-0.05960778892040253,0.03176499,0.013439035,95.463264,-11.911904,22.81166,SIT
5570862500000.0,2.9961349964141846,4.746531009674072,2.019700765609741,8.12719440460205,-0.06051674112677574,0.03604105,0.027488936000000002,95.44493,-11.915861,22.807482,SIT
5570868000000.0,3.001138925552368,4.747416973114014,2.0206825733184814,8.141486167907715,-0.06131214275956154,0.026267206,0.02107485,95.43466,-11.923377,22.809898,SIT
5570872500000.0,3.0061380863189697,4.747997760772705,2.0201785564422607,8.155346870422363,-0.06157683581113815,0.015577064,0.03145956,95.40796999999999,-11.910291,22.8012,SIT
5570877700000.0,3.0111382007598877,4.74829626083374,2.0179407596588135,8.16897201538086,-0.061453040689229965,0.009162978,0.03023783,95.387375,-11.899238,22.793062,SIT
5570882400000.0,3.016139507293701,4.748128414154053,2.0139217376708984,8.182310104370117,-0.06118934601545334,0.011301007,0.030848695,95.36164000000001,-11.88318,22.785595,SIT
5570887700000.0,3.0211403369903564,4.746956825256348,2.007838726043701,8.1951904296875,-0.061037369072437286,-0.0033597588,0.025350908,95.34004,-11.868853,22.784218,SIT
5570892400000.0,3.0261385440826416,4.745022773742676,2.000178337097168,8.207155227661133,-0.06038889288902283,-0.010079277,0.02565634,95.31447,-11.850172,22.777699,SIT
5570897600000.0,3.0311379432678223,4.742936134338379,1.9921600818634033,8.216694831848145,-0.05878205969929695,-0.0125227375,0.022602014,95.29261,-11.834802,22.773584,SIT
5570903000000.0,3.0361361503601074,4.740823745727539,1.9838684797286987,8.224187850952148,-0.057114362716674805,-0.021380282999999996,0.021685716,95.26546,-11.809532,22.770647,SIT
5570907600000.0,3.04113507270813,4.739078044891357,1.9755100011825562,8.230518341064453,-0.05581225827336311,-0.032070424,0.0125227375,95.24239,-11.788728,22.768261,SIT
5570913000000.0,3.046135425567627,4.737518310546875,1.966779351234436,8.235758781433105,-0.05378195643424988,-0.039095376,0.010079277,95.217896,-11.772063000000001,22.769835999999998,SIT
5570917600000.0,3.0511372089385986,4.735569000244141,1.956622838973999,8.240011215209961,-0.05161569267511368,-0.041233405,0.00580322,95.1974,-11.752913000000001,22.772245,SIT
5570923000000.0,3.0561468601226807,4.733258247375488,1.945282220840454,8.243260383605957,-0.04932071641087532,-0.04520403,0.0076358155,95.17634,-11.736074,22.77948,SIT
5570927500000.0,3.0611462593078613,4.730826377868652,1.9350345134735107,8.245115280151367,-0.046936437487602234,-0.0421497,-0.006414085,95.16128499999999,-11.722844,22.78389,SIT
5570933000000.0,3.0661511421203613,4.72825813293457,1.9258275032043457,8.24561595916748,-0.04471177980303764,-0.049480084,-0.012217305,95.142136,-11.701450999999999,22.793287,SIT
5570937500000.0,3.0711517333984375,4.7254557609558105,1.9172348976135254,8.245471000671387,-0.04241035133600235,-0.053450707,-0.005192355,95.12313,-11.682701,22.800629999999998,SIT
5570942700000.0,3.0761711597442627,4.72239875793457,1.909234881401062,8.244660377502441,-0.0400850772857666,-0.04276056599999999,-0.018020526000000002,95.11414,-11.669437,22.80399,SIT
5570947400000.0,3.081169366836548,4.719156265258789,1.9017773866653442,8.243311882019043,-0.0376395620405674,-0.043676864,-0.022602014,95.10175,-11.656155,22.812422,SIT
5570952700000.0,3.086185932159424,4.7157301902771,1.8949317932128906,8.241376876831055,-0.035324376076459885,-0.049785517,-0.0290161,95.091545,-11.644732000000001,22.817297,SIT
5570958000000.0,3.091184139251709,4.713053226470947,1.8901503086090088,8.239205360412598,-0.0334743969142437,-0.04734206,-0.036651913,95.0827,-11.633663,22.819542000000002,SIT
5570962700000.0,3.096177816390991,4.711113929748535,1.8874098062515259,8.236791610717773,-0.03154395893216133,-0.03970624,-0.03359759,95.07346,-11.627011999999999,22.821354,SIT
5570968000000.0,3.101177215576172,4.709896087646484,1.8866686820983887,8.234136581420898,-0.030058221891522408,-0.047647487,-0.034513887,95.0687,-11.617554,22.825994,SIT
5570972600000.0,3.106170654296875,4.709335803985596,1.8877447843551636,8.231266975402832,-0.028065679594874382,-0.052839845,-0.032070424,95.06137,-11.612953,22.828066,SIT
5570978000000.0,3.1111695766448975,4.709497451782227,1.89174222946167,8.227558135986328,-0.026228157803416252,-0.05100725,-0.03848451,95.057144,-11.604794,22.829674,SIT
5570982600000.0,3.1161696910858154,4.710355758666992,1.898819088935852,8.222870826721191,-0.024960605427622795,-0.04734206,-0.01863139,95.04451,-11.59428,22.833866,SIT
5570988000000.0,3.121168613433838,4.71176815032959,1.905426263809204,8.217170715332031,-0.023858267813920975,-0.03940081,-0.01282817,95.04734,-11.601994,22.840227,SIT
5570992500000.0,3.1261677742004395,4.713639736175537,1.9092769622802734,8.21043872833252,-0.02274956740438938,-0.03268129,-0.014355333500000001,95.04618,-11.606682000000001,22.846443,SIT
5570998000000.0,3.13116455078125,4.715925693511963,1.9120672941207886,8.203466415405273,-0.02207433246076107,-0.03481932,-0.010995574,95.04734,-11.622098,22.856768,SIT
5571002500000.0,3.136164426803589,4.718606472015381,1.9145797491073608,8.19660758972168,-0.021369973197579384,-0.03970624,-0.016798794,95.05143000000001,-11.6409,22.865076000000002,SIT
5571008000000.0,3.1411635875701904,4.721654415130615,1.9168307781219482,8.189858436584473,-0.021207749843597412,-0.038789943,-0.02321288,95.052086,-11.646208,22.877726000000003,SIT
5571012500000.0,3.146162748336792,4.725051403045654,1.9188339710235596,8.183213233947754,-0.020891398191452026,-0.038789943,-0.009773844,95.048836,-11.653389,22.892506,SIT
5571017700000.0,3.1511662006378174,4.72909688949585,1.9201884269714355,8.176507949829102,-0.021438326686620712,-0.03359759,-0.014660766,95.0539,-11.6555395,22.904958999999998,SIT
5571022400000.0,3.15616512298584,4.733863353729248,1.920768141746521,8.16969108581543,-0.021907277405261993,-0.041233405,-0.014966198,95.05436,-11.6607685,22.92174,SIT
5571027700000.0,3.1611645221710205,4.738948345184326,1.9208534955978394,8.16315746307373,-0.022090798243880272,-0.046120327,-0.013439035,95.05685,-11.661852,22.940604999999998,SIT
5571033000000.0,3.1661672592163086,4.744017124176025,1.9206794500350952,8.1572265625,-0.022166874259710312,-0.04184427,-0.009162978,95.05845,-11.662096,22.958729,SIT
5571037600000.0,3.171166181564331,4.749216556549072,1.919972538948059,8.151307106018066,-0.022173786535859108,-0.038789943,-0.014966198,95.06168000000001,-11.661627000000001,22.98305,SIT
5571043000000.0,3.176164388656616,4.754685878753662,1.9184828996658325,8.144882202148438,-0.02237565815448761,-0.03634648,-0.013439035,95.06111999999999,-11.659057,23.0065,SIT
5571047600000.0,3.1811623573303223,4.760545253753662,1.9169487953186035,8.138675689697266,-0.022517940029501915,-0.028099801,-0.02107485,95.064026,-11.658461,23.02657,SIT
5571053000000.0,3.186162233352661,4.766851425170898,1.915749430656433,8.13305377960205,-0.02208293229341507,-0.02687807,-0.012217305,95.06177,-11.657458,23.048521,SIT
5571057500000.0,3.191164493560791,4.772863388061523,1.9150283336639404,8.127504348754883,-0.02237103320658207,-0.007941248,-0.025350908,95.06465,-11.651589999999999,23.064976,SIT
5571063000000.0,3.1961638927459717,4.778180122375488,1.914845585823059,8.121750831604004,-0.022415896877646446,-0.005192355,-0.020158553,95.06034,-11.650022,23.086782,SIT
5571067500000.0,3.201162815093994,4.782835960388184,1.915176272392273,8.115800857543945,-0.022865304723381996,-0.00030543262000000003,-0.01863139,95.05999,-11.644449,23.103392000000003,SIT
5571073000000.0,3.206162691116333,4.786863803863525,1.9159958362579346,8.109661102294922,-0.0234372578561306,0.008857545999999999,-0.02076942,95.0587,-11.641153,23.117704,SIT
5571077500000.0,3.2111618518829346,4.790091037750244,1.9164130687713623,8.104350090026855,-0.023555519059300423,0.014966198,-0.028099801,95.060326,-11.638734,23.131552,SIT
5571082700000.0,3.2161614894866943,4.792407989501953,1.9158233404159546,8.100552558898926,-0.024058133363723755,0.02321288,-0.029626964,95.06006,-11.631269999999999,23.142134,SIT
5571087400000.0,3.221160650253296,4.793976783752441,1.9156855344772339,8.097696304321289,-0.024615349248051643,0.015271631,-0.027183502999999998,95.0632,-11.632854,23.15362,SIT
5571092700000.0,3.2261886596679688,4.794890403747559,1.917555809020996,8.095277786254883,-0.025159146636724472,0.022907447,-0.02321288,95.06465,-11.632824000000001,23.15825,SIT
5571098000000.0,3.2311856746673584,4.795368671417236,1.9202529191970825,8.093672752380371,-0.025055425241589546,0.020463986,-0.020158553,95.064995,-11.63061,23.162899,SIT
5571102600000.0,3.2361843585968018,4.7954421043396,1.9233121871948242,8.093291282653809,-0.024696793407201767,0.01985312,-0.022907447,95.06526,-11.626864,23.164692000000002,SIT
5571108000000.0,3.2411818504333496,4.795136451721191,1.9267088174819946,8.094056129455566,-0.02427588775753975,0.0290161,-0.01160644,95.062164,-11.63035,23.162598000000003,SIT
5571112600000.0,3.246181011199951,4.794467926025391,1.9304300546646118,8.095917701721191,-0.023958800360560417,0.020463986,-0.009468411,95.0639,-11.635582000000001,23.164820000000002,SIT
5571118000000.0,3.251178741455078,4.793403148651123,1.934278130531311,8.09851360321045,-0.02304007112979889,0.011301007,-0.0067195175,95.06145,-11.643201,23.165384,SIT
5571122600000.0,3.256178855895996,4.791892051696777,1.938046932220459,8.101473808288574,-0.022251689806580544,0.01282817,-0.004581489,95.05839,-11.646726,23.165382,SIT
5571128000000.0,3.2611732482910156,4.789973735809326,1.9417368173599243,8.104763984680176,-0.021082112565636635,0.018325957,0.010690141499999998,95.05431999999999,-11.655699,23.162029999999998,SIT
5571132500000.0,3.266173839569092,4.7876482009887695,1.9453574419021606,8.108388900756836,-0.019649319350719452,0.023823743999999997,0.01282817,95.053474,-11.664912,23.157566,SIT
