acc_x,acc_y,acc_z,gyro_x,gyro_y,gyro_z,label
0.0,0.0,0.0,0.0,-0.023518313,0.025350908,1
-6.554008677994716e-07,1.0228853852822797e-06,1.2926849990435585e-07,4.619075399947548e-10,-0.038179077,0.03481932,1
-5.159484499017708e-05,8.053661440499127e-05,1.0224676771031227e-05,1.3601282322639465e-09,-0.044593163,0.029932396,1
-0.0006961459876038134,0.0010868068784475329,0.00013858832244295627,-2.9260894507388e-07,-0.039095376,0.025045475,1
-0.004134442657232285,0.006455540191382171,0.0008267529774457216,-2.030263658525655e-06,-0.05100725,0.014355333500000001,1
-0.015195506624877453,0.023729760199785236,0.0030518723651766773,-1.9409169453865616e-06,-0.024740042,0.0033597588,1
-0.04087489098310471,0.06383521109819412,0.00824486929923296,2.2938162146601826e-05,-0.007330383,0.00580322,1
-0.08862780779600142,0.1383715122938156,0.01794684305787086,0.00012892595259472728,-0.01160644,0.005192355,1
-0.1645723283290863,0.2567575573921204,0.033518128097057336,0.0003876903501804918,-0.022907447,0.0036651915999999997,1
-0.2723880708217621,0.4244509041309357,0.056035257875919335,0.000847785035148263,-0.0125227375,0.005192355,1
-0.412964016199112,0.6425460577011108,0.08582986146211624,0.0015003426233306527,-0.009773844,0.002443461,1
-0.5847388505935669,0.9084365367889404,0.12244378775358199,0.0022719004191458225,0.008552114,0.0012217305,1
-0.7842792868614197,1.216710329055786,0.16507180035114288,0.003053894732147455,0.0033597588,0.004581489,1
-1.0068936347961426,1.560045838356018,0.2127218097448349,0.0037319513503462076,0.009162978,-0.005192355,1
-1.2472258806228638,1.9301583766937256,0.2642599046230316,0.0042161019518971435,-0.004276057,-0.02565634,0
-1.4998228549957275,2.318606376647949,0.3186689615249634,0.004441632889211178,-0.021380282999999996,-0.055283304000000005,0
-1.7594943046569824,2.717579126358032,0.37522768974304205,0.004334363155066967,-0.06780604,-0.08216137400000001,0
-2.021429538726806,3.1204819679260254,0.43322038650512695,0.0037357253022491928,-0.17928895,-0.1282817,0
-2.281223058700561,3.52197813987732,0.4914333522319794,0.002331533003598452,-0.2837469,-0.20677789,0
-2.5349936485290527,3.91778826713562,0.5479329824447632,-0.000372458336642012,-0.38423425,-0.30818152,0
-2.779537439346313,4.3046875,0.6000555753707886,-0.005044075660407543,-0.47647488,-0.42943826,0
-3.0122694969177246,4.680426120758057,0.644567608833313,-0.012487497180700302,-0.7415904000000001,-0.56382865,0
-3.2309787273406982,5.043294906616211,0.6781731247901917,-0.023572348058223724,-0.7556403,-0.5882632,0
-3.4333837032318115,5.391700267791748,0.6981427073478699,-0.039068251848220825,-0.7901541999999999,-0.6200281999999999,0
-3.6169474124908447,5.723893165588379,0.7031006217002869,-0.05943858623504639,-0.8127562,-0.6563747,0
-3.779210805892944,6.037727355957031,0.6934319138526917,-0.08478885143995285,-0.86254174,-0.71868294,0
-3.918208360671997,6.330275058746338,0.6712101101875305,-0.1150119975209236,-0.9309586,-0.69913524,0
-4.032425880432129,6.59758996963501,0.6399961113929749,-0.14994582533836365,-1.067487,-0.6722571999999999,0
-4.120408535003662,6.83505392074585,0.6045908927917479,-0.1894369274377823,-1.1368201999999998,-0.7305948,0
-4.181037902832031,7.038156986236572,0.5700340867042542,-0.2335619330406189,-0.81336707,-0.7476991,0
-4.213992118835448,7.20244026184082,0.5399617552757263,-0.2827576696872711,-0.55833083,-0.91599244,0
-4.2206645011901855,7.323118209838867,0.5160773396492004,-0.337502658367157,-0.37965274,-1.1618657,0
-4.204570293426514,7.3954429626464835,0.499381959438324,-0.39776477217674255,-0.3387248,-1.2822062,0
-4.17052698135376,7.415478706359862,0.4918971657752991,-0.462822437286377,-0.82527894,-1.3848315,0
-4.123596668243408,7.381241798400879,0.4966056346893311,-0.5315585136413574,-1.1261301000000001,-1.3854423999999999,0
-4.068419933319092,7.293508529663086,0.5163266062736511,-0.6026837229728699,-1.325883,-1.4874569,0
-4.009097099304198,7.155800819396973,0.553212583065033,-0.6749110817909241,-1.3994923000000001,-1.6203201,0
-3.9494600296020512,6.974212646484375,0.6101190447807312,-0.7472350597381592,-1.1148291000000001,-1.9318613000000002,0
-3.893766641616821,6.7574663162231445,0.6911449432373047,-0.8193673491477966,-1.044885,-2.0995437999999997,0
-3.846420764923096,6.515659809112549,0.7998645305633545,-0.8915975093841553,-1.0858128999999999,-1.7935003,0
-3.8104329109191895,6.257498741149902,0.93849515914917,-0.9640820026397704,-1.2473868000000001,-1.5186110000000002,0
-3.78707218170166,5.988414764404298,1.1085954904556274,-1.0365954637527466,-1.4746287,-1.5021176,0
-3.777755260467529,5.711000919342041,1.3114162683486938,-1.1088634729385376,-1.5992452,-1.6267341,0
-3.785548210144043,5.427055835723877,1.5475049018859863,-1.1807551383972168,-1.4883732,-1.5986344,0
-3.813575267791748,5.140004634857178,1.8160673379898071,-1.2521404027938845,-1.344209,-1.4785993,0
-3.862525463104248,4.855698585510254,2.114736557006836,-1.3228195905685425,-1.5482379,-1.496009,0
-3.930697679519653,4.580198764801025,2.439589500427246,-1.3926632404327393,-1.50731,-1.4929546,0
-4.015715599060059,4.317704677581787,2.7852709293365483,-1.4615172147750854,-1.3784174,-1.4789047,0
-4.1154136657714835,4.0702948570251465,3.1457853317260738,-1.5290954113006592,-1.3002267,-1.461495,0
-4.2264671325683585,3.838032722473145,3.5155344009399414,-1.5950199365615845,-1.1884383,-1.4373658999999999,0
-4.343669414520264,3.619255542755127,3.889581203460693,-1.6590225696563718,-0.9419542,-1.462106,0
-4.46152400970459,3.4099972248077397,4.263899803161621,-1.721030592918396,-1.1792753999999999,-1.5018122,0
-4.576209545135498,3.20414400100708,4.6353373527526855,-1.781049728393555,-1.4504995,-1.6105462,0
-4.685481071472168,2.995512723922729,5.000904083251953,-1.8389853239059448,-1.3662001,-1.5314392,0
-4.786948204040527,2.7795240879058842,5.357821464538574,-1.8945252895355225,-1.6487253000000002,-1.3826935,0
-4.877614974975586,2.5534796714782715,5.704240798950195,-1.9472597837448118,-1.3048081,-1.3515393999999998,0
-4.955561637878418,2.31540846824646,6.038675308227539,-1.9968465566635127,-1.3573426000000002,-1.1163563,0
-5.01972246170044,2.063605785369873,6.3594603538513175,-2.042909860610962,-1.0262536,-0.96974856,0
-5.069494247436523,1.7981827259063718,6.664498805999756,-2.084922313690185,-0.657291,-0.91813046,0
-5.105137825012207,1.5211043357849119,6.951096534729004,-2.122243404388428,-0.5180137,-0.816116,0
-5.126957416534424,1.235336422920227,7.2159247398376465,-2.1539576053619385,-0.20219639,-0.65057147,0
-5.134387969970703,0.9438345432281494,7.454869747161865,-2.178717851638794,0.08796459400000001,-0.31948254,0
-5.1270294189453125,0.6483156681060791,7.664299964904785,-2.194686889648437,-0.019242255,-0.28344148,0
-5.105247974395752,0.3487153947353363,7.843776226043701,-2.199756860733032,-1.0363328,-0.15271631,0
-5.067774772644043,0.04108783602714538,7.996980667114258,-2.1921093463897705,0.33292156,0.22143865,0
-5.0085554122924805,-0.2858180403709412,8.129587173461914,-2.1702625751495357,2.0525072,0.8613200000000001,0
-4.917031764984131,-0.6496453881263733,8.245090484619139,-2.1330931186676025,1.6749926,0.1142318,0
-4.783292293548584,-1.065103530883789,8.341241836547853,-2.079861879348755,2.021964,-0.6621779000000001,0
-4.602537631988525,-1.5336154699325562,8.412372589111326,-2.0105452537536617,2.8377745,-0.05467244,0
-4.3775978088378915,-2.0417604446411133,8.453628540039062,-1.9263553619384768,2.9245174,0.5503895999999999,0
-4.118589401245116,-2.567358016967773,8.461995124816895,-1.829285979270935,2.4917192000000004,0.9456194,0
-3.840090990066528,-3.0856404304504395,8.436066627502441,-1.7212514877319336,2.104736,0.9783006999999999,0
-3.556682586669922,-3.574091672897339,8.375186920166017,-1.6035338640213013,1.9721785,1.0839803,0
-3.279874086380005,-4.016568660736084,8.280466079711914,-1.4768036603927612,1.6862935000000001,1.3170254,0
-3.0184197425842285,-4.406866073608398,8.157339096069336,-1.3420170545578003,1.3356569,1.1884383,0
-2.779978513717652,-4.75002384185791,8.014273643493652,-1.2011438608169556,0.8772025,0.24648413,0
-2.570597648620605,-5.059775352478027,7.859171390533447,-1.05675208568573,0.66767573,-0.07971791,0
-2.3922643661499023,-5.3525567054748535,7.6980204582214355,-0.91145259141922,0.37751472,0.13836098,0
-2.2425456047058105,-5.641435623168945,7.535673141479492,-0.7679303884506226,0.44501534,0.28588495,0
-2.1171624660491943,-5.931856632232666,7.376307964324951,-0.6290444731712341,0.5381723,0.22632557,0
-2.0127103328704834,-6.221954822540282,7.223569869995117,-0.4974647760391235,0.5503895999999999,0.076358154,0
-1.9278110265731807,-6.5077266693115225,7.081423759460449,-0.3752878308296204,0.1563815,-0.07696902,0
-1.863001108169556,-6.78587818145752,6.953389644622803,-0.263944149017334,0.10323623,-0.05131268,0
-1.819617748260498,-7.052025318145753,6.840135097503662,-0.16442549228668213,0.29016098,-0.064751714,0
-1.7981653213500977,-7.298455238342285,6.739845275878906,-0.07756329327821733,-0.00580322,0.23701571,0
-1.7985838651657104,-7.515139102935791,6.65181827545166,-0.003607894759625197,-0.09682214,0.627664,0
-1.8213435411453247,-7.692267417907715,6.5760931968688965,0.05805070325732231,0.1142318,0.47861293,0
-1.8677200078964236,-7.822755813598633,6.511382579803468,0.108480803668499,0.16676621,-0.060170225999999986,0
-1.9385762214660645,-7.9042930603027335,6.456146240234375,0.14866532385349274,-0.00580322,-0.118202426,0
-2.0332391262054443,-7.939759254455566,6.409546375274657,0.179463729262352,-0.101098195,-0.17134771,0
-2.149554252624512,-7.935398578643799,6.371192455291747,0.20182763040065765,-0.0983493,-0.16432275,0
-2.2841503620147705,-7.898373603820801,6.340882301330566,0.21675263345241547,-0.14752395,-0.10079276599999999,0
-2.4328973293304443,-7.835141658782959,6.31822395324707,0.2251895517110825,-0.17898351,-0.089491755,0
-2.591418743133545,-7.750831604003906,6.302576541900635,0.22804240882396695,-0.20799962,-0.118202426,0
-2.7552952766418457,-7.6494364738464355,6.2928996086120605,0.2261939942836761,-0.1151481,-0.204029,0
-2.9199123382568364,-7.5346479415893555,6.28804349899292,0.22056888043880465,-0.11698069400000001,-0.25534168,0
-3.080540180206299,-7.410081386566162,6.2874836921691895,0.2121732383966446,-0.07299839999999999,-0.23854288,0
-3.2331268787384038,-7.278563976287843,6.2910399436950675,0.20205098390579224,-0.054061572999999995,-0.14874569,0
-3.3748011589050293,-7.142050266265869,6.298097610473633,0.1911274939775467,-0.010079277,0.011301007,0
-3.50324821472168,-7.002602577209473,6.3072547912597665,0.1800643652677536,0.03176499,0.13805555,0
-3.616081714630127,-6.863025665283202,6.316841125488281,0.1692541241645813,0.111177474,0.25137106,0
-3.711383819580078,-6.72659969329834,6.32588005065918,0.15897348523139954,0.07880162,0.25595254,0
-3.7888574600219727,-6.596133232116699,6.334458351135254,0.14958587288856506,0.07574729,0.2574797,0
-3.850164890289306,-6.473327159881593,6.343060493469237,0.1416180282831192,0.15332718,0.30665436,0
-3.8979992866516113,-6.359026908874513,6.351860046386719,0.13564907014369965,0.1777618,0.35124752,0
-3.934818744659424,-6.2535014152526855,6.360722064971924,0.13212665915489194,0.11148291,0.44348818,0
-3.9626541137695312,-6.156184673309326,6.369871616363525,0.1311965137720108,-0.03390302,0.37659842,0
-3.9841425418853764,-6.065347671508789,6.3801307678222665,0.13253621757030487,0.026572637000000003,0.18295415,0
-4.003237247467041,-5.979130744934082,6.392376899719237,0.13531644642353058,0.09132435,-0.025045475,0
-4.024454593658446,-5.897117137908936,6.407094955444336,0.1384301781654358,0.024740042,-0.08857546,0
-4.051408767700194,-5.819996356964111,6.424435615539551,0.14085842669010162,-0.10415252,-0.040011674,0
-4.0859246253967285,-5.747743129730225,6.44434118270874,0.14193761348724365,-0.06658431,0.03023783,0
-4.128164768218993,-5.678757190704347,6.4663352966308585,0.14135123789310455,0.055283304000000005,0.03726278,0
-4.177169799804688,-5.610806465148926,6.489360332489014,0.13902074098587036,0.10323623,0.035124752999999995,0
-4.231334209442139,-5.54234504699707,6.512073040008545,0.1350746899843216,0.03023783,0.062308256,0
-4.288785457611084,-5.472922801971436,6.533487319946289,0.12984487414360046,-0.002443461,0.08093964,0
-4.347737789154054,-5.402589797973633,6.553211688995361,0.12377611547708513,0.0070249503,0.08002335,0
-4.406770706176758,-5.331540584564209,6.5711846351623535,0.11727416515350343,0.03145956,0.052534412999999995,10
-4.464887619018555,-5.260414123535156,6.5874786376953125,0.1105680763721466,0.013744468000000001,0.032070424,10
-4.521285057067871,-5.190626621246338,6.602309703826903,0.1037246584892273,-0.022907447,-0.0012217305,10
-4.57517147064209,-5.124256610870361,6.6159400939941415,0.09677201509475708,-0.024129177,-0.01985312,10
-4.6257052421569815,-5.063457012176514,6.628575801849365,0.08977331221103667,-0.025045475,-0.03848451,10
-4.67203426361084,-5.009796619415283,6.640351295471191,0.08280281722545624,-0.028710667000000002,-0.021380282999999996,10
-4.713415622711182,-4.963948726654053,6.651200294494629,0.07592763006687164,-0.016798794,0.028099801,10
-4.749266624450684,-4.92576265335083,6.660824298858643,0.06921793520450592,0.0033597588,0.06536258,10
-4.779184341430664,-4.894569396972656,6.668869018554688,0.06275564432144165,0.009773844,0.0711658,10
-4.80300760269165,-4.869457721710205,6.675154685974121,0.05660996213555336,0.019547688,0.07819075,10
-4.82095193862915,-4.849480152130127,6.679732322692871,0.05082917213439941,0.025961772999999997,0.08002335,10
-4.833658218383789,-4.833726406097412,6.682817935943604,0.04546581953763962,0.022296581,0.06963864,10
-4.842142105102539,-4.821319580078125,6.684746265411378,0.04059654474258423,0.0290161,0.041233405,10
-4.847695350646973,-4.811384677886963,6.685896396636963,0.03629089891910553,0.034513887,0.019242255,10
-4.8517022132873535,-4.803070068359375,6.68663215637207,0.032572224736213684,0.006414085,0.0070249503,10
-4.855386257171631,-4.7956275939941415,6.687237739562987,0.02940072678029537,-0.00061086525,-0.0070249503,10
-4.859562397003174,-4.788488864898682,6.68789005279541,0.026675138622522358,-0.0018325957999999999,-0.01038471,10
-4.864588737487793,-4.781317234039307,6.688669204711914,0.024261074140667915,-0.010079277,-0.0125227375,10
-4.870466232299805,-4.773970127105713,6.689589500427246,0.022031418979167938,-0.0061086523,-0.0021380284,10
-4.876946926116943,-4.766475200653076,6.6905622482299805,0.01989501528441906,-0.005192355,0.007941248,10
-4.8836188316345215,-4.75903844833374,6.6914024353027335,0.017813928425312042,0.002443461,0.02565634,10
-4.890016078948975,-4.7519497871398935,6.691899299621582,0.015804672613739967,-0.012217305,0.035430185,10
-4.89572286605835,-4.745443820953369,6.691906452178955,0.013921888545155523,-0.005192355,0.04550946,10
-4.900471210479736,-4.739643573760986,6.691335201263428,0.012230170890688896,0.0125227375,0.051923547,10
-4.9041786193847665,-4.7345709800720215,6.690186500549316,0.010774213820695877,0.0036651915999999997,0.043066,10
-4.906937122344972,-4.730187892913818,6.688596725463867,0.009575267322361471,0.018936822,0.022296581,10
-4.908991813659668,-4.726425647735597,6.686828136444093,0.008620806969702244,0.0018325957999999999,0.013439035,10
-4.910655498504639,-4.723228931427002,6.685183525085449,0.007867831736803055,-0.0015271631,0.004581489,10
-4.912232398986816,-4.720581531524658,6.6839051246643075,0.007266566623002291,-0.01160644,0.0030543262,10
-4.913958549499512,-4.718459606170653,6.683134078979492,0.006782868411391974,-0.015577064,0.008246681,10
-4.915925025939941,-4.716723442077637,6.682950973510742,0.006393680348992348,0.0012217305,0.0070249503,10
-4.918084621429443,-4.71512508392334,6.683378219604492,0.0060742758214473724,-0.0030543262,0.009162978,10
-4.920304298400879,-4.7134366035461435,6.684324264526367,0.0057933684438467034,-0.007941248,0.006414085,10
-4.922416687011719,-4.71153736114502,6.685591697692871,0.005526774562895298,0.0015271631,0.015271631,10
-4.924262046813965,-4.709385871887207,6.686934471130371,0.005267675034701824,0.023823743999999997,0.017104227,10
-4.925719738006592,-4.706974983215332,6.688176155090332,0.005015661008656025,-0.0027488936,0.011301007,10
-4.926749706268311,-4.704312324523926,6.689273357391357,0.00476548634469509,-0.008246681,0.0125227375,10
-4.927392959594727,-4.701452255249023,6.690298080444336,0.004509333055466414,-0.0036651915999999997,0.011911871999999999,10
-4.927733421325684,-4.698533535003662,6.691366672515869,0.004230164457112551,-0.0030543262,0.0033597588,10
-4.927848815917969,-4.695727348327637,6.692531108856201,0.003913873806595802,-0.00580322,-0.0012217305,10
-4.9277777671813965,-4.693155765533447,6.693775177001952,0.0035558424424380064,0.0009162978999999999,0.0021380284,10
-4.927534580230713,-4.690842628479004,6.6950883865356445,0.003160051768645644,-0.009162978,0.0015271631,10
-4.927145481109619,-4.68870735168457,6.6964359283447275,0.00273846834897995,-0.0030543262,0.011911871999999999,10
-4.926652908325195,-4.686615943908691,6.697757244110107,0.002306821523234248,-0.0030543262,0.015882496,10
-4.926100730895996,-4.684470176696777,6.699000835418701,0.0018813831266015766,0.008857545999999999,0.019547688,10
-4.92550802230835,-4.6822614669799805,6.700167179107666,0.0014786061365157366,0.009468411,0.0012217305,10
-4.924854755401611,-4.680011749267578,6.701310157775879,0.001112131169065833,0.0012217305,0.004276057,10
-4.924091339111328,-4.677698135375977,6.702484130859375,0.0007856520242057741,0.009773844,0.007330383,10
-4.923173904418945,-4.6752753257751465,6.703727722167969,0.0004922805237583816,0.007941248,0.006414085,10
-4.922079086303711,-4.672752857208252,6.705018043518066,0.0002142188022844493,0.0033597588,0.015577064,10
-4.9208292961120605,-4.6702094078063965,6.706268310546875,-7.436554005835205e-05,0.004886922,0.016187929,10
-4.919494152069092,-4.66774845123291,6.7073731422424325,-0.00038956894422881305,0.005192355,0.014660766,10
-4.918174743652344,-4.665438175201416,6.708279609680176,-0.000726728409063071,-0.0012217305,0.010690141499999998,10
-4.916983127593994,-4.6632819175720215,6.7089433670043945,-0.0010707145556807518,0.00580322,0.004886922,10
-4.916005611419678,-4.661279201507568,6.709324836730957,-0.0014093505451455712,0.0021380284,0.007941248,10
-4.9152870178222665,-4.6594557762146,6.7094550132751465,-0.0017445893026888368,0.009468411,0.0067195175,10
-4.91485071182251,-4.657822608947754,6.709420680999756,-0.0020869034342467785,0.0036651915999999997,0.004581489,10
-4.914697170257568,-4.656358242034912,6.709315299987793,-0.002447591396048665,0.0030543262,0.003970624,10
-4.914790153503418,-4.6550254821777335,6.70918607711792,-0.002832227386534214,0.004276057,0.009468411,10
-4.915061950683594,-4.653817176818848,6.7090163230896,-0.003240986028686166,0.0018325957999999999,0.00580322,10
-4.9154205322265625,-4.652793884277344,6.708771705627441,-0.0036727127153426404,0.009468411,0.0070249503,10
-4.915773391723633,-4.652014255523682,6.708404541015625,-0.004123476333916186,0.008857545999999999,0.0076358155,10
-4.916062355041504,-4.65150785446167,6.707897663116455,-0.004582949914038181,0.009773844,0.010995574,10
-4.916284084320068,-4.651297569274902,6.707308292388916,-0.0050377571024000645,0.008552114,0.008857545999999999,10
-4.91644811630249,-4.651357173919678,6.7067503929138175,-0.005471732001751661,0.0027488936,0.012217305,10
-4.916557788848877,-4.651622772216797,6.706326484680176,-0.005869803950190544,-0.0036651915999999997,0.005192355,10
-4.916612148284912,-4.652045726776123,6.706048011779785,-0.006221398245543242,-0.0061086523,0.00030543262000000003,10
-4.916614055633545,-4.652567863464356,6.705882549285889,-0.006521822884678841,-0.0061086523,0.008552114,10
-4.916581153869629,-4.6531105041503915,6.7058281898498535,-0.006769899744540453,-0.007330383,0.01038471,10
-4.916528701782227,-4.653590202331543,6.705891609191895,-0.0069603342562913895,-0.0012217305,0.0033597588,10
-4.916453361511231,-4.653942584991455,6.706094264984131,-0.007090668659657241,0.0030543262,0.002443461,10
-4.916352272033691,-4.6541290283203125,6.706474781036378,-0.0071678338572382936,-0.003970624,0.0030543262,10
-4.916223526000977,-4.654128551483153,6.707058429718018,-0.00720613356679678,0.004886922,0.01160644,10
-4.91603946685791,-4.653942584991455,6.7078590393066415,-0.007219500839710236,0.00580322,0.012217305,10
-4.915768623352051,-4.653606414794922,6.708823204040527,-0.007222179789096117,0.0027488936,0.02076942,10
-4.9153923988342285,-4.653183460235597,6.709837436676025,-0.0072202510200440875,0.004581489,0.01863139,10
-4.914912700653076,-4.652731418609619,6.7107834815979,-0.007216064725071192,0.002443461,0.016798794,10
-4.914351940155028,-4.6522955894470215,6.711585521697997,-0.00720849446952343,0.009162978,0.014966198,10
-4.913767337799072,-4.651948928833008,6.712226390838622,-0.007193108554929496,0.0033597588,0.009468411,10
-4.913263320922852,-4.651800155639648,6.712707042694093,-0.007167870178818703,-0.0012217305,0.0076358155,10
-4.912927150726318,-4.651914119720459,6.7130126953125,-0.007136470638215542,0.0070249503,0.01160644,10
-4.912783145904541,-4.652214050292969,6.713146209716798,-0.007100324146449566,0.0018325957999999999,0.006414085,10
-4.9128379821777335,-4.65253496170044,6.7131385803222665,-0.007063872646540403,0.004581489,0.009468411,10
-4.913099765777588,-4.652718544006348,6.713027000427246,-0.007031745277345181,-0.004581489,0.005192355,10
-4.9135518074035645,-4.65268611907959,6.712832927703857,-0.00700176227837801,0.005192355,0.01038471,10
-4.914143562316895,-4.652459144592285,6.71258020401001,-0.006974168587476015,0.0067195175,0.017104227,10
-4.914835453033447,-4.6520957946777335,6.7123122215271,-0.006946781184524298,-0.0036651915999999997,0.015882496,10
-4.915606021881104,-4.651649475097656,6.71201753616333,-0.006904034409672022,0.003970624,0.013133603,10
-4.916421890258789,-4.651144504547119,6.711655616760254,-0.0068258787505328655,0.0021380284,0.004581489,10
-4.917241096496582,-4.650542736053467,6.711239337921143,-0.006701814942061901,-0.0009162978999999999,0.0067195175,10
-4.918031215667725,-4.649764060974121,6.7108402252197275,-0.006532102823257446,0.0015271631,0.012217305,10
-4.918770790100098,-4.648748397827148,6.710516929626465,-0.006323434412479401,-0.0067195175,0.011301007,10
-4.919447898864746,-4.647469997406006,6.710294723510742,-0.006086954846978188,-0.006414085,0.006414085,10
-4.920063018798828,-4.645966529846191,6.71019458770752,-0.005835384130477904,-0.008552114,0.009162978,10
-4.920624256134033,-4.644314765930176,6.71022367477417,-0.005576664581894875,-0.008552114,-0.002443461,10
-4.921152591705322,-4.642545700073242,6.7103705406188965,-0.005309757776558399,0.0027488936,0.013744468000000001,10
-4.921666622161865,-4.640664577484131,6.7105889320373535,-0.005037063267081976,-0.0009162978999999999,0.006414085,10
-4.922146797180176,-4.638735294342041,6.710813999176025,-0.004767197649925947,-0.004581489,0.010690141499999998,10
-4.922556877136231,-4.636877536773682,6.711014270782472,-0.004508359357714653,-0.0070249503,0.011301007,10
-4.922871112823486,-4.635221004486084,6.7112135887146,-0.004260962828993797,-0.005192355,0.014966198,10
-4.923070907592773,-4.633859634399414,6.711463928222656,-0.0040191677398979655,0.0012217305,0.006414085,10
-4.923139572143555,-4.63280200958252,6.711774826049805,-0.0037770865019410853,0.006414085,0.009162978,10
-4.923039436340332,-4.631977081298828,6.712109565734862,-0.0035366299562156205,-0.0021380284,0.009162978,10
-4.922735691070557,-4.631293773651123,6.712446212768555,-0.00330114527605474,-0.00580322,0.014966198,10
-4.922233581542969,-4.630657196044922,6.712813377380371,-0.003071910003200173,0.00061086525,0.0036651915999999997,10
-4.921605587005615,-4.62994909286499,6.713240623474121,-0.0028511418495327234,0.0070249503,0.013439035,10
-4.920970439910889,-4.629063606262207,6.7137298583984375,-0.002654497977346182,0.014355333500000001,0.01038471,10
-4.920440196990967,-4.627972602844238,6.71430253982544,-0.0025032598059624434,-0.0012217305,0.005497787,10
-4.920095443725586,-4.626752853393555,6.715011119842528,-0.0024136623833328485,0.00030543262000000003,0.0070249503,10
-4.9199652671813965,-4.62551212310791,6.7158470153808585,-0.002386566950008273,-0.005497787,0.005192355,10
-4.920037746429443,-4.624332904815674,6.716698169708253,-0.0024180489126592875,0.0125227375,0.008552114,10
-4.920287132263184,-4.6233248710632315,6.717434883117676,-0.002505420008674264,0.004276057,0.008857545999999999,10
-4.920674800872803,-4.622615337371826,6.717987537384032,-0.002640282968059182,-0.004276057,0.008552114,10
-4.92116641998291,-4.622311592102051,6.718348503112793,-0.002801500027999282,0.0067195175,0.004886922,10
-4.9217400550842285,-4.622472763061523,6.718529224395753,-0.0029667997732758518,-0.011301007,0.0076358155,10
-4.922375679016113,-4.623075485229492,6.718568801879883,-0.003122142981737852,-0.010995574,0.021685716,10
-4.923045635223389,-4.623988151550293,6.718562602996826,-0.0032549784518778324,-0.0009162978999999999,0.014966198,10
-4.923706531524658,-4.625006675720215,6.718647003173827,-0.0033583412878215317,-0.010995574,0.0076358155,10
-4.924314022064209,-4.625953674316406,6.718928813934326,-0.003434178186580539,0.0033597588,0.010079277,10
-4.924873352050781,-4.626702785491943,6.719459533691406,-0.003485218388959765,0.00030543262000000003,0.005497787,10
-4.925421237945557,-4.627150535583496,6.720291614532472,-0.0035137850791215897,-0.0036651915999999997,0.002443461,10
-4.92596435546875,-4.627241134643555,6.721437454223633,-0.0035221737343817954,0.006414085,0.009468411,10
-4.926463603973389,-4.626971244812012,6.722823619842528,-0.003512467723339796,0.01038471,0.01160644,10
-4.926863193511963,-4.626380920410156,6.724326133728027,-0.003488944843411445,-0.002443461,0.0067195175,10
-4.927109241485597,-4.625516891479492,6.7258148193359375,-0.003461640328168869,-0.0018325957999999999,0.0018325957999999999,10
-4.9271769523620605,-4.624463081359863,6.727218627929688,-0.0034452052786946297,0.005192355,0.013439035,10
-4.927094459533691,-4.623353481292725,6.728524208068848,-0.0034520088229328394,-0.008246681,0.009162978,10
-4.926911354064941,-4.622323036193848,6.729724407196045,-0.0034865641500800852,-0.0012217305,0.0033597588,10
-4.926671028137207,-4.621439456939697,6.730804443359375,-0.0035417440813034773,-0.0030543262,0.0061086523,10
-4.926407337188722,-4.62067985534668,6.731748580932617,-0.0036083485465496783,0.0036651915999999997,0.008857545999999999,10
-4.926140308380127,-4.61997652053833,6.732551574707031,-0.0036860473919659853,-0.0021380284,0.01282817,10
-4.925897598266602,-4.619283676147461,6.7331976890563965,-0.003770388197153807,0.0018325957999999999,0.008857545999999999,10
-4.925708770751953,-4.618547439575195,6.733672618865968,-0.003852191148325801,0.004886922,0.012217305,10
-4.9256019592285165,-4.617690086364746,6.734010219573975,-0.003928275778889656,0.0012217305,0.007330383,10
-4.925602912902832,-4.61664628982544,6.7343058586120605,-0.003999943844974041,-0.0015271631,0.0036651915999999997,10
-4.925731658935547,-4.615427970886231,6.734708309173584,-0.004070952069014311,-0.0070249503,0.00061086525,10
-4.925980567932129,-4.614109992980957,6.7353572845458975,-0.004146605264395475,-0.0061086523,-0.00030543262000000003,10
-4.926291942596436,-4.61275053024292,6.736274242401122,-0.004228623118251562,0.0030543262,-0.0012217305,10
-4.926570415496826,-4.611393451690674,6.7373409271240225,-0.004326944705098867,0.0061086523,0.013744468000000001,10
-4.926730155944824,-4.610085487365723,6.738387107849121,-0.0044539221562445155,0.002443461,0.018325957,10
-4.926722526550293,-4.608898639678955,6.7392921447753915,-0.004606998525559902,0.0027488936,0.008246681,10
-4.926537990570068,-4.607880592346191,6.7400269508361825,-0.004777249414473772,0.005497787,0.013439035,10
-4.926206111907959,-4.607044219970703,6.740601539611816,-0.0049609742127358905,0.0021380284,0.009468411,10
-4.925790309906006,-4.6063642501831055,6.741038799285889,-0.00515787024050951,0.004276057,0.009773844,10
-4.925359725952148,-4.605786323547363,6.741382598876952,-0.005368772894144058,0.0021380284,0.0021380284,10
-4.924964904785156,-4.605250835418701,6.741700649261475,-0.0056001339107751855,-0.010995574,0.0030543262,10
-4.924630641937256,-4.6047234535217285,6.7420148849487305,-0.005852727219462396,-0.0033597588,0.014660766,10
-4.924374580383301,-4.604205131530762,6.742313861846924,-0.00611047027632594,-0.0030543262,0.0070249503,10
-4.924232006072998,-4.60371208190918,6.742611885070801,-0.006346332840621471,-0.013439035,0.0067195175,10
-4.924204349517822,-4.603227615356445,6.7429399490356445,-0.006532846484333278,-0.00061086525,0.0018325957999999999,10
-4.9242286682128915,-4.602697372436523,6.74332857131958,-0.006656626239418984,0.0021380284,0.008246681,10
-4.924209117889403,-4.602063179016113,6.743764400482178,-0.0067222160287201405,-0.010079277,0.01160644,10
-4.924082279205322,-4.6013145446777335,6.7441959381103525,-0.006742341443896294,-0.0067195175,0.020463986,10
-4.923847198486328,-4.600538730621338,6.744607448577881,-0.00672294944524765,-0.00030543262000000003,0.02076942,10
-4.923527240753174,-4.599852085113525,6.745007514953612,-0.006660476326942444,-0.0012217305,0.016187929,10
-4.9231438636779785,-4.599329948425293,6.745350360870361,-0.006541897542774677,-0.010079277,0.01282817,10
-4.922713279724121,-4.598952770233153,6.7455787658691415,-0.006351814139634371,0.00580322,0.017104227,10
-4.922242164611816,-4.598609447479248,6.745671272277832,-0.006079259794205427,0.005497787,0.009162978,10
-4.921730041503906,-4.598151683807373,6.745628833770753,-0.005723812617361546,0.0061086523,0.007941248,10
-4.921163558959961,-4.597470283508301,6.745466232299805,-0.005308032035827637,0.01038471,0.0076358155,10
-4.920524597167969,-4.5965495109558105,6.745228290557861,-0.00487312488257885,0.005497787,0.015882496,10
-4.91979455947876,-4.5954318046569815,6.744972229003906,-0.0044661625288426885,0.0033597588,0.006414085,10
-4.9190030097961435,-4.594141006469727,6.744689464569093,-0.00412590429186821,0.021991148999999998,0.015882496,10
-4.918239116668701,-4.5926666259765625,6.744370937347412,-0.003879718249663711,0.0033597588,0.005497787,10
-4.917604923248291,-4.591008186340332,6.744001865386963,-0.003738697618246079,0.004276057,0.008552114,10
-4.917138576507568,-4.589198589324951,6.743552684783936,-0.0037051502149552103,0.01160644,0.017104227,10
-4.9168314933776855,-4.587334156036377,6.742964267730713,-0.00378091842867434,0.007330383,0.015882496,10
-4.91668701171875,-4.585545063018799,6.742203712463379,-0.0039647212252020845,0.006414085,0.01160644,10
-4.9167213439941415,-4.583989143371582,6.741281509399414,-0.00423682015389204,-0.004581489,0.014049901000000002,10
-4.916941642761231,-4.58278751373291,6.740232944488525,-0.004562998190522194,-0.002443461,0.0067195175,10
-4.917341232299805,-4.581937313079834,6.739143371582031,-0.004903189837932587,-0.007330383,0.008857545999999999,10
-4.917872905731201,-4.581352710723877,6.738113880157472,-0.005223211832344532,0.003970624,0.0076358155,10
-4.918472766876222,-4.5809502601623535,6.737217903137207,-0.00549998925998807,0.0076358155,0.015271631,10
-4.919049263000488,-4.580647945404053,6.736529350280763,-0.005716281477361918,0.00030543262000000003,0.016493361,10
-4.919504642486572,-4.580353736877441,6.736130714416504,-0.0058548268862068644,0.0021380284,0.014966198,10
-4.919791221618652,-4.580011367797852,6.736070156097412,-0.005894724745303392,-0.0012217305,0.01160644,10
-4.919928550720215,-4.5795626640319815,6.736374378204347,-0.005815977696329354,0.0067195175,0.008857545999999999,10
-4.91996431350708,-4.578948020935059,6.73704719543457,-0.0056106518022716045,0.0012217305,0.011911871999999999,10
-4.919922828674316,-4.578150272369385,6.73804235458374,-0.00528610497713089,0.0027488936,0.0033597588,10
-4.919801712036133,-4.577198028564453,6.739266872406006,-0.004862849600613117,0.0030543262,0.007941248,10
-4.9196295738220215,-4.57612943649292,6.740631103515625,-0.004372258670628071,-0.0033597588,0.008552114,10
-4.919469356536865,-4.575000286102295,6.742077827453612,-0.003849061205983162,0.0030543262,0.010995574,10
-4.9193687438964835,-4.573877334594727,6.743546485900879,-0.003332332707941532,0.0027488936,0.008246681,10
-4.9193382263183585,-4.572800636291504,6.744949817657472,-0.0028534673620015387,-0.004276057,0.0030543262,10
-4.919357776641847,-4.571768283843994,6.746233940124513,-0.002435393864288926,-0.008246681,0.009773844,10
-4.91940975189209,-4.570728778839111,6.7473816871643075,-0.0020898198708891873,-0.003970624,0.013744468000000001,10
-4.919504165649414,-4.569620609283447,6.748373985290527,-0.0018212058348581195,-0.008552114,0.0125227375,10
-4.919658184051514,-4.56842041015625,6.749191284179688,-0.0016324961325153706,-0.0076358155,0.01160644,10
-4.9198951721191415,-4.5671257972717285,6.749824047088622,-0.001522531034424901,-0.0009162978999999999,0.010995574,10
-4.920228958129883,-4.5657453536987305,6.7503113746643075,-0.0014810358406975865,-0.01038471,0.010079277,10
-4.920667171478272,-4.564301013946533,6.750776290893555,-0.0014885722193866966,-0.005497787,0.010690141499999998,10
-4.9212069511413565,-4.562810897827148,6.751368522644043,-0.0015141558833420274,-0.004886922,0.004581489,10
-4.921815395355225,-4.5612754821777335,6.752176761627197,-0.001527787884697318,-0.0027488936,0.015577064,10
-4.9224276542663565,-4.5596957206726065,6.75321102142334,-0.0015138696180656552,-0.005192355,0.016798794,10
-4.9229655265808105,-4.558112621307373,6.754436492919923,-0.0014708481030538678,-0.00580322,0.0033597588,10
-4.9233880043029785,-4.55661153793335,6.755833625793457,-0.0014030481688678265,-0.00030543262000000003,0.0018325957999999999,10
-4.923771381378174,-4.55525016784668,6.757383346557617,-0.0013184950221329927,0.008552114,-0.0021380284,10
-4.924238681793213,-4.554013252258301,6.75902795791626,-0.0012322133406996727,0.0018325957999999999,0.009773844,10
-4.9248223304748535,-4.55283784866333,6.760695457458496,-0.0011622405145317314,0.00030543262000000003,0.005192355,10
-4.925466060638428,-4.551656723022461,6.762325763702393,-0.0011218839790672064,-0.0021380284,0.002443461,10
-4.926087379455566,-4.550450325012207,6.763899803161621,-0.0011167447082698343,-0.004886922,0.0067195175,10
-4.926630973815918,-4.549252986907959,6.765448570251465,-0.00114983890671283,-0.009162978,0.0009162978999999999,10
-4.927052021026611,-4.548102855682373,6.767003536224365,-0.001220994396135211,0.00030543262000000003,0.008552114,10
-4.927305698394775,-4.547045230865479,6.7685747146606445,-0.0013296129181981089,0.004581489,0.005497787,10
-4.927374839782715,-4.5461697578430185,6.770151615142822,-0.001476666540838778,-0.0033597588,0.0067195175,10
-4.92728328704834,-4.545567035675049,6.771730899810791,-0.001659361063502729,0.0030543262,0.0009162978999999999,10
-4.927085876464844,-4.545262336730957,6.773331642150879,-0.001870459411293268,-0.0027488936,0.00580322,10
-4.926830291748047,-4.545220375061035,6.774947166442871,-0.002101537771522999,-0.0018325957999999999,0.008552114,10
-4.926534175872803,-4.545399188995361,6.7765212059021,-0.002342096995562315,-0.0015271631,0.019242255,10
-4.926215648651123,-4.545781135559082,6.777986526489258,-0.0025715783704072237,-0.014049901000000002,0.004581489,10
-4.9258999824523935,-4.546336650848389,6.779336452484131,-0.002764669014140964,-0.0018325957999999999,0.008246681,10
-4.925591945648193,-4.547020435333252,6.780613899230957,-0.002904081251472235,-0.005192355,0.012217305,10
-4.9252610206604,-4.547774314880371,6.781832218170166,-0.002982843434438109,-0.004276057,0.009773844,10
-4.924853801727295,-4.548527240753174,6.782988548278809,-0.002998045645654201,-0.0021380284,-0.00030543262000000003,10
-4.924318313598633,-4.54918909072876,6.7841081619262695,-0.0029523002449423075,-0.004276057,0.0076358155,10
-4.92362642288208,-4.549651145935059,6.785214424133301,-0.0028568434063345194,-0.0018325957999999999,0.0027488936,10
-4.922765731811523,-4.549805641174316,6.786320686340332,-0.0027254866436123852,-0.00580322,0.010079277,10
-4.92172908782959,-4.54955530166626,6.787448406219482,-0.002567238640040159,-0.009162978,0.005192355,10
-4.920522689819336,-4.548840999603272,6.788643836975098,-0.002396261785179377,0.002443461,0.002443461,10
-4.919180393218994,-4.547665596008301,6.789955139160156,-0.002239728812128305,0.004276057,0.00580322,10
-4.917757034301758,-4.546084403991699,6.7913761138916025,-0.0021252091974020004,0.00030543262000000003,0.0036651915999999997,10
-4.916313648223877,-4.54420280456543,6.792815208435059,-0.002075443742796779,0.01282817,0.0027488936,10
-4.914927959442139,-4.542141914367676,6.794121265411378,-0.0021089022047817707,0.007941248,-0.006414085,10
-4.913698196411133,-4.540027141571045,6.795158386230469,-0.002235377673059702,0.004581489,0.009162978,10
-4.912695407867432,-4.537964344024658,6.795881271362305,-0.0024477727711200714,-0.0009162978999999999,0.0067195175,10
-4.911948204040527,-4.5360260009765625,6.796339511871338,-0.0027278519701212645,0.0018325957999999999,0.011301007,10
-4.911462783813477,-4.5342535972595215,6.796589374542236,-0.003058876609429717,-0.008552114,0.01282817,10
-4.911218643188477,-4.532671928405762,6.796677589416504,-0.0034256952349096537,-0.0076358155,0.008552114,10
-4.911160945892334,-4.5313148498535165,6.796668529510497,-0.00381220574490726,-0.002443461,0.0125227375,10
-4.911245346069336,-4.5302391052246085,6.796557903289795,-0.004199940711259842,0.0009162978999999999,0.01038471,10
-4.911447048187256,-4.529472827911377,6.796337127685548,-0.004568311851471663,0.0012217305,0.00580322,10
-4.911718368530273,-4.5289649963378915,6.7960572242736825,-0.004898860119283199,0.008246681,0.0015271631,10
-4.9119873046875,-4.528562545776367,6.795805931091309,-0.005180555395781994,-0.006414085,0.004276057,10
-4.912184715270996,-4.5280728340148935,6.795673847198486,-0.005408860743045807,0.007941248,0.0018325957999999999,10
-4.9122395515441895,-4.527354717254639,6.79572057723999,-0.005587850231677294,0.0070249503,0.008857545999999999,10
-4.91209602355957,-4.526378631591797,6.795950889587402,-0.005732687655836344,-0.005192355,0.007941248,10
-4.911731243133545,-4.525250434875488,6.7963056564331055,-0.0058597815223038205,0.0036651915999999997,0.011301007,10
-4.911139011383057,-4.524128437042236,6.7967047691345215,-0.005983785260468721,0.0018325957999999999,0.0027488936,10
-4.910323619842528,-4.523111820220947,6.7970967292785645,-0.006111826281994581,0.0012217305,0.018020526000000002,10
-4.909339427947998,-4.5222134590148935,6.7974891662597665,-0.00624882848933339,-0.00030543262000000003,0.005192355,10
-4.9082679748535165,-4.521422863006592,6.797889232635497,-0.006394803524017334,0.0015271631,0.0070249503,10
-4.9071946144104,-4.520699501037598,6.798247814178468,-0.006543568801134825,0.0027488936,0.01160644,10
-4.906198024749756,-4.519968032836914,6.7984886169433585,-0.006688960362225771,0.004886922,0.008552114,10
-4.905345916748047,-4.519153594970703,6.7985782623291025,-0.006825556978583336,-0.0030543262,0.0076358155,10
-4.9047017097473145,-4.51823091506958,6.798569679260254,-0.006944829598069191,0.004581489,0.011911871999999999,10
-4.904322147369385,-4.517218589782715,6.798549175262451,-0.007039662916213273,-0.008552114,0.007941248,10
-4.904229640960693,-4.516151428222656,6.798613548278809,-0.007104146294295788,-0.00030543262000000003,0.014660766,10
-4.904419422149658,-4.515035152435303,6.798842430114746,-0.0071268901228904715,0.004886922,0.010690141499999998,10
-4.904890060424805,-4.513826370239258,6.799301624298097,-0.0071048857644200325,-0.005192355,0.004886922,10
-4.905620098114014,-4.5124855041503915,6.800029754638673,-0.007045212667435408,0.0033597588,0.00580322,10
-4.906533241271973,-4.511054515838623,6.800997257232666,-0.00695796636864543,-0.0033597588,0.004581489,10
-4.907524585723877,-4.509654998779297,6.8021159172058105,-0.00685505010187626,0.00061086525,0.015577064,10
-4.908492565155028,-4.508414268493652,6.803269863128662,-0.006746766157448292,0.0021380284,0.01160644,10
-4.909353256225586,-4.507394313812256,6.804327964782715,-0.006635430734604597,-0.004276057,0.01985312,10
-4.910074710845947,-4.506617546081543,6.805177688598633,-0.006520064081996679,-0.0036651915999999997,0.011911871999999999,10
-4.910669803619385,-4.506108283996582,6.805738925933838,-0.006403014995157719,0.0009162978999999999,0.009162978,10
-4.911166191101074,-4.505875110626222,6.805989742279053,-0.006292092148214579,-0.0033597588,0.008857545999999999,10
-4.911606311798097,-4.505874633789063,6.805971145629883,-0.00619246531277895,0.0012217305,0.009773844,10
-4.912032127380371,-4.506036281585693,6.805768013000487,-0.006106600165367127,0.0036651915999999997,0.0061086523,10
-4.91246509552002,-4.506285190582275,6.805477619171143,-0.006040457636117935,0.0021380284,0.014966198,10
-4.912896156311035,-4.506560802459717,6.8051838874816895,-0.005992261692881584,-0.004581489,0.0061086523,10
-4.913303852081299,-4.506803512573242,6.804952621459961,-0.005955073982477188,0.0009162978999999999,0.01740966,10
-4.913681507110597,-4.5069236755371085,6.8048295974731445,-0.005928127560764551,-0.0012217305,0.0021380284,10
-4.914045333862305,-4.506878852844238,6.8048033714294425,-0.005915520247071981,0.004581489,0.012217305,10
-4.914376735687256,-4.506714344024658,6.8048744201660165,-0.005920784547924995,-0.0012217305,0.01038471,10
-4.9146080017089835,-4.5065226554870605,6.805084705352782,-0.005945365875959396,0.002443461,0.006414085,10
-4.9146761894226065,-4.506379127502441,6.805466175079347,-0.005987528711557388,0.0015271631,0.008246681,10
-4.9145469665527335,-4.506294250488281,6.806040287017822,-0.006043979432433844,-0.0021380284,0.009773844,10
-4.9142189025878915,-4.5061988830566415,6.806814193725586,-0.006113810930401087,-0.0067195175,0.008857545999999999,10
-4.913714408874512,-4.5060086250305185,6.807751178741455,-0.006196856964379549,0.0012217305,0.011301007,10
-4.913072109222412,-4.505679130554199,6.80879020690918,-0.006293998099863529,-0.004886922,0.015882496,10
-4.912336826324463,-4.505226135253906,6.8098626136779785,-0.006398432422429322,0.01038471,0.017715093,10
-4.911561489105225,-4.504702568054199,6.810939311981201,-0.0064983703196048745,0.0021380284,0.01038471,10
-4.910799980163574,-4.504149436950684,6.8120460510253915,-0.006578423082828522,-0.0033597588,0.007330383,10
-4.910083293914795,-4.503595352172852,6.813190460205077,-0.00662688072770834,-0.0036651915999999997,0.007330383,10
-4.909421920776367,-4.503037452697754,6.814323902130128,-0.006639985367655754,-0.005497787,0.01863139,10
-4.908824443817139,-4.502410888671875,6.81537389755249,-0.006617262028157711,0.007330383,0.018020526000000002,10
-4.908307075500488,-4.501611709594727,6.8162922859191895,-0.0065635922364890575,-0.005192355,0.0033597588,10
-4.907886028289795,-4.500593185424805,6.8170671463012695,-0.006486286874860525,-0.00030543262000000003,0.008552114,10
-4.9075584411621085,-4.499378204345703,6.817709445953369,-0.006392761133611202,0.010690141499999998,0.018936822,10
-4.907310962677002,-4.498038768768311,6.818217277526856,-0.006292989943176508,0.014355333500000001,0.0021380284,10
-4.907152652740479,-4.496666431427002,6.818565368652344,-0.006193999666720629,0.01038471,0.013439035,10
-4.907132148742676,-4.495352745056152,6.818711757659912,-0.006100586149841547,0.004886922,0.00580322,10
-4.90731143951416,-4.49420690536499,6.818642139434815,-0.006018652115017176,0.00061086525,0.010690141499999998,10
-4.907720565795898,-4.493311882019043,6.818375587463379,-0.005951071158051491,0.0015271631,0.01160644,10
-4.9083571434021,-4.492654800415039,6.817935466766357,-0.0059019792824983605,-0.0021380284,0.0061086523,10
-4.909190654754639,-4.492178916931152,6.8173418045043945,-0.005877023097127676,-0.017715093,0.004276057,10
-4.91016960144043,-4.491859436035156,6.816634178161621,-0.005874234717339277,-0.0036651915999999997,0.011911871999999999,10
-4.911225318908691,-4.491678714752197,6.815889358520508,-0.005884683225303888,-0.0012217305,0.01160644,10
-4.912269115447998,-4.4915971755981445,6.815165996551514,-0.005903666373342276,-0.004276057,0.0125227375,10
-4.913238048553467,-4.4915947914123535,6.8144612312316895,-0.005929321050643921,-0.0067195175,0.013744468000000001,10
-4.914117813110352,-4.491675853729248,6.813780784606934,-0.00595540925860405,-0.004276057,0.0125227375,10
-4.914929389953613,-4.491836071014403,6.813171863555907,-0.005970044992864132,0.002443461,0.009468411,10
-4.91569185256958,-4.492033958435059,6.812693595886231,-0.005958800669759512,0.0036651915999999997,0.003970624,10
-4.916418075561523,-4.492190361022949,6.812390327453612,-0.005915668793022633,-0.0027488936,0.010690141499999998,10
-4.917126178741455,-4.492215156555176,6.8122758865356445,-0.005843597464263439,0.0027488936,0.0027488936,10
-4.917830467224121,-4.492022037506104,6.81233024597168,-0.005748961586505175,-0.004886922,0.010995574,10
-4.918537616729736,-4.49153995513916,6.812512874603272,-0.005643252283334732,0.0015271631,0.010995574,10
-4.919241428375244,-4.490754127502441,6.8127708435058585,-0.005542139522731304,-0.008857545999999999,0.002443461,10
-4.919922828674316,-4.48972225189209,6.813056468963622,-0.0054558105766773215,-0.0061086523,0.010995574,10
-4.920567512512207,-4.488550662994385,6.813302516937256,-0.005388875026255846,0.010690141499999998,0.017715093,10
-4.921181201934815,-4.487328052520752,6.81342887878418,-0.005342897027730942,-0.0009162978999999999,0.0030543262,10
-4.92180061340332,-4.486098766326903,6.813400745391847,-0.0053225522860884675,-0.00030543262000000003,0.012217305,10
-4.922471523284912,-4.484885215759277,6.813240051269531,-0.0053338175639510155,0.007330383,0.014049901000000002,10
-4.923196315765381,-4.48371696472168,6.812992572784424,-0.005380182061344385,0.004276057,0.012217305,10
-4.92391300201416,-4.4826340675354,6.812704563140869,-0.005462537053972483,-0.0036651915999999997,0.003970624,10
-4.924551963806152,-4.481661319732666,6.812424182891847,-0.005576628260314465,0.006414085,0.0070249503,10
-4.925092697143555,-4.480782985687256,6.812211513519287,-0.005714274011552335,0.0061086523,0.004581489,10
-4.925560474395752,-4.479973793029785,6.812150478363037,-0.005865272600203753,-0.0030543262,0.0076358155,10
-4.9259610176086435,-4.479210376739502,6.812297344207764,-0.006017946638166904,-0.00030543262000000003,0.00580322,10
-4.92623233795166,-4.478487014770508,6.812652111053468,-0.006164628081023693,0.004276057,0.013439035,10
-4.926301956176758,-4.477823257446289,6.81317663192749,-0.0063114739023149005,0.00061086525,0.00580322,10
-4.926152229309082,-4.477245330810547,6.813811779022218,-0.006467613857239485,-0.005497787,0.008246681,10
-4.925803184509277,-4.476798534393311,6.814510822296143,-0.0066390023566782475,0.0018325957999999999,0.010690141499999998,10
-4.92529296875,-4.476517200469972,6.815224647521973,-0.006824564654380083,0.005192355,0.0067195175,10
-4.924666404724121,-4.476366996765137,6.81588888168335,-0.007017105352133513,-0.0033597588,0.009773844,10
-4.923966407775879,-4.476263523101807,6.816458702087402,-0.007209232077002525,0.005497787,0.011911871999999999,10
-4.923215389251709,-4.476137161254883,6.816914081573486,-0.007399799302220344,0.00580322,0.013744468000000001,10
-4.922417640686035,-4.475973606109619,6.817267417907715,-0.007592667359858751,0.002443461,0.010995574,10
-4.921591758728027,-4.475790500640869,6.81756067276001,-0.007791395764797927,-0.0021380284,0.007330383,10
-4.92078161239624,-4.475599765777588,6.817850589752197,-0.007989799603819847,-0.0061086523,0.007330383,10
-4.920048236846924,-4.475419998168945,6.818207263946532,-0.008175653405487537,-0.0027488936,0.0021380284,10
-4.919418811798097,-4.4752774238586435,6.81870698928833,-0.008333388715982437,0.0009162978999999999,0.007941248,10
-4.9188575744628915,-4.475203514099121,6.819367408752441,-0.008450481109321117,0.0030543262,0.004581489,10
-4.918313503265381,-4.475180149078369,6.8201231956481925,-0.008520936593413353,0.0036651915999999997,0.00030543262000000003,10
-4.917768955230713,-4.4751553535461435,6.820889472961426,-0.008553298190236092,0.011301007,0.010079277,10
-4.91722583770752,-4.4750657081604,6.821587562561035,-0.00856868177652359,0.0036651915999999997,0.009162978,10
-4.916716575622559,-4.474845409393311,6.82218074798584,-0.008588192984461784,0.01038471,0.007941248,10
-4.916296005249023,-4.474442958831787,6.8226661682128915,-0.008629942312836647,0.0061086523,-0.0027488936,10
-4.916007995605469,-4.4738430976867685,6.823054313659668,-0.008707615546882153,0.010690141499999998,0.010995574,10
-4.915865898132324,-4.473059177398682,6.82337760925293,-0.008824123069643974,0.014049901000000002,0.012217305,10
-4.915863513946533,-4.472143173217773,6.823637008666992,-0.0089776162058115,0.009468411,0.010690141499999998,10
-4.915992259979248,-4.471182346343994,6.823802471160889,-0.009168185293674469,0.014966198,0.015577064,10
-4.9162631034851065,-4.470282554626465,6.8238487243652335,-0.009394977241754532,0.008246681,0.00580322,10
-4.916713237762451,-4.469536781311035,6.823765277862549,-0.00965285301208496,0.007330383,0.014049901000000002,10
-4.917388916015625,-4.46901273727417,6.8235273361206055,-0.00993451848626137,0.0030543262,0.0061086523,10
-4.918313026428223,-4.4688005447387695,6.823058128356934,-0.010231141932308674,0.0021380284,0.007941248,10
-4.919465065002441,-4.46896505355835,6.8222999572753915,-0.01053023710846901,-0.010690141499999998,0.014355333500000001,10
-4.920827388763428,-4.46946907043457,6.821275234222412,-0.010814475826919079,-0.004886922,0.01038471,10
-4.922391414642334,-4.470194816589356,6.820093631744385,-0.011065009050071241,0.0012217305,0.0036651915999999997,10
-4.924126148223877,-4.4710307121276855,6.818905830383301,-0.011265487410128115,-0.009773844,-0.00061086525,10
-4.925958156585693,-4.471907138824463,6.817795276641847,-0.011406457051634787,-0.0009162978999999999,0.013439035,10
-4.927773475646973,-4.4728102684021,6.816741466522218,-0.011480292305350305,-0.0027488936,0.013133603,10
-4.929478168487549,-4.473773002624512,6.815662860870361,-0.011472892016172407,-0.013744468000000001,0.004581489,10
-4.931007385253906,-4.474804401397705,6.814517021179199,-0.011369161307811735,-0.0076358155,0.004886922,10
-4.9323158264160165,-4.475827693939209,6.8133320808410645,-0.011167237535119057,0.00580322,0.011911871999999999,10
-4.933357238769531,-4.476714611053467,6.8121843338012695,-0.010884948074817656,0.007941248,0.008552114,10
-4.934051513671875,-4.4773454666137695,6.8111724853515625,-0.010550819337368013,0.004886922,0.0061086523,10
-4.934318065643311,-4.477617263793945,6.810362815856934,-0.010197629220783709,0.011911871999999999,0.014049901000000002,10
-4.934122562408447,-4.477452754974365,6.8097591400146475,-0.009864332154393196,0.009773844,0.017715093,10
-4.933504104614258,-4.476850986480713,6.8093204498291025,-0.009589145891368387,0.008552114,0.01038471,10
-4.93256139755249,-4.475883483886719,6.808993339538574,-0.009398942813277245,0.003970624,0.010995574,10
-4.931421279907227,-4.474673271179199,6.808738708496094,-0.009307711385190487,0.01038471,0.014355333500000001,10
-4.930208683013916,-4.473363399505615,6.80853796005249,-0.00932344049215317,0.01282817,0.014049901000000002,10
-4.929018497467041,-4.472108364105225,6.808369159698486,-0.009448056109249592,0.008552114,0.0061086523,10
-4.927927494049072,-4.4710659980773935,6.808229446411133,-0.0096733458340168,0.00030543262000000003,0.005192355,10
-4.926995754241943,-4.470323085784912,6.808126926422119,-0.009978595189750195,0.013133603,0.015882496,10
-4.926259994506836,-4.469857215881348,6.808043479919434,-0.010333439335227013,-0.002443461,0.011911871999999999,10
-4.925726890563965,-4.469593524932861,6.807937145233153,-0.010706471279263495,-0.0018325957999999999,0.014660766,10
-4.925417423248291,-4.469467639923097,6.807803153991699,-0.011067711748182774,-0.0036651915999999997,0.014660766,10
-4.925354957580566,-4.469444274902344,6.807680606842041,-0.011382000520825386,-0.009468411,0.0076358155,10
-4.925549507141113,-4.469465732574463,6.80760383605957,-0.011613750830292702,0.003970624,0.019547688,10
-4.925989627838135,-4.469408512115479,6.8075947761535645,-0.01173381507396698,0.0036651915999999997,0.010995574,10
-4.9266037940979,-4.4691314697265625,6.807667255401611,-0.011731184087693693,0.00061086525,0.010079277,10
-4.927274703979492,-4.468565940856934,6.8077898025512695,-0.011610233224928379,0.010995574,0.0125227375,10
-4.92789363861084,-4.467734336853027,6.807899475097656,-0.011388541199266909,0.009773844,0.016493361,10
-4.92840576171875,-4.46672248840332,6.807971477508545,-0.011089615523815157,0.0036651915999999997,0.0070249503,10
