acc_x,acc_y,acc_z,gyro_x,gyro_y,gyro_z,label
0.0,0.0,0.0,0.0,-0.020158553,0.036651913,1
-1.1872526295420016e-09,1.682334804797847e-08,-4.495187208575224e-11,-4.3020483009303945e-11,-0.02443461,0.03481932,1
-2.3512203028985826e-07,3.342559466545936e-06,-1.1898199758775265e-08,-8.230931491937099e-09,-0.0015271631,0.027183503,1
-5.674780368281063e-06,8.092947246041149e-05,-3.5741828696700395e-07,-1.7156968112885804e-07,0.00580322,0.033292156,1
-5.108264303999022e-05,0.000730727391783148,-3.829767592833377e-06,-1.22814333280985e-06,0.00580322,0.032375857,1
-0.00025755102979019284,0.0036951988004148006,-2.233178929600399e-05,-4.694145445682807e-06,0.00580322,0.03940081,1
-0.0008893446647562088,0.012797249481081964,-8.741556666791439e-05,-1.1713788808265234e-05,-0.004581489,0.05100725,1
-0.0023616421967744827,0.034081660211086266,-0.0002593101526144892,-2.0673165636253547e-05,-0.009773844,0.064751714,1
-0.005187024362385273,0.0750725269317627,-0.0006292186444625257,-2.5482055207248777e-05,0.0015271631,0.0571159,1
-0.009889532811939716,0.1435484141111374,-0.0013141100062057376,-1.5466830518562347e-05,0.0076358155,0.054367006,1
-0.016922602429986,0.2463544458150864,-0.002446706872433424,2.437383409414906e-05,0.0009162979,0.0571159,1
-0.026613282039761543,0.3885631859302521,-0.004149222746491432,0.00011188762437086552,0.0061086523,0.069027774,1
-0.03914259001612663,0.5730605721473694,-0.006436692550778389,0.00026549864560365677,0.029932396,0.064446285,1
-0.05454450473189354,0.8004840016365051,-0.009204768575727941,0.000501982809510082,0.04520403,0.06505715,1
-0.07271265238523482,1.0694081783294678,-0.012385073117911816,0.0008331864955835044,0.07299839999999999,0.06261369,1
-0.09342265874147417,1.3766860961914062,-0.016060248017311096,0.001263637677766383,0.076052725,0.04886922,1
-0.11635688692331315,1.7178500890731812,-0.02048996463418007,0.0017906647408381104,0.0711658,0.03940081,1
-0.14113087952136993,2.0875105857849117,-0.026031725108623505,0.0024054255336523056,0.05772676700000001,0.027488936,1
-0.1673237681388855,2.479731798171997,-0.03298233076930046,0.003093088511377573,0.029321533,0.015271631,1
-0.19449809193611145,2.8883726596832275,-0.04141291603446007,0.0038317444268614045,0.018325957,0.010690141499999998,1
-0.22221796214580536,3.307364225387573,-0.05108227580785751,0.004592085722833872,0.015271631,0.00061086525,1
-0.25007107853889465,3.730926990509033,-0.0614507868885994,0.005337740760296583,-0.004581489,-0.01282817,1
-0.2776825726032257,4.153738498687743,-0.0717771127820015,0.006025791633874178,-0.03481932,-0.019547688,1
-0.30472031235694885,4.571060657501222,-0.08128853887319565,0.006607254035770893,-0.056199603,-0.03940081,1
-0.3308824896812439,4.978819370269775,-0.08940552920103073,0.007027766201645136,-0.05772676700000001,-0.056199603,0
-0.3558768630027771,5.373635768890381,-0.09593384712934494,0.007229242008179426,-0.050701816,-0.071776666,0
-0.3794148862361908,5.752821445465088,-0.10113655030727386,0.0071516577154397964,-0.03940081,-0.08521569999999999,0
-0.4012217819690704,6.1143436431884775,-0.10567790269851683,0.00673213042318821,-0.04642576,-0.11148291,0
-0.4210525155067444,6.4567718505859375,-0.1104738786816597,0.005901238415390253,-0.050396383,-0.14202617,0
-0.4387073516845703,6.779206275939941,-0.11650292575359344,0.004577348474413157,-0.064751714,-0.16310102,0
-0.454044759273529,7.081215858459473,-0.12461499124765395,0.002664636354893446,-0.032070424,-0.21227567,0
-0.4670034646987915,7.362743854522705,-0.13535691797733307,5.566204345086591e-05,-0.020158553,-0.27091873,0
-0.4776267409324646,7.6239871978759775,-0.14885897934436798,-0.0033727302215993404,-0.11881329,-0.33505958,0
-0.4860577285289765,7.865315914154053,-0.16485825181007385,-0.007769362535327674,-0.27183503,-0.38240165,0
-0.4925161302089691,8.087240219116211,-0.1828499436378479,-0.013327311724424362,-0.34177909999999995,-0.39095375,0
-0.4972834885120392,8.290401458740233,-0.20230300724506375,-0.0202967282384634,-0.29138273,-0.43096542,0
-0.5006810426712036,8.475544929504395,-0.22284312546253204,-0.028971083462238312,-0.20525073,-0.49327368,0
-0.5030281543731691,8.64341926574707,-0.2443433851003647,-0.03965326771140098,-0.22296582,-0.5491679,0
-0.5045863986015321,8.794673919677733,-0.2668757438659668,-0.05262591689825058,-0.31612277,-0.4908302,0
-0.5054927468299866,8.92979621887207,-0.29056409001350403,-0.06812859326601027,-0.3549127,-0.43493605,0
-0.5057328939437866,9.049073219299316,-0.31542620062828064,-0.08632286638021469,-0.441961,-0.47403142,0
-0.5051748156547546,9.152580261230467,-0.34123122692108154,-0.10726924985647203,-0.40653083,-0.51251596,0
-0.5036365389823914,9.240184783935547,-0.3673909604549408,-0.1309482604265213,-0.35277468,-0.5720753000000001,0
-0.5009570121765137,9.311613082885742,-0.3929050266742706,-0.15729546546936035,-0.28710666,-0.6026186,0
-0.4970559179782867,9.366607666015623,-0.4163586497306824,-0.1862381100654602,-0.24648413,-0.59986967,0
-0.4919901192188263,9.405121803283693,-0.4359860420227051,-0.21772105991840365,-0.12644911,-0.6469063,0
-0.4860449731349945,9.42745590209961,-0.4498136937618256,-0.25171536207199097,-0.09773844,-0.5873469,0
-0.4798244535923004,9.434240341186523,-0.4558640122413635,-0.2882227897644043,-0.16340645,-0.5006041,0
-0.4742741286754608,9.426227569580078,-0.4523468613624573,-0.3272507786750793,-0.21410827,-0.47128254,0
-0.470637857913971,9.404000282287598,-0.43774029612541204,-0.3687618672847748,-0.22052236,-0.46089783,0
-0.4703656136989594,9.367822647094727,-0.4107721447944641,-0.4126512408256531,-0.26542094,-0.55863625,0
-0.4749913513660431,9.317729949951172,-0.3703616261482239,-0.4587609767913818,-0.30787608,-0.6426301999999999,0
-0.4859623610973358,9.253824234008787,-0.31561583280563354,-0.5069317221641539,-0.31764993,-0.68294734,0
-0.5044318437576294,9.176523208618164,-0.2459421008825302,-0.5570251941680908,-0.27091873,-0.7134906,0
-0.5310617685317993,9.08661651611328,-0.16119518876075745,-0.6088772416114807,-0.08827003,-0.7452555999999999,0
-0.5659582018852234,8.985198974609375,-0.06173748895525932,-0.6622536778450012,0.04734206,-0.74372846,0
-0.6087817549705505,8.87362003326416,0.0516362339258194,-0.7168487906455994,0.18570304,-0.67347896,0
-0.6589136719703674,8.753499031066895,0.17792019248008728,-0.7723140716552734,0.09162979,-0.62125,0
-0.7155840396881104,8.626738548278809,0.3161204755306244,-0.828281819820404,0.20677789,-0.60903263,0
-0.7780016660690308,8.495528221130371,0.4653457999229431,-0.884377658367157,0.2910773,-0.7440339,0
-0.8455781340599059,8.362323760986326,0.6248611807823181,-0.940230906009674,0.19058995,-0.93034774,0
-0.9181451201438904,8.229782104492188,0.7941300272941589,-0.9954777956008912,-0.087659165,-0.981355,0
-0.9959993362426758,8.100635528564451,0.9728211164474488,-1.049777626991272,-0.26022860000000003,-1.0079277,0
-1.0797442197799685,7.97749662399292,1.160730481147766,-1.1028405427932741,-0.29810223,-1.0189233,0
-1.1700423955917358,7.862644672393799,1.3576253652572632,-1.1544357538223269,-0.28985557,-1.0955868,0
-1.2673628330230713,7.757847309112549,1.5630911588668823,-1.204369068145752,-0.43493605,-1.2089024,0
-1.3717621564865112,7.664353370666504,1.7763986587524414,-1.2524662017822266,-0.28099802,-1.0253373,0
-1.482736587524414,7.583094120025635,1.9956036806106567,-1.298653244972229,-0.44623706,-0.9932669,0
-1.5992975234985352,7.5141544342041025,2.217172384262085,-1.343041181564331,-0.3213151,-0.98746365,0
-1.7201714515686035,7.456362247467041,2.437185764312744,-1.3859212398529053,-0.28771752,-0.9428705,0
-1.844054102897644,7.407516002655028,2.652353286743164,-1.4277143478393557,-0.31826079999999995,-0.84421575,0
-1.969754934310913,7.36477518081665,2.8605244159698486,-1.4688818454742432,-0.35705075,-0.782213,0
-2.096289873123169,7.325131893157959,3.0608425140380864,-1.5098373889923096,-0.49968776,-0.7021896,0
-2.2229785919189453,7.285763740539551,3.2536110877990723,-1.5508891344070437,-0.6618725000000001,-0.6337727,0
-2.3494081497192383,7.244120121002197,3.4399619102478027,-1.592214822769165,-0.6805039,-0.61575216,0
-2.4753074645996094,7.198012351989746,3.621294021606445,-1.6338627338409424,-0.79351395,-0.7351763000000001,0
-2.6003706455230717,7.145692825317383,3.7985799312591553,-1.6757895946502686,-0.5934556,-0.8176431,0
-2.723999500274658,7.085665225982666,3.9720270633697514,-1.7178907394409182,-0.54336464,-0.59773165,0
-2.844938039779663,7.016525745391847,4.140953063964844,-1.75997793674469,-0.6536258,-0.5012149,0
-2.9611239433288574,6.9370174407958975,4.30379056930542,-1.801743745803833,-0.5635232,-0.2519819,0
-3.069910287857056,6.846147060394287,4.458216190338135,-1.8427141904830933,-1.171945,0.36774087,0
-3.1686038970947266,6.743309020996094,4.601701736450195,-1.8821831941604612,-1.346347,1.6673566999999998,0
-3.255284070968628,6.6280574798583975,4.733088970184326,-1.919017314910889,1.7467692,1.2690725,0
-3.3285338878631587,6.498857498168945,4.854720115661621,-1.9512627124786377,0.2049453,-0.84696466,0
-3.388213396072388,6.35073184967041,4.972669124603272,-1.9764742851257324,-0.32253686,-2.2327125,0
-3.436729907989502,6.174140930175781,5.093896389007568,-1.9926615953445437,1.237613,-1.6136005,0
-3.477726459503174,5.957348823547362,5.22280216217041,-1.9986703395843504,0.3408628,0.094989546,0
-3.513768434524536,5.691559314727782,5.360115051269531,-1.9941943883895876,-0.75900006,0.27916542,0
-3.5453755855560303,5.37506628036499,5.503550052642822,-1.9795486927032468,0.10720685,-0.06352998,0
-3.5717754364013667,5.014651298522949,5.648905277252197,-1.9552838802337649,1.1429288,-0.32589662,0
-3.591736316680908,4.623780727386475,5.791158199310303,-1.921838998794556,0.9089675,-0.074830994,0
-3.6038272380828857,4.218449115753174,5.925691604614258,-1.879407286643982,-0.056505036,0.10293079,0
-3.606907606124878,3.812563419342041,6.049607276916504,-1.8280274868011477,-0.18448131,-0.15149458,0
-3.600843906402588,3.414851427078247,6.162407398223878,-1.7678782939910889,0.24831672,-0.4382958,0
-3.586573839187622,3.0282444953918457,6.265662670135497,-1.699586033821106,0.40042216,-0.46609017,0
-3.565406322479248,2.6510188579559326,6.362159252166747,-1.624321699142456,0.5103779,-0.4578435,0
-3.5382595062255864,2.2787272930145264,6.45492696762085,-1.5436749458312988,0.54367006,-0.15577064,0
-3.505249500274658,1.9064693450927732,6.546522617340088,-1.4594146013259888,0.32406402,0.26633725,0
-3.465827465057373,1.5309509038925169,6.638712406158447,-1.373266100883484,0.18967366,0.25686884,0
-3.4194352626800537,1.1515668630599976,6.732463836669923,-1.2867443561553955,0.33536503,0.038179077,0
-3.366107940673828,0.770202100276947,6.828081130981445,-1.201072335243225,0.42241332,-0.03726278,0
-3.3066310882568364,0.3901993930339813,6.925323963165282,-1.1171833276748655,0.25686884,-0.032986723,0
-3.242448091506958,0.015256824903190138,7.023452758789063,-1.0357524156570437,0.35399640000000004,0.15454891,0
-3.1754729747772217,-0.35132357478141785,7.121253490447997,-0.9572466015815736,0.5900958000000001,0.3747658,0
-3.107739925384521,-0.7068871259689331,7.217044353485107,-0.8819894790649414,0.61544675,0.64812803,0
-3.04097580909729,-1.0493402481079102,7.308810234069824,-0.8101741075515747,0.46028697,0.88422745,0
-2.976402759552002,-1.376868486404419,7.394498825073242,-0.741836667060852,0.16737708,1.0595458,0
-2.914979219436645,-1.6876529455184937,7.472397327423097,-0.6768370866775513,0.027794369,0.8921687,0
-2.8578662872314453,-1.979715704917908,7.541525840759277,-0.6148810386657715,0.15363261,0.48991394,0
-2.8066961765289307,-2.2509775161743164,7.601857662200928,-0.5556049942970276,0.3136793,0.2669481,0
-2.763394832611084,-2.4995689392089844,7.654204368591309,-0.4986994564533234,0.25320363,0.2565634,0
-2.7298047542572017,-2.7241671085357666,7.699935436248778,-0.4439849555492401,0.09773844,0.27397305,0
-2.7074403762817383,-2.924139976501465,7.740724086761475,-0.39140522480010986,-0.014660766,0.24617869,0
-2.69742488861084,-3.0994291305541988,7.778308391571045,-0.3409870564937592,-0.061086524,0.17104226,0
-2.700490474700928,-3.2503011226654053,7.814272403717041,-0.2928163707256317,-0.05222898,0.073303826,0
-2.716960191726685,-3.3771770000457764,7.8498597145080575,-0.2470392733812332,-0.0027488936,0.019547688,0
-2.746694564819336,-3.4806113243103027,7.8858299255371085,-0.20386354625225067,-0.02107485,-0.009773844,0
-2.789055347442627,-3.561345100402832,7.922422885894775,-0.16353507339954376,-0.044593163,-0.020463986,0
-2.8429491519927983,-3.620317459106445,7.959461212158202,-0.1262960582971573,-0.05375614,-0.030848695,0
-2.9069674015045166,-3.658602237701416,7.9965553283691415,-0.0923433005809784,-0.105374254,-0.04734206,0
-2.979557752609253,-3.6773440837860103,8.033302307128906,-0.061800695955753326,-0.1423316,-0.069027774,0
-3.059153318405152,-3.6777288913726807,8.069387435913086,-0.034713029861450195,-0.17562376,-0.070554934,0
-3.144216060638428,-3.660976409912109,8.104596138000487,-0.011050372384488584,-0.19792034,-0.06536258,0
-3.2331845760345463,-3.62834358215332,8.138768196105957,0.009288218803703785,-0.23365596,-0.027794369,0
-3.3244075775146484,-3.5811450481414795,8.171754837036133,0.02646439149975777,-0.24617869,-0.01985312,0
-3.416141986846924,-3.5207748413085938,8.20338249206543,0.04068203642964363,-0.21563543,-0.009773844,0
-3.5066208839416504,-3.4487102031707764,8.233430862426758,0.05217105150222778,-0.17348573,-0.010995574,10
-3.5941562652587886,-3.366504907608032,8.261697769165039,0.06117729842662811,-0.14813483,-0.022602014,10
-3.6772265434265137,-3.2757816314697266,8.288077354431152,0.06795820593833922,-0.14294247,-0.02565634,10
-3.754502534866333,-3.178210735321045,8.312596321105957,0.07277616113424301,-0.13164146,-0.028710667,10
-3.824839591979981,-3.0754740238189697,8.335371017456055,0.07588760554790497,-0.10476339,-0.03756821,10
-3.8872807025909424,-2.9692132472991943,8.35655689239502,0.07753201574087143,-0.059864793,-0.048258353,10
-3.9410927295684814,-2.8609910011291504,8.376290321350098,0.07792343944311142,-0.061086524,-0.10720685,10
-3.985807180404663,-2.7523043155670166,8.394680976867676,0.077248215675354,0.01038471,-0.115453534,10
-4.0212388038635245,-2.6446213722229004,8.411832809448242,0.07566679269075394,0.044898596,-0.08735373,10
-4.047471046447754,-2.539393901824951,8.427864074707031,0.0733148455619812,0.03390302,-0.064751714,10
-4.064818382263184,-2.4380128383636475,8.442898750305176,0.07030341029167175,0.038179077,-0.06169739,10
-4.073793411254884,-2.3417305946350098,8.457048416137695,0.06672298163175583,0.057421334,-0.04184427,10
-4.0750999450683585,-2.2516026496887207,8.47039794921875,0.06265439838171005,0.017104227,-0.03940081,10
-4.069626808166504,-2.1684589385986333,8.48299503326416,0.05817888677120209,-0.0012217305,-0.027794369,10
-4.058424949645996,-2.0928702354431152,8.494861602783201,0.05338366329669952,0.007330383,-0.002443461,10
-4.042658805847168,-2.0251085758209233,8.505990028381348,0.048365902155637734,0.03023783,0.009773844,10
-4.023515701293944,-1.965141773223877,8.516336441040039,0.04323337972164154,0.040317107000000005,0.024740042,10
-4.002119541168213,-1.912670850753784,8.525839805603027,0.038097426295280463,0.012217305,0.040927973,10
-3.979467630386353,-1.8671958446502688,8.534440040588379,0.033062078058719635,0.0018325958,0.053450707,10
-3.956404209136963,-1.8280880451202397,8.54210376739502,0.02821685187518597,0.0027488936,0.04917465,10
-3.933619737625122,-1.794657826423645,8.548824310302733,0.023633051663637158,0.025045475,0.04886922,10
-3.9116590023040767,-1.766210436820984,8.554630279541017,0.01936136558651924,0.022296581,0.04795292,10
-3.890937328338623,-1.742090940475464,8.559574127197267,0.015432684682309628,0.014966198,0.03848451,10
-3.871758937835693,-1.7217154502868652,8.563730239868164,0.011863079853355885,0.010079277,0.03634648,10
-3.8543219566345215,-1.7045820951461792,8.56718921661377,0.00865860003978014,0.01160644,0.035430185,10
-3.838716745376587,-1.690266251564026,8.57005500793457,0.005817050114274025,0.023823744,0.029321533,10
-3.824940919876098,-1.6784007549285889,8.57243537902832,0.0033274437300860877,0.021685716,0.03023783,10
-3.8129265308380127,-1.668658971786499,8.574429512023926,0.001169830677099526,0.027794369,0.01985312,10
-3.8025727272033687,-1.6607632637023926,8.576128959655763,-0.0006828822079114616,0.028405234,0.010079277,10
-3.793766975402832,-1.6544997692108154,8.577620506286621,-0.0022615159396082163,0.034513887,0.005497787,10
-3.7864058017730713,-1.6497119665145874,8.578985214233397,-0.003596852533519268,0.016187929,0.011301007,10
-3.780400276184082,-1.6462727785110474,8.580302238464355,-0.0047183954156935215,0.02107485,0.010690141499999998,10
-3.775668859481812,-1.6440571546554563,8.581640243530272,-0.005653959233313799,0.019242255,0.004581489,10
-3.7721259593963614,-1.6429253816604614,8.583043098449707,-0.006427990738302468,0.018020526,0.010995574,10
-3.7696728706359854,-1.642712950706482,8.584510803222656,-0.0070607480593025684,-0.0070249503,0.010079277,10
-3.768207550048828,-1.6432263851165771,8.586019515991211,-0.007567879278212786,-0.007330383,0.010995574,10
-3.767635583877564,-1.6442524194717407,8.58753776550293,-0.0079609714448452,-0.009162978,0.017715093,10
-3.767874002456665,-1.6455742120742798,8.589035987854004,-0.008246535435318947,-0.0030543262,0.0067195175,10
-3.768843650817871,-1.646984577178955,8.590486526489258,-0.008425012230873108,-0.02107485,0.023823744,10
-3.770449161529541,-1.6483027935028076,8.591852188110353,-0.008492223918437958,-0.03268129,0.03481932,10
-3.772571563720703,-1.6493899822235107,8.593080520629883,-0.008443008176982403,-0.026572637000000003,0.03481932,10
-3.775071382522583,-1.650149941444397,8.594114303588867,-0.008276744745671749,0.041233405,0.0009162979,10
-3.77780032157898,-1.6505333185195925,8.594902992248535,-0.008001789450645447,0.06719518,0.019547688,10
-3.780592203140259,-1.6505414247512815,8.595410346984862,-0.007634554523974656,0.06627888,0.03268129,10
-3.78324556350708,-1.6502209901809692,8.595608711242676,-0.007190334144979715,0.038789943,0.032986723,10
-3.7855253219604488,-1.6496515274047852,8.59546947479248,-0.006672460120171309,0.05925392700000001,0.06872234,10
-3.787209272384644,-1.6489099264144895,8.594964981079103,-0.006067540962249041,0.05100725,0.09468412,10
-3.7881574630737305,-1.6480441093444824,8.59409236907959,-0.005348706152290106,0.074830994,0.10995574,10
-3.788351774215698,-1.6470779180526731,8.592866897583008,-0.0044766287319362155,0.05925392700000001,0.12736541,10
-3.7878689765930176,-1.646023511886597,8.591312408447267,-0.003399646608158946,0.07269296,0.15454891,10
-3.7868316173553462,-1.6449042558670044,8.589435577392576,-0.0020573174115270376,0.099265605,0.1572978,10
-3.785382509231568,-1.6437751054763794,8.587201118469237,-0.00037858448922634125,0.1142318,0.16218472,10
-3.783683300018311,-1.6427209377288818,8.584525108337402,0.001722934888675809,0.12186762,0.17012598,10
-3.7819097042083736,-1.6418389081954956,8.581319808959961,0.00435028038918972,0.124005646,0.20097467,10
-3.780252933502197,-1.6412111520767212,8.577522277832031,0.00762101775035262,0.12736541,0.21288654,10
-3.7789251804351807,-1.6408720016479492,8.5731201171875,0.011663214303553104,0.13103059,0.22052236,10
-3.7781615257263184,-1.6407707929611206,8.568146705627441,0.016612663865089417,0.13408493,0.23548855,10
-3.7782037258148193,-1.6407430171966553,8.562665939331055,0.022609105333685875,0.11942416,0.26908615,10
-3.779284954071045,-1.6404883861541748,8.556771278381348,0.02979000099003315,0.08674286,0.30543262,10
-3.7816121578216553,-1.639569878578186,8.550597190856934,0.03828176483511925,0.06780604,0.38026363,10
-3.7853426933288574,-1.6374367475509644,8.544339179992676,0.048188429325819016,0.032986723,0.3930918,10
-3.790560007095337,-1.633441925048828,8.538239479064941,0.0595795251429081,0.032375857,0.39278635,10
-3.7972502708435063,-1.626827836036682,8.532535552978517,0.07247848808765411,0.04642576,0.36041048,10
-3.8053057193756095,-1.6166783571243286,8.527445793151855,0.08684481680393219,0.06994407,0.27855456,10
-3.814587831497192,-1.601891279220581,8.523215293884277,0.10254530608654022,0.07574729,0.14996742,10
-3.825026035308838,-1.5812656879425049,8.520180702209473,0.11931916326284407,0.049480084,0.01160644,10
-3.836711168289185,-1.5537139177322388,8.518821716308594,0.13674943149089813,0.01038471,-0.06566802,10
-3.849899530410767,-1.5184921026229858,8.519702911376951,0.1542586237192154,0.030543262,-0.09132435,10
-3.864919424057007,-1.4753490686416626,8.523257255554201,0.17115110158920288,0.024129177,-0.07666359,10
-3.882036685943604,-1.4245799779891968,8.529561042785645,0.1867046058177948,0.022296581,-0.05467244,10
-3.9013614654541016,-1.3669776916503906,8.538260459899902,0.2002766728401184,0.0061086523,-0.02443461,10
-3.9228191375732417,-1.3036930561065674,8.548705101013184,0.2113832384347916,-0.04062254,0.018936822,10
-3.946160078048706,-1.2360689640045166,8.560131072998049,0.21972915530204773,-0.06536258,0.042455133,10
-3.9709894657135014,-1.1655046939849854,8.571804046630861,0.2252015918493271,-0.06536258,0.06169739,10
-3.996801376342773,-1.093362808227539,8.583103179931639,0.2278443425893784,-0.049480084,0.07574729,10
-4.023009777069092,-1.0209230184555054,8.593560218811035,0.22782638669013974,-0.03390302,0.04886922,10
-4.0489864349365225,-0.9493550062179564,8.602901458740233,0.2254059463739395,-0.018020526,0.0012217305,10
-4.07412052154541,-0.8796951174736023,8.611050605773926,0.22089149057865146,-0.021380283,-0.018936822,10
-4.0978755950927725,-0.8128182888031006,8.618096351623535,0.2146054953336716,-0.024129177,-0.06047566,10
-4.119843006134033,-0.7494024634361267,8.624224662780763,0.20685626566410065,-0.01282817,-0.06841691,10
-4.139768123626709,-0.6899206042289734,8.629630088806152,0.19792215526103973,-0.017715093,-0.07727446,10
-4.157541751861571,-0.6346572041511536,8.634446144104004,0.1880507916212082,-0.005192355,-0.06719518,10
-4.1731481552124015,-0.5837323665618896,8.638739585876465,0.1774676889181137,0.0012217305,-0.049785517,10
-4.186604499816895,-0.5371273159980774,8.642534255981445,0.16638487577438354,-0.002443461,-0.016493361,10
-4.19791841506958,-0.4947031438350678,8.645832061767576,0.15500591695308685,-0.00030543262000000003,0.014966198,10
-4.2070703506469735,-0.4562349319458008,8.648616790771483,0.143527090549469,0.004276057,0.028710667,10
-4.214018821716309,-0.421466052532196,8.65086841583252,0.13213767111301422,0.03756821,0.022907447,10
-4.218721389770509,-0.3901546001434326,8.652561187744139,0.12101832777261735,0.062308256,0.01863139,10
-4.221171855926514,-0.3620847165584564,8.653675079345701,0.11033331602811812,0.06658431,0.02076942,10
-4.221448898315431,-0.3370511531829834,8.654217720031737,0.10022054612636566,0.04428773,0.004581489,10
-4.219752788543701,-0.3148406445980072,8.654245376586914,0.09078293293714523,0.035430185,-0.00580322,10
-4.216419219970703,-0.2952193319797516,8.653872489929201,0.082081139087677,0.029626964,-0.015271631,10
-4.211890697479248,-0.27792978286743164,8.65324592590332,0.07413078844547273,0.035430185,-0.016187929,10
-4.2066636085510245,-0.2627047300338745,8.652508735656737,0.06690602004528046,0.03756821,-0.009468411,10
-4.2012152671813965,-0.2492862790822983,8.651741981506348,0.06035078689455986,0.034513887,0.0021380284,10
-4.195941925048828,-0.2374366521835327,8.650955200195312,0.054395988583564765,0.017104227,0.022296581,10
-4.1911282539367685,-0.22694379091262815,8.650106430053711,0.04897354543209076,0.0061086523,0.04917465,10
-4.186958312988281,-0.2176281660795212,8.649134635925293,0.0440240278840065,-0.007330383,0.062002823,10
-4.183550357818604,-0.2093612998723984,8.64798641204834,0.03950020298361778,0.00030543262000000003,0.06780604,10
-4.180984973907472,-0.20207516849040985,8.646632194519043,0.03536736965179444,-0.010995574,0.061391957,10
-4.179328441619873,-0.1957499235868454,8.645065307617188,0.031601782888174064,-0.010690141499999998,0.047647487,10
-4.178637981414795,-0.19038541615009308,8.643293380737305,0.028188588097691536,-0.0012217305,0.029321533,10
-4.178943157196045,-0.1859661340713501,8.641322135925293,0.02511669136583805,0.02565634,0.029321533,10
-4.18021297454834,-0.18243734538555145,8.639159202575684,0.02237271703779697,0.017715093,0.046731193,10
-4.182344913482666,-0.17970001697540286,8.63685417175293,0.019937716424465183,-0.0036651916,0.06627888,10
-4.185198783874512,-0.1776167005300522,8.634518623352049,0.017788486555218697,-0.042760565999999986,0.05955936,10
-4.188646316528319,-0.1760191023349762,8.632298469543457,0.015900399535894394,-0.050396383,0.039095376,10
-4.192593574523927,-0.17471706867218018,8.630318641662598,0.014250397682189941,-0.010995574,0.023518313,10
-4.1969547271728525,-0.17349520325660706,8.628639221191406,0.012820471078157423,0.015577064,0.01985312,10
-4.201605796813965,-0.1720874011516571,8.627239227294924,0.0115974685177207,0.037873644,0.013133603,10
-4.206358909606934,-0.17017611861228946,8.626059532165527,0.010567906312644482,0.035124752999999995,0.008246681,10
-4.210975170135498,-0.16745178401470184,8.625041961669924,0.00971127487719059,0.02107485,0.014049901000000002,10
-4.2152013778686515,-0.1637045294046402,8.624153137207031,0.008997998200356959,0.009468411,0.02076942,10
-4.2188124656677255,-0.1588808000087738,8.623379707336426,0.008394523523747921,0.01985312,0.026267206,10
-4.221629619598389,-0.15307515859603882,8.622711181640625,0.007873812690377234,0.046120327,0.022296581,10
-4.223532199859618,-0.14647825062274933,8.622134208679201,0.0074227009899914265,0.040927973,0.025961773,10
-4.224467277526856,-0.13932062685489655,8.621636390686035,0.007040242198854684,0.026572637000000003,0.013439035,10
-4.224469184875488,-0.1318398118019104,8.621211051940918,0.0067300242371857175,0.03604105,0.010079277,10
-4.223669528961182,-0.12427016347646712,8.620838165283201,0.006493156775832176,0.026267206,0.013439035,10
-4.2222933769226065,-0.11683599650859833,8.620473861694336,0.006326957605779171,0.010690141499999998,0.013133603,10
-4.2206382751464835,-0.10973390191793443,8.62006664276123,0.006227530539035797,-0.00030543262000000003,0.014966198,10
-4.219040393829347,-0.10310760140419006,8.619583129882812,0.0061932350508868686,-0.027794369,0.025350908,10
-4.2178263664245605,-0.09703195095062256,8.619022369384767,0.006225888151675464,-0.028099801,0.01038471,10
-4.2172722816467285,-0.09151199460029602,8.618391990661621,0.006329837255179882,-0.011911872,0.007330383,10
-4.217562198638916,-0.08648968487977983,8.617669105529785,0.006511465646326542,-0.0143553335,-0.004581489,10
-4.218761444091797,-0.08187627047300339,8.61680793762207,0.006778322625905275,-0.0061086523,-0.00580322,10
-4.2208194732666025,-0.07757463306188582,8.615768432617188,0.0071367123164236546,0.0033597588,0.007941248,10
-4.223582744598389,-0.07348761707544328,8.614547729492188,0.007588098756968975,0.010079277,0.010079277,10
-4.226816177368163,-0.06953876465559006,8.613190650939941,0.008126180619001389,0.015271631,0.014966198,10
-4.2302284240722665,-0.06568834185600281,8.611767768859862,0.008736963383853436,0.014049901000000002,0.022602014,10
-4.233508586883545,-0.061930503696203225,8.610356330871582,0.009402068331837654,0.037873644,0.026572637000000003,10
-4.236368656158446,-0.05827005207538605,8.609017372131348,0.010101276449859142,0.036651913,0.019242255,10
-4.238570690155028,-0.05469964072108269,8.607789039611816,0.010813274420797823,0.050396383,0.024740042,10
-4.239953517913818,-0.05119253695011139,8.606674194335938,0.011516409926116468,0.043982297,0.017715093,10
-4.240453243255615,-0.047711580991745,8.605636596679688,0.01219072751700878,0.05161811400000002,0.016493361,10
-4.2401084899902335,-0.0442211739718914,8.604610443115233,0.012820263393223286,0.040927973,0.01740966,10
-4.239046573638916,-0.04068883508443832,8.603528022766112,0.013392798602581024,0.03176499,0.023823744,10
-4.2374701499938965,-0.037082433700561516,8.602352142333983,0.013899248093366623,0.03756821,0.03023783,10
-4.235638618469238,-0.03336665406823158,8.601078987121582,0.014332740567624569,0.028405234,0.025961773,10
-4.233840465545653,-0.029509110376238826,8.599736213684082,0.01468664687126875,-0.004581489,0.03481932,10
-4.232358455657959,-0.025500612333416942,8.598352432250978,0.014954646117985247,-0.00580322,0.03726278,10
-4.23145055770874,-0.021368773654103283,8.59694766998291,0.01513201929628849,-0.010690141499999998,0.035430185,10
-4.231329441070557,-0.017168084159493446,8.595522880554201,0.01521764136850834,-0.016798794,0.04153884,10
-4.232146263122559,-0.012960763648152351,8.594074249267576,0.015216504223644732,-0.014660766,0.024740042,10
-4.233976364135741,-0.00881132110953331,8.592611312866211,0.015138056129217146,-0.009773844,0.033292156,10
-4.236804962158203,-0.004785880446434021,8.59117603302002,0.014992174692451954,-0.017104227,0.045814894,10
-4.240522384643556,-0.0009426200413145123,8.589835166931152,0.014787753112614157,-0.0290161,0.043676864,10
-4.244953632354736,0.002672700909897685,8.58867359161377,0.014534933492541313,-0.03848451,0.053450707,10
-4.249901294708252,0.0060300701297819614,8.587771415710451,0.014247337356209757,-0.040011674,0.03604105,10
-4.255171298980713,0.009138431400060655,8.58717155456543,0.013939595781266691,-0.020463986,0.0125227375,10
-4.260578632354736,0.012080790475010872,8.586857795715332,0.013621952384710312,0.005497787,0.009162978,10
-4.2659335136413565,0.015032938681542872,8.586747169494629,0.013296131975948809,0.014966198,0.009162978,10
-4.271037578582764,0.01824227161705494,8.586734771728517,0.012954011559486391,0.013133603,0.016493361,10
-4.27570104598999,0.021970218047499657,8.586723327636719,0.0125777842476964,0.004276057,0.017104227,10
-4.279773235321045,0.02642047591507435,8.586658477783201,0.012142146937549114,-0.011911872,0.010079277,10
-4.283162593841554,0.03168390691280365,8.586528778076174,0.011620652861893177,-0.021991149,0.0067195175,10
-4.285838127136231,0.037728380411863334,8.586348533630371,0.010992834344506264,0.00580322,0.007941248,10
-4.287818431854248,0.04443242773413658,8.586137771606445,0.01024733390659094,0.01160644,0.0033597588,10
-4.289144515991212,0.05162672698497772,8.585897445678711,0.009380031377077104,0.017104227,0.014049901000000002,10
-4.2898616790771475,0.05911397561430931,8.585619926452638,0.008390989154577255,0.013133603,0.0076358155,10
-4.290014743804932,0.06668216735124588,8.585295677185059,0.0072830384597182265,-0.00061086525,0.014966198,10
-4.289652347564696,0.07413700968027115,8.58494758605957,0.0060602244921028605,0.0061086523,0.01985312,10
-4.288834095001222,0.0813426524400711,8.584632873535156,0.004724025260657072,0.00030543262000000003,0.0061086523,10
-4.287637233734132,0.08823166042566301,8.584433555603027,0.00326931057497859,-0.010079277,0.0021380284,10
-4.286153316497804,0.09477277845144272,8.584420204162598,0.0016843193443492055,-0.005497787,-0.004276057,10
-4.2844810485839835,0.1009424775838852,8.584621429443361,-4.329545845394023e-05,-0.017104227,-0.004886922,10
-4.282730102539063,0.10671830922365187,8.585016250610353,-0.0019198085647076366,-0.011911872,0.004581489,10
-4.281020164489746,0.1120743378996849,8.58556079864502,-0.00394694320857525,-0.023518313,0.0027488936,10
-4.279468536376953,0.11696937680244444,8.586206436157228,-0.006125425454229117,-0.02565634,0.00580322,10
-4.278160095214844,0.12132854759693144,8.586904525756836,-0.008454992435872555,-0.02565634,0.0076358155,10
-4.27714204788208,0.12504027783870694,8.587600708007812,-0.010932628996670246,-0.018936822,0.0036651916,10
-4.276425361633302,0.12796911597251892,8.58824634552002,-0.01354804914444685,-0.01740966,-0.009468411,10
-4.275990962982179,0.12996692955493927,8.588810920715332,-0.016279272735118866,-0.014966198,-0.005497787,10
-4.275789260864259,0.1308864802122116,8.589287757873535,-0.019092626869678497,-0.009468411,0.009468411,10
-4.27574634552002,0.13060550391674042,8.589688301086426,-0.02194391936063766,-0.0033597588,0.018325957,10
-4.275766372680663,0.12905575335025787,8.59003734588623,-0.02477923035621643,0.017104227,0.015271631,10
-4.2757349014282235,0.12623926997184753,8.590359687805176,-0.027537869289517403,0.015271631,0.011301007,10
-4.275535106658936,0.122225783765316,8.590673446655272,-0.03015734069049358,0.0030543262,0.009468411,10
-4.275064945220946,0.11713723093271255,8.590986251831055,-0.032578259706497185,0.005497787,0.014049901000000002,10
-4.2742342948913565,0.111126609146595,8.591296195983888,-0.03474658727645874,0.015577064,0.014660766,10
-4.27296781539917,0.1043565273284912,8.591591835021973,-0.03661395609378815,0.025350908,0.0125227375,10
-4.271215915679932,0.09699045121669768,8.59186840057373,-0.03813967481255531,0.03176499,0.015271631,10
-4.26897668838501,0.08920013904571532,8.59212589263916,-0.03929412364959717,0.0290161,0.025045475,10
-4.2662949562072745,0.08116862922906876,8.592378616333008,-0.04005998745560646,0.028405234,0.032375857,10
-4.2632575035095215,0.07308172434568405,8.592650413513184,-0.040432158857584,0.020463986,0.028710667,10
-4.25996732711792,0.06511246412992477,8.592964172363281,-0.040415674448013306,0.029626964,0.02076942,10
-4.2565250396728525,0.05740954726934432,8.593326568603517,-0.04002286121249199,0.02443461,0.018936822,10
-4.2530250549316415,0.0500979870557785,8.593738555908201,-0.03927158936858177,0.029932396,0.0290161,10
-4.2495622634887695,0.04328127205371857,8.594198226928711,-0.03818502649664879,0.021991149,0.02107485,10
-4.246233940124512,0.03703466802835465,8.594703674316406,-0.03679176419973373,0.04184427,0.0143553335,10
-4.2431302070617685,0.03139777109026909,8.595252990722656,-0.0351249985396862,0.02321288,0.014049901000000002,10
-4.2403297424316415,0.02638956904411316,8.595836639404299,-0.03322097659111023,0.016187929,0.014049901000000002,10
-4.23790454864502,0.02203562669456005,8.596456527709961,-0.031118348240852363,0.004276057,0.0125227375,10
-4.235917568206787,0.01837848126888275,8.597137451171875,-0.02886011078953743,0.005192355,0.014660766,10
-4.234426021575929,0.01545705087482929,8.597900390625,-0.026493798941373825,0.0067195175,0.0015271631,10
-4.233477115631104,0.013274366036057472,8.598722457885742,-0.024065438657999042,0.006414085,-0.0067195175,10
-4.233090400695802,0.011790969409048556,8.59953784942627,-0.021611005067825317,0.003970624,-0.0067195175,10
-4.233240604400635,0.010963519103825092,8.60027027130127,-0.019153501838445663,0.008552114,0.0061086523,10
-4.2338595390319815,0.010797015391290188,8.600894927978517,-0.0167109165340662,0.014049901000000002,0.022296581,10
-4.234858512878418,0.011356029659509659,8.601443290710451,-0.014308032579720019,0.013439035,0.012217305,10
-4.236151695251465,0.0127119580283761,8.601950645446777,-0.01198062300682068,0.020463986,-0.0030543262,10
-4.237649440765382,0.014886061660945415,8.602417945861816,-0.009770547971129416,0.03604105,0.01038471,10
-4.239247798919679,0.017830273136496544,8.602795600891112,-0.007718053646385671,0.038789943,0.00061086525,10
-4.2408409118652335,0.02143704518675804,8.603013038635254,-0.005856589414179325,0.042760565999999986,-0.0021380284,10
-4.242353916168213,0.02555421181023121,8.603023529052733,-0.004210690036416054,0.025350908,-0.0015271631,10
-4.2437744140625,0.030000003054738045,8.60282039642334,-0.002795955166220665,-0.002443461,-0.0076358155,10
-4.245163917541504,0.034581564366817474,8.602423667907715,-0.0016186588909476993,-0.0027488936,0.0018325958,10
-4.246640682220459,0.03912011906504631,8.60185432434082,-0.0006752582266926764,0.00061086525,-0.0015271631,10
-4.248342037200929,0.04347479715943337,8.601119995117188,4.6115696022752666e-05,-0.0012217305,0.00580322,10
-4.250385761260986,0.04754610359668732,8.600210189819336,0.0005633482942357659,-0.009773844,0.004581489,10
-4.2528438568115225,0.051268376410007484,8.599111557006836,0.0008974933298304678,-0.0143553335,0.009773844,10
-4.255733013153076,0.05460478737950325,8.597823143005371,0.0010697103571146727,-0.01282817,0.01038471,10
-4.259024143218993,0.05754907429218292,8.596366882324219,0.0010993559844791891,-0.0027488936,0.02076942,10
-4.262645721435547,0.060120761394500725,8.594789505004883,0.00100358750205487,-0.0036651916,0.026572637000000003,10
-4.266488552093507,0.06235045194625855,8.59315299987793,0.0007980256923474371,0.004276057,0.021685716,10
-4.270411014556885,0.0642663985490799,8.59151554107666,0.0004984434344805777,0.008857545999999999,0.027488936,10
-4.274249076843262,0.06589126586914062,8.589905738830566,0.00012197439355077222,0.014966198,0.030543262,10
-4.277838706970215,0.06724634021520615,8.58832836151123,-0.00031294298241846263,0.0012217305,0.028099801,10
-4.281033992767334,0.06836248934268951,8.586790084838867,-0.0007867534295655787,-0.005497787,0.031154128,10
-4.283737659454347,0.06928180903196335,8.585312843322754,-0.0012790117179974914,-0.018020526,0.03023783,10
-4.2859206199646005,0.07004697620868683,8.583908081054688,-0.0017697567818686364,-0.014660766,0.01740966,10
-4.287613391876222,0.07070997357368469,8.582549095153809,-0.0022397309076040983,-0.002443461,0.01160644,10
-4.2888712882995605,0.07136674225330353,8.581182479858397,-0.002670388435944915,0.0018325958,0.009468411,10
-4.289755344390868,0.07217475771903993,8.579761505126951,-0.003047903534024954,0.005497787,0.013439035,10
-4.2903265953063965,0.07331516593694687,8.578278541564941,-0.0033688521943986416,-0.014049901000000002,0.013133603,10
-4.290647029876709,0.07492022961378098,8.576777458190918,-0.0036428268067538743,-0.015577064,0.010995574,10
-4.290769577026366,0.07702437043190002,8.575333595275879,-0.0038887781556695704,-0.023823744,0.03176499,10
-4.2907371520996085,0.07957282662391663,8.574007034301758,-0.0041262777522206315,-0.0036651916,0.018325957,10
-4.290578842163087,0.08246996253728868,8.572813987731934,-0.0043674176558852204,-0.0018325958,-0.0009162979,10
-4.2903099060058585,0.08562437444925307,8.571728706359862,-0.004614840727299453,0.005192355,-0.004886922,10
-4.289929389953613,0.08897503465414047,8.57070255279541,-0.004866090137511492,-0.004886922,-0.007330383,10
-4.2894253730773935,0.09249112755060196,8.569701194763184,-0.0051197605207562455,0.005192355,-0.003970624,10
-4.28877592086792,0.0961475595831871,8.568716049194336,-0.0053786151111125955,0.007330383,0.0009162979,10
-4.2879581451416025,0.09990019351243973,8.567764282226562,-0.005649210885167122,0.01863139,-0.004581489,10
-4.2869486808776855,0.10367626696825027,8.566864013671875,-0.005939270835369825,0.010995574,-0.0067195175,10
-4.285719871520996,0.1073811501264572,8.566027641296388,-0.006254120729863644,0.010690141499999998,0.004886922,10
-4.284247875213623,0.1109173595905304,8.565252304077147,-0.0065943216904997826,0.016187929,-0.007330383,10
-4.2825284004211435,0.11420531570911407,8.564522743225098,-0.006955551914870739,0.021380283,-0.009773844,10
-4.2805938720703125,0.1171923726797104,8.563820838928223,-0.007331316825002431,0.016798794,0.0009162979,10
-4.278512954711913,0.119843989610672,8.56313419342041,-0.007716858759522437,0.021991149,0.0036651916,10
-4.276378631591797,0.12212586402893065,8.562469482421875,-0.0081107122823596,0.007941248,0.0033597588,10
-4.2742905616760245,0.12400149554014205,8.561858177185059,-0.008514203131198883,0.0076358155,0.010690141499999998,10
-4.272332191467285,0.12544165551662445,8.56134033203125,-0.008929183706641197,0.01038471,0.0076358155,10
-4.270559787750243,0.12643377482891086,8.560948371887207,-0.009356122463941574,0.004886922,0.010079277,10
-4.2690110206603995,0.12698213756084442,8.560685157775879,-0.009792397730052471,0.007330383,0.0143553335,10
-4.2677268981933585,0.1271006017923355,8.560529708862305,-0.01023206487298012,0.008857545999999999,0.0009162979,10
-4.266753673553467,0.12680897116661072,8.560444831848145,-0.010667365044355392,0.0033597588,0.008552114,10
-4.266132354736328,0.12613628804683685,8.560398101806639,-0.011090499348938463,0.0076358155,0.010079277,10
-4.265882492065431,0.1251259297132492,8.560366630554201,-0.011494737118482591,0.005497787,0.00580322,10
-4.265981197357179,0.12383665889501573,8.560335159301758,-0.01187474001199007,0.014049901000000002,0.0143553335,10
-4.266362190246582,0.1223362386226654,8.560288429260254,-0.01222644466906786,0.014966198,0.009162978,10
-4.26693058013916,0.12068892270326614,8.560225486755371,-0.012546691112220287,0.010995574,0.016493361,10
-4.267585277557373,0.1189461350440979,8.560157775878906,-0.012832175940275192,0.009468411,0.021991149,10
-4.268251419067384,0.11714868247509005,8.560103416442871,-0.013077820651233195,0.0070249503,0.020463986,10
-4.2688941955566415,0.11534090340137483,8.560076713562013,-0.013276590965688229,-0.003970624,0.015577064,10
-4.2695093154907235,0.11358101665973665,8.560086250305176,-0.01342181582003832,-0.0012217305,0.022907447,10
-4.270112037658691,0.11193551868200302,8.56013298034668,-0.013510032556951046,-0.005497787,0.025961773,10
-4.270724296569823,0.11046520620584488,8.560207366943361,-0.013543760403990746,-0.004276057,0.022296581,10
-4.271371841430663,0.10921543836593628,8.560284614562987,-0.013531054370105268,-0.01160644,0.02076942,10
-4.272074699401856,0.10820991545915604,8.560328483581543,-0.013481417670845984,0.0021380284,0.01863139,10
-4.272840976715088,0.1074451133608818,8.560307502746582,-0.013401600532233715,0.004276057,0.028405234,10
-4.273651123046875,0.10689018666744232,8.560211181640625,-0.01329378504306078,-0.0027488936,0.02107485,10
-4.274460315704347,0.1064971387386322,8.560054779052733,-0.01315597165375948,-0.005497787,0.020158553,10
-4.2752161026000985,0.10622208565473557,8.559878349304201,-0.01298509631305933,-0.0143553335,0.008552114,10
-4.275869369506837,0.10604794323444366,8.559721946716309,-0.01277951616793871,-0.0018325958,0.004886922,10
-4.276385307312012,0.10599389672279358,8.559603691101074,-0.012539875693619251,-0.0012217305,0.002443461,10
-4.276734352111816,0.10611225664615632,8.559518814086914,-0.012270082719624044,-0.0015271631,0.00580322,10
-4.276890277862549,0.10647043585777284,8.559452056884767,-0.011977436952292921,-0.0027488936,-0.0018325958,10
-4.276834487915038,0.10712680220603944,8.55937671661377,-0.011671858839690684,-0.0027488936,-0.00580322,10
-4.276564121246338,0.10811404883861543,8.559261322021483,-0.011364022269845007,0.002443461,-0.008857545999999999,10
-4.276092529296875,0.1094384491443634,8.559081077575684,-0.011064407415688038,0.002443461,-0.007330383,10
-4.275437831878662,0.11108189821243286,8.558837890625,-0.010784056968986988,0.0015271631,-0.007330383,10
-4.274618625640868,0.11300095915794373,8.558558464050293,-0.01053551770746708,0.017104227,-0.0027488936,10
-4.273643493652344,0.11512254178524015,8.558277130126951,-0.010331688448786736,0.021685716,-0.00030543262000000003,10
-4.272512912750243,0.11733915656805037,8.558024406433105,-0.010182785801589487,0.022907447,-0.0009162979,10
-4.271223545074463,0.11952397972345352,8.557814598083496,-0.01009347103536129,0.016798794,0.0012217305,10
-4.269783020019531,0.12155989557504655,8.557641983032228,-0.010062488727271557,0.009468411,0.00061086525,10
-4.268230438232422,0.12336142361164093,8.557493209838867,-0.010083410888910294,0.0018325958,-0.0018325958,10
-4.266648292541504,0.1248769536614418,8.557367324829103,-0.010146408341825008,-0.004276057,0.007330383,10
-4.265158176422118,0.12607872486114502,8.557278633117676,-0.010240753181278706,-0.006414085,0.0018325958,10
-4.263891696929932,0.12695513665676114,8.557245254516603,-0.010356173850595951,-0.0070249503,-0.00061086525,10
-4.26296329498291,0.12750954926013947,8.557279586791992,-0.010482960380613804,-0.0061086523,0.012217305,10
-4.262443542480469,0.12776200473308566,8.557379722595215,-0.010613124817609787,-0.002443461,0.0070249503,10
-4.262351989746094,0.12774643301963806,8.55754566192627,-0.010742041282355784,0.0067195175,0.0027488936,10
-4.262662410736084,0.12750126421451569,8.557774543762207,-0.0108693465590477,0.015577064,0.014966198,10
-4.2633070945739755,0.12705515325069427,8.558060646057129,-0.010997946374118328,0.010690141499999998,0.013133603,10
-4.2641868591308585,0.12642510235309598,8.558392524719237,-0.01113233342766762,0.0061086523,0.01740966,10
-4.2651939392089835,0.12562283873558044,8.558768272399902,-0.011276012286543846,0.013133603,0.022296581,10
-4.266222953796387,0.12466013431549072,8.559189796447754,-0.011430085636675358,0.029321533,0.023518313,10
-4.2671780586242685,0.12355437129735948,8.559654235839844,-0.011594130657613276,0.025961773,0.019242255,10
-4.267974376678467,0.12233402580022812,8.560139656066895,-0.011768117547035216,0.029321533,0.018325957,10
-4.268549919128418,0.12103711813688277,8.560620307922362,-0.011953281238675116,0.020463986,0.025350908,10
-4.268877506256104,0.11970066279172895,8.561080932617188,-0.012151066213846208,0.01740966,0.01985312,10
-4.268972873687743,0.11835610866546632,8.561508178710938,-0.012361818924546242,0.021685716,0.01740966,10
-4.268891334533691,0.11702942848205565,8.561885833740233,-0.012583612464368343,0.03023783,0.016493361,10
-4.268711566925049,0.11574631929397584,8.562188148498535,-0.012811750173568727,0.02687807,0.015882496,10
-4.26851749420166,0.11453817039728165,8.56238842010498,-0.013040821067988873,0.021685716,0.021991149,10
-4.268396854400635,0.11343367397785188,8.562463760375978,-0.013267718255519869,0.003970624,0.016493361,10
-4.268441677093507,0.11244834214448927,8.562414169311522,-0.013492931611835957,-0.0030543262,0.011301007,10
-4.268747329711913,0.11159320920705797,8.562244415283201,-0.01371913868933916,-0.0009162979,0.005192355,10
-4.269391059875488,0.11088709533214568,8.561964988708496,-0.01394597627222538,0.014049901000000002,0.0070249503,10
-4.27040958404541,0.11034496128559113,8.561589241027832,-0.014168810099363329,0.011301007,0.009162978,10
-4.271783351898193,0.10995373129844667,8.561136245727539,-0.014381226152181625,-0.017104227,0.004581489,10
-4.273453235626222,0.10966406762599944,8.560633659362793,-0.014577041380107403,-0.0021380284,0.013439035,10
-4.2753381729125985,0.10940860956907272,8.560112953186035,-0.014749428257346153,-0.009162978,0.013439035,10
-4.277356624603272,0.10913730412721634,8.559601783752441,-0.014890172518789768,-0.0021380284,0.002443461,10
-4.279432296752931,0.10883575677871704,8.559114456176758,-0.014992055483162403,-0.0061086523,0.0012217305,10
-4.2814908027648935,0.10852035880088806,8.558648109436035,-0.015050808899104597,-0.004581489,0.0012217305,10
-4.283463954925537,0.10822397470474243,8.558187484741211,-0.015065736137330532,-0.0009162979,0.009162978,10
-4.285287857055663,0.10798459500074388,8.557705879211426,-0.015038968063890934,0.004581489,-0.00061086525,10
-4.2869157791137695,0.10783696919679643,8.557177543640138,-0.014974629506468771,0.0070249503,0.0027488936,10
-4.2883243560791025,0.1078050658106804,8.556593894958496,-0.01487850584089756,0.0012217305,0.0070249503,10
-4.289515495300293,0.1078992560505867,8.55595588684082,-0.014757765457034113,-0.0009162979,0.009773844,10
-4.2905049324035645,0.1081238090991974,8.555271148681639,-0.014620273374021053,0.004886922,0.009162978,10
-4.291308403015137,0.10847960412502287,8.554543495178223,-0.014474312774837015,0.016187929,0.004276057,10
-4.291937351226807,0.108954556286335,8.553766250610353,-0.014328093267977238,0.0076358155,-0.0076358155,10
-4.292395114898682,0.1095171794295311,8.55293083190918,-0.014189544133841991,0.018020526,0.004886922,10
-4.292681694030762,0.11012549698352814,8.552034378051758,-0.014065412804484369,0.018325957,0.0009162979,10
-4.292806148529054,0.1107429414987564,8.551087379455566,-0.0139606986194849,0.013133603,0.008246681,10
-4.2927870750427255,0.1113402247428894,8.550115585327147,-0.0138781126588583,0.010995574,0.01160644,10
-4.292655944824219,0.11188461631536484,8.549158096313478,-0.013818331062793732,0.008552114,0.010995574,10
-4.2924466133117685,0.1123279258608818,8.548257827758789,-0.013780605047941208,-0.004581489,0.01282817,10
-4.2922019958496085,0.1126115471124649,8.547456741333008,-0.01376228965818882,0.008246681,0.022296581,10
-4.291975021362306,0.11268530040979385,8.546780586242676,-0.013757721520960331,0.004276057,0.017104227,10
-4.2918243408203125,0.11251943558454514,8.546236038208008,-0.01375920232385397,-0.00580322,0.022296581,10
-4.291810035705566,0.11210716515779497,8.545820236206055,-0.013759201392531395,-0.009468411,0.0033597588,10
-4.2919864654541025,0.1114652454853058,8.545526504516603,-0.013751663267612456,-0.012217305,0.014660766,10
-4.292391777038573,0.11062732338905333,8.545351028442383,-0.013732906430959702,-0.003970624,0.0021380284,10
-4.293049335479736,0.10963623970746994,8.545299530029299,-0.013701287098228931,-0.01038471,0.0061086523,10
-4.293958187103272,0.10854224860668182,8.545371055603027,-0.013656260445713995,-0.0015271631,0.012217305,10
-4.2950758934021005,0.10741281509399414,8.545555114746094,-0.013598129153251648,0.004276057,0.007941248,10
-4.296310901641847,0.10633356869220734,8.54582691192627,-0.013527982868254185,0.017104227,0.013133603,10
-4.297536849975587,0.10539291799068452,8.546146392822267,-0.013448948971927166,0.02107485,0.02076942,10
-4.298614501953125,0.10465890169143677,8.546469688415527,-0.013367125764489174,0.008857545999999999,0.013439035,10
-4.299412250518799,0.10416467487812042,8.54676628112793,-0.013290143571794031,0.018325957,0.021991149,10
-4.299826145172118,0.1039191409945488,8.547014236450195,-0.013225186616182327,0.014049901000000002,0.008857545999999999,10
-4.299798488616943,0.10392114520072936,8.547201156616211,-0.013177350163459778,0.01740966,0.0076358155,10
-4.299322605133057,0.10415969789028168,8.547327041625978,-0.013147986494004726,0.0143553335,0.004886922,10
-4.298444271087647,0.10460782796144484,8.547402381896973,-0.013135309331119059,0.0018325958,0.007330383,10
-4.2972493171691895,0.10522758960723876,8.547445297241211,-0.01313665136694908,-0.00030543262000000003,0.012217305,10
-4.295856475830078,0.10598070919513702,8.547471046447754,-0.013148668222129343,-0.00061086525,0.0067195175,10
-4.2943997383117685,0.10683754831552504,8.547490119934082,-0.013167206197977066,0.0018325958,0.0009162979,10
-4.293011665344238,0.10777748376131058,8.547505378723145,-0.013187141157686709,-0.013133603,0.00580322,10
-4.291802883148193,0.10878215730190276,8.547516822814941,-0.0132024846971035,-0.0125227375,0.0009162979,10
-4.290843963623047,0.10983361303806304,8.547504425048826,-0.013206918723881243,-0.0076358155,0.004276057,10
-4.290160655975342,0.1109192967414856,8.547442436218263,-0.013194951228797436,-0.004276057,0.014049901000000002,10
-4.289740085601807,0.11203499883413316,8.547304153442383,-0.013163413852453232,-0.0036651916,0.013133603,10
-4.289533615112306,0.11318070441484453,8.547076225280763,-0.013112366199493408,0.0021380284,0.015882496,10
-4.289470195770264,0.11435235291719435,8.546772003173826,-0.013045164756476879,-0.004581489,0.0021380284,10
-4.289466381072998,0.11554107815027236,8.54643440246582,-0.012966846115887163,0.00580322,0.009773844,10
-4.2894372940063485,0.11673220247030258,8.546113967895508,-0.01288304664194584,0.0143553335,0.013744468,10
-4.289299964904785,0.11790697276592255,8.545857429504395,-0.012799646705389023,0.01282817,0.006414085,10
-4.288981914520264,0.11904552578926085,8.545696258544924,-0.012721644714474678,0.011301007,0.0036651916,10
-4.288438796997069,0.12012092769145966,8.545650482177733,-0.01265327539294958,0.004886922,0.004276057,10
-4.287666320800781,0.12109685689210893,8.545722961425781,-0.0125978272408247,0.008552114,0.004581489,10
-4.2866973876953125,0.12193353474140167,8.545899391174316,-0.012557584792375565,0.00061086525,0.009162978,10
-4.285597801208496,0.12259817123413085,8.546154022216799,-0.012533406727015972,0.003970624,0.007941248,10
-4.284452438354491,0.12307773530483244,8.546464920043945,-0.012524637393653393,-0.01038471,0.002443461,10
-4.283354759216309,0.12337929010391235,8.546817779541017,-0.012528706341981888,-0.004886922,0.00580322,10
-4.282396793365479,0.1235174834728241,8.547209739685059,-0.012541338801383972,-0.0018325958,0.007941248,10
-4.281656265258788,0.1235085129737854,8.547647476196289,-0.012557241134345531,-0.0018325958,0.010690141499999998,10
-4.281179428100587,0.123372383415699,8.548148155212402,-0.012570572085678577,-0.004276057,0.008246681,10
-4.280972480773927,0.12313582748174667,8.548731803894043,-0.012576195411384106,-0.002443461,0.0036651916,10
-4.280999660491943,0.12283507734537125,8.549416542053223,-0.012570654042065144,-0.00580322,0.0036651916,10
