timestamp,rel_time,acc_x,acc_y,acc_z,gyro_x,gyro_y,gyro_z,azimuth,pitch,roll,label
0.0,0.0,0.0,0.0,0.0,0.0,0.74281216,0.037873644,303.25272,-1.7563182000000002,-30.776522,STD
4619142.0,3.1088191576600366e-08,4.748119863506872e-06,8.835635526338592e-05,-7.81675407779403e-06,-1.043805150402477e-05,0.752586,0.040317107000000005,303.2521,-1.7579508,-30.782812,STD
32046046.0,3.917322715096816e-07,3.279828524682671e-05,0.0006128231761977077,-5.3665342420572415e-05,-7.303273014258593e-05,0.7425067,0.040317107000000005,303.21298,-2.2392604,-31.16405,STD
112993648.0,1.987168388950522e-06,0.0001154797209892422,0.0021602532360702753,-0.0001896153116831556,-0.00025702579296194017,0.7431175999999999,0.03359759,303.14624,-2.7276683,-31.544554,STD
288942176.0,6.593555553990882e-06,0.0002951043425127864,0.005522271618247032,-0.00048690897529013455,-0.000656049873214215,0.73792523,0.03359759,303.04123,-3.2104962,-31.910429,STD
609814016.0,1.718176281428896e-05,0.0006225944962352514,0.01164761371910572,-0.0010298099368810654,-0.0013825228670611978,0.7473936,0.03359759,302.9106,-3.6969593,-32.273506,STD
1131264128.0,3.777841993723996e-05,0.001154719153419137,0.02159116044640541,-0.0019117029150947928,-0.002566604409366846,0.76144356,0.029321533,302.7466,-4.1838098,-32.630806,STD
1911788800.0,7.374353299383074e-05,0.0019525932148098946,0.036464620381593704,-0.00322670373134315,-0.004344398621469736,0.77121735,0.040317107000000005,302.5506,-4.677788700000002,-32.981396000000004,STD
3009854208.0,0.00013162651157472283,0.003078697482123971,0.05738160014152527,-0.005064904689788818,-0.0068588959984481335,0.77854776,0.036957346,302.3344,-5.1645650000000005,-33.327805,STD
4481223680.0,0.00021914935496170074,0.004597404506057501,0.0853976458311081,-0.0075185843743383884,-0.010248107835650444,0.76174897,0.04062254,302.0782200000001,-5.6575365,-33.66129,STD
6376630272.0,0.0003451066731940955,0.006572160869836807,0.12146717309951782,-0.010676674544811249,-0.014632467180490494,0.7663304,0.06627888,301.7893,-6.1553655,-33.993637,STD
8739891200.0,0.0005184082547202706,0.009057270362973213,0.16641804575920105,-0.014620193280279636,-0.02013949304819107,0.75869465,0.05772676700000001,301.47684,-6.6473045,-34.309437,STD
11606528000.0,0.0007486445247195661,0.012093110010027885,0.2209329903125763,-0.01942429319024086,-0.026857296004891396,0.73823065,0.06963864,301.125,-7.156764999999999,-34.611828,STD
15002896384.0,0.001045524375513196,0.01572563871741295,0.2855095863342285,-0.025154100731015205,-0.034853022545576096,0.72234815,0.07299839999999999,300.7415,-7.666036999999998,-34.903797,STD
18945802240.0,0.001419751439243555,0.020016254857182503,0.360446035861969,-0.03186812996864319,-0.04416900873184204,0.70463306,0.08002335,300.33127,-8.182234,-35.178909999999995,STD
23442556928.0,0.0018798456294462085,0.024999769404530525,0.44587594270706177,-0.03960391879081726,-0.05482758209109306,0.66859204,0.09010262,299.8797600000001,-8.714454,-35.43607,STD
28491397120.0,0.0024339305236935616,0.030696013942360878,0.5417698621749878,-0.048385415226221085,-0.06684066355228424,0.6441574000000001,0.10170906,299.40463,-9.250526,-35.680428000000006,STD
34082187264.0,0.0030897981487214565,0.03711346164345741,0.647940993309021,-0.05821393057703972,-0.08019180595874786,0.5717699,0.111177474,298.88614,-9.805664,-35.88798,STD
40197324800.0,0.0038544945418834686,0.04424181953072548,0.7640623450279236,-0.06904524564743042,-0.09477422386407852,0.4804455,0.11301007,298.351,-10.373627,-36.07189,STD
46812790784.0,0.004733973648399115,0.052065227180719376,0.8896839022636414,-0.0808262899518013,-0.11035028100013733,0.42913285,0.11178834,297.7633,-10.980462,-36.235844,STD
53899227136.0,0.005734172184020281,0.06057688593864441,1.0242481231689453,-0.09351398795843124,-0.1267441064119339,0.2855795,0.108123146,297.1761,-11.5901785,-36.33693,STD
61423058944.0,0.00685837073251605,0.06975963711738586,1.1671184301376343,-0.10706260055303574,-0.1435205340385437,0.24312437,0.10629055,296.5127,-12.288762,-36.436802,STD
69347549184.0,0.008109613321721554,0.07959387451410294,1.3176041841506958,-0.12145417183637619,-0.16048257052898407,0.15424347,0.112704635,295.8545,-12.9768305,-36.470867,STD
77633781760.0,0.009489916265010834,0.09005565196275711,1.4749733209609985,-0.1366657018661499,-0.17731058597564697,0.034513887,0.09162979,295.13205,-13.759371,-36.471107,STD
86241583104.0,0.011000700294971466,0.10109388828277588,1.6384793519973755,-0.15266230702400208,-0.1934940367937088,-0.21227567,0.036651913,294.43668,-14.574979,-36.400776,STD
95130279936.0,0.012643195688724518,0.11262921988964081,1.8073774576187134,-0.16939851641654968,-0.20801256597042084,-0.22815818,0.023518313,293.71863,-15.4783,-36.345154,STD
104259403776.0,0.01441626250743866,0.1245746985077858,1.9809179306030273,-0.1868191808462143,-0.22082068026065826,-0.19303341,0.03634648,292.91095,-16.404388,-36.22046,STD
113589248000.0,0.01631877012550831,0.13679972290992737,2.1583495140075684,-0.2048596888780594,-0.2321104109287262,-0.18234327,0.026267206,292.12445,-17.405035,-36.07196,STD
123081326592.0,0.018350815400481224,0.14916665852069855,2.338945150375366,-0.22345969080924988,-0.24193847179412842,-0.17806722,0.027488936,291.12775,-18.55385,-35.897118,STD
132698742784.0,0.020508449524641037,0.1615971326828003,2.522000551223755,-0.24253533780574799,-0.2503787577152252,-0.17501289,0.02687807,290.1478600000001,-19.682196,-35.70477,STD
142406467584.0,0.022790124639868736,0.17404073476791382,2.706843614578247,-0.2619888186454773,-0.2574741840362549,-0.16768251,0.023518313,289.1826,-20.808737,-35.49426,STD
152171528192.0,0.02519192546606064,0.1864834874868393,2.8928372859954834,-0.28173312544822693,-0.2633098065853119,-0.16676621,0.02565634,287.86768,-22.147888,-35.228916,STD
161963147264.0,0.027710696682333946,0.1989641934633255,3.0793802738189697,-0.3016924262046814,-0.2679576873779297,-0.17409660000000002,0.029321533,286.59204,-23.473845,-34.934273,STD
171752783872.0,0.03034347854554653,0.21152006089687347,3.2659170627593994,-0.3217936158180237,-0.27151644229888916,-0.17745635,0.028405234,284.70978,-25.184769,-34.500595000000004,STD
181514207232.0,0.03308616951107979,0.22415760159492493,3.451972723007202,-0.34194275736808777,-0.2740524709224701,-0.17837265,0.025961773,282.92743,-26.851477000000006,-34.02268,STD
191223431168.0,0.035934969782829285,0.2368842214345932,3.6371142864227295,-0.36205220222473145,-0.2756442725658417,-0.18142697,0.030543262,280.6789,-28.834597,-33.369843,STD
200858714112.0,0.03888615593314171,0.2497253268957138,3.8209118843078613,-0.3820551037788391,-0.27636000514030457,-0.18295415,0.02321288,278.6004,-30.733871,-32.675922,STD
210400460800.0,0.04193587601184845,0.26272425055503845,4.002935409545898,-0.4019066095352173,-0.2762957513332367,-0.19120082,0.027488936,276.67468,-32.55492,-31.943548,STD
219831140352.0,0.04508018121123314,0.2758904695510864,4.1828155517578125,-0.42158257961273193,-0.27552780508995056,-0.20616703,0.031154128,274.74615,-34.413082,-31.117435,STD
229135187968.0,0.048315346240997314,0.2891971170902252,4.360245704650879,-0.44108203053474426,-0.2741219401359558,-0.20433442,0.03848451,272.96643,-36.190792,-30.27282,STD
238298890240.0,0.05163828656077385,0.3026060461997986,4.534949779510498,-0.4603874385356903,-0.272100031375885,-0.1966986,0.040317107000000005,271.33084,-37.89943,-29.401937,STD
247310303232.0,0.05504463240504265,0.3160586655139923,4.706679821014404,-0.47945186495780945,-0.2695463001728058,-0.19914207,0.042455133,269.8242,-39.532944,-28.522984,STD
256159088640.0,0.05853200703859329,0.32950472831726074,4.875215530395508,-0.49823281168937683,-0.26649585366249084,-0.19486602,0.048258353,268.4302,-41.10675,-27.648277,STD
264836431872.0,0.06209550052881241,0.34290772676467896,5.040370941162109,-0.5166964530944824,-0.26299557089805603,-0.19242255,0.053145275,267.14566,-42.614403,-26.775858000000003,STD
273334910976.0,0.06573127210140228,0.35623472929000854,5.201986312866211,-0.5348125100135803,-0.25909194350242615,-0.18936823,0.058948494,265.96292,-44.064175,-25.904451,STD
281648398336.0,0.06943726539611816,0.3694250285625458,5.3599324226379395,-0.5525456666946411,-0.2548292279243469,-0.1881465,0.05681047,264.87222,-45.457222,-25.04349,STD
289771978752.0,0.07320961356163025,0.38241562247276306,5.514110565185547,-0.5698642730712891,-0.2502325475215912,-0.18600847,0.05955936,263.8625,-46.80024,-24.19246,STD
297701736448.0,0.0770445391535759,0.3951519727706909,5.66445255279541,-0.5867577195167542,-0.24533578753471375,-0.1695151,0.06688975,262.93393,-48.0929,-23.346123,STD
305434820608.0,0.08093925565481186,0.4075968861579895,5.8109869956970215,-0.6033554673194885,-0.24018241465091705,-0.16523905,0.0580322,262.08105,-49.33581,-22.516365,STD
312969232384.0,0.08489064872264862,0.4197222590446472,5.953745365142822,-0.6197735667228699,-0.23475363850593567,-0.15821409,0.055588737,261.28168,-50.537025,-21.711079,STD
320303792128.0,0.08889707177877426,0.4315401613712311,6.092733860015869,-0.6361520290374756,-0.22909225523471832,-0.15851954,0.05955936,260.54333,-51.68998,-20.921614,STD
327438008320.0,0.0929550975561142,0.44305920600891113,6.227964401245117,-0.6525866389274597,-0.22324776649475098,-0.14935656,0.05497787,259.86102,-52.810143,-20.149052,STD
334372110336.0,0.0970616489648819,0.45426687598228455,6.359426021575928,-0.6690152883529663,-0.21725332736968994,-0.14477506,0.04886922,259.23132000000004,-53.892338,-19.391996,STD
341106851840.0,0.10121429711580276,0.4651525318622589,6.487119674682617,-0.6853817701339722,-0.21115553379058838,-0.12705997,0.0421497,258.63837,-54.939972,-18.660728,STD
347643510784.0,0.10541079938411713,0.475698858499527,6.611072540283203,-0.7016411423683167,-0.20498116314411163,-0.1328632,0.041233405,258.09558,-55.95343,-17.943179999999995,STD
353983823872.0,0.10965001583099365,0.48588117957115173,6.731335163116455,-0.7177584767341614,-0.19880351424217224,-0.13072516,0.040927973,257.58902,-56.92656,-17.24721,STD
360129953792.0,0.11393005400896072,0.4956798851490021,6.847963333129883,-0.7337028384208679,-0.19261710345745087,-0.13041973,0.03573562,257.1349,-57.870125,-16.56186,STD
366084390912.0,0.11824769526720047,0.5050972104072571,6.961029052734375,-0.749439001083374,-0.18646009266376495,-0.11728613,0.038789943,256.71167,-58.775978,-15.893679,STD
371849920512.0,0.12260065227746964,0.51414555311203,7.070617198944092,-0.7649306654930115,-0.18037182092666626,-0.113926366,0.030543262,256.32687000000004,-59.651104,-15.245419,STD
377429655552.0,0.12698711454868317,0.5228167176246643,7.17677116394043,-0.7801684737205505,-0.17439004778862,-0.11453723,0.03023783,255.97447000000003,-60.49598,-14.610945,STD
382826872832.0,0.13140656054019928,0.5310850739479065,7.27950382232666,-0.7951653003692627,-0.16851039230823517,-0.10629055,0.02443461,255.64978,-61.31265,-13.998274,STD
388045078528.0,0.1358564794063568,0.5389338135719299,7.378840923309326,-0.8099295496940613,-0.16277267038822174,-0.11026118,0.01985312,255.3638,-62.094692,-13.397924,STD
393087909888.0,0.14033503830432892,0.5463873744010925,7.474820613861084,-0.8244950175285339,-0.15716643631458282,-0.1020145,0.016798794,255.09827,-62.85582700000001,-12.817774,STD
397959168000.0,0.14484097063541412,0.5534924864768982,7.567489147186279,-0.8389089107513428,-0.15171043574810028,-0.08857546,0.02321288,254.85553,-63.58804,-12.252694,STD
402662719488.0,0.14937251806259155,0.5602975487709045,7.656898498535156,-0.8531717658042908,-0.1464141458272934,-0.08704830000000001,0.023518313,254.63797,-64.29720999999999,-11.705092,STD
407202562048.0,0.15393264591693878,0.5668631792068481,7.743094444274902,-0.8672587275505066,-0.14125797152519226,-0.06566802,0.025045475,254.43176,-64.9861,-11.174728,STD
411582726144.0,0.15851545333862305,0.5732220411300659,7.826144695281982,-0.8811480402946472,-0.1362437754869461,-0.053145275,0.02565634,254.24593,-65.653244,-10.660551,STD
415807275008.0,0.16312016546726227,0.5794066190719604,7.906130313873291,-0.8947649002075195,-0.1313668042421341,-0.056505036,0.02321288,254.07785,-66.301834,-10.16187,STD
419880337408.0,0.16774535179138184,0.5854419469833374,7.98314094543457,-0.9080252647399902,-0.12663103640079498,-0.05589417,0.032375857,253.92203,-66.93125,-9.675748,STD
423806042112.0,0.17238976061344147,0.5913864374160767,8.057283401489258,-0.9205277562141418,-0.1219954863190651,-0.057421334,0.032375857,253.79358,-67.54442,-9.197719,STD
427588485120.0,0.17705364525318146,0.597331166267395,8.128682136535645,-0.9315760731697083,-0.117465540766716,-0.06627888,0.040317107000000005,253.681,-68.136826,-8.728378,STD
431231762432.0,0.18173474073410034,0.6033385992050171,8.19743824005127,-0.9408230185508728,-0.1130387932062149,-0.06505715,0.043676864,253.58208,-68.71021,-8.27845,STD
434739937280.0,0.18643224239349365,0.6094509363174438,8.263598442077637,-0.9488121271133423,-0.10869114845991135,-0.055588737,0.04184427,253.49695,-69.26862,-7.8409038,STD
438117072896.0,0.19114501774311066,0.6157040596008301,8.327210426330566,-0.9560246467590332,-0.10443541407585144,-0.060170225999999986,0.048563786,253.42056,-69.779205,-7.409348,STD
441367134208.0,0.19587254524230957,0.622384250164032,8.388389587402344,-0.9636290073394775,-0.10027414560317993,-0.06352998,0.051923547,253.35284,-70.2762,-6.993404400000001,STD
444494086144.0,0.2006153166294098,0.6299147009849548,8.447284698486328,-0.9731646776199341,-0.09616345167160034,-0.057421334,0.05925392700000001,253.2933,-70.76214,-6.587863400000002,STD
447501828096.0,0.2053714096546173,0.6384003162384033,8.503972053527832,-0.9851207137107849,-0.09209242463111877,-0.038789943,0.0580322,253.24454,-71.25222,-6.194285400000001,STD
450394161152.0,0.21014003455638885,0.6470721960067749,8.558289527893066,-0.9971435070037842,-0.08804164826869965,-0.027794369,0.0580322,253.20593,-71.73355,-5.8101125,STD
453174853632.0,0.21492023766040802,0.6552502512931824,8.610102653503418,-1.007154107093811,-0.08403004705905914,-0.03145956,0.055588737,253.21808,-72.2874,-5.4055147,STD
455847575552.0,0.21971289813518524,0.6631600856781006,8.659610748291016,-1.0161956548690796,-0.08003981411457062,-0.015882496,0.049480084,253.23393,-72.83156600000002,-5.0160546,STD
458415964160.0,0.22451739013195038,0.6713166832923889,8.707117080688477,-1.026268482208252,-0.07606098800897598,-0.0027488936,0.04642576,253.26245,-73.35951,-4.6372175,STD
460883558400.0,0.22933168709278107,0.6799324154853821,8.75284194946289,-1.038390874862671,-0.0720880776643753,-0.002443461,0.04520403,253.2432,-73.74107,-4.320345400000001,STD
463253798912.0,0.23415538668632507,0.6887549757957458,8.796923637390137,-1.0522189140319824,-0.06812047213315964,-0.0018325958,0.04550946,253.22717000000003,-74.112206,-4.0145345,STD
465530060800.0,0.238987997174263,0.6975526213645935,8.8394775390625,-1.0673208236694336,-0.06415154784917831,0.0070249503,0.04337143,253.27075,-74.592865,-3.6772833,STD
467715653632.0,0.24382905662059784,0.706104040145874,8.880583763122559,-1.0830527544021606,-0.060173630714416504,0.017715093,0.043066,253.32227000000003,-75.06184,-3.349443,STD
469813755904.0,0.24867865443229675,0.7142463326454163,8.920294761657715,-1.0989054441452026,-0.05622582882642746,0.023823744,0.032375857,253.3711,-75.51129,-3.0443294,STD
471827513344.0,0.2535359561443329,0.7218977212905884,8.958630561828613,-1.114556074142456,-0.05237433314323425,0.02321288,0.034208454,253.42606,-75.94787,-2.745017,STD
473759973376.0,0.25840023159980774,0.7290372848510742,8.995603561401367,-1.1297403573989868,-0.0486244261264801,0.017104227,0.03268129,253.4838,-76.34776,-2.4655914,STD
475614085120.0,0.2632714807987213,0.7357667088508606,9.031208992004395,-1.1442705392837524,-0.044987499713897705,0.03145956,0.032070424,253.54227000000003,-76.73028000000002,-2.1950338,STD
477392732160.0,0.2681489586830139,0.742159903049469,9.065437316894531,-1.1580239534378052,-0.041512466967105865,0.032070424,0.031154128,253.59756,-77.08600600000003,-1.9369853,STD
479098699776.0,0.27303346991539,0.7482476234436035,9.098250389099121,-1.1709719896316528,-0.03818980231881142,0.04428773,0.02565634,253.6517,-77.43533000000002,-1.6896459,STD
480734674944.0,0.27792373299598694,0.7540619373321533,9.12962818145752,-1.1831161975860596,-0.035026151686906815,0.052839845,0.023823744,253.71103,-77.75771999999998,-1.4499408,STD
482303311872.0,0.2828194200992584,0.759654700756073,9.159550666809082,-1.194518804550171,-0.032029617577791214,0.054061573,0.031154128,253.77365,-78.07065,-1.2166708000000002,STD
483807133696.0,0.2877226769924164,0.7650603652000427,9.187994956970215,-1.2051594257354736,-0.029181839898228645,0.06047566,0.028405234,253.83545,-78.37135,-0.9904471,STD
485248630784.0,0.2926306426525116,0.7702678442001343,9.214980125427246,-1.2148970365524292,-0.026430372148752213,0.05589417,0.029932396,253.90369,-78.66523000000002,-0.76737934,STD
486630162432.0,0.29754403233528137,0.7752635478973389,9.240513801574707,-1.2235552072525024,-0.023747017607092857,0.06291912,0.027794369,253.96803,-78.95163000000002,-0.5560647,STD
487954055168.0,0.30246174335479736,0.7800269722938538,9.264616012573242,-1.2309669256210327,-0.02116529271006584,0.062002823,0.0290161,254.0397,-79.22793,-0.34902993,STD
489222537216.0,0.30738332867622375,0.7844942808151245,9.287312507629395,-1.236815333366394,-0.01866290532052517,0.06505715,0.021991149,254.11276,-79.50336999999998,-0.15167306,STD
490437771264.0,0.3123084604740143,0.7886083126068115,9.308631896972656,-1.2408161163330078,-0.016215313225984573,0.064446285,0.024129177,254.18016,-79.7492,0.041891266,STD
491601854464.0,0.31723734736442566,0.7923458218574524,9.328659057617188,-1.2428969144821167,-0.013810772448778152,0.059864793,0.021991149,254.25165,-79.98801,0.22651698,STD
492716785664.0,0.32217100262641907,0.7956997752189636,9.347506523132324,-1.2430858612060547,-0.01146986149251461,0.07788532,0.01985312,254.31993,-80.218285,0.4050182000000001,STD
493784498176.0,0.32710781693458557,0.7986762523651123,9.365270614624023,-1.2414848804473877,-0.009212578646838665,0.07971791,0.022602014,254.37924,-80.413185,0.5752754,STD
494806892544.0,0.3320476710796356,0.8013060092926025,9.382036209106445,-1.2384047508239746,-0.007021045312285423,0.0842994,0.009162978,254.43604,-80.60345,0.7342159,STD
495785771008.0,0.3369901478290558,0.8036174774169922,9.397880554199219,-1.2341257333755493,-0.004886858630925417,0.09010262,0.008857545999999999,254.48788,-80.77445999999998,0.8894117,STD
496722903040.0,0.34193548560142517,0.8056150078773499,9.412919998168945,-1.2288624048233032,-0.0028300811536610126,0.093462385,0.007941248,254.5419,-80.93855,1.0358752,STD
497619927040.0,0.34688472747802734,0.807290256023407,9.427289009094238,-1.2227905988693237,-0.0008606685441918671,0.11056661,0.0021380284,254.59262,-81.09853000000003,1.1754642,STD
498478514176.0,0.35183635354042053,0.8086422681808472,9.441110610961914,-1.2161003351211548,0.001019644783809781,0.122478485,0.0012217305,254.64503,-81.263756,1.3075532,STD
499300204544.0,0.3567918837070465,0.8096638917922974,9.454598426818848,-1.209206461906433,0.0028173639439046383,0.1441642,0.0030543262,254.69208,-81.42302,1.4336544,STD
500086505472.0,0.3617491126060486,0.810357928276062,9.467901229858398,-1.202406883239746,0.0045238072052598,0.14935656,0.0012217305,254.73935,-81.58014,1.560254,STD
500838891520.0,0.366708368062973,0.8107894659042358,9.481109619140625,-1.1959251165390015,0.006150537170469761,0.16615535,0.004581489,254.77908,-81.733154,1.6836363999999997,STD
501558738944.0,0.3716707229614258,0.8110525608062744,9.494275093078613,-1.1899280548095703,0.007650890853255987,0.16523905,0.005192355,254.82462,-81.873924,1.8025175,STD
502247391232.0,0.3766346871852875,0.8112173080444336,9.507429122924805,-1.1845253705978394,0.009015501476824284,0.17837265,0.00061086525,254.87729,-82.0326,1.916355,STD
502906159104.0,0.3816003203392029,0.8113159537315369,9.52059268951416,-1.179738163948059,0.010208601132035255,0.18051068,-0.01160644,254.93558,-82.178375,2.0252154,STD
503536287744.0,0.3865671753883362,0.8113767504692078,9.533781051635742,-1.175581455230713,0.01121943723410368,0.17867808,-0.013133603,255.00092,-82.3281,2.1406317,STD
504138956800.0,0.39153552055358887,0.8114770650863647,9.546945571899414,-1.1720330715179443,0.011984242126345634,0.16920967,-0.013744468,255.07002000000003,-82.463104,2.2496583,STD
504715313152.0,0.3965061902999878,0.811718225479126,9.560004234313965,-1.1690518856048584,0.0124734528362751,0.1572978,-0.026267206,255.14246,-82.593956,2.3517442,STD
505266470912.0,0.4014781415462494,0.8121607303619385,9.572906494140625,-1.1666131019592285,0.012683043256402016,0.14691310000000002,-0.035430185,255.21832,-82.72183000000003,2.44984,STD
505793511424.0,0.4064513146877289,0.8127934336662292,9.585676193237305,-1.1647557020187378,0.01258764322847128,0.14049901,-0.044898596,255.29814,-82.8389,2.5416722000000003,STD
506297417728.0,0.4114256501197815,0.813605785369873,9.598335266113281,-1.1635124683380127,0.012187937274575233,0.13408493,-0.043676864,255.38326,-82.949265,2.6377206,STD
506779205632.0,0.4164011776447296,0.8145419955253601,9.61089038848877,-1.1628661155700684,0.011483665555715561,0.12095132,-0.050396383,255.47354,-83.05194,2.7264805,STD
507239792640.0,0.42137831449508667,0.8155331611633301,9.623342514038086,-1.1627832651138306,0.010498016141355038,0.10781772,-0.06047566,255.5665,-83.15005500000002,2.8121287999999995,STD
507680096256.0,0.42635759711265564,0.8165168762207031,9.63569450378418,-1.1632325649261475,0.00923435389995575,0.096516706,-0.0571159,255.6622,-83.24979,2.8935266,STD
508101001216.0,0.4313376247882843,0.8174270391464233,9.647931098937988,-1.164197325706482,0.007686941418796778,0.08002335,-0.06352998,255.76425,-83.346214,2.967592,STD
508503293952.0,0.43631845712661743,0.8181867003440857,9.660028457641602,-1.1656759977340698,0.005887008737772703,0.06597344599999999,-0.06688975,255.86906,-83.4388,3.0415244,STD
508887826432.0,0.44130006432533264,0.818688154220581,9.671972274780273,-1.1676183938980103,0.0038745396304875612,0.06291912,-0.07971791,255.97485,-83.53187,3.105985,STD
509255319552.0,0.44628357887268066,0.8187927603721619,9.683755874633789,-1.1699401140213013,0.0016946486430242658,0.0720821,-0.07513642,256.081,-83.62015500000003,3.172616,STD
509606559744.0,0.4512676000595093,0.8184031844139099,9.695369720458984,-1.1725692749023438,-0.0006559952744282782,0.07452556,-0.06750060599999999,256.1927,-83.71173,3.2240167,STD
509942202368.0,0.45625221729278564,0.8174346089363098,9.706766128540039,-1.1753946542739868,-0.0032033142633736134,0.07941248,-0.07422013,256.3014,-83.80105,3.2709844,STD
510262935552.0,0.46123743057250977,0.8158207535743713,9.717883110046387,-1.1782974004745483,-0.005933548789471388,0.09193522,-0.07727446,256.40698,-83.88641,3.3195732,STD
510569447424.0,0.46622321009635925,0.8135611414909363,9.728665351867676,-1.1811472177505493,-0.008837318047881126,0.1133155,-0.07971791,256.50916,-83.96466,3.3568974000000003,STD
510862327808.0,0.4712126553058624,0.8106894493103027,9.739049911499023,-1.1837823390960693,-0.011903985403478146,0.1386664,-0.08155051,256.6066,-84.03987,3.392205,STD
511142166528.0,0.47620242834091187,0.807259202003479,9.749004364013672,-1.186118721961975,-0.015140905044972897,0.1563815,-0.083383106,256.69403,-84.11197,3.4156542,STD
511409553408.0,0.48119214177131653,0.8033826351165771,9.758465766906738,-1.1880916357040405,-0.01849433034658432,0.17470746,-0.0842994,256.7741,-84.18573,3.4377635000000004,STD
511665012736.0,0.48618173599243164,0.7991623878479004,9.767380714416504,-1.1896425485610962,-0.02193831093609333,0.1863139,-0.07727446,256.8482,-84.24155400000002,3.4615288,STD
511909101568.0,0.4911714196205139,0.7947269678115845,9.77562141418457,-1.1904423236846924,-0.025436323136091232,0.19364429,-0.06536258,256.9183,-84.29823,3.4856584,STD
512142311424.0,0.4961622357368469,0.7902143001556396,9.783028602600098,-1.1900405883789062,-0.02894853800535202,0.19242255,-0.06169739,256.98767000000004,-84.35435,3.5088644,STD
512365101056.0,0.5011532306671143,0.7857343554496765,9.789509773254395,-1.1881431341171265,-0.03243834897875786,0.18906279,-0.052839845,257.0502,-84.40441,3.5346427000000005,STD
512577961984.0,0.5061442255973816,0.7813848257064819,9.795098304748535,-1.1846896409988403,-0.03588342294096947,0.17745635,-0.044593163,257.11554,-84.45340999999998,3.5609093,STD
512781320192.0,0.5111351013183594,0.7772532105445862,9.799827575683594,-1.1796296834945679,-0.039243049919605255,0.15790866,-0.04520403,257.15747000000005,-84.47737,3.5887163,STD
512975568896.0,0.5161260962486267,0.7734007835388184,9.803766250610352,-1.1730167865753174,-0.042518287897109985,0.1386664,-0.03726278,257.20242,-84.49592,3.6206815,STD
513161166848.0,0.5211181640625,0.769877552986145,9.806997299194336,-1.1649401187896729,-0.045724205672740936,0.12583824,-0.038179077,257.25137,-84.51729,3.6493611000000006,STD
513338474496.0,0.5261104106903076,0.7667057514190674,9.809593200683594,-1.155490517616272,-0.048838939517736435,0.094989546,-0.03604105,257.29993,-84.52878,3.68033,STD
513507852288.0,0.5311026573181152,0.7638360857963562,9.811612129211426,-1.1447280645370483,-0.05188825726509094,0.06872234,-0.03756821,257.3508,-84.53650999999998,3.7092571,STD
513669660672.0,0.5360947251319885,0.7612234354019165,9.813108444213867,-1.1327099800109863,-0.05486941710114479,0.040927973,-0.04062254,257.4104,-84.53761,3.7437596,STD
513824260096.0,0.5410891175270081,0.7586790323257446,9.814204216003418,-1.1197903156280518,-0.05779663845896721,0.021991149,-0.044898596,257.4745,-84.53656,3.7767274,STD
513971945472.0,0.5460847616195679,0.7560219764709473,9.815017700195312,-1.1063508987426758,-0.06065679341554642,0.006414085,-0.044593163,257.54495,-84.53754,3.8095658,STD
514113044480.0,0.5510802268981934,0.7531111836433411,9.815645217895508,-1.0927196741104126,-0.06344611197710037,-0.0070249503,-0.040317107000000005,257.61746,-84.53075,3.8405225,STD
514247852032.0,0.5560754537582397,0.7498843669891357,9.81612491607666,-1.079181432723999,-0.0661432072520256,-0.022296581,-0.040927973,257.6942,-84.52758,3.8695843,STD
514376663040.0,0.5610703825950623,0.7462859153747559,9.816492080688477,-1.0659927129745483,-0.06869272887706757,-0.009468411,-0.03940081,257.78156,-84.54515,3.8894043,STD
514499739648.0,0.5660651922225952,0.742321252822876,9.816744804382324,-1.053403377532959,-0.07105937600135803,0.0030543262,-0.03726278,257.87244,-84.56325,3.9089742,STD
514617344000.0,0.5710609555244446,0.7380276918411255,9.816858291625977,-1.0416618585586548,-0.07323718070983887,0.01282817,-0.030848695,257.95944,-84.58227,3.9294946,STD
514729705472.0,0.576056718826294,0.7334562540054321,9.816815376281738,-1.0310004949569702,-0.07521526515483856,0.017104227,-0.025961773,258.05597,-84.616486,3.9467733,STD
514837086208.0,0.5810522437095642,0.7287093997001648,9.81660270690918,-1.021812081336975,-0.0769696906208992,0.02565634,-0.020158553,258.14767,-84.6506,3.965453,STD
514939715584.0,0.5860474109649658,0.7238795757293701,9.816207885742188,-1.0144463777542114,-0.0784926563501358,0.031154128,-0.020463986,258.24847,-84.69771,3.983598,STD
515037790208.0,0.5910425186157227,0.71905517578125,9.81563663482666,-1.0090423822402954,-0.07978736609220505,0.043676864,-0.018936822,258.34424,-84.74346,4.003184,STD
515131506688.0,0.596038818359375,0.7143231630325317,9.814908981323242,-1.0055718421936035,-0.08086514472961426,0.042455133,-0.020158553,258.44196,-84.78933,4.021571,STD
515221094400.0,0.6010349988937378,0.7097453474998474,9.814048767089844,-1.0039687156677246,-0.08174110949039459,0.050396383,-0.015882496,258.5591,-84.85005,4.049162,STD
515306717184.0,0.6060311198234558,0.7053589820861816,9.813112258911133,-1.0041241645812988,-0.08238685876131058,0.061086524,-0.013439035,258.67554,-84.91112,4.0752025000000005,STD
515388571648.0,0.6110296845436096,0.7012034058570862,9.812156677246094,-1.0059489011764526,-0.08284179121255875,0.076358154,-0.0012217305,258.79596000000004,-84.9663,4.106792,STD
515466854400.0,0.6160280108451843,0.6972979307174683,9.81121826171875,-1.009271264076233,-0.08312702178955078,0.071776666,0.005192355,258.91876,-85.02173,4.136805000000002,STD
515541696512.0,0.6210273504257202,0.6936667561531067,9.81033706665039,-1.0138614177703857,-0.08326714485883713,0.07086037,0.006414085,259.03577,-85.07018000000002,4.1677040000000005,STD
515613261824.0,0.6260262727737427,0.6903205513954163,9.809536933898926,-1.0194785594940186,-0.08326033502817154,0.08093964,0.010079277,259.1576,-85.11583,4.2011805,STD
515681714176.0,0.6310248970985413,0.6872501969337463,9.80881118774414,-1.0256500244140625,-0.08310884982347488,0.08155051,0.008246681,259.28204,-85.15776,4.2326435999999985,STD
515747184640.0,0.6360229849815369,0.6844463348388672,9.808155059814453,-1.031962513923645,-0.08282725512981415,0.07513642,0.004581489,259.40497,-85.19229,4.2644877,STD
515809804288.0,0.6410208940505981,0.6819010972976685,9.80759334564209,-1.0380593538284302,-0.08243505656719208,0.08277224,0.010995574,259.5231,-85.22130600000001,4.2976103,STD
515869704192.0,0.6460199952125549,0.6796079874038696,9.807169914245605,-1.0436190366744995,-0.08196479827165604,0.07360926,0.0076358155,259.64746,-85.24955,4.3262596,STD
515927015424.0,0.6510185599327087,0.677571713924408,9.8069429397583,-1.048426866531372,-0.08140682429075241,0.064751714,0.004886922,259.75116,-85.2628,4.356694,STD
515981869056.0,0.6560169458389282,0.6758225560188293,9.80702018737793,-1.0522786378860474,-0.08078309893608093,0.058643065,0.0030543262,259.8561,-85.27277,4.385584400000001,STD
516034363392.0,0.661014974117279,0.6743727326393127,9.807476997375488,-1.0550012588500977,-0.08009961247444153,0.044898596,0.0030543262,259.904442534027,-85.2735255064051,4.399402562770219,STD
516084629504.0,0.6660128831863403,0.6731818318367004,9.808313369750977,-1.056434154510498,-0.07939746975898743,0.027794369,-0.0018325958,259.954,-85.2743,4.413568,STD
516132732928.0,0.6710112690925598,0.672211229801178,9.809520721435547,-1.0564634799957275,-0.07868233323097229,0.013744468,-0.0015271631,260.04822,-85.27465,4.441538,STD
516178804736.0,0.6760095357894897,0.6714223623275757,9.811057090759277,-1.0551334619522095,-0.07793763279914856,0.025045475,0.0018325958,260.1293,-85.26488,4.4726343,STD
516222943232.0,0.6810095310211182,0.6707772016525269,9.812884330749512,-1.0524706840515137,-0.07718156278133392,0.0076358155,-0.0036651916,260.20895,-85.25717,4.49457,STD
516265213952.0,0.6860091090202332,0.670228898525238,9.814949989318848,-1.0484970808029175,-0.07641223818063736,0.004276057,-0.004886922,260.28055,-85.24876400000002,4.5177455,STD
516305715200.0,0.691008448600769,0.6696954369544983,9.817171096801758,-1.0431499481201172,-0.07566966116428375,0.00580322,-0.009162978,260.355,-85.2411,4.5378895,STD
516344545280.0,0.6960121989250183,0.6690822243690491,9.819456100463867,-1.036318063735962,-0.07493147999048233,0.027488936,-0.005497787,260.4208,-85.22886,4.5605720000000005,STD
516381769728.0,0.7010152339935303,0.6683830618858337,9.821759223937988,-1.0281505584716797,-0.07417503744363785,0.03145956,-0.009162978,260.49045,-85.219185,4.5793977,STD
516417454080.0,0.7060176134109497,0.6675848364830017,9.824024200439453,-1.0187731981277466,-0.07341045886278152,0.042760565999999986,-0.007330383,260.5413,-85.205345,4.596367400000001,STD
516451696640.0,0.71101975440979,0.6666673421859741,9.826189994812012,-1.0083707571029663,-0.07263641804456711,0.058643065,-0.0067195175,260.589,-85.194374,4.611365,STD
516484530176.0,0.7160212993621826,0.6656050682067871,9.828192710876465,-0.9971870183944702,-0.07183613628149033,0.0720821,-0.0036651916,260.63342,-85.18301,4.627018,STD
516516052992.0,0.7210235595703125,0.6644148230552673,9.829960823059082,-0.9854528903961182,-0.07099813967943192,0.07360926,-0.0012217305,260.67642,-85.173454,4.6397057,STD
516546297856.0,0.7260254621505737,0.663146436214447,9.831436157226562,-0.9733585119247437,-0.07011830061674118,0.076358154,0.0009162979,260.71463,-85.163956,4.6526523,STD
516575330304.0,0.7310267090797424,0.6618529558181763,9.832576751708984,-0.9610841274261475,-0.06921994686126709,0.07544186,0.005192355,260.75476000000003,-85.154434,4.6674647,STD
516603215872.0,0.7360274791717529,0.6606084704399109,9.833403587341309,-0.9488075971603394,-0.0683075487613678,0.08582657,0.0015271631,260.7905,-85.14761999999997,4.680009,STD
516630020096.0,0.7410274147987366,0.6594770550727844,9.833935737609863,-0.9366843104362488,-0.06740424036979675,0.086132,-0.002443461,260.8307,-85.1423,4.6927466,STD
516655775744.0,0.7460278868675232,0.6584469676017761,9.834189414978027,-0.924842357635498,-0.06649689376354218,0.081855945,-0.004886922,260.8689,-85.13861999999997,4.704385299999998,STD
516680548352.0,0.7510287761688232,0.6574872136116028,9.83418083190918,-0.913379967212677,-0.06562754511833191,0.07544186,-0.0076358155,260.9074,-85.13441999999998,4.714418,STD
516704370688.0,0.7560291290283203,0.6565883159637451,9.833956718444824,-0.9023852944374084,-0.06480252742767334,0.06658431,-0.0125227375,260.9542,-85.132645,4.7254057000000005,STD
516727308288.0,0.7610287666320801,0.6557600498199463,9.83359432220459,-0.8919492959976196,-0.06398835778236389,0.06566802,-0.005497787,261.00006,-85.1283,4.738632,STD
516749361152.0,0.7660278677940369,0.6549641489982605,9.833192825317383,-0.8822338581085205,-0.06320877373218536,0.05681047,-0.006414085,261.05084,-85.12711999999998,4.748918,STD
516770594816.0,0.7710279226303101,0.6541045308113098,9.832883834838867,-0.8734977841377258,-0.062466736882925034,0.04917465,-0.0143553335,261.1012,-85.12694,4.7588024,STD
516791074816.0,0.7760275602340698,0.6531110405921936,9.832764625549316,-0.8659195303916931,-0.06177694350481033,0.03573562,-0.020463986,261.16202000000004,-85.12722,4.7682743,STD
516810801152.0,0.7810270190238953,0.6519619226455688,9.832923889160156,-0.8595991730690002,-0.06115501746535301,0.028099801,-0.016187929,261.22287,-85.126396,4.778174,STD
516829806592.0,0.7860260605812073,0.6506640315055847,9.833433151245117,-0.8545748591423035,-0.06066334620118141,0.01863139,-0.01863139,261.2876,-85.12761,4.784287,STD
516848156672.0,0.7910248637199402,0.6492303609848022,9.834338188171387,-0.8508201241493225,-0.06030542775988579,0.016493361,-0.025350908,261.37384,-85.13726,4.7858105,STD
516865851392.0,0.7960275411605835,0.6476791501045227,9.83568286895752,-0.848263680934906,-0.06010136380791664,0.01038471,-0.02321288,261.46304,-85.14282,4.789237,STD
516882956288.0,0.8010293245315552,0.6460269093513489,9.837464332580566,-0.8468151688575745,-0.06007654592394829,0.004581489,-0.024740042,261.55566,-85.15552,4.7864017,STD
516899471360.0,0.8060306906700134,0.6442888379096985,9.839672088623047,-0.8464218378067017,-0.06025148555636406,-0.00580322,-0.022907447,261.6504,-85.16515,4.785372,STD
516915429376.0,0.8110315203666687,0.6424788236618042,9.842280387878418,-0.8470388650894165,-0.060621440410614014,-0.028710667,-0.028710667,261.7494,-85.17621,4.7819605,STD
516930863104.0,0.8160318732261658,0.6406678557395935,9.84522533416748,-0.8484851121902466,-0.06120850145816803,-0.02565634,-0.03359759,261.84705,-85.18764499999997,4.776945,STD
516945772544.0,0.8210325241088867,0.6389650702476501,9.84841537475586,-0.8504911065101624,-0.06202491372823715,-0.03176499,-0.03604105,261.9527,-85.19905,4.771359,STD
516960223232.0,0.8260328769683838,0.6374585628509521,9.851773262023926,-0.8528298139572144,-0.06305323541164398,-0.0421497,-0.040317107000000005,262.05872,-85.2133,4.762756,STD
516974215168.0,0.8310326337814331,0.6361818909645081,9.855216979980469,-0.8552854061126709,-0.06429371982812881,-0.035430185,-0.040317107000000005,262.1603,-85.22554000000002,4.755052,STD
516987748352.0,0.8360320925712585,0.6351283192634583,9.858660697937012,-0.8576498031616211,-0.06570781767368317,-0.03726278,-0.042760565999999986,262.266,-85.239006,4.7458973,STD
517000888320.0,0.8410311341285706,0.6342320442199707,9.862014770507812,-0.859771728515625,-0.06730300188064575,-0.04062254,-0.040927973,262.36084,-85.245804,4.741208,STD
517013635072.0,0.8460306525230408,0.633369505405426,9.865182876586914,-0.8615360856056213,-0.06906288862228394,-0.043066,-0.04795292,262.45465,-85.255615,4.733584400000002,STD
517025988608.0,0.8510296940803528,0.6324400901794434,9.868090629577637,-0.8628514409065247,-0.07095151394605637,-0.021685716,-0.051618114000000014,262.53314,-85.262794,4.7276015,STD
517038014464.0,0.8560283780097961,0.6313303112983704,9.870685577392578,-0.8635965585708618,-0.07291286438703537,-0.011911872,-0.05009095,262.61444,-85.27025,4.721419999999998,STD
517049679872.0,0.8610267043113708,0.6299394965171814,9.872920989990234,-0.8636651635169983,-0.07489825040102005,0.0021380284,-0.053145275,262.68958,-85.28174,4.7102814,STD
517061017600.0,0.8660277128219604,0.6282120943069458,9.874815940856934,-0.8629925847053528,-0.0768631100654602,0.002443461,-0.04550946,262.76465,-85.289604,4.703017,STD
517072060416.0,0.8710296154022217,0.6261557936668396,9.876431465148926,-0.8615933060646057,-0.07877188920974731,0.010995574,-0.038789943,262.83228,-85.29839,4.6949778,STD
517082808320.0,0.8760308027267456,0.6237856149673462,9.877814292907715,-0.8594716191291809,-0.08059462904930115,0.02107485,-0.038179077,262.88782000000003,-85.3118,4.681757,STD
517093294080.0,0.8810313940048218,0.6211408972740173,9.878968238830566,-0.8565831184387207,-0.08231078833341599,0.03176499,-0.025045475,262.93985,-85.319496,4.674393,STD
517103484928.0,0.8860315084457397,0.6182575821876526,9.879898071289062,-0.8528890609741211,-0.0839187502861023,0.041233405,-0.034513887,262.98822,-85.33019,4.663716,STD
517113446400.0,0.89103102684021,0.6151686310768127,9.880609512329102,-0.8483601212501526,-0.0854390412569046,0.040927973,-0.03023783,263.0356,-85.333115,4.6608605,STD
517123145728.0,0.8960315585136414,0.6119154095649719,9.881141662597656,-0.8430274128913879,-0.08691027760505676,0.030848695,-0.039095376,263.08246,-85.342285,4.6517053,STD
517132615680.0,0.9010315537452698,0.6085363626480103,9.881535530090332,-0.8369531035423279,-0.08833596855401993,0.028710667,-0.043066,263.1264,-85.34883,4.6452765,STD
517141889024.0,0.9060306549072266,0.6050398349761963,9.881893157958984,-0.8303192257881165,-0.0897454172372818,0.008552114,-0.03573562,263.1718,-85.35625,4.6369267,STD
517150932992.0,0.911029040813446,0.6014215350151062,9.882335662841797,-0.823348343372345,-0.09117534756660461,-0.007330383,-0.03604105,263.21585,-85.36658,4.625560299999999,STD
517159780352.0,0.9160267114639282,0.5977025032043457,9.882882118225098,-0.8161978721618652,-0.09258052706718445,-0.032986723,-0.03176499,263.2638,-85.37299999999998,4.618358,STD
517168463872.0,0.9210237860679626,0.5939167737960815,9.88349437713623,-0.8089842796325684,-0.09393872320652008,-0.03573562,-0.032986723,263.30884,-85.380516,4.6097035,STD
517176950784.0,0.9260208010673523,0.5900881290435791,9.884167671203613,-0.8018041253089905,-0.09527090191841125,-0.051923547,-0.036651913,263.37085,-85.393074,4.5966825,STD
517185273856.0,0.931017279624939,0.5862319469451904,9.88492202758789,-0.7947311997413635,-0.09661153703927994,-0.04734206,-0.029932396,263.4267,-85.40265,4.586689,STD
517193433088.0,0.9360144138336182,0.5823620557785034,9.885826110839844,-0.7878141403198242,-0.09796809405088425,-0.058337633,-0.0290161,263.5003,-85.411385,4.5777564,STD
517201428480.0,0.9410110116004944,0.5784907937049866,9.886950492858887,-0.7810813784599304,-0.09938278049230576,-0.056199603,-0.02687807,263.5677,-85.41712,4.571346,STD
517209292800.0,0.9460071921348572,0.5746821165084839,9.888300895690918,-0.7744983434677124,-0.10088024288415909,-0.055588737,-0.03756821,263.64227,-85.433304,4.5547314000000005,STD
517216993280.0,0.9510033130645752,0.5710223317146301,9.889850616455078,-0.7679998874664307,-0.10244244337081909,-0.051618114000000014,-0.03726278,263.714,-85.44526,4.5423403,STD
517224562688.0,0.9559992551803589,0.5675429701805115,9.891558647155762,-0.7616453170776367,-0.10414410382509232,-0.046120327,-0.03848451,263.79282,-85.460526,4.525509400000002,STD
517232033792.0,0.9609951376914978,0.5642480254173279,9.893377304077148,-0.7555532455444336,-0.10600235313177109,-0.043982297,-0.040011674,263.87006,-85.475655,4.5092615999999985,STD
517239373824.0,0.9659908413887024,0.5611468553543091,9.895264625549316,-0.7497503161430359,-0.10801301896572113,-0.043676864,-0.0421497,263.9407,-85.49311999999998,4.4899239999999985,STD
517246582784.0,0.9709870219230652,0.5582542419433594,9.89718246459961,-0.7441838979721069,-0.11014590412378311,-0.042760565999999986,-0.043982297,264.0092,-85.51015500000003,4.470911,STD
517253693440.0,0.9759835004806519,0.5555877089500427,9.899069786071777,-0.7388429045677185,-0.11240395903587341,-0.04337143,-0.04153884,264.07822000000004,-85.52558,4.4540267,STD
517260705792.0,0.9809800386428833,0.5531712174415588,9.900832176208496,-0.7337721586227417,-0.1147192046046257,-0.029321533,-0.034513887,264.14148,-85.54039,4.4385505,STD
517267619840.0,0.9859764575958252,0.5510119199752808,9.902392387390137,-0.7289737462997437,-0.11709301173686981,-0.03726278,-0.04062254,264.21802,-85.55363,4.423113,STD
517274435584.0,0.9909728765487671,0.549089252948761,9.903696060180664,-0.7243763208389282,-0.11949782073497772,-0.02687807,-0.039095376,264.28394,-85.56309,4.4122295,STD
517281153024.0,0.9959693551063538,0.5473673939704895,9.904707908630371,-0.7199839949607849,-0.12192618101835251,-0.03176499,-0.047036625,264.3559,-85.575005,4.399165,STD
517287804928.0,1.0009660720825195,0.5457909107208252,9.905416488647461,-0.715893030166626,-0.12436875700950623,-0.02687807,-0.04428773,264.42078,-85.58336,4.3899050000000015,STD
517294358528.0,1.0059641599655151,0.5443146228790283,9.905824661254883,-0.7121148109436035,-0.12678590416908264,-0.01160644,-0.043066,264.48587000000003,-85.58471999999998,4.387297599999999,STD
517300846592.0,1.0109621286392212,0.5429131388664246,9.905963897705078,-0.7085506319999695,-0.12918120622634888,-0.007330383,-0.034513887,264.55145,-85.5828,4.3876324,STD
517307269120.0,1.0159598588943481,0.5415616035461426,9.905860900878906,-0.705104410648346,-0.13151542842388153,0.004276057,-0.036651913,264.61395,-85.5875,4.3829910000000005,STD
517313626112.0,1.0209590196609497,0.5402728319168091,9.905598640441895,-0.7016870379447937,-0.13375617563724518,0.007330383,-0.04184427,264.67657,-85.59058,4.3799496,STD
517319917568.0,1.0259580612182617,0.5390637516975403,9.905253410339355,-0.6982361674308777,-0.13591545820236206,0.011301007,-0.032375857,264.7346,-85.59009,4.3804846,FOL
517326143488.0,1.0309568643569946,0.5379480719566345,9.904881477355957,-0.6947045922279358,-0.13800427317619324,0.004886922,-0.0290161,264.79462,-85.591515,4.3783345,FOL
517332303872.0,1.0359556674957275,0.53693026304245,9.904486656188965,-0.6910886764526367,-0.1400187909603119,-0.002443461,-0.028710667,264.85278,-85.591324,4.377961599999999,FOL
517338398720.0,1.0409542322158813,0.5360137224197388,9.904072761535645,-0.6873860955238342,-0.14196360111236572,-0.016493361,-0.03634648,264.90387000000004,-85.59031999999998,4.378033,FOL
517344428032.0,1.045953631401062,0.5351752042770386,9.903669357299805,-0.683620274066925,-0.14380225539207458,-0.020158553,-0.027488936,264.95316,-85.58530400000002,4.3827620000000005,FOL
517350424576.0,1.0509529113769531,0.5343894958496094,9.903306007385254,-0.6798182129859924,-0.14551971852779388,-0.036957346,-0.02687807,265.0094,-85.5847,4.3829699999999985,FOL
517356355584.0,1.0559518337249756,0.5336363315582275,9.90300464630127,-0.6760221123695374,-0.14710545539855957,-0.03481932,-0.03359759,265.05737,-85.58394,4.3837447,FOL
517362253824.0,1.060950517654419,0.5329145193099976,9.90276050567627,-0.6723464727401733,-0.14855042099952698,-0.030848695,-0.038179077,265.10873,-85.58285500000002,4.3851953,FOL
517368119296.0,1.0659489631652832,0.5322144031524658,9.902567863464355,-0.6688870787620544,-0.14986339211463928,-0.022296581,-0.040317107000000005,265.15802,-85.59402,4.3745008,FOL
517373919232.0,1.0709476470947266,0.5314427018165588,9.902421951293945,-0.6656727194786072,-0.15105432271957397,-0.020463986,-0.041233405,265.20734,-85.60603,4.3631935,FOL
517379686400.0,1.0759475231170654,0.5305131673812866,9.902318000793457,-0.6627296805381775,-0.15217238664627075,-0.0012217305,-0.049480084,265.25534,-85.62335,4.3467307,FOL
517385420800.0,1.0809470415115356,0.5293920636177063,9.902236938476562,-0.6600592732429504,-0.1532427966594696,0.016798794,-0.05009095,265.3024,-85.63855,4.332634,FOL
517391122432.0,1.0859463214874268,0.5280885100364685,9.90213394165039,-0.657640814781189,-0.15427787601947784,0.024129177,-0.05467244,265.34628,-85.65637,4.3155446,FOL
517396791296.0,1.0909453630447388,0.5266376733779907,9.901951789855957,-0.6554303765296936,-0.15529654920101166,0.02076942,-0.05589417,265.39496,-85.67774,4.294533,FOL
517402427392.0,1.0959447622299194,0.5251092314720154,9.901607513427734,-0.6533523201942444,-0.15633060038089752,0.035430185,-0.053145275,265.43564,-85.69834,4.273985,FOL
517408030720.0,1.100943922996521,0.5235626101493835,9.901034355163574,-0.6513423919677734,-0.1573815643787384,0.044593163,-0.05100725,265.48206,-85.720474,4.251794,FOL
517413601280.0,1.105943202972412,0.5220819711685181,9.900191307067871,-0.6492835879325867,-0.15845337510108948,0.05589417,-0.05222898,265.5229,-85.74175,4.2300754000000005,FOL
517419139072.0,1.1109424829483032,0.5207550525665283,9.899057388305664,-0.6470447182655334,-0.15956251323223114,0.058948494,-0.052839845,265.56274,-85.76144000000002,4.2097826,FOL
517424644096.0,1.1159416437149048,0.5196593403816223,9.897661209106445,-0.6445382237434387,-0.16072885692119598,0.052839845,-0.047647487,265.60153,-85.766655,4.203068,FOL
517430149120.0,1.120944619178772,0.5188855528831482,9.896076202392578,-0.6416873931884766,-0.1619587540626526,0.056199603,-0.03756821,265.63602000000003,-85.77036,4.197765,FOL
517435621376.0,1.1259469985961914,0.5184611082077026,9.894344329833984,-0.6384724974632263,-0.16320569813251495,0.06566802,-0.040011674,265.66382000000004,-85.770966,4.194795,FOL
517441060864.0,1.1309493780136108,0.5183744430541992,9.892450332641602,-0.6348580121994019,-0.16445744037628174,0.06047566,-0.04886922,265.69412,-85.77002,4.1928595999999985,FOL
517446467584.0,1.135951042175293,0.5186124444007874,9.89038372039795,-0.6308200359344482,-0.16567088663578033,0.05955936,-0.05131268,265.72134,-85.76380999999998,4.195795,FOL
517451874304.0,1.1409523487091064,0.5190507173538208,9.88814926147461,-0.6263399124145508,-0.1667945235967636,0.06078109,-0.06047566,265.74875,-85.76238000000002,4.1942010000000005,FOL
517457248256.0,1.1459540128707886,0.5195232629776001,9.885759353637695,-0.621404230594635,-0.16773991286754608,0.06872234,-0.064751714,265.77383,-85.76154,4.1932425,FOL
517462622208.0,1.150955080986023,0.5199156403541565,9.88322925567627,-0.6160439252853394,-0.1684352606534958,0.076052725,-0.053145275,265.80176,-85.75415,4.198089,FOL
517467963392.0,1.1559559106826782,0.5201557278633118,9.88058090209961,-0.610357940196991,-0.16876572370529175,0.079107046,-0.046731193,265.82806,-85.751755,4.200163400000001,FOL
517473304576.0,1.1609562635421753,0.5201964378356934,9.877842903137207,-0.6044259071350098,-0.16869622468948364,0.07574729,-0.042455133,265.85297,-85.74577,4.2050486,FOL
517478612992.0,1.1659563779830933,0.5200456380844116,9.875069618225098,-0.5982902646064758,-0.16819992661476135,0.07086037,-0.02687807,265.877,-85.7371,4.214769,FOL
517483921408.0,1.1709569692611694,0.519708514213562,9.872312545776367,-0.5919917225837708,-0.1672644019126892,0.06841691,-0.022602014,265.90027000000003,-85.733025,4.221285,FOL
517489197056.0,1.1759570837020874,0.5191741585731506,9.869619369506836,-0.5855859518051147,-0.1658650040626526,0.06963864,-0.016187929,265.92358,-85.72537,4.232516,FOL
517494472704.0,1.1809569597244263,0.5184313058853149,9.867035865783691,-0.5791243314743042,-0.1640520989894867,0.06505715,-0.008857545999999999,265.955,-85.715195,4.2454553,FOL
517499715584.0,1.1859564781188965,0.5174974799156189,9.864583969116211,-0.5726326704025269,-0.16188673675060272,0.057421334,-0.007330383,265.98663,-85.706,4.2580295,FOL
517504958464.0,1.1909584999084473,0.516410768032074,9.862272262573242,-0.5661168694496155,-0.15943767130374908,0.058643065,-0.008857545999999999,266.01678,-85.69582,4.2712245000000015,FOL
517510201344.0,1.1959607601165771,0.5151866674423218,9.860081672668457,-0.5596164464950562,-0.15680287778377533,0.05131268,-0.015271631,266.04892,-85.69886,4.2708855,FOL
517515411456.0,1.2009625434875488,0.5138301849365234,9.857980728149414,-0.5531862378120422,-0.15402472019195557,0.048563786,-0.01740966,266.07913,-85.70132,4.2711864,FOL
517520621568.0,1.2059639692306519,0.5123452544212341,9.855918884277344,-0.5468319058418274,-0.15119275450706482,0.051618114000000014,-0.014966198,266.1127,-85.69927,4.2742724,FOL
517525831680.0,1.2109649181365967,0.5107359886169434,9.85383129119873,-0.5405101776123047,-0.14838393032550812,0.052839845,-0.016187929,266.14716,-85.69889,4.27554,FOL
517531009024.0,1.2159653902053833,0.5089839100837708,9.851666450500488,-0.5341663956642151,-0.1456567347049713,0.044898596,-0.020158553,266.18082000000004,-85.70193,4.273303,FOL
517536186368.0,1.2209663391113281,0.5070456266403198,9.84938907623291,-0.5277324318885803,-0.14300265908241272,0.032986723,-0.021991149,266.21484,-85.70472,4.2712900000000005,FOL
517541363712.0,1.2259669303894043,0.504917562007904,9.846997261047363,-0.5211698412895203,-0.14042770862579346,0.015271631,-0.01740966,266.25986,-85.71134,4.2638106,FOL
517546508288.0,1.2309671640396118,0.50269615650177,9.84458065032959,-0.5144904255867004,-0.13791798055171967,-0.00030543262000000003,-0.005497787,266.3069,-85.7165,4.258179,FOL
517551652864.0,1.2359668016433716,0.5004662871360779,9.842217445373535,-0.5077056288719177,-0.13541831076145172,-0.007941248,-0.0015271631,266.35342,-85.72573,4.2481446,FOL
517556797440.0,1.2409662008285522,0.49833786487579346,9.840048789978027,-0.5008723735809326,-0.13285063207149506,-0.011301007,0.01282817,266.40228,-85.72893,4.244753,FOL
517561942016.0,1.2459661960601807,0.4964453876018524,9.838274955749512,-0.4940909147262573,-0.13015641272068024,-0.022907447,0.033292156,266.45483,-85.72963,4.244482,FOL
517567086592.0,1.2509658336639404,0.49486243724823,9.837005615234375,-0.48741862177848816,-0.12727835774421692,-0.01985312,0.05131268,266.50244,-85.72218000000002,4.2532163,FOL
517572198400.0,1.2559653520584106,0.49356138706207275,9.836201667785645,-0.48083269596099854,-0.12410491704940796,-0.005497787,0.07696902,266.54932,-85.7085,4.269598,FOL
517577310208.0,1.2609671354293823,0.4925166964530945,9.835829734802246,-0.47430744767189026,-0.12057079374790192,0.021991149,0.094989546,266.59103,-85.69136,4.2904215,FOL
517582422016.0,1.2659685611724854,0.4917238652706146,9.835867881774902,-0.46786555647850037,-0.11663148552179337,0.053145275,0.10048734,266.62717000000004,-85.6719,4.3141675,FOL
517587533824.0,1.270970344543457,0.49119606614112854,9.836310386657715,-0.46155375242233276,-0.1122526079416275,0.09560041,0.121256754,266.65192,-85.64393000000003,4.346415,FOL
517592645632.0,1.27597177028656,0.49094828963279724,9.837051391601562,-0.4553656280040741,-0.10740198194980621,0.13469578,0.13500121,266.67087000000004,-85.61447,4.379486,FOL
517597757440.0,1.2809727191925049,0.49101898074150085,9.837679862976074,-0.4491499960422516,-0.10202695429325104,0.17440203,0.14508049,266.67767000000003,-85.58086999999998,4.416174400000001,FOL
517602836480.0,1.285973310470581,0.4914414584636688,9.837827682495117,-0.4427720308303833,-0.09612519294023514,0.2098322,0.14477506,266.67682,-85.54271999999997,4.456415,FOL
517607915520.0,1.290973424911499,0.4921756684780121,9.83709716796875,-0.4362223148345947,-0.08966487646102905,0.22937989,0.14538592,266.66986,-85.50169,4.4983087,FOL
517612994560.0,1.2959741353988647,0.49316468834877014,9.835086822509766,-0.4295222759246826,-0.08268587291240692,0.2751948,0.14385876,266.64606000000003,-94.53877,4.5380697,FOL
517618073600.0,1.3009744882583618,0.4943593144416809,9.831496238708496,-0.4226932227611542,-0.07515424489974976,0.30451632,0.13194689,266.60895,-94.57456,4.571453,FOL
517623152640.0,1.3059760332107544,0.4957141876220703,9.826000213623047,-0.41575342416763306,-0.06702900677919388,0.32834008,0.12797627,266.56168,-94.61278,4.605512,FOL
517628231680.0,1.3109772205352783,0.49724939465522766,9.818720817565918,-0.4087441861629486,-0.0581701435148716,0.34208453,0.12370021,266.51047,-94.64962,4.6350989999999985,FOL
517633310720.0,1.315977931022644,0.49898701906204224,9.809762001037598,-0.40170395374298096,-0.0486147366464138,0.35124752,0.12492194,266.45425,-94.69293,4.6697187000000016,FOL
517638356992.0,1.3209781646728516,0.5009293556213379,9.79936695098877,-0.39469626545906067,-0.0383242592215538,0.35430184,0.106901415,266.39783,-94.73376,4.6966605,FOL
517643403264.0,1.325978398323059,0.5030633211135864,9.78789234161377,-0.3878059983253479,-0.02722029574215412,0.36071593,0.094989546,266.33984,-94.7799,4.724778,FOL
517648449536.0,1.3309805393218994,0.505436360836029,9.775909423828125,-0.3812068998813629,-0.015306874178349972,0.35796702,0.08399397,266.2791,-94.826004,4.7479143,FOL
517653495808.0,1.335982084274292,0.50810307264328,9.763947486877441,-0.37505975365638733,-0.0026124597061425447,0.35979962,0.06841691,266.2176,-94.87311,4.765813,FOL
517658542080.0,1.3409831523895264,0.5111323595046997,9.752697944641113,-0.36953020095825195,0.010857773013412952,0.344528,0.055283304000000005,266.16333,-94.92424,4.779481400000001,FOL
517663588352.0,1.345984935760498,0.5145964026451111,9.74303913116455,-0.3647540211677551,0.025090910494327545,0.34116822,0.047036625,266.1075,-94.97831,4.78993,FOL
517668634624.0,1.3509862422943115,0.5185368061065674,9.735605239868164,-0.3608255386352539,0.04002636671066284,0.3555236,0.03481932,266.05798,-95.034744,4.7913885,FOL
517673680896.0,1.3559871912002563,0.5229765176773071,9.73097038269043,-0.3578559458255768,0.05561479181051254,0.36957347,0.03268129,266.0119,-95.100266,4.7935690000000015,FOL
517678727168.0,1.3609875440597534,0.5279326438903809,9.729620933532715,-0.355937659740448,0.07174763828516006,0.39461896,0.02565634,265.96854,-95.1704,4.7922150000000014,FOL
517683773440.0,1.3659876585006714,0.5334745645523071,9.732274055480957,-0.3552875518798828,0.08830699324607849,0.4111123,0.03176499,265.92593,-95.24974,4.7943788,FOL
517688819712.0,1.3709886074066162,0.5397250652313232,9.73990249633789,-0.3562491238117218,0.10511569678783417,0.45570546,0.040011674,265.8703,-95.32867,4.7960544,FOL
517693865984.0,1.3759890794754028,0.5467286705970764,9.75294303894043,-0.35899460315704346,0.1220402792096138,0.49296826,0.035430185,265.8117,-95.419815,4.797909,FOL
517698912256.0,1.3809895515441895,0.5543662309646606,9.770818710327148,-0.3634154796600342,0.13898248970508575,0.54153204,0.028405234,265.7395,-95.51189,4.8022766,FOL
517703958528.0,1.3859903812408447,0.5625293254852295,9.792997360229492,-0.3694095313549042,0.15584294497966766,0.5992588000000001,0.014660766,265.67902000000004,-95.61577,4.8084574,FOL
517708972032.0,1.3909908533096313,0.5710986852645874,9.81877613067627,-0.3768240511417389,0.17247812449932098,0.61483586,0.005192355,265.6188,-95.71528,4.81405,FOL
517713985536.0,1.3959921598434448,0.5799379348754883,9.847269058227539,-0.3854706585407257,0.18882513046264648,0.6533204,-0.035430185,265.53702000000004,-95.80545,4.8082232000000005,FOL
517718999040.0,1.4009947776794434,0.5889264941215515,9.877689361572266,-0.3951776623725891,0.20480671525001526,0.6951646,-0.118507855,265.44696,-95.87963,4.782188,FOL
517724012544.0,1.4059967994689941,0.597847044467926,9.90885066986084,-0.4056459963321686,0.22027312219142914,0.7119634,-0.15241088,265.35556,-95.94952,4.759739,FOL
517729026048.0,1.4109985828399658,0.6063907742500305,9.93914794921875,-0.41647636890411377,0.23515580594539642,0.72143185,-0.21899518,265.25476000000003,-95.99437,4.7064757,FOL
517734039552.0,1.4159998893737793,0.6141878962516785,9.96669864654541,-0.42739400267601013,0.24939411878585815,0.74006325,-0.2968805,265.14642000000003,-96.02392,4.644038,FOL
517739053056.0,1.42100191116333,0.6207720637321472,9.98916244506836,-0.43819519877433777,0.26284706592559814,0.7602218000000001,-0.37201694,265.0361,-96.03055,4.565931,FOL
517744066560.0,1.4260032176971436,0.6258147954940796,10.004876136779785,-0.4487246572971344,0.2753722667694092,0.7883216,-0.45448375,264.90173,-96.00701,4.461059,FOL
517749080064.0,1.4310040473937988,0.6290770769119263,10.012762069702148,-0.45889154076576233,0.2868230640888214,0.80756384,-0.5338961999999999,264.76526,-95.958534,4.339449,FOL
517754093568.0,1.436004638671875,0.630405068397522,10.012224197387695,-0.468649685382843,0.29711878299713135,0.820392,-0.6221663000000001,264.6233,-95.88535,4.1964297,FOL
517759107072.0,1.4410048723220825,0.6296449899673462,10.00329875946045,-0.4781106114387512,0.3061453104019165,0.8518515999999999,-0.70921457,264.46155,-95.77997,4.0235677,FOL
517764120576.0,1.4460092782974243,0.6265290975570679,9.986117362976074,-0.48750993609428406,0.31383606791496277,0.8943066999999999,-0.8029824000000001,264.29337000000004,-95.652214,3.8295662,FOL
517769134080.0,1.4510126113891602,0.6210623383522034,9.96119499206543,-0.4969455897808075,0.3201724588871002,0.9230174,-0.9092729,264.11035,-95.50281,3.6077309,FOL
517774147584.0,1.4560152292251587,0.6132313013076782,9.929754257202148,-0.5065652132034302,0.3250722587108612,0.9673051,-1.0161743,263.9112,-95.32528,3.3667326,FOL
517779161088.0,1.4610172510147095,0.603111982345581,9.893654823303223,-0.5165002942085266,0.32853007316589355,1.0173961,-1.1169671,263.70245,-95.13339,3.105192,FOL
517784174592.0,1.4660186767578125,0.5907769799232483,9.854811668395996,-0.5269946455955505,0.330516517162323,1.0684034,-1.2195925,263.48865,-94.925766,2.8064873,FOL
517789188096.0,1.4710216522216797,0.5762656927108765,9.815361976623535,-0.5384241342544556,0.33102941513061523,1.1459832,-1.3341297,263.25296000000003,-94.70471,2.4861062,FOL
517794201600.0,1.4760239124298096,0.559682309627533,9.776776313781738,-0.5509962439537048,0.3300510048866272,1.2351695,-1.4437801,262.99356,-94.47603,2.1373272,FOL
517799215104.0,1.4810255765914917,0.5411419868469238,9.740792274475098,-0.5648958683013916,0.32755663990974426,1.3536774,-1.5564847,262.704,-94.239494,1.7676478999999998,FOL
517804228608.0,1.486026406288147,0.5207574367523193,9.70891284942627,-0.5802755951881409,0.32350245118141174,1.4153748,-1.6154331,262.4087,-94.0281,1.3729582,FOL
517809242112.0,1.491026759147644,0.4986470341682434,9.682196617126465,-0.5971676707267761,0.3179776668548584,1.5421293,-1.7150042,262.0612,-93.83256,0.95066077,FOL
517814255616.0,1.496027946472168,0.4749221205711365,9.661477088928223,-0.6155451536178589,0.3109145760536194,1.6691893,-1.7880026000000002,261.699,-93.64157,0.5326975,FOL
517819269120.0,1.5010285377502441,0.4497373700141907,9.647059440612793,-0.6353529691696167,0.3022482097148895,1.7864754,-1.8362609,261.30817,-93.50685,0.09220416,FOL
517824282624.0,1.5060285329818726,0.4234030842781067,9.638025283813477,-0.6565828919410706,0.2919352948665619,1.8848248,-1.8545868000000003,260.89007999999995,-93.40385,-0.34484118,FOL
517829296128.0,1.5110279321670532,0.39619964361190796,9.633540153503418,-0.6792213916778564,0.27991658449172974,1.9825631,-1.8460348,260.43445,-93.34931,-0.7867549,FOL
517834309632.0,1.5160298347473145,0.36851832270622253,9.63212776184082,-0.7033314108848572,0.26617762446403503,2.0561724,-1.7983873,259.96335,-93.332306,-1.2078274,FOL
517839323136.0,1.521032452583313,0.3406921625137329,9.632508277893066,-0.7289064526557922,0.25075721740722656,2.1383338,-1.7275269,259.46817000000004,-93.3466,-1.6055777,FOL
517844336640.0,1.5260343551635742,0.31304416060447693,9.633478164672852,-0.7560614347457886,0.2337174415588379,2.2296581,-1.6468927,258.95328,-93.40682,-1.980128,FOL
517849350144.0,1.5310356616973877,0.2860337793827057,9.63354778289795,-0.7857103943824768,0.2152964025735855,2.4022276,-1.5473217,258.39935,-93.490364,-2.3164563,FOL
517854363648.0,1.5360362529754639,0.26006919145584106,9.631391525268555,-0.8186602592468262,0.19568882882595062,2.6612344,-1.45783,257.80444,-93.59825,-2.622651,FOL
517859377152.0,1.5410363674163818,0.23554444313049316,9.625598907470703,-0.8557515144348145,0.17520277202129364,3.0234776,-1.3497068,257.13983,-93.71093,-2.8841639,FOL
517864390656.0,1.5460374355316162,0.2128618210554123,9.614635467529297,-0.8979071378707886,0.1542399823665619,3.442531,-1.2638801000000002,256.3947,-93.82838,-3.1169755,FOL
517869404160.0,1.5510379076004028,0.19236598908901215,9.597430229187012,-0.9457160234451294,0.13335099816322327,3.8612792,-1.1023063999999998,255.59685,-93.972855,-3.2806165000000003,FOL
517874417664.0,1.5560379028320312,0.17488645017147064,9.57246208190918,-1.0000971555709839,0.1133100837469101,4.3692136,-0.8909469999999999,254.66824,-94.108345,-3.3943233,FOL
517879431168.0,1.5610371828079224,0.16112098097801208,9.538474082946777,-1.061794400215149,0.09484434127807617,4.9648075,-0.68936145,253.65927,-94.287025,-3.4499303999999995,FOL
517884444672.0,1.5660357475280762,0.15151220560073853,9.494709014892578,-1.1306312084197998,0.07843787968158722,5.551238,-0.51159966,252.53026,-94.45176,-3.4395106,FOL
517889458176.0,1.5710352659225464,0.14590498805046082,9.441601753234863,-1.2037776708602905,0.06431487947702408,6.0023620000000015,-0.36926803,251.29648,-94.61523,-3.3700745000000003,FOL
517894471680.0,1.5760343074798584,0.1441439688205719,9.37974739074707,-1.2788957357406616,0.05243122950196266,6.2076125,-0.27214047,249.9863,-94.9427,-3.2574666000000003,FOL
517899485184.0,1.5810329914093018,0.14652147889137268,9.310141563415527,-1.352277398109436,0.04238276928663254,6.162714,-0.25442538,248.63254,-95.285706,-3.1108317000000003,FOL
517904498688.0,1.586032509803772,0.15334093570709229,9.233692169189453,-1.420349359512329,0.033504512161016464,5.3481255,-0.27030787,247.38754,-95.548744,-2.9536011,FOL
517909512192.0,1.5910316705703735,0.16545578837394714,9.151559829711914,-1.4794292449951172,0.02481372281908989,4.8734827,-0.2910773,246.07497,-95.767075,-2.7804098,FOL
517914525696.0,1.5960317850112915,0.18432247638702393,9.06505012512207,-1.5248374938964844,0.01579168438911438,3.4825428,-0.32742378,245.26987000000003,-95.981224,-2.6564417,FOL
517919539200.0,1.6010314226150513,0.21090885996818542,8.975574493408203,-1.5539907217025757,0.005930198822170496,1.5399913,-0.39645153,244.60818,-95.91157,-2.5587952,FOL
517924519936.0,1.6060305833816528,0.24647316336631775,8.886576652526855,-1.5684492588043213,-0.004641758743673563,-0.34208453,-0.4447099,244.33383,-95.847855,-2.5027947,FOL
517929500672.0,1.6110292673110962,0.2921004891395569,8.801119804382324,-1.5696535110473633,-0.01570161245763302,-1.8521434,-0.44959682,244.24005,-95.4163,-2.4120646,FOL
517934514176.0,1.6160277128219604,0.3472121059894562,8.72122573852539,-1.5618743896484375,-0.02696174383163452,-2.8857274,-0.40439278,244.55345,-94.99642,-2.3497994,FOL
517939527680.0,1.6210272312164307,0.4102475345134735,8.648344993591309,-1.5512021780014038,-0.03803368657827377,-3.3628132000000006,-0.31184670000000003,245.14478,-94.59659,-2.2887201,FOL
517944508416.0,1.6260262727737427,0.4797448515892029,8.58333969116211,-1.5420809984207153,-0.04843535274267197,-3.372587,-0.17806722,245.91034,-94.154274,-2.0857651,FOL
517949521920.0,1.6310250759124756,0.5535620450973511,8.52653980255127,-1.5383713245391846,-0.05763420835137367,-3.032335,-0.043982297,246.71774,-93.74099,-1.8502235,FOL
517954502656.0,1.6360234022140503,0.6297860145568848,8.478201866149902,-1.5434582233428955,-0.0651702731847763,-2.5271494,0.09162979,247.65456,-93.6824,-1.5807437,FOL
517959483392.0,1.6410213708877563,0.7052121162414551,8.436473846435547,-1.5594860315322876,-0.07079127430915833,-2.0060816000000004,0.18845193,248.4845,-93.678986,-1.2796807,FOL
517964496896.0,1.6460201740264893,0.7756496667861938,8.398058891296387,-1.58794367313385,-0.07436590641736984,-1.5430456,0.24587326,249.18217,-93.74709,-0.946861,FOL
517969510400.0,1.651018738746643,0.838194727897644,8.360444068908691,-1.6292115449905396,-0.07582306116819382,-1.1960741,0.2929099,249.89609,-94.204056,-0.66537786,FOL
517974523904.0,1.6560170650482178,0.8912125825881958,8.321561813354492,-1.6814755201339722,-0.07508768141269684,-0.96852684,0.34147367,250.50497,-94.71655,-0.36972412,FOL
517979504640.0,1.6610147953033447,0.9332931041717529,8.279587745666504,-1.743083119392395,-0.07199202477931976,-0.7690793,0.38820487,251.1173,-95.4944,-0.31761223,FOL
517984518144.0,1.6660122871398926,0.9636338949203491,8.233159065246582,-1.811760425567627,-0.06632999330759048,-0.59742624,0.42271876,251.67113,-96.29214,-0.24982005,FOL
517989498880.0,1.6710094213485718,0.9817165732383728,8.181199073791504,-1.8853307962417603,-0.057918090373277664,-0.49357912,0.41172317,252.18695,-97.11472,-0.1785773,FOL
517994479616.0,1.6760063171386719,0.9874101281166077,8.123032569885254,-1.9615209102630615,-0.046559758484363556,-0.49968776,0.29657507,252.67462,-97.974266,-0.28184545,FOL
517999493120.0,1.6810030937194824,0.9814293384552002,8.058815002441406,-2.0376107692718506,-0.0320117361843586,-0.54825157,0.070554934,253.14377,-98.87145,-0.40943575,FOL
518004506624.0,1.685999870300293,0.965333104133606,7.989733695983887,-2.1109602451324463,-0.014129244722425938,-0.70432764,-0.056505036,253.58444,-99.731575,-0.63679504,FOL
518009520128.0,1.6909966468811035,0.9420252442359924,7.918585777282715,-2.178814172744751,0.006908722687512636,-0.9077458,-0.28680122,254.04001,-100.61357,-0.9501432,FOL
518014533632.0,1.695993423461914,0.9141297936439514,7.847874641418457,-2.2389230728149414,0.03111148066818714,-1.2953397,-0.473726,254.48836,-101.45282,-1.3023848999999998,FOL
518019514368.0,1.700990080833435,0.883998453617096,7.779799461364746,-2.289793014526367,0.0580984428524971,-1.920255,-0.6404922,255.0476,-102.27806,-1.7349114,FOL
518024495104.0,1.7059866189956665,0.8537645936012268,7.716346263885498,-2.3300888538360596,0.08683789521455765,-2.463314,-0.77579886,255.58801,-102.86854,-2.1539770000000003,FOL
518029475840.0,1.7109830379486084,0.826158881187439,7.660081386566162,-2.3611061573028564,0.11596819758415222,-2.6719246,-0.8414669,256.1969,-103.41832,-2.609426,FOL
518034489344.0,1.7159795761108398,0.8052184581756592,7.614850997924805,-2.3886969089508057,0.14413513243198395,-2.4782803,-0.87995136,256.8287,-103.893616,-3.0922534,FOL
518039502848.0,1.7209771871566772,0.7925801277160645,7.582202434539795,-2.4168002605438232,0.17019450664520264,-1.890628,-0.87872964,257.29626,-104.02226,-3.4465168,FOL
518044483584.0,1.7259745597839355,0.7872889637947083,7.5611348152160645,-2.4469785690307617,0.1933402270078659,-1.0790935,-0.8524625,257.63593,-104.05827,-3.7624185,FOL
518049497088.0,1.7309718132019043,0.7879880666732788,7.550771713256836,-2.480224609375,0.2129361480474472,-0.204029,-0.82986045,257.89316,-104.17479,-3.837336,FOL
518054510592.0,1.735969066619873,0.7922377586364746,7.550392150878906,-2.5160679817199707,0.22851158678531647,0.54702985,-0.79473567,257.95755,-104.20234,-3.8524039,FOL
518059491328.0,1.7409660816192627,0.7981348633766174,7.559083938598633,-2.5539398193359375,0.23968471586704254,1.0430524,-0.7629706999999999,257.88354,-104.25981,-3.8215523,FOL
518064504832.0,1.7459644079208374,0.8041675686836243,7.575578689575195,-2.593010902404785,0.24629931151866913,1.2605205,-0.743423,257.68005,-104.25264,-3.7537045,FOL
518069518336.0,1.7509626150131226,0.8092321157455444,7.598776340484619,-2.63263201713562,0.24840094149112701,1.2501358,-0.754724,257.38486,-104.202286,-3.7451153,FOL
518074499072.0,1.7559605836868286,0.8128108382225037,7.627344131469727,-2.6722421646118164,0.2462037354707718,1.0797043,-0.7968736999999999,257.07867000000005,-104.10998,-3.739003700000001,FOL
518079512576.0,1.7609586715698242,0.8146172761917114,7.659965991973877,-2.7113518714904785,0.24005930125713348,0.84482664,-0.8668178,256.79608,-103.99488,-3.7519817,FOL
518084526080.0,1.7659567594528198,0.8145292401313782,7.696326732635498,-2.7497613430023193,0.23044143617153168,0.57635134,-0.9254609,256.5495,-103.86773,-3.8649242,FOL
518089539584.0,1.7709599733352661,0.8124213814735413,7.736824035644531,-2.7874081134796143,0.21775516867637634,0.25381452,-0.9673051,256.38406000000003,-103.73488,-4.009687,FOL
518094553088.0,1.775962471961975,0.808361291885376,7.781322002410889,-2.8242528438568115,0.2022516280412674,0.10629055,-1.0317514,256.23346000000004,-103.60308,-4.2076874,FOL
518099566592.0,1.780964970588684,0.8026882410049438,7.830341339111328,-2.860609531402588,0.18412138521671295,-0.19150625,-1.119716,256.21082,-103.4813,-4.44796,FOL
518104580096.0,1.7859668731689453,0.7957944273948669,7.884328842163086,-2.896820068359375,0.16350193321704865,-0.25320363,-1.153619,256.16187,-103.353676,-4.6778010000000005,FOL
518109560832.0,1.7909682989120483,0.7877272367477417,7.9433794021606445,-2.9328298568725586,0.1406320184469223,-0.3912592,-1.20371,256.21118,-103.231125,-4.96929,FOL
518114574336.0,1.7959716320037842,0.7782161831855774,8.007328033447266,-2.9682304859161377,0.11565390974283218,-0.5910121,-1.289842,256.2877,-103.103096,-5.277603,FOL
518119587840.0,1.8009744882583618,0.7671074867248535,8.075888633728027,-3.002753257751465,0.08856407552957535,-0.66828656,-1.3271046999999998,256.3779,-102.97488,-5.573213,FOL
518124568576.0,1.8059768676757812,0.7538335919380188,8.14907455444336,-3.0362582206726074,0.05958045274019241,-0.7883216,-1.4162911,256.52286000000004,-102.88238,-5.9102407,FOL
518129549312.0,1.810978651046753,0.7378910779953003,8.226885795593262,-3.068622589111328,0.028786655515432358,-0.90377516,-1.5125023000000002,256.6853,-102.75896,-6.2819047,FOL
518134562816.0,1.8159799575805664,0.7188907265663147,8.309324264526367,-3.099958658218384,-0.003728568321093917,-0.9987647,-1.6074919,256.86484,-102.66147,-6.669859,FOL
518139576320.0,1.8209823369979858,0.6964685320854187,8.39644718170166,-3.1305291652679443,-0.03787644952535629,-1.0375546,-1.7272215,257.04822,-102.58695,-7.080422,FOL
518144557056.0,1.8259841203689575,0.670553982257843,8.488194465637207,-3.1605112552642822,-0.0736204981803894,-1.0564915,-1.8564194,257.23697000000004,-102.54193,-7.5570273,FOL
518149570560.0,1.8309855461120605,0.6415506601333618,8.584817886352539,-3.19002103805542,-0.11089225113391876,-1.0201449,-1.9706513,257.40936,-102.53048,-8.044395,FOL
518154584064.0,1.8359867334365845,0.6098290085792542,8.686530113220215,-3.2191641330718994,-0.1496555060148239,-0.9486737,-2.0754147,257.57635,-102.569115,-8.581311,FOL
518159597568.0,1.840990424156189,0.5761274695396423,8.793094635009766,-3.2476868629455566,-0.18998201191425323,-0.8668178,-2.1746802000000005,257.71918,-102.63744,-9.126637,FOL
518164611072.0,1.8459949493408203,0.5411561727523804,8.903953552246094,-3.2752928733825684,-0.2318856567144394,-0.79351395,-2.2424862,257.8356,-102.73878,-9.670008,FOL
518169624576.0,1.8509985208511353,0.5056405067443848,9.018464088439941,-3.3016440868377686,-0.27539435029029846,-0.7110472,-2.3099868,257.92883,-102.871994,-10.226355,FOL
518174605312.0,1.8560014963150024,0.47045883536338806,9.135832786560059,-3.3262553215026855,-0.3205623924732208,-0.64873886,-2.371379,258.00052,-103.0304,-10.7785425,FOL
518179586048.0,1.8610037565231323,0.4362666606903076,9.25516128540039,-3.3487038612365723,-0.367401659488678,-0.59864795,-2.4291058,258.05844,-103.204796,-11.323246,FOL
518184566784.0,1.866005301475525,0.40355291962623596,9.375467300415039,-3.3686022758483887,-0.4159492254257202,-0.5821546,-2.4828618,258.10342,-103.40575,-11.864929,FOL
518189580288.0,1.8710076808929443,0.3727464973926544,9.495660781860352,-3.3856873512268066,-0.46621355414390564,-0.5983425,-2.540894,258.15326,-103.63138,-12.406704,FOL
518194561024.0,1.8760093450546265,0.3441013693809509,9.61475658416748,-3.3999111652374268,-0.5181678533554077,-0.59986967,-2.6004534,258.19037000000003,-103.89115,-12.945722,FOL
518199541760.0,1.8810101747512817,0.31777969002723694,9.731691360473633,-3.4113271236419678,-0.5717911124229431,-0.61850107,-2.637716,258.28223,-104.17815,-13.489522,FOL
518204522496.0,1.8860105276107788,0.29381272196769714,9.845318794250488,-3.4201321601867676,-0.6269167065620422,-0.6603453,-2.7000244,258.37802,-104.517426,-14.040634,FOL
518209503232.0,1.8910102844238281,0.27220824360847473,9.954626083374023,-3.4264962673187256,-0.6835070848464966,-0.68111473,-2.7690523,258.5078,-104.9038,-14.606546,FOL
518214516736.0,1.8960109949111938,0.2529458999633789,10.058525085449219,-3.4305050373077393,-0.7415124773979187,-0.70005155,-2.8365529,258.648,-105.33601000000002,-15.173008,FOL
518219530240.0,1.9010119438171387,0.23597466945648193,10.156235694885254,-3.432244300842285,-0.8008676767349243,-0.70280045,-2.903137,258.81424,-105.829094,-15.760344,FOL
518224510976.0,1.9060121774673462,0.22118431329727173,10.247261047363281,-3.4315185546875,-0.8614922165870667,-0.7440339,-2.9987376,258.99713,-106.3727,-16.357635000000002,FOL
518229524480.0,1.9110147953033447,0.20849214494228363,10.330931663513184,-3.428039789199829,-0.9232513904571533,-0.8491027,-3.107166,259.21735,-73.01608,-16.983654,FOL
518234537984.0,1.916016697883606,0.19781504571437836,10.406949043273926,-3.4213738441467285,-0.985977828502655,-0.91690874,-3.1401527,259.43994,-72.38124,-17.59585,FOL
518239551488.0,1.9210193157196045,0.18914854526519775,10.474644660949707,-3.4104089736938477,-1.049373984336853,-1.0940597,-3.1871893,259.72775,-71.69776999999998,-18.22224,FOL
518244532224.0,1.9260212182998657,0.18244709074497223,10.533541679382324,-3.3940157890319824,-1.113092303276062,-1.3652838,-3.2287283,260.0939,-70.96681,-18.858915,FOL
518249512960.0,1.9310222864151,0.17765586078166962,10.58265209197998,-3.3694450855255127,-1.1766902208328247,-1.7220291,-3.2391129000000003,260.54108,-70.22624,-19.474255,FOL
518254493696.0,1.9360225200653076,0.17472034692764282,10.621116638183594,-3.3342549800872803,-1.2396240234375,-2.1303926,-3.2436945,261.1184,-69.42978000000001,-20.1013,FOL
518259507200.0,1.9410223960876465,0.17350418865680695,10.6486234664917,-3.287391424179077,-1.3013657331466675,-2.5857925,-3.2308662,261.82068,-68.6383,-20.691435,FOL
518264520704.0,1.9460254907608032,0.17384487390518188,10.664889335632324,-3.228085994720459,-1.3613805770874023,-3.0521882,-3.2119296000000004,262.65076,-67.859505,-21.2428,FOL
518269534208.0,1.9510289430618286,0.17557722330093384,10.67012882232666,-3.156445026397705,-1.4191358089447021,-3.5011742,-3.1639764,263.6886,-66.98577,-21.794077,FOL
518274547712.0,1.9560316801071167,0.17826087772846222,10.663390159606934,-3.072690486907959,-1.474206566810608,-3.873802,-3.0998356,264.85046,-66.13412,-22.28571,FOL
518279561216.0,1.9610334634780884,0.18148353695869446,10.64374828338623,-2.9769911766052246,-1.5262733697891235,-4.0753875,-3.0069842,266.1538,-65.22971,-22.74784,FOL
518284541952.0,1.9660345315933228,0.1843208372592926,10.60866641998291,-2.870912551879883,-1.5751019716262817,-3.9568796,-2.9013045,267.47607,-64.36281600000001,-23.147495000000006,FOL
518289555456.0,1.971036672592163,0.18544594943523407,10.554237365722656,-2.7569546699523926,-1.6204869747161865,-3.3851097,-2.7473664,268.71594,-63.554527,-23.4873,FOL
518294536192.0,1.9760380983352661,0.1839379072189331,10.478655815124512,-2.636833429336548,-1.6622916460037231,-2.9287933999999995,-2.5515842,269.9859,-62.674736,-23.830618,FOL
518299549696.0,1.98103928565979,0.17872191965579987,10.38214111328125,-2.5106351375579834,-1.7006627321243286,-1.7290541,-2.2901337,270.8443,-61.859913,-24.173182,FOL
518304530432.0,1.9860395193099976,0.16894134879112244,10.265104293823242,-2.3785183429718018,-1.7358059883117676,-0.2941316,-2.1529946,271.45685,-60.87751,-24.738287,FOL
518309511168.0,1.9910392761230469,0.15360084176063538,10.128129005432129,-2.2403669357299805,-1.7684855461120605,1.1154399,-1.8845193,271.68857,-59.96824300000001,-25.276363,FOL
518314524672.0,1.9960401058197021,0.13160519301891327,9.971799850463867,-2.0958728790283203,-1.7998522520065308,2.2962425,-1.6420058000000002,271.55264,-59.066093,-25.876543,FOL
518319505408.0,2.00104022026062,0.10254241526126862,9.797314643859863,-1.9453125,-1.83119535446167,3.1810808,-1.4633276000000002,271.06366,-57.98443,-26.668000000000006,FOL
518324486144.0,2.00603985786438,0.06680744886398315,9.606693267822266,-1.7899787425994873,-1.8636367321014404,3.7540724,-1.3371841,270.307,-56.90041,-27.484818,FOL
518329499648.0,2.0110397338867188,0.02474200911819935,9.401765823364258,-1.6310615539550781,-1.8979687690734863,4.062865,-1.2315043,269.36002,-55.60576999999999,-28.47367,FOL
518334513152.0,2.0160412788391113,-0.02191835269331932,9.184806823730469,-1.470990538597107,-1.9345779418945312,4.1508293,-1.1774428,268.32166,-54.286186,-29.478216,FOL
518339526656.0,2.0210437774658203,-0.07109994441270828,8.95813274383545,-1.3123213052749634,-1.9735169410705566,4.0252967,-1.142318,267.2695,-52.953636,-30.471296,FOL
518344540160.0,2.026045322418213,-0.12124882638454437,8.723743438720703,-1.1567233800888062,-2.014582633972168,3.8282926,-1.144456,266.21698,-51.566124,-31.518631,FOL
518349520896.0,2.0310463905334473,-0.17190836369991302,8.483126640319824,-1.0035288333892822,-2.057419538497925,3.5647042,-1.1691961000000002,265.25058,-50.17605,-32.540690000000005,FOL
518354501632.0,2.0360465049743652,-0.22267308831214905,8.237631797790527,-0.8521515727043152,-2.101583480834961,3.1936035,-1.2250903,264.38864,-48.92373,-33.457172,FOL
518359515136.0,2.041046142578125,-0.27386435866355896,7.988058567047119,-0.6994918584823608,-2.1465988159179688,2.5302038,-1.3191634,263.73145,-47.663555,-34.32171,FOL
518364528640.0,2.046046733856201,-0.32625672221183777,7.734827995300293,-0.5408858060836792,-2.1919901371002197,1.5317446,-1.4373659,263.32956,-46.395897,-35.11255,FOL
518369509376.0,2.05104660987854,-0.3803996443748474,7.478363990783691,-0.3734537363052368,-2.2373273372650146,0.051923547,-1.6249015,263.39136,-45.067753,-35.769848,FOL
518374522880.0,2.0560460090637207,-0.43707165122032166,7.218468189239502,-0.19592414796352386,-2.282071828842163,-1.5717562,-1.7391333999999998,263.8345,-43.747837,-36.260654,FOL
518379503616.0,2.061044692993164,-0.49693816900253296,6.955000400543213,-0.007246119435876608,-2.3250746726989746,-2.892447,-1.7235563000000005,264.8613,-42.234966,-36.553642,FOL
518384517120.0,2.0660431385040283,-0.56145840883255,6.688083171844482,0.18999873101711273,-2.3642194271087646,-3.769344,-1.5693128,266.23322,-40.809265,-36.612865,FOL
518389530624.0,2.071042776107788,-0.6327487230300903,6.417985439300537,0.39051440358161926,-2.3965389728546143,-4.0570617,-1.3319917,267.77484,-39.53465,-36.48159,FOL
518394511360.0,2.0760419368743896,-0.7123402953147888,6.145079135894775,0.5908103585243225,-2.4190633296966553,-3.9764273,-1.2049317,269.54688,-38.198654,-36.282043,FOL
518399524864.0,2.081040859222412,-0.8040733933448792,5.869115352630615,0.7923244833946228,-2.431084394454956,-3.5940256,-0.9941832,271.19217000000003,-37.03134,-35.96642999999999,FOL
518404538368.0,2.0860402584075928,-0.9116578698158264,5.589798927307129,0.9964637756347656,-2.4310059547424316,-3.2012393,-0.98990715,272.57605,-36.134605,-35.98753,FOL
518409551872.0,2.0910394191741943,-1.037974238395691,5.307167053222656,1.2032078504562378,-2.4192802906036377,-2.756224,-1.1334605,273.79855,-35.267235,-36.046093,FOL
518414565376.0,2.0960402488708496,-1.1868810653686523,5.021103382110596,1.4118926525115967,-2.397831678390503,-2.0906863,-1.6105462,274.926,-34.436703,-36.268024,FOL
518419578880.0,2.1010403633117676,-1.3599755764007568,4.7328338623046875,1.6213361024856567,-2.3695921897888184,-1.6044376,-2.245846,275.90112,-33.284040000000005,-36.948994,FOL
518424559616.0,2.1060400009155273,-1.5582016706466675,4.4497971534729,1.8270189762115479,-2.337252378463745,-1.6441438000000002,-2.7592783,276.93042,-32.09093,-37.620937,FOL
518429540352.0,2.11103892326355,-1.7822136878967285,4.178450584411621,2.0250186920166016,-2.3022801876068115,-2.1129830000000003,-2.9251282,278.0668,-30.597294,-38.599022,FOL
518434553856.0,2.116037607192993,-2.030492067337036,3.9241936206817627,2.212526321411133,-2.2651424407958984,-2.5085182,-2.6697865000000003,279.21854,-29.138859000000004,-39.432083,FOL
518439567360.0,2.121037483215332,-2.3003978729248047,3.6918890476226807,2.3873353004455566,-2.225940465927124,-2.453235,-2.0216584,280.28976,-27.793076,-40.085575,FOL
518444548096.0,2.1260368824005127,-2.5888888835906982,3.4842689037323,2.548739433288574,-2.1842658519744873,-1.9608774,-1.2880094,281.25415,-26.837190000000003,-40.768078,FOL
518449528832.0,2.131035804748535,-2.890876293182373,3.302475929260254,2.699108362197876,-2.13970685005188,-1.3784174,-0.78984874,282.05035,-26.036259,-41.34496,FOL
518454509568.0,2.1360340118408203,-3.2018015384674072,3.1474075317382812,2.8405723571777344,-2.092430591583252,-1.0216721,-0.6151413,282.52576,-25.670597,-41.846317,FOL
518459523072.0,2.1410319805145264,-3.5169622898101807,3.0201098918914795,2.9760000705718994,-2.043254852294922,-0.92179567,-0.6753115,282.8484,-25.381824,-42.34000800000001,FOL
518464536576.0,2.146031379699707,-3.831631898880005,2.92181658744812,3.108640193939209,-1.9933247566223145,-0.8732319,-0.7883216,283.0675700000001,-25.11882,-42.848675,FOL
518469517312.0,2.1510303020477295,-4.142025470733643,2.851630449295044,3.24068284034729,-1.94393789768219,-0.7825184000000001,-0.9184359,283.2135600000001,-24.994696,-43.171642,FOL
518474530816.0,2.156028985977173,-4.443223476409912,2.803389549255371,3.3738319873809814,-1.8960907459259033,-0.7648033000000001,-1.1368201999999998,283.4316,-24.787592,-43.50228,FOL
518479511552.0,2.161026954650879,-4.730990409851074,2.7716217041015625,3.50954532623291,-1.8501653671264648,-0.7742717,-1.3912456,283.53726,-24.76091,-43.57102,FOL
518484525056.0,2.166024923324585,-5.003466606140137,2.751106023788452,3.6471731662750244,-1.805928111076355,-0.6930265999999999,-1.5723672,283.67075,-24.673996,-43.68474000000001,FOL
518489538560.0,2.1710238456726074,-5.260107040405273,2.7368664741516113,3.78494930267334,-1.7628202438354492,-0.6606508000000001,-1.6566665,283.8701200000001,-24.546558,-43.804974,FOL
518494519296.0,2.176022529602051,-5.500614643096924,2.7254409790039062,3.9214844703674316,-1.7202718257904053,-0.6081163,-1.6520851000000003,284.2557700000001,-24.240126,-43.835255,FOL
518499532800.0,2.181020736694336,-5.724395275115967,2.7149744033813477,4.055478572845459,-1.678166151046753,-0.5558874,-1.5937473999999998,284.63,-23.943748,-43.874855,FOL
518504513536.0,2.186018466949463,-5.9309844970703125,2.7038216590881348,4.18578577041626,-1.6364363431930542,-0.5335908,-1.4758505,285.0752,-23.541245,-43.965794,FOL
518509527040.0,2.19101619720459,-6.119686603546143,2.6911702156066895,4.311158180236816,-1.595340609550476,-0.5412266,-1.310306,285.4656700000001,-23.164948000000006,-44.036728,FOL
518514540544.0,2.196013927459717,-6.289846420288086,2.6765458583831787,4.430431842803955,-1.5553531646728516,-0.6081163,-1.1016954,285.79684,-22.82731,-44.066692,FOL
518519554048.0,2.2010116577148438,-6.440860271453857,2.6594648361206055,4.542464256286621,-1.5169073343276978,-0.6221663000000001,-0.88117313,286.11273,-22.460703,-44.08705,FOL
518524534784.0,2.2060091495513916,-6.5717878341674805,2.6392099857330322,4.645715236663818,-1.4803617000579834,-0.5558874,-0.65393126,286.34045,-22.122353,-44.0734,FOL
518529515520.0,2.2110066413879395,-6.681839466094971,2.6151461601257324,4.738827228546143,-1.4459863901138306,-0.40591997,-0.4034765,286.50113,-21.805681,-44.03174,FOL
518534529024.0,2.216003894805908,-6.77122688293457,2.587049961090088,4.821122646331787,-1.4139740467071533,-0.2134974,-0.13713925,286.54758,-21.520922,-43.979473,FOL
518539542528.0,2.2210025787353516,-6.841282367706299,2.5551512241363525,4.892632007598877,-1.3844436407089233,0.024129177,0.12522738,286.46472,-21.270306,-43.938576,FOL
518544523264.0,2.226001024246216,-6.893360614776611,2.5197179317474365,4.953575611114502,-1.3573871850967407,0.28741209999999995,0.3735441,286.29068,-21.053265,-43.9042,FOL
518549536768.0,2.230999231338501,-6.9286789894104,2.48091197013855,5.004111289978027,-1.3326327800750732,0.5852089,0.6010914,285.98212,-20.878946,-43.90202,FOL
518554550272.0,2.235997438430786,-6.948376655578613,2.438852071762085,5.044414043426514,-1.3099510669708252,0.8775079,0.78984874,285.55713,-20.740702,-43.93267,FOL
518559563776.0,2.240995407104492,-6.953295707702637,2.39357328414917,5.075950622558594,-1.289104700088501,1.1774428,0.97310835,285.0502600000001,-20.639761,-44.009846,FOL
518564577280.0,2.245995044708252,-6.943958759307861,2.344998836517334,5.1012043952941895,-1.2698532342910767,1.4779885,1.1007791999999998,284.4524,-20.570087,-44.13685,FOL
518569590784.0,2.251000165939331,-6.920709609985352,2.2929792404174805,5.122694969177246,-1.2520052194595337,1.7867808,1.2211196000000002,283.79968,-20.523293,-44.31123,FOL
518574604288.0,2.2560040950775146,-6.884536266326904,2.2377378940582275,5.141621112823486,-1.2354779243469238,2.0842721,1.2333368999999998,283.09918,-20.479143,-44.547066,FOL
518579617792.0,2.261007070541382,-6.836601257324219,2.1777706146240234,5.16552209854126,-1.2205325365066528,2.2314909,1.2159272,282.35342,-20.434288,-44.799767,FOL
518584631296.0,2.2660090923309326,-6.778553009033203,2.1102819442749023,5.206774711608887,-1.2079503536224365,2.1682662999999995,1.1404854,281.62527,-20.340208,-45.068897,FOL
518589612032.0,2.271010398864746,-6.712769508361816,2.0329604148864746,5.274362087249756,-1.1981847286224365,1.6468927,1.0671816,281.0475,-20.12748,-45.192543,FOL
518594592768.0,2.2760109901428223,-6.644807815551758,1.9448195695877075,5.36673641204834,-1.1925292015075684,0.76144356,0.8210029000000001,280.653,-19.741035,-45.238174,FOL
518599573504.0,2.2810111045837402,-6.579683780670166,1.8449920415878296,5.482448101043701,-1.1919934749603271,-0.25961772,0.42638394,280.76978,-18.839998,-44.843056,FOL
518604554240.0,2.286010980606079,-6.521892070770264,1.7327295541763306,5.6201348304748535,-1.1965197324752808,-1.1795808,-0.13561209,281.16095,-17.824034,-44.298065,FOL
518609534976.0,2.2910103797912598,-6.476463317871094,1.6069567203521729,5.778147220611572,-1.2049983739852905,-1.713477,-0.91446525,281.84827,-16.667957,-43.65605,FOL
518614548480.0,2.2960095405578613,-6.449411869049072,1.4660738706588745,5.954518795013428,-1.2163273096084595,-1.9477439,-2.0112739,282.90518,-15.320885999999998,-42.93555,FOL
518619561984.0,2.301008462905884,-6.446084976196289,1.309962511062622,6.1464314460754395,-1.229589581489563,-2.1010711,-3.2424726,284.48984,-13.558399,-42.35296,FOL
518624542720.0,2.306006908416748,-6.470762729644775,1.1521809101104736,6.3407301902771,-1.2437793016433716,-2.3860397,-4.1853433,286.29175,-11.773349,-41.700603,FOL
518629523456.0,2.311004638671875,-6.524617671966553,1.002909541130066,6.52650785446167,-1.257935881614685,-2.5714374,-4.3524150000000015,288.2696,-9.799024,-41.25521,FOL
518634504192.0,2.3160016536712646,-6.599555492401123,0.8636992573738098,6.697981834411621,-1.2713381052017212,-2.268448,-3.8716638,290.16455,-7.9422115999999985,-40.82183,FOL
518639484928.0,2.320998191833496,-6.6883463859558105,0.7356032729148865,6.850555419921875,-1.2839516401290894,-1.7525723999999998,-3.3499851,291.83063,-6.6285539999999985,-40.75103,FOL
518644465664.0,2.3259947299957275,-6.784607887268066,0.6186721324920654,6.981631278991699,-1.2958492040634155,-1.255328,-2.9294043,293.2761799999999,-5.474389,-40.706192,FOL
518649479168.0,2.330991506576538,-6.882563591003418,0.5129601955413818,7.089049816131592,-1.3068459033966064,-0.7458665,-2.5497515,294.4396700000001,-4.5714507000000015,-40.7647,FOL
518654459904.0,2.3359878063201904,-6.978219985961914,0.41867974400520325,7.173624515533447,-1.3165597915649414,-0.16126843,-2.1691825,295.39258,-3.7832234,-40.95502000000001,FOL
518659473408.0,2.34098482131958,-7.06768274307251,0.3361804187297821,7.236259937286377,-1.3247771263122559,0.42180246,-1.7782288,296.15814,-3.1376642999999995,-41.232224,FOL
518664454144.0,2.3459813594818115,-7.148487091064453,0.2664153575897217,7.280622959136963,-1.331599473953247,0.9434814,-1.368949,296.7457,-2.5915568,-41.640736,FOL
518669467648.0,2.350978374481201,-7.21815299987793,0.2103770226240158,7.310421466827393,-1.3375155925750732,1.3869696000000002,-0.89919364,297.1088299999999,-2.1912608,-42.1075,FOL
518674448384.0,2.3559751510620117,-7.275120258331299,0.1682077795267105,7.330921173095703,-1.3433765172958374,1.6826283,-0.32711834,297.26105,-1.8714576,-42.66491,FOL
518679429120.0,2.360971689224243,-7.3179216384887695,0.14005418121814728,7.347026824951172,-1.350351095199585,1.7559321,0.32070425,297.05844,-1.7481657,-43.106094,FOL
518684442624.0,2.3659679889678955,-7.346751689910889,0.1234561875462532,7.3635406494140625,-1.3596866130828857,1.784032,0.63346726,296.76172,-1.6067071000000002,-43.600082,FOL
518689423360.0,2.3709638118743896,-7.361968040466309,0.1160062849521637,7.38468074798584,-1.371744155883789,1.5833627,1.2137892,296.11417,-1.6183518,-44.02077,FOL
518694436864.0,2.375959634780884,-7.366271018981934,0.11305244266986847,7.414629936218262,-1.3872982263565063,1.2006557,1.6328428,295.46677,-1.5222746,-44.2612,FOL
518699450368.0,2.380955457687378,-7.363382816314697,0.10914424061775208,7.4571990966796875,-1.406572699546814,0.6789767,1.783421,294.7042,-1.4778633,-44.390724,FOL
518704431104.0,2.385951280593872,-7.358065128326416,0.09863652288913727,7.513704299926758,-1.4292985200881958,-0.06536258,1.6328428,293.9745200000001,-1.3043766,-44.20705,FOL
518709444608.0,2.390947103500366,-7.355196952819824,0.0761166661977768,7.584506034851074,-1.4546115398406982,-1.0067059,1.2104294,293.30988,-1.1013829,-43.816757,FOL
518714458112.0,2.395944118499756,-7.358306884765625,0.039077963680028915,7.665011882781982,-1.4809925556182861,-1.9843957,0.6047566,292.9382,-0.639184,-43.125317,FOL
518719471616.0,2.4009416103363037,-7.369594097137451,-0.013104591518640518,7.749454498291016,-1.506010890007019,-2.617252,0.04550946,292.71103,-0.2105035,-42.281956,FOL
518724485120.0,2.4059391021728516,-7.389989852905273,-0.0794888362288475,7.8320417404174805,-1.526502013206482,-2.6004534,-0.26358834,292.79935,0.40745148,-41.398163,FOL
518729498624.0,2.410937547683716,-7.419282913208008,-0.1576213389635086,7.906619548797607,-1.5395116806030273,-2.0912971,-0.37201694,292.97552,0.89916635,-40.514416,FOL
518734479360.0,2.415935754776001,-7.45737361907959,-0.245595321059227,7.970659255981445,-1.5431151390075684,-1.4337007,-0.36377025,293.28864,1.3434266,-39.932003,FOL
518739492864.0,2.4209351539611816,-7.50451135635376,-0.3418096899986267,8.02348518371582,-1.5367096662521362,-0.784351,-0.37018433,293.6202,1.6211278,-39.507282,FOL
518744506368.0,2.425934314727783,-7.560561180114746,-0.44391384720802307,8.06564998626709,-1.5211323499679565,-0.090713486,-0.49938235,294.0096,1.7837906000000003,-39.458588,FOL
518749487104.0,2.4309334754943848,-7.624956130981445,-0.5448023080825806,8.101908683776855,-1.4983999729156494,0.605062,-0.68630713,294.4279,1.9305325,-39.596325,FOL
518754467840.0,2.435932159423828,-7.69715690612793,-0.6382020711898804,8.136484146118164,-1.4712460041046143,1.1169671,-0.657291,294.83734,2.0958240000000004,-39.95809000000001,FOL
518759481344.0,2.4409306049346924,-7.771039962768555,-0.7204367518424988,8.171530723571777,-1.442335844039917,1.3750577,-0.34025195,295.21667,2.3319664,-40.43849,FOL
518764462080.0,2.4459285736083984,-7.839728355407715,-0.7889286875724792,8.208447456359863,-1.4137043952941895,1.4141531,0.08521569999999999,295.55075,2.6543124,-40.991425,FOL
518769442816.0,2.4509265422821045,-7.8981122970581055,-0.8419337272644043,8.248355865478516,-1.3866385221481323,1.2669345,0.52198434,295.5975,2.699425,-41.493793,FOL
518774456320.0,2.4559242725372314,-7.944832801818848,-0.8795679211616516,8.291797637939453,-1.3617682456970215,0.95814216,0.8775079,295.50854,2.7689965,-41.94991,FOL
518779437056.0,2.4609220027923584,-7.9793500900268555,-0.9026787877082825,8.338388442993164,-1.339105486869812,0.7648033000000001,1.1175779,295.17886,2.6724265,-42.12461,FOL
518784450560.0,2.4659194946289062,-8.002189636230469,-0.9131738543510437,8.386382102966309,-1.3181395530700684,0.3857614,1.1960741,294.77042,2.5581186,-42.155476,FOL
518789464064.0,2.470916986465454,-8.013971328735352,-0.9128078818321228,8.43409538269043,-1.2984347343444824,0.119729586,1.2812898,294.22415,2.3749423,-42.12081,FOL
518794477568.0,2.475914716720581,-8.015703201293945,-0.9032323956489563,8.4795503616333,-1.2792222499847412,-0.028405234,1.2779301,293.684,2.1455445,-42.007626,FOL
518799491072.0,2.4809131622314453,-8.008316040039062,-0.8859554529190063,8.520974159240723,-1.2597421407699585,-0.058643065,1.2409728,293.15134,1.9090686,-41.863953,FOL
518804471808.0,2.4859113693237305,-7.992748737335205,-0.8622922301292419,8.557056427001953,-1.2393600940704346,-0.06261369,1.2082913999999998,292.62646,1.6303471,-41.683804,FOL
518809485312.0,2.4909098148345947,-7.969997882843018,-0.8334270715713501,8.586790084838867,-1.217525839805603,-0.051923547,1.1786644,292.1253,1.3089266000000002,-41.49741,FOL
518814498816.0,2.49591064453125,-7.94099235534668,-0.8005086779594421,8.609058380126953,-1.193853497505188,-0.06780604,1.1377366000000002,291.70883,0.9961359,-41.35069,FOL
518819512320.0,2.500911235809326,-7.906519889831543,-0.7645717859268188,8.623193740844727,-1.168131709098816,-0.09254608,1.094976,291.3157700000001,0.6533234,-41.203804,FOL
518824525824.0,2.505911350250244,-7.8671698570251465,-0.7273778319358826,8.627470970153809,-1.1403919458389282,-0.14630222,1.058324,290.94717,0.2957485,-41.043793,FOL
518829539328.0,2.510911464691162,-7.8234639167785645,-0.690562903881073,8.620332717895508,-1.110793948173523,-0.23823744,1.02717,290.70758,-0.016513692,-40.91754,FOL
518834520064.0,2.515911102294922,-7.775703430175781,-0.654938817024231,8.60241985321045,-1.079611897468567,-0.35521814,0.990518,290.4938,-0.32361612,-40.77169,FOL
518839533568.0,2.520911455154419,-7.724143981933594,-0.621299147605896,8.574296951293945,-1.0471144914627075,-0.4596761,0.9447031,290.39154,-0.5475266,-40.66577,FOL
518844514304.0,2.525911331176758,-7.669083118438721,-0.5901795625686646,8.536722183227539,-1.0135389566421509,-0.5403103,0.8707884,290.31787,-0.7560538,-40.538334000000006,FOL
518849495040.0,2.5309107303619385,-7.610785484313965,-0.5620885491371155,8.490381240844727,-0.9790934920310974,-0.5357288,0.7693848000000001,290.2866,-0.9127995,-40.417313,FOL
518854475776.0,2.53590989112854,-7.549429416656494,-0.5375727415084839,8.436297416687012,-0.9440546631813049,-0.47616947,0.6618725000000001,290.2861,-1.0444806999999998,-40.295258,FOL
518859456512.0,2.5409085750579834,-7.485171794891357,-0.5171259641647339,8.375495910644531,-0.9087344408035278,-0.38515055,0.53786683,290.32874,-1.1473656,-40.18992,FOL
518864437248.0,2.5459067821502686,-7.4183502197265625,-0.5010888576507568,8.309776306152344,-0.8735121488571167,-0.26236662,0.40500367,290.3807,-1.1967719,-40.11728,FOL
518869417984.0,2.5509047508239746,-7.349305152893066,-0.4897310137748718,8.240877151489258,-0.838860273361206,-0.13958271,0.24923302,290.4852,-1.1960921,-40.07479,FOL
518874398720.0,2.5559024810791016,-7.2786664962768555,-0.4832397997379303,8.171221733093262,-0.8052873015403748,-0.06078109,0.08827003,290.63446,-1.1103097,-40.042458,FOL
518879412224.0,2.5608999729156494,-7.207098484039307,-0.48175308108329773,8.103227615356445,-0.7733283638954163,-0.04184427,0.0012217305,290.8089,-0.9748157,-40.028835,FOL
518884425728.0,2.5658974647521973,-7.135411739349365,-0.4850693643093109,8.039237022399902,-0.7432087063789368,-0.046120327,-0.17195857,291.10696,-0.72293496,-39.993656,FOL
518889406464.0,2.570894718170166,-7.064355850219727,-0.49293556809425354,7.9813079833984375,-0.7153712511062622,-0.12950343,-0.32803464,291.41873,-0.4023937,-39.939533,FOL
518894419968.0,2.575892210006714,-6.995020866394043,-0.5048863291740417,7.93130350112915,-0.6900564432144165,-0.3042109000000001,-0.47342056,291.76367,-0.016218282,-39.798546,FOL
518899433472.0,2.5808894634246826,-6.928540229797363,-0.5203698873519897,7.890732765197754,-0.6673381924629211,-0.51923543,-0.61636305,292.14697,0.42073664,-39.621548,FOL
518904446976.0,2.5858869552612305,-6.866186618804932,-0.5385059714317322,7.860109806060791,-0.6471079587936401,-0.73853606,-0.73548174,292.5345,0.9023546999999998,-39.33861,FOL
518909427712.0,2.590884208679199,-6.809187412261963,-0.5583181977272034,7.839415550231934,-0.6291043162345886,-0.91232723,-0.8258898000000001,292.9384,1.3999676,-39.011524,FOL
518914441216.0,2.595884084701538,-6.758356094360352,-0.5784554481506348,7.8272223472595215,-0.612896740436554,-1.0137309,-0.8906415000000001,293.3368200000001,1.8851923,-38.625103,FOL
518919454720.0,2.600883722305298,-6.713915824890137,-0.5979600548744202,7.822003364562988,-0.5980247855186462,-0.9877690999999998,-0.895223,293.71973,2.350237,-38.23608400000001,FOL
518924468224.0,2.6058831214904785,-6.675901412963867,-0.6150447130203247,7.821550369262695,-0.584060788154602,-0.82833326,-0.8396343000000001,294.0666,2.735507,-37.899036,FOL
518929481728.0,2.610882520675659,-6.643944263458252,-0.6269301772117615,7.822808742523193,-0.570650041103363,-0.60903263,-0.74128497,294.38153,3.0778043,-37.598938,FOL
518934462464.0,2.6158816814422607,-6.6175103187561035,-0.6320701837539673,7.824138641357422,-0.5575390458106995,-0.3811799,-0.5870415,294.62698,3.2920597000000003,-37.427795,FOL
518939475968.0,2.6208815574645996,-6.595766544342041,-0.6303932070732117,7.825799465179443,-0.5445066690444946,-0.16890424,-0.39553526,294.818,3.4517343,-37.322998,FOL
518944489472.0,2.6258814334869385,-6.577983856201172,-0.6219249963760376,7.827997207641602,-0.531439483165741,-0.010995574,-0.17165314,294.89902,3.3919613,-37.36684,FOL
518949502976.0,2.6308820247650146,-6.563538551330566,-0.6070888042449951,7.831000804901123,-0.5183669328689575,0.101098195,0.027183503,294.92334,3.295787,-37.460148,FOL
518954516480.0,2.635883092880249,-6.551909923553467,-0.5864677429199219,7.835041046142578,-0.5053345561027527,0.1853976,0.2125811,294.87625,3.1550136,-37.59166,FOL
518959529984.0,2.6408839225769043,-6.542675971984863,-0.5608105659484863,7.840154647827148,-0.4925096035003662,0.24617869,0.35399640000000004,294.75146,2.948275,-37.73273,FOL
518964543488.0,2.6458864212036133,-6.535480499267578,-0.5310471057891846,7.846215724945068,-0.4800206422805786,0.29718593,0.46975538,294.57596,2.7183366,-37.892822,FOL
518969524224.0,2.650888442993164,-6.529996871948242,-0.49799907207489014,7.853029251098633,-0.4679524004459381,0.33964106,0.57879484,294.3518,2.473924,-38.04967,FOL
518974537728.0,2.6558902263641357,-6.525787830352783,-0.4626510441303253,7.860109806060791,-0.45638054609298706,0.3640757,0.6740898,294.0983,2.2275987,-38.211266,FOL
518979551232.0,2.6608924865722656,-6.522414684295654,-0.4259210526943207,7.867015838623047,-0.4453228712081909,0.3811799,0.7275404999999999,293.83398,1.9974493,-38.36598,FOL
518984564736.0,2.6658968925476074,-6.51884651184082,-0.3888896703720093,7.873417377471924,-0.434774786233902,0.39187005,0.7510588,293.55432,1.7679744,-38.52029,FOL
518989578240.0,2.670900583267212,-6.514441967010498,-0.3522800803184509,7.879116535186768,-0.4247073233127594,0.3943135,0.7476991,293.28754,1.5754297,-38.66708,FOL
518994558976.0,2.675903797149658,-6.508483409881592,-0.31680530309677124,7.883950710296631,-0.41505926847457886,0.36102137,0.7275404999999999,293.026,1.3862504999999998,-38.800842,FOL
518999539712.0,2.6809065341949463,-6.500492095947266,-0.28270870447158813,7.888085842132568,-0.40573906898498535,0.29352075,0.6808093000000001,292.783,1.2048556,-38.919598,FOL
519004520448.0,2.685908794403076,-6.490063190460205,-0.2501974403858185,7.891671180725098,-0.3966403007507324,0.20555615,0.6215554,292.56268,1.0844,-38.980225,FOL
519009533952.0,2.690910577774048,-6.4767842292785645,-0.21942822635173798,7.894830226898193,-0.3876209557056427,0.09621128,0.5369505,292.3748,0.9715505,-39.012115,FOL
519014514688.0,2.6959118843078613,-6.460318088531494,-0.1905159056186676,7.897668361663818,-0.3785465955734253,-0.020158553,0.4456262,292.21652,0.8661573,-39.01472,FOL
519019528192.0,2.7009129524230957,-6.440329074859619,-0.16346363723278046,7.9001946449279785,-0.3692969083786011,-0.14569137,0.34605515,292.10233,0.79257476,-38.949734,FOL
519024541696.0,2.705913782119751,-6.416536808013916,-0.1381552815437317,7.902326583862305,-0.35975587368011475,-0.25473082,0.26419923,292.01843,0.7224550000000001,-38.85764,FOL
519029522432.0,2.710914373397827,-6.38889741897583,-0.11441772431135178,7.903895378112793,-0.3498159945011139,-0.3472769,0.15943582,291.9743,0.6796095,-38.71011,FOL
519034535936.0,2.715914726257324,-6.357586860656738,-0.0920182392001152,7.904639720916748,-0.3393647074699402,-0.43249258,0.06047566,291.95935,0.6381576999999999,-38.53740300000001,FOL
519039549440.0,2.720916509628296,-6.322891712188721,-0.0706196203827858,7.904268264770508,-0.3283216655254364,-0.48441613,-0.03604105,291.9738200000001,0.6067233,-38.33572,FOL
519044562944.0,2.7259180545806885,-6.285219192504883,-0.049879513680934906,7.902566909790039,-0.316708505153656,-0.50671273,-0.11484267,292.01785,0.58339703,-38.123005,FOL
519049543680.0,2.730919122695923,-6.244991779327393,-0.029417872428894043,7.899304389953613,-0.30454879999160767,-0.49205196,-0.19272798,292.09418,0.5585868,-37.91293,FOL
519054557184.0,2.735921621322632,-6.202889442443848,-0.008605701848864555,7.894165515899658,-0.29192081093788147,-0.42546764,-0.24587326,292.18906,0.5420809,-37.716637,FOL
519059570688.0,2.74092435836792,-6.1595587730407715,0.013039849698543549,7.886960506439209,-0.27889853715896606,-0.31612277,-0.28313604,292.29938,0.5074213,-37.551212,FOL
519064584192.0,2.7459287643432617,-6.1167497634887695,0.036555126309394836,7.877446174621582,-0.26558852195739746,-0.21044308,-0.30604348,292.4221,0.48120615,-37.408443,FOL
519069597696.0,2.750943899154663,-6.076714992523193,0.06339443475008011,7.865207195281982,-0.252113938331604,-0.009468411,-0.3023783,292.54376,0.42055562,-37.35528,FOL
519074611200.0,2.755958080291748,-6.0395941734313965,0.0932973101735115,7.850582599639893,-0.23860037326812744,0.04184427,-0.29901853,292.6715700000001,0.36706543,-37.2923,FOL
519079624704.0,2.7609705924987793,-6.006241798400879,0.12639863789081573,7.833932876586914,-0.2251553237438202,0.09773844,-0.28893927,292.79532,0.22377972,-37.380924,FOL
519084638208.0,2.7659811973571777,-5.977461338043213,0.162822887301445,7.815627574920654,-0.21186451613903046,0.18997909,-0.25350907,292.90723,0.08125707,-37.49352,FOL
519089651712.0,2.7709922790527344,-5.953888416290283,0.20253583788871765,7.796304225921631,-0.19882169365882874,0.2556471,-0.20952678,293.01083,-0.056980856,-37.61276,FOL
519094665216.0,2.7760019302368164,-5.9358439445495605,0.24540318548679352,7.776442527770996,-0.18618997931480408,0.28038713,-0.14966199,293.08514,-0.23791836,-37.78108,FOL
519099678720.0,2.781010150909424,-5.923282623291016,0.2911716401576996,7.756709575653076,-0.1740814447402954,0.28344148,-0.10934488,293.15033,-0.41741705,-37.957314,FOL
519104692224.0,2.7860167026519775,-5.916051864624023,0.3395676910877228,7.737738132476807,-0.162588968873024,0.25686884,-0.061086524,293.19116,-0.59451723,-38.12713,FOL
519109705728.0,2.791022300720215,-5.913673400878906,0.39033615589141846,7.719740867614746,-0.15182353556156158,0.20372356,-0.00580322,293.2101,-0.79530895,-38.30685,FOL
519114719232.0,2.7960267066955566,-5.915602207183838,0.4432329535484314,7.702785015106201,-0.14180970191955566,0.17867808,0.06047566,293.2088,-0.9994541,-38.48111,FOL
519119699968.0,2.8010306358337402,-5.921307563781738,0.4980122148990631,7.686917304992676,-0.1325065940618515,0.14630222,0.093462385,293.19714,-1.2041773999999998,-38.636063,FOL
519124680704.0,2.8060343265533447,-5.929867744445801,0.5539762377738953,7.671903133392334,-0.12383829057216644,0.1337795,0.10170906,293.1729,-1.408882,-38.78427,FOL
519129661440.0,2.811037063598633,-5.940445423126221,0.6105009913444519,7.657543659210205,-0.11575226485729218,0.11362094,0.102319926,293.13144,-1.6235089,-38.914288,FOL
519134642176.0,2.8160393238067627,-5.951992988586426,0.6669279932975769,7.643769264221191,-0.10817203670740128,0.09682214,0.08704830000000001,293.09607,-1.8358401,-39.03762,FOL
519139622912.0,2.821040630340576,-5.963568687438965,0.7226523160934448,7.630478382110596,-0.10105625540018082,0.07849618,0.07880162,293.0739700000001,-2.0177407,-39.141045,FOL
519144603648.0,2.8260412216186523,-5.974189281463623,0.776953399181366,7.617312908172607,-0.09436219930648804,0.06841691,0.051618114000000014,293.06686,-2.1929028,-39.23966,FOL
519149617152.0,2.8310413360595703,-5.9829583168029785,0.8291773200035095,7.603945255279541,-0.08804430812597275,0.087659165,0.01985312,293.0558,-2.344917,-39.307747,FOL
519154597888.0,2.836041212081909,-5.989628314971924,0.878961443901062,7.5901384353637695,-0.08209537714719772,0.105068825,-0.02321288,293.06104,-2.4853544,-39.371838,FOL
519159578624.0,2.8410403728485107,-5.994204998016357,0.926073431968689,7.575701713562012,-0.07654868066310883,0.13958271,-0.060170225999999986,293.07645,-2.616807,-39.445454,FOL
519164592128.0,2.846040964126587,-5.996896266937256,0.9703497886657715,7.560676574707031,-0.07138517498970032,0.17379116,-0.07971791,293.10568,-2.7035363,-39.487457,FOL
519169572864.0,2.851041078567505,-5.997946739196777,1.011743426322937,7.545176029205322,-0.06655114889144897,0.20769419,-0.09743301,293.14706,-2.7814918,-39.539272,FOL
519174553600.0,2.8560407161712646,-5.997604846954346,1.0501878261566162,7.529313564300537,-0.06195935234427452,0.21838433,-0.10720685,293.1919,-2.845771,-39.588303,FOL
519179534336.0,2.861039876937866,-5.996181964874268,1.0855993032455444,7.513235569000244,-0.057569071650505066,0.23243423,-0.12003502,293.243,-2.9051864,-39.647297,FOL
519184547840.0,2.8660390377044678,-5.993964672088623,1.1179070472717285,7.497088432312012,-0.053353648632764816,0.24220806,-0.13927728,293.30188,-2.9500995,-39.708797,FOL
519189561344.0,2.871039628982544,-5.991213798522949,1.1470952033996582,7.48115873336792,-0.049216702580451965,0.23915374,-0.14385876,293.3592,-3.003142,-39.769268,FOL
519194574848.0,2.8760452270507812,-5.988198280334473,1.1731208562850952,7.46574592590332,-0.045082032680511475,0.21319197,-0.17837265,293.44296,-3.0301402000000004,-39.828636,FOL
519199588352.0,2.8810501098632812,-5.985110282897949,1.1961675882339478,7.451020240783691,-0.040839701890945435,0.20616703,-0.19700404,293.5208,-3.0697703,-39.89088,FOL
519204601856.0,2.886054039001465,-5.9822258949279785,1.2163623571395874,7.43725061416626,-0.03652767464518547,0.17837265,-0.21288654,293.6176,-3.0809226,-39.941895,FOL
519209615360.0,2.891057252883911,-5.979831695556641,1.2338708639144897,7.424566745758057,-0.03209169581532478,0.16371189,-0.23548855,293.7216200000001,-3.1043897,-39.993988,FOL
519214596096.0,2.896059513092041,-5.978228569030762,1.2488847970962524,7.412994384765625,-0.02750430442392826,0.16065755,-0.25778514,293.82965,-3.1230586,-40.040897,FOL
519219576832.0,2.9010608196258545,-5.9776787757873535,1.2615835666656494,7.402552127838135,-0.022797711193561554,0.16218472,-0.2660318,293.94382,-3.1344378,-40.080334,FOL
519224557568.0,2.9060616493225098,-5.97837495803833,1.2722203731536865,7.393129825592041,-0.017980298027396202,0.17989981,-0.28038713,294.0655,-3.147301,-40.123566,FOL
519229571072.0,2.9110617637634277,-5.980453968048096,1.2810860872268677,7.3845415115356445,-0.013098930940032005,0.20891592,-0.2837469,294.1831,-3.1584444,-40.169876,FOL
519234551808.0,2.9160614013671875,-5.983971118927002,1.2883696556091309,7.3765788078308105,-0.008191458880901337,0.25809056,-0.28588495,294.30637,-3.1675012,-40.237827,FOL
519239565312.0,2.9210643768310547,-5.988969802856445,1.2941789627075195,7.368973731994629,-0.0032771294936537743,0.30176744,-0.2843578,294.4261,-3.1772802,-40.31115,FOL
519244578816.0,2.9260663986206055,-5.995394706726074,1.2986305952072144,7.361584186553955,0.001596424845047295,0.3387248,-0.269697,294.54147,-3.1916661,-40.41075,FOL
519249592320.0,2.931067943572998,-6.003215312957764,1.3017905950546265,7.354249000549316,0.006400507874786854,0.37384954,-0.26145032,294.6550299999999,-3.2071135,-40.519802,FOL
519254605824.0,2.9360687732696533,-6.012380599975586,1.3037066459655762,7.346841812133789,0.011114804074168205,0.38698313,-0.24220806,294.7562,-3.2262162999999995,-40.62968,FOL
519259586560.0,2.9410691261291504,-6.022794723510742,1.304286003112793,7.339371204376221,0.015710949897766113,0.40744713,-0.22602014,294.8608,-3.2435188,-40.761772,FOL
519264600064.0,2.946070671081543,-6.034335136413574,1.3032976388931274,7.331951141357422,0.020127426832914352,0.4092797,-0.22815818,294.9632299999999,-3.2580974,-40.88876,FOL
519269580800.0,2.9510717391967773,-6.046882152557373,1.3006293773651123,7.324657440185547,0.02430613897740841,0.40866885,-0.2302962,295.07202,-3.26493,-41.028954,FOL
519274594304.0,2.9560725688934326,-6.060353755950928,1.2962658405303955,7.317474842071533,0.02818441577255726,0.39736784,-0.21685717,295.17383,-3.2701218,-41.1624,FOL
519279575040.0,2.9610724449157715,-6.074670791625977,1.2902090549468994,7.310390472412109,0.03168525546789169,0.39064834,-0.21563543,295.2902200000001,-3.2423937,-41.29164,FOL
519284555776.0,2.966071605682373,-6.089731216430664,1.2824299335479736,7.303370475769043,0.03482919931411743,0.37720928,-0.22266038,295.40268,-3.2185476000000004,-41.411903,FOL
519289569280.0,2.9710705280303955,-6.10542631149292,1.2728946208953857,7.296375274658203,0.03755325824022293,0.34330627,-0.22693644,295.5118700000001,-3.1838713,-41.520702,FOL
519294550016.0,2.9760689735412598,-6.121666431427002,1.2615939378738403,7.289365768432617,0.03982299193739891,0.33383787,-0.22724187,295.6194799999999,-3.1404674,-41.63395300000001,FOL
519299530752.0,2.981066942214966,-6.138482570648193,1.2486319541931152,7.282263278961182,0.04162617400288582,0.32834008,-0.22937989,295.7275,-3.09263,-41.73553,FOL
519304511488.0,2.9860644340515137,-6.1558990478515625,1.2341079711914062,7.274999141693115,0.04295317083597183,0.33261612,-0.22937989,295.8371,-3.0278332000000003,-41.83234,FOL
519309524992.0,2.9910638332366943,-6.1741228103637695,1.2180538177490234,7.267390727996826,0.04380623996257782,0.31673363,-0.24007004,295.94934,-2.9599426,-41.919083,FOL
519314538496.0,2.9960641860961914,-6.1933369636535645,1.2005195617675781,7.259279727935791,0.044163599610328674,0.29840767,-0.24709499,296.0572,-2.889501,-42.003296,FOL
519319552000.0,3.0010640621185303,-6.21366548538208,1.1815886497497559,7.250540733337402,0.04406698793172836,0.28405234,-0.24709499,296.1758,-2.8133442000000004,-42.08903,FOL
519324565504.0,3.006063461303711,-6.235105037689209,1.1614824533462524,7.241082191467285,0.0435030534863472,0.27580565,-0.23884831,296.29086,-2.7313833,-42.16848,FOL
519329546240.0,3.0110621452331543,-6.257650852203369,1.1404027938842773,7.230823040008545,0.04252101108431816,0.27916542,-0.2180789,296.4031,-2.6529224,-42.26357,FOL
519334559744.0,3.0160605907440186,-6.28131103515625,1.118515968322754,7.2196855545043945,0.04115314781665802,0.2864958,-0.20555615,296.5122,-2.5719895,-42.35436,FOL
519339540480.0,3.0210583209991455,-6.306086540222168,1.0959678888320923,7.207609176635742,0.03943730518221855,0.2968805,-0.1872302,296.6079,-2.4994996,-42.443527,FOL
519344521216.0,3.0260558128356934,-6.331959247589111,1.0728703737258911,7.1945953369140625,0.03743874654173851,0.30573806,-0.1572978,296.70096,-2.4348054,-42.54841,FOL
519349534720.0,3.031053066253662,-6.358792781829834,1.0492238998413086,7.180951118469238,0.03522977977991104,0.3032946,-0.12797627,296.78464,-2.3765848,-42.649433,FOL
519354515456.0,3.0360496044158936,-6.386460781097412,1.0250338315963745,7.166949272155762,0.03286105766892433,0.2855795,-0.10873401,296.8634600000001,-2.323784,-42.7694,FOL
519359528960.0,3.041046142578125,-6.414783000946045,1.000299334526062,7.152871131896973,0.030383644625544548,0.2574797,-0.08368854,296.9272200000001,-2.2829168,-42.88151,FOL
519364542464.0,3.04604434967041,-6.4435133934021,0.9750067591667175,7.139023780822754,0.027804575860500336,0.22113322,-0.06627888,296.98553,-2.2448223,-42.98266,FOL
519369555968.0,3.051042318344116,-6.472452640533447,0.9491767883300781,7.125624179840088,0.02518075704574585,0.20555615,-0.05375614,297.0436,-2.202773,-43.07950200000001,FOL
519374536704.0,3.056040048599243,-6.501376628875732,0.9227051138877869,7.112850189208984,0.022532088682055473,0.15241088,-0.050396383,297.09857,-2.1608531,-43.152283,FOL
519379550208.0,3.0610392093658447,-6.530048370361328,0.8954074382781982,7.100858211517334,0.019881686195731163,0.08521569999999999,-0.03573562,297.14352,-2.1283066,-43.213684,FOL
519384563712.0,3.066038131713867,-6.5582709312438965,0.8671983480453491,7.089651107788086,0.017277158796787262,0.06352998,-0.0290161,297.1973,-2.0831647,-43.25694,FOL
519389577216.0,3.0710368156433105,-6.5858354568481445,0.8379780054092407,7.079157829284668,0.014728951267898083,0.032070424,-0.027794369,297.2473,-2.0398877,-43.276924,FOL
519394590720.0,3.076035737991333,-6.612551689147949,0.8076330423355103,7.069299221038818,0.012261012569069862,0.00580322,-0.0290161,297.30023,-1.9817802,-43.28277,FOL
519399571456.0,3.0810341835021973,-6.638282299041748,0.7758219838142395,7.059834957122803,0.009907590225338936,-0.015882496,-0.025961773,297.34946,-1.9278723,-43.2804,FOL
519404552192.0,3.0860323905944824,-6.66289758682251,0.742206335067749,7.050534248352051,0.007699053734540939,-0.018936822,-0.01740966,297.39923,-1.8587353,-43.26778,FOL
519409565696.0,3.0910303592681885,-6.686387062072754,0.7066841721534729,7.041243553161621,0.005624909419566393,-0.02565634,-0.013439035,297.4478,-1.7907863000000002,-43.24808,FOL
519414579200.0,3.0960283279418945,-6.7088117599487305,0.669298529624939,7.0318603515625,0.0037031294777989388,-0.022296581,-0.020158553,297.4951200000001,-1.7285305,-43.230618,FOL
519419559936.0,3.1010260581970215,-6.730229377746582,0.6300975680351257,7.022293567657471,0.001957196043804288,-0.012217305,-0.010995574,297.5429,-1.6338043,-43.215923,FOL
519424540672.0,3.1060235500335693,-6.750694751739502,0.5891751646995544,7.012463569641113,0.00036168002407066524,0.002443461,-0.02076942,297.59833,-1.5344486000000002,-43.203663,FOL
519429521408.0,3.111020565032959,-6.770259857177734,0.5466200709342957,7.002299785614014,-0.001105769188143313,0.003970624,-0.031154128,297.65265,-1.424885,-43.19457,FOL
519434534912.0,3.1160175800323486,-6.788957595825195,0.5025811791419983,6.991800785064697,-0.00244125840254128,0.016798794,-0.03390302,297.70523,-1.3177894,-43.192394,FOL
519439515648.0,3.121014356613159,-6.806813716888428,0.45723238587379456,6.9809956550598145,-0.003665961790829897,0.040011674,-0.033292156,297.75818,-1.2087411,-43.193172,FOL
519444496384.0,3.1260108947753906,-6.823862552642822,0.41081586480140686,6.969941139221191,-0.004795702174305916,0.04062254,-0.035124752999999995,297.81818,-1.0875525,-43.197212,LYI
519449477120.0,3.131007194519043,-6.840151786804199,0.3636723756790161,6.958731651306152,-0.005838857498019934,0.033292156,-0.032375857,297.8736600000001,-0.96921414,-43.20459,LYI
519454490624.0,3.1360037326812744,-6.855723857879639,0.31617698073387146,6.94749641418457,-0.006839616224169731,0.010690141499999998,-0.025961773,297.9292,-0.84248793,-43.209076,LYI
519459504128.0,3.141000270843506,-6.870608329772949,0.2688765227794647,6.936495780944824,-0.0078116790391504765,0.0021380284,-0.016798794,297.98016,-0.7208993,-43.21446,LYI
519464484864.0,3.1459968090057373,-6.8848347663879395,0.22225752472877502,6.925959587097168,-0.00874138344079256,-0.007330383,-0.009468411,298.02216,-0.6081339,-43.213596,LYI
519469498368.0,3.1509931087493896,-6.898383140563965,0.17671005427837372,6.916017055511475,-0.009615736082196236,-0.04062254,-0.0018325958,298.05853,-0.49841547,-43.202778,LYI
519474511872.0,3.155989408493042,-6.911215782165527,0.13255682587623596,6.906745433807373,-0.010440598241984844,-0.08002335,0.004581489,298.0905,-0.39153168,-43.186943,LYI
519479492608.0,3.1609857082366943,-6.923342704772949,0.09010172635316849,6.898232936859131,-0.01121268980205059,-0.10995574,0.015577064,298.1058700000001,-0.31432688,-43.162613,LYI
519484506112.0,3.1659820079803467,-6.934789180755615,0.049627915024757385,6.890568733215332,-0.011882376857101917,-0.12675454,0.030848695,298.1156,-0.24383166,-43.130947,LYI
519489519616.0,3.170978546142578,-6.945562362670898,0.011373019777238369,6.88374662399292,-0.012420213781297207,-0.14508049,0.039095376,298.12173,-0.18759662,-43.089966,LYI
519494500352.0,3.1759750843048096,-6.955657958984375,-0.02446194738149643,6.877709865570068,-0.01280625443905592,-0.16920967,0.04642576,298.12134,-0.13840365,-43.043324,LYI
519499513856.0,3.180971622467041,-6.965080261230469,-0.0576961524784565,6.872407913208008,-0.013011778704822063,-0.19394971,0.057421334,298.10547,-0.11498971,-42.99339000000001,LYI
519504494592.0,3.1859681606292725,-6.9738850593566895,-0.08813611418008804,6.867818832397461,-0.01303931511938572,-0.204029,0.06780604,298.08694,-0.0932748,-42.9421,LYI
519509508096.0,3.190965175628662,-6.982123374938965,-0.11560749262571335,6.863928318023682,-0.012889902107417583,-0.21227567,0.077579886,298.0591,-0.098020084,-42.889957,LYI
519514488832.0,3.1959621906280518,-6.989818096160889,-0.14006690680980682,6.860774040222168,-0.012557165697216988,-0.22266038,0.07849618,298.0315,-0.104194604,-42.83597,LYI
519519502336.0,3.200960397720337,-6.9969868659973145,-0.16144472360610962,6.858401298522949,-0.012039382010698318,-0.24312437,0.08277224,297.99326,-0.13518493,-42.78031,LYI
519524515840.0,3.205958604812622,-7.003582954406738,-0.17975835502147675,6.856795787811279,-0.01133032888174057,-0.26145032,0.081855945,297.95807,-0.16645537,-42.72412,LYI
519529529344.0,3.2109568119049072,-7.009558200836182,-0.19500650465488434,6.855949878692627,-0.010425839573144913,-0.27397305,0.08155051,297.91953,-0.21323559,-42.66779,LYI
519534510080.0,3.2159547805786133,-7.01486349105835,-0.20718355476856232,6.8557963371276855,-0.009307987056672573,-0.28160888,0.08246681,297.88248,-0.26170298,-42.6097,LYI
519539490816.0,3.2209527492523193,-7.0194478034973145,-0.2162766307592392,6.8562164306640625,-0.007975190877914429,-0.28313604,0.064751714,297.85437,-0.30595124,-42.55196,LYI
519544504320.0,3.2259504795074463,-7.023266792297363,-0.22228080034255981,6.857100963592529,-0.006431849207729101,-0.2843578,0.05589417,297.8236,-0.36863297,-42.490337,LYI
519549517824.0,3.2309484481811523,-7.026284217834473,-0.22528666257858276,6.858314037322998,-0.004683368839323521,-0.2764165,0.048258353,297.80066,-0.42841056,-42.433296,LYI
519554531328.0,3.2359464168548584,-7.028470516204834,-0.2254265695810318,6.859713077545166,-0.0027438532561063766,-0.25961772,0.041233405,297.7822,-0.48600277,-42.380764,LYI
519559512064.0,3.2409443855285645,-7.029818058013916,-0.22287240624427795,6.861155986785889,-0.0006681240629404783,-0.2312125,0.040927973,297.75537,-0.56665546,-42.33276,LYI
519564525568.0,3.245946168899536,-7.030313014984131,-0.217788964509964,6.862463474273682,0.0014613346429541707,-0.2321288,0.046731193,297.7306,-0.64358467,-42.28334,LYI
519569539072.0,3.2509477138519287,-7.0299859046936035,-0.21038277447223663,6.863547325134277,0.003642442636191845,-0.21135938,0.045814894,297.7109700000001,-0.730167,-42.24821,LYI
519574552576.0,3.255949020385742,-7.028892993927002,-0.2008340060710907,6.864363193511963,0.00587839400395751,-0.19914207,0.040317107000000005,297.69238,-0.81078243,-42.212208,LYI
519579566080.0,3.2609500885009766,-7.027104377746582,-0.18931786715984344,6.864899635314941,0.008105968125164509,-0.20066923,0.048563786,297.67026,-0.88777065,-42.17972,LYI
