acc_x,acc_y,acc_z,gyro_x,gyro_y,gyro_z,label
0.0,0.0,0.0,0.0,0.029321533,0.06750060599999999,8
0.12047087401151654,0.17910411953926084,0.1825762391090393,0.0012039296561852098,0.04642576,0.07238753,8
0.4119081497192383,0.6040224432945251,0.6185700297355652,0.0001772906689438969,0.08032878,0.073303826,8
0.8218332529067993,1.1886698007583618,1.2229647636413574,-0.014956488274037838,0.20769419,0.07727446,8
1.2892868518829346,1.8390902280807493,1.901112675666809,-0.04354507476091385,0.19394971,0.098043874,8
1.7634729146957395,2.480541944503784,2.576559066772461,-0.06593924015760423,0.05772676700000001,0.110872045,8
2.211306571960449,3.066624879837036,3.2010586261749268,-0.07674470543861389,0.0036651916,0.08032878,9
2.6159226894378658,3.57578444480896,3.751444578170776,-0.07187023758888245,-0.04642576,-0.0030543262,9
2.9719219207763667,4.003236770629884,4.2217392921447745,-0.05647393688559532,-0.035124752999999995,-0.008552114,9
3.2806363105773926,4.3535547256469735,4.615725040435791,-0.04038060829043389,-0.032375857,-0.06383542,9
3.546818256378174,4.6355247497558585,4.94173526763916,-0.022209079936146736,-0.045814894,-0.09773844,9
3.773977518081665,4.8675498962402335,5.209675312042236,0.0020827585831284523,-0.09682214,-0.15149458,9
3.967310905456543,5.062774181365967,5.429181098937988,0.030439168214797974,-0.14172074,-0.18112154,9
4.132671356201172,5.22759485244751,5.608745098114014,0.0619858019053936,-0.16157386,-0.24740042,9
4.275148868560791,5.367556095123291,5.7556824684143075,0.09255827963352203,-0.15027285,-0.28405234,9
4.398930072784424,5.48724365234375,5.876106262207031,0.1278243213891983,-0.13836098,-0.3222314000000001,9
4.507617950439453,5.590557098388672,5.975092887878418,0.16048647463321686,-0.10934488,-0.34605515,9
4.604128360748291,5.68065881729126,6.056784152984619,0.1836603581905365,-0.113926366,-0.34605515,9
4.690757751464844,5.760063171386719,6.124526500701903,0.1964031457901001,-0.0842994,-0.34605515,9
4.769458293914795,5.830875873565674,6.18104887008667,0.20334193110466006,-0.044593163,-0.37751472,9
4.84138298034668,5.8949079513549805,6.228372573852539,0.2184353470802307,-0.03604105,-0.42210788,9
4.876767158508301,5.96324348449707,6.25468111038208,0.23857320845127106,0.033292156,-0.4428773,9
4.8669962882995605,6.039969444274902,6.25718879699707,0.2644083797931671,0.09285152,-0.48930305,9
4.821064472198486,6.123367786407472,6.240631103515625,0.29507678747177124,0.16157386,-0.5393939999999999,9
4.745986461639403,6.212180137634277,6.208709239959718,0.3379611372947693,0.19975294,-0.5815437,9
4.647495746612549,6.305340766906737,6.1644463539123535,0.3889011740684509,0.20830505,-0.6649268,9
4.529786109924316,6.402228832244872,6.110069274902344,0.4422889351844788,0.25442538,-0.66859204,9
4.397364139556885,6.5016961097717285,6.047921657562256,0.4937443137168884,0.17989981,-0.73639804,9
4.252791404724121,6.6034255027771,5.979370594024657,0.5219995975494385,0.089186326,-0.7507534,9
4.0984368324279785,6.70698356628418,5.9056639671325675,0.5369412899017334,0.019547688,-0.8026769,9
3.9360535144805913,6.812224864959718,5.827731132507324,0.5641775131225586,0.054061573,-0.9392053,9
3.765748500823975,6.936722755432129,5.745478630065918,0.6195234060287476,0.12980886,-1.0677924,9
3.5878701210021973,7.0863938331604,5.659055709838867,0.7013989686965942,0.2171626,-1.176221,9
3.4037566184997563,7.2564697265625,5.569207191467285,0.8000218272209167,0.30818152,-1.2788464,9
3.214884757995605,7.442634105682372,5.476731777191162,0.9092581272125244,0.4202753,-1.3228287,9
3.0221102237701416,7.641818523406982,5.382105827331543,1.009689450263977,0.5006041,-1.2742649,9
2.826133728027344,7.851542949676514,5.285719394683838,1.08375084400177,0.62125,-1.2464706,9
2.6274969577789307,8.069840431213379,5.187875270843506,1.1639871597290041,0.6951646,-1.2629639,9
2.427006959915161,8.294681549072267,5.089000225067139,1.230357646942139,0.59040123,-1.1099422,9
2.22470760345459,8.525167465209961,4.989138603210449,1.261680006980896,0.44409904,-0.94897914,9
2.0212352275848393,8.759847640991211,4.888623237609863,1.2793667316436768,0.27366763,-0.7724390999999999,9
1.83794903755188,8.966751098632812,4.77636194229126,1.2691972255706787,0.31184670000000003,-0.6081163,9
1.6866892576217651,9.128074645996094,4.646438121795653,1.23614764213562,0.44776422,-0.57818395,9
1.5611213445663452,9.25274658203125,4.501990795135498,1.202083945274353,0.3820962,-0.5140431,9
1.456254243850708,9.348052024841307,4.3464980125427255,1.1647865772247314,0.2666427,-0.4083634,9
1.367985486984253,9.419733047485352,4.181839466094972,1.1103498935699463,0.11942416,-0.30665436,9
1.2930008172988892,9.472376823425293,4.009335517883302,1.040908932685852,0.013133603,-0.18784106,9
1.2287825345993042,9.509844779968262,3.8314709663391113,0.9741283655166626,-0.054367006,-0.024740042,9
1.1731654405593872,9.53506565093994,3.648836374282837,0.9052640199661256,-0.118202426,0.08704830000000001,9
1.1244556903839111,9.550445556640623,3.462354183197021,0.840652585029602,-0.14508049,0.14599679999999998,9
1.0812522172927856,9.557870864868164,3.272364616394043,0.7806030511856079,-0.098043874,0.16310102,9
1.0425407886505127,9.558989524841307,3.0802371501922607,0.7282099723815918,-0.019547688,0.17592919,9
1.0074088573455808,9.555006980895996,2.8861093521118164,0.6875466108322144,0.07971791,0.17470746,9
0.9751718640327454,9.546951293945312,2.6905665397644043,0.653821587562561,0.13103059,0.16249016,9
0.9452269077301024,9.535582542419434,2.4935588836669917,0.6209478378295898,0.14966199,0.19486602,9
0.9171623587608336,9.521601676940918,2.295761823654175,0.5912569165229797,0.13713925,0.23976462,9
0.8905849456787109,9.505492210388184,2.0971004962921143,0.5611605644226074,0.10781772,0.29932398,9
0.8652067184448242,9.487678527832033,1.8977904319763184,0.5269233584403992,0.07696902,0.37690386,9
0.8407801985740662,9.468482971191406,1.6978447437286377,0.4895371496677399,0.04795292,0.3979787,9
0.8170843720436096,9.448135375976562,1.4970555305480957,0.4511860013008118,0.03145956,0.39492437,9
0.7940613031387329,9.426968574523926,1.2964354753494265,0.4125411510467529,0.03940081,0.37384954,9
0.7889204621315002,9.390425682067873,1.1109755039215088,0.3817020952701569,0.064751714,0.32070425,9
0.8090963959693909,9.3385009765625,0.938368558883667,0.3544193506240845,0.09682214,0.269697,9
0.8304800987243652,9.28803539276123,0.786415696144104,0.3317141830921173,0.1133155,0.25045475,9
0.8439847826957703,9.23483180999756,0.6492470502853394,0.3108489811420441,0.12614368,0.24465153,9
0.8413872718811035,9.178821563720703,0.5293514132499695,0.2930051982402801,0.1282817,0.23701571,9
0.8307932019233704,9.120274543762207,0.4322308003902435,0.2742094695568085,0.12064589,0.25259277,9
0.8173536658287048,9.051430702209473,0.3528941571712494,0.24725474417209625,0.08399397,0.24617869,9
0.8019080162048341,8.976845741271973,0.2749089002609253,0.2168162614107132,0.07452556,0.2706133,9
0.7826734781265259,8.923276901245117,0.2082337886095047,0.18162687122821808,0.05955936,0.29840767,9
0.7755755186080933,8.922453880310059,0.14844754338264465,0.1398625671863556,0.05925392700000001,0.35399640000000004,9
0.7935198545455933,9.011971473693848,0.10343291610479356,0.09595301002264024,0.0067195175,0.45478916,9
0.822666585445404,9.040355682373047,-0.025343548506498337,0.04637386649847031,0.08979719,0.44226643,9
0.8763231635093689,8.980066299438477,-0.16968435049057007,0.02672811038792133,0.15699236,0.34819320000000004,9
0.9630708694458008,8.904723167419434,-0.30185526609420776,0.022202137857675552,0.22204952,0.28313604,9
1.0377562046051023,8.837821960449219,-0.4189687669277191,0.029202960431575775,0.27000242,0.22418754,9
1.0702760219573977,8.81622314453125,-0.4965329170227051,0.04105384647846222,0.31031954,0.17195857,9
1.0491631031036377,8.860727310180664,-0.5447381734848022,0.04906763508915901,0.30390546,0.12034045,9
1.0018230676650999,8.971973419189453,-0.5780521631240845,0.04570280015468597,0.26572640000000003,0.12308934,9
0.9580035209655762,9.105474472045898,-0.603468656539917,0.03701922670006752,0.17837265,0.12370021,9
0.9237072467803956,9.206936836242676,-0.6141256093978882,0.023359199985861775,0.09773844,0.12461651,1
0.8902921080589294,9.274707794189453,-0.6239640712738037,0.0021045661997050047,0.04428773,0.09193522,1
0.8691939711570741,9.356557846069336,-0.6387939453125,-0.02471449039876461,0.021685716,0.124311075,1
0.8620945811271667,9.43593692779541,-0.638404905796051,-0.05083349719643593,-0.022602014,0.14141529999999994,1
0.8760586380958557,9.469282150268556,-0.6019269824028015,-0.07755368202924727,-0.06261369,0.1151481,1
0.9179742336273192,9.465067863464355,-0.5535309910774231,-0.1024484857916832,-0.09285152,0.07788532,1
0.977497398853302,9.503154754638672,-0.5096056461334229,-0.12280794978141785,-0.056199603,0.09621128,1
1.0515964031219482,9.55669403076172,-0.4696473777294159,-0.13812868297100067,-0.02687807,0.08246681,1
1.1338958740234375,9.580100059509276,-0.4343291521072388,-0.1441655308008194,0.025961773,0.058643065,1
1.2031607627868652,9.618242263793944,-0.3864129781723023,-0.14457590878009796,0.02107485,0.057421334,1
1.2501521110534668,9.625368118286133,-0.32912135124206543,-0.14299772679805756,-0.002443461,0.045814894,1
1.2827236652374268,9.607503890991213,-0.283777117729187,-0.138180211186409,-0.025045475,0.037873644,1
1.3013132810592651,9.555808067321776,-0.2780323326587677,-0.13113363087177274,-0.06169739,0.061391957,1
1.310944676399231,9.479360580444336,-0.2892707288265228,-0.11561613529920578,-0.09468412,0.036651913,1
1.3297818899154663,9.439531326293944,-0.2930809557437897,-0.09627869725227356,-0.14538592,0.03481932,1
1.365108847618103,9.43135929107666,-0.28813669085502625,-0.07753352075815201,-0.18845193,0.030543262,1
1.413577675819397,9.455303192138672,-0.2959224879741669,-0.057250529527664185,-0.19975294,0.016798794,1
1.4643298387527466,9.501127243041992,-0.322006493806839,-0.041161861270666115,-0.21044308,0.002443461,1
1.5139758586883545,9.565180778503418,-0.3416699171066284,-0.02817244455218315,-0.19853121,-0.02076942,1
1.5309504270553589,9.646109580993652,-0.33677443861961365,-0.024498431012034416,-0.23457226,-0.016187929,1
1.5009348392486572,9.73914909362793,-0.3005242943763733,-0.030854424461722374,-0.2919936,0.007941248,1
1.4511507749557495,9.81096363067627,-0.2455378919839859,-0.050603028386831284,-0.40225476,0.059864793,1
1.419310450553894,9.840953826904297,-0.20406553149223328,-0.0817999318242073,-0.45540005,0.07391469,1
1.440828800201416,9.821856498718262,-0.17013290524482727,-0.11216495931148528,-0.45356745,0.06566802,1
1.5114954710006714,9.794485092163086,-0.14342637360095978,-0.13343878090381622,-0.42332962,0.058643065,1
1.6006121635437012,9.77542781829834,-0.12757627665996552,-0.14466822147369385,-0.32925636,0.023518313,1
1.6823395490646362,9.76383113861084,-0.12288977950811385,-0.14115267992019653,-0.24740042,-0.014049901000000002,1
1.7382560968399048,9.75763988494873,-0.12747320532798767,-0.12270712852478027,-0.18967366,-0.05375614,1
1.7571744918823242,9.755084037780762,-0.1421753317117691,-0.094598226249218,-0.17165314,-0.06750060599999999,1
1.7583696842193604,9.758652687072754,-0.15205557644367218,-0.0648595318198204,-0.17867808,-0.100792766,1
1.7448245286941528,9.77217960357666,-0.16700422763824466,-0.038996685296297066,-0.14599679999999998,-0.1160644,1
1.7108181715011597,9.78256893157959,-0.18407832086086276,-0.017269367352128032,-0.13775012,-0.13744467,1
1.6557528972625732,9.787750244140623,-0.20279885828495026,-0.0014129707124084234,-0.15607607,-0.14966199,1
1.5919177532196045,9.783613204956056,-0.22027446329593656,0.008705173619091509,-0.18509217,-0.14721853,1
1.5350174903869631,9.772425651550293,-0.2328779697418213,0.01317188423126936,-0.22357668,-0.13775012,1
1.4933329820632937,9.755736351013184,-0.2456888109445572,0.014493824914097788,-0.22785273,-0.13072516,1
1.4652262926101685,9.746950149536133,-0.26593151688575745,0.012645180337131023,-0.2171626,-0.12980886,1
1.4414600133895874,9.762004852294922,-0.278982549905777,0.0068193809129297725,-0.2098322,-0.08704830000000001,1
1.4246103763580322,9.796187400817873,-0.280569463968277,-0.004765801131725311,-0.19242255,-0.046120327,1
1.4155423641204834,9.824052810668944,-0.26945462822914124,-0.02019716985523701,-0.18784106,-0.014966198,1
1.4179637432098389,9.84268569946289,-0.24356654286384585,-0.0359673947095871,-0.18417588,0.0027488936,1
1.4359393119812012,9.846539497375488,-0.21516551077365875,-0.05015081912279129,-0.16798794,-0.003970624,1
1.451014280319214,9.839049339294434,-0.19471634924411774,-0.06217672675848007,-0.13744467,-0.01863139,1
1.4511406421661377,9.824177742004396,-0.1669594645500183,-0.07198147475719452,-0.11881329,-0.028710667,1
1.4455859661102295,9.801384925842283,-0.15021967887878418,-0.07476361095905304,-0.09865474,-0.030848695,1
1.4405447244644165,9.772879600524902,-0.14074940979480746,-0.07201103866100311,-0.07544186,-0.03726278,1
1.4253772497177124,9.74070930480957,-0.14044781029224396,-0.06315567344427109,-0.04184427,-0.040317107000000005,1
1.4071378707885742,9.715251922607422,-0.1376606673002243,-0.05136779695749283,-0.019547688,-0.029321533,1
1.3885512351989746,9.710779190063477,-0.1300024539232254,-0.03999575600028038,-0.016187929,-0.03176499,1
1.366683840751648,9.746140480041504,-0.11083240807056427,-0.034598130732774734,-0.029321533,-0.010690141499999998,1
1.3514834642410278,9.791173934936523,-0.09682752937078476,-0.034717153757810586,-0.033292156,-0.00030543262000000003,1
1.348208785057068,9.819533348083496,-0.102524533867836,-0.03792932629585266,-0.032375857,0.009162978,1
1.3451586961746216,9.823125839233398,-0.1097603365778923,-0.04314378648996353,-0.022296581,0.017715093,1
1.3336262702941897,9.811102867126463,-0.1126597374677658,-0.049254100769758224,0.0009162979,0.02321288,1
1.3309301137924194,9.794843673706056,-0.10950170457363127,-0.054677795618772514,0.00580322,0.02687807,1
1.333365797996521,9.781298637390137,-0.10629668086767197,-0.05920516327023506,0.013133603,0.034208454,1
1.3385939598083496,9.774276733398438,-0.1036350280046463,-0.06275028735399246,0.03023783,0.036957346,1
1.3497977256774902,9.764486312866213,-0.10178659856319427,-0.06398890167474748,0.047036625,0.0421497,1
1.3656072616577148,9.763816833496094,-0.0885506272315979,-0.06183189526200295,0.06963864,0.036957346,1
1.3720815181732178,9.77143383026123,-0.06930583715438843,-0.0566614456474781,0.07727446,0.03145956,1
1.3642172813415527,9.78006362915039,-0.03870545700192452,-0.051937688142061234,0.076358154,0.022907447,1
1.3548355102539062,9.793052673339844,-0.0063758459873497495,-0.04807461798191071,0.08093964,0.01863139,1
1.3468352556228638,9.802593231201172,0.011455447413027288,-0.04547964408993721,0.06414085,0.016493361,1
1.3313641548156738,9.806246757507324,0.008533449843525888,-0.04327730461955071,0.06719518,0.022296581,1
1.309801459312439,9.803223609924316,-0.0022309876512736078,-0.04181075096130371,0.058337633,0.03145956,1
1.2893842458724976,9.795413970947266,-0.005139558110386133,-0.0408870168030262,0.051618114000000014,0.032070424,1
1.2797869443893433,9.793621063232422,-0.002441400196403265,-0.04116155579686165,0.03940081,0.03359759,1
1.2808290719985962,9.801230430603027,0.011406331323087215,-0.04473039880394936,0.032986723,0.040317107000000005,1
1.295443773269653,9.803388595581056,0.019383881241083145,-0.04986726492643356,0.021685716,0.047036625,1
1.31108558177948,9.798649787902832,0.020685674622654915,-0.05357332527637482,0.04153884,0.046120327,1
1.3264896869659424,9.79238224029541,0.0262006688863039,-0.0562090277671814,0.048258353,0.04795292,1
1.337199330329895,9.789676666259766,0.029514415189623836,-0.056701157242059715,0.058948494,0.04337143,1
1.3431273698806765,9.79407024383545,0.019109094515442848,-0.055230658501386636,0.04734206,0.036651913,1
1.3488672971725464,9.798562049865724,0.014485571533441544,-0.053286775946617126,0.04550946,0.028710667,1
1.3548955917358398,9.796119689941406,0.012533635832369328,-0.05189154297113418,0.028099801,0.03573562,1
1.36257004737854,9.7866849899292,0.0063310228288173676,-0.050941191613674164,0.020463986,0.035124752999999995,1
1.3714112043380735,9.773369789123537,0.0033542071469128128,-0.050440449267625816,0.029626964,0.034513887,1
1.3855656385421753,9.765535354614258,0.00403612246736884,-0.05070656910538674,0.027183503,0.04642576,1
1.398607611656189,9.76422882080078,0.00437565054744482,-0.0534500777721405,0.028710667,0.061391957,1
1.419064164161682,9.762713432312012,0.013930682092905045,-0.056752610951662064,0.02321288,0.06597344599999999,1
1.4443172216415403,9.765225410461426,0.03537655994296074,-0.06139827519655228,0.021685716,0.0693332,1
1.471654176712036,9.76850128173828,0.04565241187810898,-0.06594770401716232,0.008857545999999999,0.058643065,1
1.509469985961914,9.764269828796387,0.04670348390936852,-0.06950806826353073,0.007330383,0.04428773,1
1.54173743724823,9.753510475158693,0.04665068536996842,-0.0687340795993805,0.010690141499999998,0.0290161,1
1.5689823627471924,9.743240356445312,0.03693961724638939,-0.06652931869029999,0.03145956,0.02321288,1
1.5845460891723633,9.742098808288574,0.022782253101468086,-0.062434278428554535,0.05497787,0.010079277,1
1.5890454053878784,9.751151084899902,0.012799831107258795,-0.056148327887058265,0.037873644,0.022907447,1
1.5868810415267944,9.75583553314209,0.007562051061540842,-0.04959317669272423,0.037873644,0.017715093,1
1.5787432193756104,9.755895614624023,0.006245762109756471,-0.045395564287900925,0.023823744,0.023518313,1
1.5616101026535034,9.759142875671387,-0.008987105451524258,-0.04405827820301056,0.01985312,0.030543262,1
1.5466283559799194,9.759161949157717,-0.019282395020127296,-0.043919552117586136,0.015882496,0.030848695,1
1.5350946187973022,9.756268501281738,-0.024458233267068863,-0.04331004992127418,0.018325957,0.023823744,1
1.5287851095199585,9.753951072692873,-0.025228351354599,-0.04438617452979088,0.0125227375,0.030848695,1
1.5286837816238403,9.75033950805664,-0.02652277611196041,-0.04528350755572319,0.005497787,0.02076942,1
1.528181791305542,9.745726585388184,-0.02265247330069542,-0.04390422254800797,0.0030543262,0.018325957,1
1.5336031913757324,9.739872932434082,-0.01940273866057396,-0.04069870710372925,0.0012217305,0.005497787,1
1.545356512069702,9.737467765808104,-0.003715302329510449,-0.0364784486591816,-0.00580322,0.0076358155,1
1.5575168132781982,9.74217700958252,0.007028813008219004,-0.031271450221538544,-0.0036651916,-0.0030543262,1
1.56889808177948,9.752578735351562,0.008152554742991924,-0.02799456566572189,0.020158553,-0.004276057,1
1.5774544477462769,9.756525993347168,0.013847223483026028,-0.024043522775173187,0.021991149,-0.009773844,1
1.5775495767593384,9.754862785339355,0.016279587522149086,-0.0183744914829731,0.038179077,-0.01282817,1
1.5784645080566406,9.750531196594238,0.01370243541896343,-0.01360425166785717,0.046120327,-0.016187929,1
1.5816768407821655,9.73682975769043,0.012815416790544987,-0.008546244353055954,0.042455133,-0.0143553335,1
1.581242918968201,9.724020004272461,0.019808324053883556,-0.0051880055107176295,0.03848451,-0.011911872,1
1.5775246620178225,9.715596199035645,0.02273547276854515,-0.0023404448293149467,0.047036625,-0.0125227375,1
1.5711932182312012,9.71090030670166,0.020313376560807228,-0.000123164732940495,0.062308256,-0.011911872,1
1.5660048723220823,9.712940216064453,0.014573829248547552,0.003724453039467335,0.08124508,-0.004276057,1
1.5627830028533936,9.72403621673584,0.0071261473931372174,0.008367749862372875,0.092240654,-0.015577064,1
1.5521908998489382,9.741742134094238,-0.0038736474234610796,0.011984634213149548,0.09193522,-0.0125227375,1
1.5274763107299805,9.756611824035645,-0.01688041165471077,0.012459659948945044,0.08032878,-0.013744468,1
1.498186469078064,9.76071071624756,-0.032183434814214706,0.011238607577979565,0.07269296,-0.0030543262,1
1.4653947353363037,9.756287574768066,-0.03508660569787025,0.009271315298974514,0.06597344599999999,-0.00030543262000000003,1
1.4356242418289185,9.754419326782227,-0.03256368264555931,0.006603678222745657,0.056505036,0.0076358155,1
1.4124318361282349,9.764814376831056,-0.05195435881614685,0.0031418707221746445,0.064751714,0.004581489,1
1.395420789718628,9.77869701385498,-0.08390866965055466,-0.0010278656845912335,0.073303826,0.011301007,1
1.3763351440429688,9.784974098205566,-0.10530833899974824,-0.0034184076357632875,0.061391957,0.005192355,1
1.3538798093795776,9.78723430633545,-0.12040656059980392,-0.005736602935940027,0.040927973,0.008857545999999999,1
1.3394505977630615,9.783879280090332,-0.1277969479560852,-0.008225183002650738,0.025961773,0.008552114,1
1.337969422340393,9.790639877319336,-0.13955874741077426,-0.010920518077909945,0.024129177,0.0033597588,1
1.3363887071609497,9.797792434692383,-0.15451128780841827,-0.013398073613643645,0.032070424,0.007941248,1
1.332726001739502,9.804306030273438,-0.17494811117649078,-0.014771872200071812,0.037873644,-0.004581489,1
1.3328540325164795,9.805298805236816,-0.19025303423404694,-0.01502776425331831,0.038179077,-0.0027488936,1
1.3303402662277222,9.80354118347168,-0.20443272590637207,-0.015435460954904556,0.04886922,0.0018325958,1
1.3326189517974854,9.798469543457033,-0.22238902747631076,-0.016621487215161324,0.058337633,0.010079277,1
1.332010269165039,9.791409492492676,-0.2328726053237915,-0.018557105213403702,0.04642576,0.018325957,1
1.3277658224105835,9.795226097106934,-0.23552027344703674,-0.021715160459280014,0.050396383,0.019547688,1
1.318698525428772,9.801765441894533,-0.2425837516784668,-0.026250841096043587,0.054367006,0.02321288,1
1.317373514175415,9.801151275634766,-0.24347715079784396,-0.03230256959795952,0.040927973,0.025045475,1
1.3157533407211304,9.803033828735352,-0.2404957562685013,-0.03763961791992188,0.03176499,0.018020526,1
1.3128472566604614,9.803457260131836,-0.2291279435157776,-0.042836692184209824,0.015882496,0.016798794,1
1.3119887113571167,9.79845142364502,-0.2179969549179077,-0.045521225780248635,0.013439035,0.01863139,1
1.316557765007019,9.799250602722168,-0.21326299011707306,-0.047470156103372574,0.004886922,0.013439035,1
1.3172743320465088,9.79605770111084,-0.20238302648067474,-0.04847516492009163,0.01863139,0.014049901000000002,1
1.3226624727249146,9.79084300994873,-0.19303451478481293,-0.04967712610960007,0.016493361,0.028099801,1
1.331255316734314,9.78592014312744,-0.1818820685148239,-0.050274547189474106,0.016493361,0.028405234,1
1.33561909198761,9.784226417541504,-0.16225039958953855,-0.051233664155006416,0.015577064,0.03604105,1
1.34357488155365,9.783206939697266,-0.14264130592346191,-0.05394463241100311,0.01740966,0.038179077,1
1.3568483591079712,9.785293579101562,-0.13134698569774628,-0.056563708931207664,0.01282817,0.040927973,1
1.366360783576965,9.785534858703613,-0.11842572689056395,-0.05847302451729775,0.022296581,0.03359759,1
1.3805909156799316,9.78165340423584,-0.10953862220048904,-0.058088496327400214,0.025350908,0.033292156,1
1.3895819187164309,9.774544715881348,-0.11038132756948472,-0.05577148124575615,0.028405234,0.029932396,1
1.382689356803894,9.771203994750977,-0.12189018726348876,-0.0531022772192955,0.03390302,0.027794369,1
1.369046926498413,9.76982879638672,-0.12993940711021426,-0.051963794976472855,0.022296581,0.029932396,1
1.3536624908447266,9.771890640258787,-0.1339266449213028,-0.0507662408053875,-0.007941248,0.032375857,1
1.3445550203323364,9.776387214660645,-0.13602055609226227,-0.05072348564863205,-0.031154128,0.028099801,1
1.3409206867218018,9.78425407409668,-0.13133203983306885,-0.0523650124669075,-0.05955936,0.030543262,1
1.3460640907287598,9.794821739196776,-0.11807019263505936,-0.05532833561301232,-0.071776666,0.032986723,1
1.364241123199463,9.798331260681152,-0.10755039751529694,-0.05940042063593864,-0.058337633,0.028405234,1
1.3885546922683716,9.792966842651367,-0.10523248463869096,-0.06207753345370293,-0.047036625,0.025350908,1
1.4050549268722534,9.780546188354492,-0.10398194938898088,-0.06347797065973282,-0.015882496,0.03604105,1
1.4209072589874268,9.775777816772461,-0.10212397575378418,-0.062455371022224426,-0.02321288,0.032375857,1
1.4274449348449707,9.770259857177734,-0.0962679088115692,-0.062331501394510276,-0.016493361,0.034208454,1
1.4252560138702393,9.764809608459473,-0.08395041525363922,-0.06401944905519485,-0.026267206,0.04184427,1
1.426445722579956,9.768237113952637,-0.08378060162067412,-0.06593494862318039,-0.021380283,0.042455133,1
1.4342975616455078,9.773323059082033,-0.08721350133419037,-0.06782476603984833,-0.011911872,0.040011674,1
1.4414945840835571,9.77721881866455,-0.09078044444322586,-0.06725843250751495,-0.00061086525,0.038789943,1
1.4462118148803709,9.7791109085083,-0.0931253507733345,-0.06657004356384277,0.012217305,0.024740042,1
1.4469234943389893,9.777748107910156,-0.09070366621017456,-0.06475598365068436,0.008552114,0.028099801,1
1.4449577331542969,9.778695106506348,-0.08953727036714554,-0.06412257999181747,-0.0076358155,0.036651913,1
1.4432979822158811,9.7824125289917,-0.08791153877973558,-0.06287773698568344,-0.013744468,0.036651913,1
1.4421606063842771,9.788015365600586,-0.08582091331481934,-0.06280501186847688,-0.02565634,0.03604105,1
1.4455490112304688,9.787811279296877,-0.08214812725782394,-0.06270106136798859,-0.022296581,0.027794369,1
1.4533447027206419,9.780094146728516,-0.07317108660936356,-0.06174525991082192,-0.011301007,0.022602014,1
1.4563139677047732,9.769079208374023,-0.06862639635801315,-0.061006151139736176,0.00061086525,0.024129177,1
1.4643738269805908,9.7659330368042,-0.06542257219552994,-0.05996862053871155,-0.01160644,0.02565634,1
1.4707967042922974,9.76980972290039,-0.06060230731964111,-0.0593067854642868,-0.028099801,0.03023783,1
1.4719510078430176,9.775975227355957,-0.0526488721370697,-0.060939207673072815,-0.03481932,0.035124752999999995,1
1.4672058820724487,9.777965545654297,-0.04119569435715675,-0.061739154160022736,-0.037873644,0.035124752999999995,1
1.4659842252731323,9.776578903198242,-0.033882934600114815,-0.06293297559022902,-0.045814894,0.027183503,1
1.4766733646392822,9.76950454711914,-0.03153092041611672,-0.06387495249509811,-0.029626964,0.028405234,1
1.4833500385284424,9.761706352233887,-0.02360190823674202,-0.06354370713233948,-0.039095376,0.021685716,1
1.4915400743484497,9.75186252593994,-0.02063962444663048,-0.06206174939870834,-0.03481932,0.02076942,1
1.5035443305969238,9.751263618469238,-0.02713668718934059,-0.05936416238546372,-0.039095376,0.01863139,1
1.5157654285430908,9.757851600646973,-0.03310228884220123,-0.058689240366220474,-0.032070424,0.023823744,1
1.5256899595260618,9.759531021118164,-0.03703209757804871,-0.057928822934627526,-0.020158553,0.030543262,1
1.5334367752075195,9.753620147705078,-0.03996355459094048,-0.056718677282333374,-0.013744468,0.03390302,1
1.5426568984985352,9.74769687652588,-0.04436187446117401,-0.056131597608327866,0.0125227375,0.035124752999999995,1
1.5546152591705322,9.748615264892578,-0.044521775096654885,-0.05466088652610779,0.021991149,0.03573562,1
1.5556708574295044,9.748411178588867,-0.04089394584298134,-0.054282497614622116,0.024740042,0.036957346,1
1.555746078491211,9.750228881835938,-0.0319971889257431,-0.05438516288995743,0.02107485,0.040011674,1
1.556053638458252,9.748357772827148,-0.03457002714276314,-0.0548771433532238,0.011911872,0.040927973,1
1.5576852560043335,9.74510669708252,-0.03338540717959404,-0.05353331193327904,0.028405234,0.028710667,1
1.5565857887268066,9.751426696777344,-0.02995640411973,-0.05206947773694992,0.033292156,0.030543262,1
1.552312254905701,9.764463424682617,-0.025722170248627663,-0.05044594779610634,0.040011674,0.023518313,1
1.546924710273743,9.771132469177246,-0.02999061718583107,-0.04891782626509666,0.04153884,0.022296581,1
1.534962773323059,9.768875122070312,-0.028489775955677032,-0.04953461885452271,0.044898596,0.027794369,1
1.5235674381256104,9.765454292297363,-0.0281195268034935,-0.04951206967234612,0.03481932,0.030848695,1
1.5156830549240112,9.764810562133787,-0.027387743815779686,-0.04840812087059021,0.024740042,0.029932396,1
1.5128592252731323,9.767996788024902,-0.021115271374583244,-0.04934237897396088,0.011911872,0.032375857,1
1.5117583274841309,9.773101806640623,-0.014421750791370869,-0.049353230744600296,0.016798794,0.032070424,1
1.518075704574585,9.779717445373537,-0.015384424477815628,-0.0489187091588974,0.015577064,0.022296581,1
1.5283766984939575,9.779278755187988,-0.011431472375988959,-0.04830129072070122,0.017104227,0.018325957,1
