acc_x,acc_y,acc_z,gyro_x,gyro_y,gyro_z,label
0.0,0.0,0.0,0.0,0.011301007,0.022907447,8
0.10961239784955977,0.2095237672328949,0.1681036651134491,-0.0010854233987629414,0.006414085,0.009162978,8
0.3712795674800873,0.7095948457717896,0.5710498690605164,-0.003857130883261562,0.004276057,0.01863139,8
0.7337852120399475,1.4022493362426758,1.1317623853683472,-0.0078839510679245,0.02443461,0.012217305,8
1.1396620273590088,2.177847623825073,1.7618515491485596,-0.012551874853670595,0.017104227,0.02107485,8
1.5428401231765747,2.9484100341796875,2.39026951789856,-0.017374614253640175,0.009162978,0.010690141499999998,8
1.9144245386123655,3.658721923828125,2.9721949100494385,-0.021073471754789352,0.007941248,0.013744468,8
2.240657091140747,4.282482147216797,3.4860544204711914,-0.025508670136332512,0.0076358155,0.0076358155,8
2.5181305408477783,4.813158988952637,3.9260990619659424,-0.028939206153154377,0.010690141499999998,0.010079277,8
2.749265193939209,5.255359649658203,4.295746803283691,-0.0316581204533577,0.007941248,0.015882496,8
2.939170360565185,5.618834018707275,4.602646350860597,-0.03316262736916542,0.012217305,0.016798794,8
3.0937905311584477,5.914924621582031,4.855672836303711,-0.03465193137526512,0.01740966,0.009468411,8
3.2189011573791504,6.154660224914551,5.063622951507568,-0.03677036985754967,0.01282817,0.015271631,8
3.3196170330047607,6.347901821136475,5.23396110534668,-0.03803117200732231,0.011911872,0.016798794,8
3.3999848365783687,6.502889633178711,5.371174812316895,-0.039051603525877,0.008857545999999999,0.011911872,8
3.4637877941131587,6.626798629760742,5.48114013671875,-0.04025635495781898,0.017104227,0.018936822,8
3.5141897201538086,6.7255682945251465,5.569065570831299,-0.04125644639134407,0.00580322,0.016187929,8
3.5537810325622563,6.804056167602539,5.639209747314452,-0.04266251251101494,-0.009162978,0.015577064,8
3.5846643447875977,6.866207599639893,5.695030212402344,-0.04232287034392357,-0.0012217305,0.0143553335,8
3.6085414886474614,6.915213584899902,5.739325523376465,-0.042217250913381583,0.005192355,0.0061086523,8
3.6267821788787837,6.953645706176758,5.774351119995117,-0.04159373790025711,0.005497787,0.0070249503,8
3.6404948234558105,6.983580589294434,5.801925659179688,-0.03962752595543861,0.004276057,0.016187929,8
3.650569438934326,7.006688117980957,5.823513507843018,-0.038356147706508636,0.015882496,0.01282817,8
3.6621134281158447,7.022842884063722,5.841435432434082,-0.03785708174109459,0.03023783,0.03023783,8
3.679122447967529,7.030673503875732,5.837669372558594,-0.0365990661084652,0.014660766,0.010690141499999998,8
3.6910386085510254,7.046330451965332,5.783237934112549,-0.03650618344545365,0.018020526,0.020158553,8
3.7015883922576895,7.067519664764403,5.682023525238037,-0.036433663219213486,0.008246681,0.017715093,9
3.706268310546875,7.085475444793701,5.575068950653076,-0.03745604678988457,0.013133603,0.008552114,9
3.703979015350342,7.097766399383545,5.493473529815674,-0.04083557426929474,-0.0018325958,0.003970624,9
3.682993173599243,7.133007049560548,5.4405694007873535,-0.04399784281849861,0.027794369,0.028099801,9
3.6684048175811768,7.144382953643799,5.4428253173828125,-0.048370864242315285,0.053145275,0.03023783,9
3.649419069290161,7.147335529327393,5.496676445007324,-0.05431453883647919,0.043982297,0.050396383,9
3.63220739364624,7.188351154327393,5.5335187911987305,-0.0617118813097477,0.048258353,0.09315695,9
3.6016833782196045,7.250832557678223,5.4909348487854,-0.07612644135951996,0.11575896,0.13713925,9
3.593174934387207,7.296257019042969,5.4071998596191415,-0.09316948801279068,0.10170906,0.20677789,9
3.588800430297852,7.267465591430664,5.306907653808594,-0.1204063594341278,0.17867808,0.17562376,9
3.5899906158447266,7.194226741790772,5.249381065368652,-0.15080732107162476,0.2284636,0.09987647,9
3.606757164001465,7.116694450378418,5.261336803436278,-0.17112857103347778,0.2012801,0.05589417,9
3.642533779144287,7.062489986419678,5.340352535247803,-0.1802987903356552,0.18417588,0.036651913,9
3.700804471969605,7.015162467956543,5.459664344787598,-0.18263548612594604,0.19914207,0.03634648,9
3.765406847000122,6.970041275024414,5.599036693572998,-0.1795032024383545,0.20738874,0.021685716,9
3.81625247001648,6.9110846519470215,5.735240459442139,-0.16839346289634705,0.18753563,0.0036651916,9
3.847612619400024,6.8388423919677725,5.854308605194093,-0.1463402807712555,0.17195857,-0.027794369,9
3.855973958969116,6.79620361328125,5.945011615753174,-0.11751844733953475,0.13347405,-0.053450707,9
3.860976219177246,6.7825684547424325,6.016665935516357,-0.08301248401403427,0.07544186,-0.070554934,9
3.8551321029663086,6.77316951751709,6.063422679901122,-0.043458670377731316,0.06750060599999999,-0.105374254,9
3.8286635875701904,6.756508827209473,6.079440593719482,0.002425280399620533,0.064751714,-0.14905111,9
3.7796378135681152,6.760411262512207,6.087557792663574,0.05247900262475014,0.029321533,-0.1695151,9
3.7303283214569087,6.784223556518555,6.087960720062256,0.10053239017724992,-0.020463986,-0.18875736,9
3.68331789970398,6.831723690032959,6.0496931076049805,0.14708897471427915,-0.07941248,-0.2312125,9
3.641790390014648,6.899696826934815,5.976546287536621,0.18926168978214264,-0.15027285,-0.24801129,9
3.610771656036377,6.964827537536621,5.873292922973633,0.2316732257604599,-0.19608775,-0.26450464,9
3.568794250488281,7.035129070281982,5.7548484802246085,0.2765917778015137,-0.18784106,-0.29229903,9
3.525597095489502,7.1176819801330575,5.658651351928711,0.3220754265785217,-0.19822577,-0.30940324,9
3.497142553329468,7.1961350440979,5.577276706695557,0.36536812782287603,-0.20158553,-0.33475417,9
3.481719255447388,7.266003131866455,5.499238014221191,0.4038294553756714,-0.17104226,-0.3622431,9
3.484828472137451,7.336793422698975,5.424620151519775,0.4328447878360748,-0.12492194,-0.3930918,9
3.4822232723236084,7.379544734954834,5.368199348449707,0.4573583602905274,-0.12858713,-0.44898596,9
3.456074953079224,7.402872085571289,5.319180488586426,0.4833894670009613,-0.15027285,-0.49632803,9
3.4170234203338623,7.425508975982666,5.259232997894287,0.5175548195838928,-0.14141529999999994,-0.56046885,9
3.380213499069214,7.45634126663208,5.172506332397461,0.5576059818267822,-0.09560041,-0.625526,9
3.3331143856048584,7.5190372467041025,5.05930233001709,0.5907238721847534,-0.04062254,-0.64751714,9
3.2696230411529537,7.617093563079834,4.921485900878906,0.6184748411178589,-0.007330383,-0.63804877,9
3.184070587158203,7.7238221168518075,4.785755157470703,0.644481897354126,0.0012217305,-0.6441574000000001,9
3.080219268798828,7.83545970916748,4.652156352996826,0.67360919713974,0.028405234,-0.66339964,9
2.9621949195861816,7.940536022186278,4.5281081199646,0.713084876537323,0.06047566,-0.6881397,9
2.835484266281128,8.029214859008789,4.402939319610597,0.7642958164215088,0.070249505,-0.7495316,9
2.721026659011841,8.14610481262207,4.314663887023927,0.8266515135765076,0.08552113,-0.8026769,9
2.6358413696289062,8.322582244873049,4.269493579864502,0.8956307172775269,0.14691310000000002,-0.86070913,9
2.567438840866089,8.594869613647461,4.2613043785095215,0.9604963064193726,0.24190263,-0.906524,9
2.518603563308716,8.931649208068848,4.2395901679992685,1.0261584520339966,0.355829,-0.9379836,9
2.468383550643921,9.233627319335938,4.194794654846191,1.0986170768737793,0.42913285,-0.9101892,9
2.3871662616729736,9.503965377807617,4.148613929748535,1.1703369617462158,0.4382958,-0.75625116,9
2.1933641433715816,9.767573356628418,4.081834793090819,1.2178064584732056,0.41416663,-0.6414085,9
1.907806158065796,9.964282035827637,3.946886777877808,1.23105788230896,0.32345316,-0.53969944,9
1.6110688447952268,10.096515655517578,3.7411992549896236,1.2128548622131348,0.18692477,-0.4465425,9
1.4042195081710815,10.206106185913086,3.4692862033843994,1.1780112981796265,0.17134771,-0.40439278,9
1.2842077016830444,10.2748441696167,3.1511461734771733,1.135446071624756,0.16279559,-0.40500367,9
1.1836508512496948,10.341435432434082,2.8142082691192627,1.0956214666366575,0.14446963,-0.39920044,9
1.0580880641937256,10.438206672668457,2.459502458572388,1.062946319580078,0.20250183,-0.36835176,9
0.9271445274353028,10.51855182647705,2.1139557361602783,1.0334508419036863,0.25411993,-0.29352075,9
0.7906491160392761,10.577889442443848,1.805014967918396,0.9910607933998108,0.31031954,-0.15790866,9
0.6900302171707153,10.590340614318848,1.536711812019348,0.9313730597496032,0.3136793,-0.081855945,9
0.6193045377731323,10.55510425567627,1.2918405532836914,0.8562524318695068,0.32070425,-0.024740042,9
0.5373026728630066,10.500862121582033,1.069021701812744,0.7773131132125854,0.33414328,0.023823744,9
0.42480239272117615,10.422016143798828,0.8796634078025818,0.707416296005249,0.31978795,0.06963864,9
0.30649444460868835,10.32729434967041,0.7144275903701782,0.64543616771698,0.27488935,0.09590584,9
0.2136977016925812,10.23801040649414,0.5781921744346619,0.592383086681366,0.19364429,0.102319926,9
0.1443321704864502,10.152576446533203,0.4671103954315186,0.548484206199646,0.09132435,0.12217305,9
0.09168988466262816,10.076512336730957,0.37968966364860535,0.5064889788627625,-0.009162978,0.14385876,9
0.06049562618136406,10.01038646697998,0.3090897500514984,0.4610051512718201,-0.08796459400000001,0.17867808,9
0.06689925491809845,9.957677841186523,0.247460812330246,0.4063228368759155,-0.16035213,0.226631,9
0.10116031765937804,9.89314079284668,0.1957776248455048,0.3437643945217133,-0.17104226,0.26328292,9
0.156901016831398,9.833518981933594,0.1420467048883438,0.2793867588043213,-0.17379116,0.27580565,9
0.2318738251924515,9.78705883026123,0.08007228374481201,0.2159081995487213,-0.122478485,0.29840767,9
0.3141824603080749,9.74696445465088,0.02012141421437264,0.1556151658296585,-0.06169739,0.30085114,9
0.4027962684631348,9.706355094909668,-0.034283939749002464,0.09798696637153624,-0.015271631,0.29138273,9
0.4851152896881104,9.679694175720217,-0.0791170671582222,0.04957690462470055,0.023823744,0.28802297,9
0.5580346584320068,9.661676406860352,-0.11990056186914445,0.008482960052788258,0.038789943,0.30909783,9
0.5960367918014526,9.64427661895752,-0.1553286612033844,-0.023304101079702374,0.03390302,0.30909783,9
0.6023584008216858,9.616966247558594,-0.1770472675561905,-0.04880116134881973,0.03726278,0.28741209999999995,9
0.5878697037696838,9.604146003723145,-0.1921120136976242,-0.07028037309646606,0.023518313,0.25595254,9
0.5786080360412598,9.610127449035645,-0.19595304131507876,-0.08980453759431839,-0.00580322,0.24770586,9
0.5843067765235901,9.644207000732422,-0.19565045833587646,-0.11304069310426712,-0.07422013,0.25809056,9
0.5962633490562439,9.6695556640625,-0.19695496559143064,-0.13366858661174774,-0.095294975,0.23671028,9
0.6251274347305298,9.674468994140623,-0.20478512346744535,-0.1432819962501526,-0.08246681,0.204029,9
0.6668791174888611,9.67171573638916,-0.20431101322174072,-0.14768043160438538,-0.06963864,0.17623462,1
0.7009006142616272,9.636425018310547,-0.19644419848918915,-0.14913278818130493,-0.05925392700000001,0.17043139999999998,1
0.7253412008285522,9.574048042297363,-0.17671148478984833,-0.1518791913986206,-0.04886922,0.15699236,1
0.7379921078681946,9.493878364562988,-0.14030267298221588,-0.15749947726726532,-0.06566802,0.15913039999999998,1
0.7325542569160461,9.400901794433594,-0.10349132865667343,-0.16690804064273834,-0.090713486,0.18112154,1
0.7201898097991943,9.300989151000977,-0.07098482549190521,-0.1769264042377472,-0.12034045,0.20708331,1
0.7005981206893921,9.200798034667967,-0.03545193001627922,-0.1884685605764389,-0.12797627,0.20555615,1
0.6809955239295961,9.127965927124023,0.013508551754057407,-0.20563410222530365,-0.15577064,0.18509217,1
0.680152952671051,9.125494956970217,0.055415112525224686,-0.22785930335521695,-0.18417588,0.21044308,1
0.7067683339118958,9.145421028137207,0.07935753464698793,-0.25271615386009216,-0.19914207,0.20250183,1
0.7784030437469482,9.186738967895508,0.08826044201850891,-0.2779311537742615,-0.18600847,0.22357668,1
0.8554449081420898,9.232563018798828,0.09270748496055604,-0.29803892970085144,-0.16493362,0.21655174,1
0.9139500856399536,9.247428894042967,0.11488436907529832,-0.3147579431533813,-0.15790866,0.22937989,1
0.942936360836029,9.25467300415039,0.1551402062177658,-0.3300968110561371,-0.13347405,0.23182335,1
0.9655244946479796,9.26867389678955,0.1900128722190857,-0.3455574512481689,-0.10476339,0.258396,1
0.9825896620750428,9.309228897094727,0.215132549405098,-0.3596324920654297,-0.084910266,0.30268374,1
0.985798716545105,9.340182304382324,0.233231782913208,-0.3713877499103546,-0.061391957,0.3268129,1
0.991581916809082,9.337270736694336,0.2441680729389191,-0.3805288374423981,-0.051923547,0.33567044,1
1.0110312700271606,9.28807544708252,0.2798524796962738,-0.3835245072841644,-0.036957346,0.31703907,1
1.0491560697555542,9.250840187072754,0.3403012454509735,-0.3819840550422669,-0.05467244,0.29046643,1
1.1085662841796875,9.275917053222656,0.4166183471679688,-0.3794459998607636,-0.08796459400000001,0.267559,1
1.198570728302002,9.350003242492676,0.5138404369354248,-0.37664365768432617,-0.10873401,0.25289822,1
1.3308058977127075,9.44593620300293,0.5974047183990479,-0.36856183409690857,-0.03176499,0.17806722,1
1.4647555351257324,9.532736778259276,0.6650749444961548,-0.353194922208786,0.03940081,0.13011430000000002,1
1.5921746492385864,9.55926513671875,0.727814257144928,-0.3301168978214264,0.14569137,0.07360926,1
1.711545705795288,9.52304744720459,0.7952456474304199,-0.3019275367259979,0.14782938,0.057421334,1
1.7879217863082886,9.447072982788086,0.8584111332893372,-0.26832810044288635,0.15118915,0.056199603,1
1.806317448616028,9.358866691589355,0.9029852151870728,-0.2309357672929764,0.13652839,0.08063421400000001,1
1.803892016410828,9.30128288269043,0.9378674626350404,-0.1889299154281616,0.11148291,0.106595986,1
1.8044186830520632,9.296676635742188,0.9857454895973206,-0.1509828269481659,0.076052725,0.13958271,1
1.8290249109268188,9.33858871459961,1.0249091386795044,-0.12686066329479218,0.026572637000000003,0.16676621,1
1.8839174509048464,9.40481948852539,1.0097839832305908,-0.1163373813033104,0.038179077,0.17043139999999998,1
1.9403676986694336,9.48763942718506,0.9753249287605286,-0.11528743803501128,0.05589417,0.15515977,1
1.9841454029083248,9.552814483642578,0.9328901767730712,-0.11312193423509598,0.06566802,0.101098195,1
2.0113680362701416,9.58678913116455,0.8963489532470703,-0.1100729927420616,0.077579886,0.04550946,1
2.0150315761566158,9.604677200317383,0.888995885848999,-0.10849850624799727,0.028099801,0.014966198,1
2.00041937828064,9.607881546020508,0.8880363702774048,-0.10626436769962312,-0.027794369,0.0070249503,1
1.9757696390151975,9.601387977600098,0.8836489319801331,-0.10601799935102464,-0.118507855,-0.005497787,1
1.964475154876709,9.59706211090088,0.884227454662323,-0.1074111983180046,-0.17531833,-0.01282817,1
1.9691237211227417,9.590609550476074,0.8767886757850647,-0.10892783850431442,-0.21838433,-0.032070424,1
1.9842185974121092,9.580072402954102,0.8587306141853333,-0.10981909185647963,-0.2434298,-0.052839845,1
2.012655019760132,9.563563346862793,0.8523395657539368,-0.10979024320840836,-0.24404067,-0.07147124,1
2.052085399627685,9.557943344116213,0.8693076372146606,-0.10401283949613573,-0.22082779,-0.089491755,1
2.0884008407592773,9.558862686157227,0.8943912982940674,-0.09384045004844667,-0.19517145,-0.10293079,1
2.115863561630249,9.561293601989746,0.9287834167480468,-0.08103029429912567,-0.21227567,-0.10445796,1
2.150444746017456,9.552266120910645,0.970458984375,-0.06864244490861893,-0.2275473,-0.108123146,1
2.2053256034851074,9.541237831115724,1.0061789751052856,-0.05885988101363183,-0.22174409,-0.10170906,1
2.2611103057861333,9.531977653503418,1.0234395265579224,-0.04647210240364075,-0.17531833,-0.098043874,1
2.3098254203796387,9.527729034423828,1.0253342390060425,-0.029962031170725826,-0.093462385,-0.07819075,1
2.341311454772949,9.527003288269043,1.0256818532943726,-0.011697021313011645,-0.022296581,-0.05375614,1
2.347790002822876,9.520915031433104,1.0129590034484863,0.00629662349820137,0.040011674,-0.0290161,1
2.334668636322021,9.514130592346193,1.0011368989944458,0.0222408939152956,0.08093964,-0.018325957,1
2.310519218444824,9.515888214111328,1.0106081962585451,0.033478129655122764,0.08643743400000001,-0.008857545999999999,1
2.260750532150269,9.522896766662598,1.0284199714660645,0.04341012611985207,0.08307768,0.0027488936,1
2.1917037963867188,9.533053398132324,1.0377051830291748,0.05190376192331314,0.06261369,-0.00061086525,1
2.1131839752197266,9.54289722442627,1.0328439474105835,0.05840205773711205,0.032986723,-0.006414085,1
2.0339088439941406,9.55348300933838,1.0240155458450315,0.06392549723386765,0.010079277,-0.008857545999999999,1
1.963512659072876,9.56875991821289,1.0163655281066897,0.06764497607946396,-0.012217305,-0.018325957,1
1.898135781288147,9.595338821411133,1.0363309383392334,0.06563246995210648,-0.064751714,-0.013744468,1
1.8573614358901975,9.618938446044922,1.0607284307479858,0.059011146426200874,-0.09560041,-0.03573562,1
1.840340256690979,9.635565757751463,1.0810703039169312,0.052839770913124084,-0.1133155,-0.035124752999999995,1
1.845862627029419,9.641340255737305,1.10272479057312,0.049162209033966064,-0.12095132,-0.04642576,1
1.867461442947388,9.650171279907227,1.109013915061951,0.04683147370815277,-0.10751228,-0.048563786,1
1.894254446029663,9.655210494995117,1.1046308279037476,0.04441043734550476,-0.0720821,-0.045814894,1
1.914445161819458,9.655539512634276,1.092764377593994,0.04289421439170837,-0.014660766,-0.0421497,1
1.9205840826034544,9.64780044555664,1.0644909143447876,0.04146426543593407,0.013133603,-0.027488936,1
1.9098751544952397,9.639747619628906,1.0544807910919192,0.03753015398979187,0.044593163,-0.02076942,1
1.881157398223877,9.640460014343262,1.0512306690216064,0.03296301141381264,0.03756821,0.003970624,1
1.8435745239257808,9.646822929382324,1.0591050386428833,0.02670019306242466,0.014966198,-0.004581489,1
1.8009718656539917,9.660844802856444,1.0690397024154663,0.01988048106431961,-0.008857545999999999,-0.004276057,1
1.7653542757034302,9.678507804870604,1.0629161596298218,0.01389559544622898,-0.043676864,-0.01740966,1
1.730409860610962,9.684112548828123,1.0525327920913696,0.00815475732088089,-0.06780604,-0.0290161,1
1.7068157196044922,9.688273429870604,1.0339972972869873,0.004509537946432829,-0.08735373,-0.038789943,1
1.693812131881714,9.691417694091797,1.0076825618743896,0.0012276971247047186,-0.101098195,-0.040927973,1
1.680811643600464,9.69543743133545,0.9838317632675172,-0.002653546631336212,-0.11759156,-0.024129177,1
1.6701574325561523,9.700182914733887,0.9620954394340516,-0.00762823410332203,-0.12705997,-0.02321288,1
1.670067548751831,9.702589988708496,0.948358714580536,-0.013503257185220718,-0.13103059,-0.008552114,1
1.680635929107666,9.697630882263184,0.9313475489616394,-0.01993691734969616,-0.11881329,-0.016187929,1
1.7019264698028564,9.689867973327637,0.9270373582839966,-0.025108495727181438,-0.1142318,-0.008552114,1
1.7343829870224,9.680777549743652,0.9262908101081848,-0.027804484590888023,-0.111177474,-0.0076358155,1
1.7778776884078982,9.674224853515623,0.9323214888572692,-0.027883078902959824,-0.093462385,-0.0125227375,1
1.8220481872558596,9.665773391723633,0.9315840005874634,-0.02647329680621624,-0.07696902,-0.017715093,1
1.8648622035980225,9.656501770019533,0.9234033823013306,-0.0237151812762022,-0.044593163,-0.013133603,1
1.899541258811951,9.65013313293457,0.9137942790985109,-0.019622836261987686,-0.018936822,-0.010995574,1
1.922697186470032,9.652164459228516,0.907927632331848,-0.014984062872827053,0.01985312,0.0070249503,1
1.9344935417175293,9.657666206359863,0.8974402546882629,-0.010792757384479046,0.046120327,0.0015271631,1
1.9380738735198972,9.661545753479004,0.8821215033531189,-0.006603209301829338,0.06505715,0.009773844,1
1.931700348854065,9.665237426757812,0.8659046292304993,-0.002290048636496067,0.08552113,0.02321288,1
1.9199724197387693,9.669193267822266,0.8473284840583801,7.419467146974057e-05,0.08827003,0.003970624,1
1.8959097862243648,9.673014640808104,0.8248606324195862,0.0009494296391494572,0.10262536,0.018020526,1
1.8753814697265625,9.669023513793944,0.8009946942329407,-0.0004306983901187778,0.09162979,0.025350908,1
1.858713269233704,9.666086196899414,0.7796658277511597,-0.002059817546978593,0.10476339,0.03023783,1
1.8500396013259888,9.665695190429688,0.7522957921028137,-0.0033741428051143885,0.106901415,0.04734206,1
1.8431990146636963,9.67204761505127,0.7260499596595764,-0.004095228854566813,0.11575896,0.04795292,1
1.848199844360352,9.677412033081056,0.7052772641181946,-0.004448885098099709,0.12034045,0.043066,1
1.8587076663970947,9.681870460510254,0.7033349871635437,-0.00453029153868556,0.11728613,0.039095376,1
1.8670861721038816,9.689336776733398,0.7139196991920471,-0.005618343129754066,0.10293079,0.034513887,1
1.8719563484191892,9.693943977355957,0.7166804671287537,-0.006629426032304764,0.105068825,0.029932396,1
1.8788741827011108,9.68690586090088,0.7177662849426271,-0.006271139718592167,0.10293079,0.02107485,1
1.879905343055725,9.68262004852295,0.7150522470474243,-0.006602194160223007,0.105068825,0.03268129,1
1.8734679222106931,9.678016662597656,0.7060388326644897,-0.005467353854328394,0.1142318,0.03756821,1
1.8636375665664675,9.67764377593994,0.6939350962638855,-0.004610244650393725,0.12003502,0.034208454,1
1.8506916761398315,9.683828353881836,0.6750857830047607,-0.005016330629587174,0.09987647,0.042455133,1
1.8377878665924072,9.68557357788086,0.6554641127586365,-0.006367001682519914,0.08063421400000001,0.048258353,1
1.836031436920166,9.682890892028807,0.6574618816375732,-0.009408436715602876,0.077579886,0.04520403,1
1.8363403081893919,9.681416511535645,0.674933671951294,-0.012884300202131271,0.07849618,0.057421334,1
1.8417576551437376,9.684305191040039,0.6989918947219849,-0.016914194449782368,0.08032878,0.060170225999999986,1
1.8586796522140503,9.688408851623537,0.7158513069152832,-0.02234332449734211,0.08307768,0.058948494,1
1.877834677696228,9.690057754516602,0.7353672981262207,-0.0276496522128582,0.089491755,0.062308256,1
1.89686918258667,9.679933547973633,0.7516406774520874,-0.03000644780695438,0.092240654,0.05925392700000001,1
1.9127867221832275,9.665441513061523,0.7561797499656677,-0.02902499958872795,0.10323623,0.046731193,1
1.9244264364242556,9.662903785705566,0.7602942585945129,-0.026917288079857826,0.10903945,0.03634648,1
1.9280314445495603,9.670068740844727,0.7674739956855774,-0.02373809553682804,0.10873401,0.031154128,1
1.9271993637084959,9.675990104675293,0.7678192853927612,-0.0205556470900774,0.105374254,0.027183503,1
1.9157695770263672,9.680249214172363,0.7616367340087891,-0.017609626054763794,0.11026118,0.017104227,1
1.90355384349823,9.674806594848633,0.7507214546203613,-0.01579853892326355,0.093462385,0.008552114,1
1.8956528902053835,9.671414375305176,0.7428857088088989,-0.013825561851263045,0.08643743400000001,-0.0015271631,1
1.8825324773788448,9.670679092407227,0.7381240725517273,-0.011001517064869404,0.08216137400000001,0.00030543262000000003,1
1.867328405380249,9.675753593444824,0.7398658394813538,-0.007099195383489131,0.069027774,-0.0018325958,1
1.859254240989685,9.679755210876463,0.7474203705787659,-0.00476587750017643,0.061391957,0.00061086525,1
1.854005455970764,9.68386936187744,0.7548720240592957,-0.0018450196366757157,0.056505036,-0.010079277,1
1.848152995109558,9.689263343811037,0.7536625862121582,0.0014085411094129086,0.05222898,-0.010690141499999998,1
1.8407310247421265,9.702143669128418,0.7510530352592468,0.0027180884499102827,0.04886922,-0.01282817,1
1.8351247310638428,9.704726219177246,0.7483698725700378,0.0037586591206490993,0.037873644,-0.010690141499999998,1
1.833768367767334,9.698586463928224,0.74951171875,0.004219250753521918,0.03481932,-0.012217305,1
1.831308960914612,9.695820808410645,0.7446553707122803,0.0046947053633630284,0.03390302,-0.02107485,1
1.8273628950119016,9.69228458404541,0.7313359379768372,0.004180358722805978,0.04520403,-0.016493361,1
1.815752625465393,9.69295883178711,0.7118773460388184,0.0048996745608747005,0.046731193,-0.018936822,1
1.8043948411941528,9.694765090942383,0.6899860501289368,0.004964734893292189,0.03145956,-0.018020526,1
1.789598822593689,9.702795028686523,0.6740404963493347,0.0020425645634531975,0.008246681,-0.016493361,1
1.7688244581222534,9.702324867248537,0.6630245447158813,-0.002380030695348978,-0.028405234,-0.004581489,1
1.7513465881347656,9.703390121459961,0.6652604937553406,-0.007078987080603837,-0.062002823,0.00030543262000000003,1
1.7395105361938477,9.702210426330566,0.6631077527999878,-0.0127267362549901,-0.07849618,0.0030543262,1
1.729694128036499,9.700287818908693,0.6534321904182434,-0.018705299124121662,-0.06780604,0.004276057,1
1.7314330339431765,9.697294235229492,0.6453080177307129,-0.025253839790821075,-0.064446285,0.009468411,1
1.7423354387283323,9.696563720703123,0.6441831588745117,-0.03178858011960983,-0.06414085,0.0009162979,1
1.7591677904129028,9.698713302612305,0.6493118405342102,-0.036184679716825485,-0.05131268,0.009468411,1
1.77646803855896,9.702367782592773,0.6515612602233887,-0.03956600651144981,-0.04184427,0.0076358155,1
1.7902491092681885,9.70604419708252,0.6519961953163147,-0.04209908843040466,-0.040927973,0.00030543262000000003,1
1.7980114221572876,9.709295272827148,0.6495440006256104,-0.04412735626101494,-0.038179077,0.0018325958,1
1.7999941110610962,9.70604419708252,0.6489418745040894,-0.045194491744041436,-0.046120327,-0.008246681,1
1.7875738143920898,9.70070743560791,0.6512522697448729,-0.04743991047143936,-0.043982297,0.007941248,1
1.7756792306900024,9.692359924316406,0.6502624154090881,-0.05064310133457184,-0.046731193,0.0012217305,1
1.7742544412612915,9.689981460571287,0.6459739804267883,-0.05297620594501496,-0.048563786,0.0036651916,1
1.7712936401367188,9.692581176757812,0.6363095641136169,-0.055104371160268784,-0.04550946,0.0125227375,1
1.7798207998275757,9.697474479675293,0.6346927881240845,-0.05749060958623886,-0.053145275,0.0076358155,1
1.7894370555877686,9.699871063232422,0.6356749534606934,-0.060822036117315285,-0.036957346,0.014660766,1
1.7988519668579102,9.697062492370604,0.6486332416534424,-0.06316392868757248,-0.05131268,0.010690141499999998,1
1.8059626817703247,9.692693710327148,0.6555550694465637,-0.0633716806769371,-0.03970624,0.0030543262,1
1.80402934551239,9.68980598449707,0.6558811068534851,-0.06303423643112183,-0.040011674,0.0067195175,1
1.7997212409973145,9.68462371826172,0.6581092476844788,-0.061124831438064575,-0.028405234,0.005192355,1
1.7971503734588623,9.683000564575195,0.6577485203742981,-0.05925150588154793,-0.032986723,0.003970624,1
1.7922528982162476,9.685232162475586,0.6522583365440369,-0.057741355150938034,-0.021685716,0.004886922,1
1.7912440299987793,9.686544418334961,0.6567906737327576,-0.056337974965572364,-0.027794369,0.009773844,1
1.7944823503494265,9.69021224975586,0.6657556295394897,-0.05401555821299553,-0.018325957,0.008246681,1
1.7972490787506104,9.693408966064453,0.6723167300224304,-0.05135257542133331,-0.0076358155,0.010079277,1
1.7943344116210938,9.69799518585205,0.6793497800827026,-0.05074886977672577,-0.00580322,0.007941248,1
1.7878769636154177,9.703357696533203,0.6867796182632446,-0.049747582525014884,0.0033597588,0.007941248,1
1.7816214561462402,9.705033302307127,0.6865209341049194,-0.048563256859779365,-0.009162978,0.00580322,1
1.7750133275985718,9.703216552734377,0.6790236830711365,-0.04785841330885887,-0.0036651916,0.009773844,1
1.7700936794281006,9.696954727172852,0.6767858266830444,-0.04732676222920418,-0.003970624,0.0030543262,1
1.7674996852874756,9.691987037658693,0.6842588782310486,-0.04736301675438881,-0.008857545999999999,0.004581489,1
1.7657179832458496,9.69175910949707,0.699625551700592,-0.04633873701095581,-0.010079277,0.010079277,1
1.7668805122375488,9.696178436279297,0.7124475836753845,-0.044377058744430535,-0.008552114,0.01160644,1
1.765294313430786,9.690070152282717,0.7134811878204346,-0.043613582849502563,-0.0012217305,0.01038471,1
1.7644550800323486,9.68858814239502,0.7102304100990295,-0.04258230701088905,0.009162978,0.018020526,1
1.7694637775421145,9.69131088256836,0.7049273252487183,-0.04195408895611763,0.020463986,0.019547688,1
1.76702618598938,9.694915771484377,0.7022930979728699,-0.04249386116862297,0.024129177,0.019242255,1
1.762502908706665,9.693243980407717,0.7037578225135803,-0.042445816099643714,0.0290161,0.02107485,1
1.758520007133484,9.686178207397461,0.7079791426658629,-0.040566403418779366,0.034208454,0.01985312,1
1.7545214891433716,9.68448543548584,0.7062163949012756,-0.03986639529466629,0.031154128,0.01160644,1
1.7519704103469849,9.6870698928833,0.7142829895019531,-0.03963734582066536,0.029321533,0.01985312,1
1.7490116357803345,9.692255973815918,0.7237977981567383,-0.037978194653987885,0.027183503,0.02076942,1
1.7482366561889648,9.693108558654783,0.7275367379188538,-0.03624612838029862,0.033292156,0.010079277,1
1.751820087432861,9.694186210632324,0.7212758064270021,-0.03486647829413414,0.029321533,0.008246681,1
1.7533096075057983,9.69316291809082,0.7126073241233826,-0.034328144043684006,0.028405234,0.009162978,1
1.7514466047286987,9.69356918334961,0.7128725051879883,-0.03427305445075035,0.02107485,0.015577064,1
1.7509024143218994,9.696341514587402,0.7174041271209717,-0.032707873731851585,0.020158553,0.013439035,1
1.753635048866272,9.700039863586426,0.7208174467086792,-0.03146236762404442,0.02321288,0.018325957,1
