acc_x,acc_y,acc_z,gyro_x,gyro_y,gyro_z,label
0.0,0.0,0.0,0.0,0.029321533,0.0018325958,1
0.11935831606388092,0.26370030641555786,-0.0007184538990259169,-0.0005070407642051579,0.015882496,-0.004276057,1
0.40331703424453735,0.8927834033966064,-0.0021153520792722698,-0.0013802052708342671,0.0067195175,0.005497787,1
0.7952551245689392,1.7638466358184814,-0.003544275183230638,-0.0024086274206638336,0.009162978,0.014049901000000002,1
1.2328723669052124,2.739933967590332,-0.0045064901933074,-0.003764109220355749,0.006414085,0.021991149,1
1.6662547588348389,3.710686922073364,-0.004716314841061831,-0.007108039222657681,-0.004276057,0.008552114,1
2.0642757415771484,4.6066203117370605,-0.004116112366318703,-0.01211883220821619,-0.047647487,-0.0018325958,1
2.41221284866333,5.3945488929748535,-0.0027363114058971405,-0.018585655838251114,-0.054367006,-0.0033597588,1
2.7065742015838623,6.066085815429688,-0.0006772319320589304,-0.024248920381069183,-0.048258353,0.009468411,1
2.950148582458496,6.626893043518066,0.0019539890345185995,-0.028866998851299286,-0.03970624,0.0076358155,1
3.1484830379486084,7.088967323303223,0.005240442231297493,-0.03305545821785927,-0.028405234,0.0030543262,1
3.3037412166595463,7.463337898254394,0.013960366137325764,-0.039537396281957626,-0.056199603,0.008246681,1
3.4212188720703125,7.763083457946777,0.029189024120569233,-0.045145582407712936,-0.077579886,-0.00061086525,1
3.50785493850708,8.001463890075684,0.04949729517102242,-0.04608501121401787,-0.06872234,0.017104227,1
3.5692844390869136,8.189723014831543,0.07397374510765076,-0.04921386390924454,-0.06719518,0.009162978,1
3.6102721691131587,8.337303161621094,0.10181347280740738,-0.05753699317574501,-0.06963864,0.019242255,1
3.634774923324585,8.452004432678223,0.1323278844356537,-0.06743757426738739,-0.0888809,0.021380283,1
3.6459751129150386,8.540180206298826,0.1650024652481079,-0.07087253779172897,-0.12156218,0.030543262,1
3.646467924118042,8.606991767883299,0.19940906763076785,-0.07224786281585692,-0.14141529999999994,0.038179077,1
3.6383635997772217,8.656619071960451,0.23519113659858704,-0.07060755044221878,-0.17715092,0.03604105,1
3.623351573944092,8.69243049621582,0.272072970867157,-0.06155785918235779,-0.25534168,-0.013439035,1
3.618066072463989,8.719560623168945,0.2987512648105621,-0.042653802782297134,-0.23090707,-0.07299839999999999,1
3.6321115493774414,8.741543769836426,0.3088693916797638,-0.007737496867775917,-0.26816985,-0.09896017,1
3.6617157459259033,8.759391784667969,0.3056652843952179,0.044883549213409424,-0.2864958,-0.09437868,1
3.703794002532959,8.773919105529785,0.29177382588386536,0.0980396494269371,-0.18295415,-0.087659165,1
3.7561404705047607,8.785778999328612,0.26914364099502563,0.12943531572818756,-0.07727446,-0.08277224,1
3.8162212371826167,8.795493125915527,0.2398114800453186,0.12789376080036166,-0.03970624,-0.07086037,1
3.8828165531158447,8.803484916687012,0.20490916073322296,0.09453176707029344,0.06688975,-0.071776666,1
3.954594850540161,8.810093879699707,0.16556359827518466,0.05770568177103996,0.11575896,-0.0842994,1
4.030766487121582,8.815593719482422,0.12250646948814392,0.044000513851642616,0.08093964,-0.116980694,1
4.110074996948241,8.820199012756348,0.07671023905277252,0.056307654827833176,0.118507855,-0.09010262,1
4.175107479095459,8.827986717224121,0.04270937666296959,0.08279427886009216,0.19058995,-0.04520403,1
4.216595649719238,8.841153144836426,0.02825949341058731,0.10483352839946747,0.22204952,-0.030543262,0
4.239346504211427,8.858529090881348,0.02930518984794617,0.11051681637763976,0.23701571,-0.070554934,0
4.2469701766967765,8.87933349609375,0.04288956522941589,0.10030779987573624,0.19456059,-0.112399206,0
4.242445945739746,8.902889251708984,0.06654078513383865,0.0874786451458931,0.06536258,-0.17592919,0
4.228126525878906,8.928680419921875,0.09832335263490677,0.085272416472435,-0.040011674,-0.20830505,0
4.205989360809326,8.9562349319458,0.13657698035240173,0.09844966977834703,-0.105068825,-0.20372356,0
4.177567481994629,8.985208511352539,0.1800350546836853,0.1165771558880806,-0.17898351,-0.1881465,0
4.144053936004639,9.015350341796877,0.22772522270679474,0.14083130657672882,-0.24312437,-0.20066923,0
4.106261730194092,9.045949935913086,0.27843981981277466,0.1492033153772354,-0.08643743400000001,-0.15241088,0
4.0487613677978525,9.049470901489258,0.3087226152420044,0.13611970841884613,-0.06719518,-0.14538592,0
3.968503713607788,9.01419162750244,0.2737659215927124,0.11752425879240035,-0.12217305,-0.16523905,0
3.9063935279846187,8.967430114746094,0.16247321665287018,0.09517785161733627,-0.112399206,-0.18967366,0
3.8834073543548575,8.939054489135742,-0.014088192954659462,0.07660044729709625,-0.08155051,-0.18173242,0
3.919639587402344,8.932928085327148,-0.22206026315689087,0.07256123423576355,-0.018936822,-0.15821409,0
4.0156497955322275,8.911444664001465,-0.3685440421104431,0.08582640439271927,-0.053145275,-0.058948494,0
4.1296563148498535,8.8572998046875,-0.4620926976203919,0.11068565398454666,0.04153884,0.07422013,0
4.198135852813722,8.791045188903809,-0.5087392330169678,0.1417469084262848,0.034513887,0.21594086,0
4.194861888885498,8.73991870880127,-0.5270710587501526,0.18428577482700348,-0.084910266,0.28130344,0
4.095180034637451,8.732080459594728,-0.5276069641113281,0.2396144419908524,-0.25442538,0.21410827,0
3.89858078956604,8.801377296447754,-0.5322187542915344,0.2914182245731354,-0.33628133,0.071776666,0
3.655400037765503,8.929471015930176,-0.4147336184978485,0.3529734015464783,-0.70554936,-0.1001819,0
3.4488086700439453,9.096336364746094,-0.4589550495147705,0.4172195494174957,-0.42302418,-0.27152961,0
3.3530516624450684,9.251104354858398,-0.7035529613494873,0.4268077313899994,0.027183503,-0.36651915,0
3.4289379119873047,9.285799026489258,-1.0814924240112305,0.43877455592155457,0.11026118,-0.3491095,0
3.690855264663696,9.007434844970703,-1.3260879516601562,0.6324208974838257,-0.73975784,-0.13469578,0
4.0074710845947275,8.506060600280763,-1.3756134510040283,0.9470019936561584,-1.310306,0.058337633,0
4.192934989929198,8.006233215332031,-1.1665754318237305,1.1983498334884644,-1.7837266,0.21624629,0
3.9973232746124263,7.501606464385986,-0.8835456371307373,1.362498164176941,-2.3173172,0.043676864,0
3.6049480438232417,7.034221649169923,-1.0277794599533079,1.4563539028167725,-2.4153612,-0.17318029999999998,0
3.144765615463257,6.73058032989502,-1.6610089540481567,1.473263382911682,-2.0030272,-0.29168814,0
2.8882317543029785,6.633158206939697,-2.6411499977111816,1.5674180984497068,-1.6062702,-0.106901415,0
3.1141736507415767,6.687344074249268,-3.257123708724976,1.7597981691360474,-1.3246613,0.35430184,0
3.3758547306060787,6.649709701538086,-3.4032530784606934,1.9159319400787356,-0.74036866,0.50335294,0
3.391465187072754,6.220876216888428,-2.759717464447021,1.9400616884231567,-1.151481,0.47952923,0
2.960517168045044,5.2994041442871085,-1.9091004133224487,1.856131672859192,-2.3582454,0.40683624,0
2.419468641281128,4.229049682617188,-1.9329729080200195,1.622006058692932,-1.2544118,-0.10934488,0
2.1244988441467285,3.8097598552703857,-2.723063945770264,1.418337106704712,-0.39187005,-0.14782938,0
2.265610933303833,4.602166652679443,-4.799158573150635,1.428152322769165,1.3154983999999998,-0.01863139,0
3.0751743316650386,6.333095073699951,-5.937121391296388,1.4462101459503174,-0.39614612,0.29901853,0
3.364569187164306,6.73360538482666,-6.608872413635254,1.5333232879638672,-1.1609493,-0.1853976,0
2.9846975803375244,5.718132972717285,-7.022768974304199,1.5743464231491089,-0.77457714,-0.58551437,0
2.9456286430358887,4.808981895446777,-7.04718828201294,1.5088356733322144,-1.1905763,-0.65576386,0
3.340731143951416,4.597045421600342,-7.126583576202393,1.4162111282348633,-1.1936307,-0.41599923,0
3.6659903526306152,4.546463966369629,-7.289319038391112,1.309293508529663,-1.0622946000000002,-0.32345316,0
3.7817461490631104,4.544475078582764,-7.356925964355469,1.175593614578247,-1.0393872,-0.32620203,0
3.624095916748047,4.686805725097656,-7.305357456207275,1.048593521118164,-1.0836749,-0.35705075,0
3.3615567684173584,4.891542911529541,-7.048633575439452,0.9195727109909058,-1.0937542,-0.3475823,0
2.9370884895324707,4.976855278015137,-6.916698932647705,0.7783094644546509,-0.7675522,-0.43066,0
2.4842092990875244,5.003568649291992,-6.826712131500244,0.6741208434104919,-0.66553766,-0.7067711,0
2.21734356880188,5.050373554229736,-6.747006893157959,0.6069899797439575,-0.86498517,-1.0235047,0
2.102258443832397,5.183401584625244,-6.571135997772218,0.5590268969535828,-0.93492925,-0.9642508,0
2.0294756889343257,6.470294952392577,-6.854198932647705,0.4841342270374298,1.3213016000000002,-0.34666604,0
1.9739446640014648,8.55460262298584,-6.9588584899902335,0.4109443128108978,0.20861048,0.3036,0
1.565798282623291,9.51884937286377,-7.465263366699219,0.301764577627182,-0.36132678,0.4361577999999999,0
0.6692484021186829,9.22808837890625,-7.924503803253174,0.2100970447063446,-0.46517387,-0.25717425,0
0.2435321807861328,9.34839916229248,-8.127541542053223,0.13999851047992706,-0.44715336,-0.43676865,0
-0.05325542762875557,9.605835914611816,-8.104344367980957,0.09842875599861144,-0.7440339,-0.6252206,0
-0.4800393581390381,9.66310214996338,-8.042208671569824,0.08209875226020813,-1.1527027,-1.0668761999999998,0
-1.1068750619888306,9.50668716430664,-7.9314284324646,0.10795196890830994,-1.2528846000000002,-1.4379768,0
-2.042562484741211,9.124222755432127,-7.901198387145996,0.14636372029781342,-1.0986412,-1.9636264,0
-2.711427927017212,8.699758529663086,-7.970998764038086,0.2277231216430664,-1.3839152,-2.837469,0
-2.9284060001373287,8.357306480407715,-8.018655776977539,0.36886483430862427,-1.4819591,-3.3078353,0
-2.877976179122925,8.088750839233397,-8.019893646240233,0.5391143560409546,-1.7040086,-3.5274413,0
-2.8331258296966557,7.94649600982666,-8.25416374206543,0.7330367565155029,-1.6447546000000002,-3.5143077000000003,0
-3.5719509124755864,8.554702758789062,-9.35201930999756,0.6677789688110352,-0.93370754,-1.4767667,0
-5.2657737731933585,8.53956127166748,-10.98011875152588,0.27870628237724304,-1.6236799,-2.123673,0
-5.295649528503418,6.262196063995361,-11.750588417053224,0.10765431076288223,-2.4819455,-3.5475998,0
-3.5411565303802486,4.541152477264403,-10.293163299560547,-0.027977408841252327,-1.8961257,-3.3515122,0
-1.8865156173706052,3.198693990707397,-8.540528297424316,-0.2153669893741608,-1.8903224,-2.8585439,0
-0.741786003112793,2.0719983577728267,-7.402928829193115,-0.6225373148918152,-2.4196372000000004,-2.5772405,0
-0.4327719211578369,1.7203373908996582,-6.954825878143311,-0.9727708101272584,-2.2525656,-1.1282681,0
-0.8450474739074707,1.7598185539245603,-6.454985618591309,-1.1493359804153442,-1.2076806,-0.3747658,0
-1.7307587862014768,1.9501936435699463,-5.506676197052002,-1.4707680940628052,-1.3500122,-0.3436117,0
-2.913114070892334,2.19678807258606,-4.518860340118408,-1.9240151643753047,-3.1135802000000004,-0.93676186,0
-4.541404724121094,2.4545135498046875,-4.301543712615967,-2.121448278427124,-4.197560299999999,-1.815186,0
-6.955902576446532,2.2752609252929688,-5.241076469421387,-1.8981947898864744,-3.2275066000000003,-4.4968843000000005,0
-8.991695404052734,1.7646727561950684,-6.122251033782959,-1.3868284225463867,-2.1774292,-6.607424000000001,0
-9.747747421264648,1.5101981163024902,-6.4139461517333975,-0.9222771525382996,0.4156938,-7.0283103,0
-10.050058364868164,1.9543890953063965,-6.129900932312013,-0.4773489534854889,2.7598891,-6.404006,0
-10.622660636901855,3.652505159378052,-5.16216516494751,-0.06246732920408249,2.3958135,-0.1142318,0
-10.79270839691162,4.209472179412842,-3.9083063602447514,0.16533862054347992,0.68783426,0.61361414,0
-10.190074920654297,3.56406307220459,-3.004200935363769,0.10752996057271956,-0.20341812,1.0913107,0
-9.099099159240724,2.229283571243286,-2.6060960292816158,0.0932820439338684,0.8384125,1.6765196,0
-8.228731155395508,0.6954830884933472,-2.2517783641815186,0.2153844237327576,1.1459832,2.9116892999999995,0
-7.9307990074157715,-1.1503100395202637,-1.8584331274032595,0.4454152882099152,-0.44440445,3.1957414,0
-8.260936737060549,-3.742789506912232,-1.6360926628112793,0.4321238398551941,-2.482251,1.4492778,0
-8.549409866333008,-5.3621978759765625,-2.0668904781341557,0.2558893859386444,-1.9453003,0.5137377000000001,0
-8.67697811126709,-4.674886226654053,-2.770702600479126,0.159496009349823,0.38759398,0.45142943,0
-9.625238418579102,-3.107680082321167,-3.1229867935180664,0.16624315083026886,1.6013832,0.6545420999999999,0
-11.02767848968506,-1.6056578159332275,-3.0298283100128174,0.1546984314918518,-0.21288654,0.44806966,0
-11.350923538208008,-1.8633877038955688,-3.3236536979675293,0.2415086477994919,-0.6740898,0.07086037,0
-10.77281093597412,-2.7731666564941406,-3.5992412567138667,0.4029195308685303,-0.24831672,-0.20066923,0
-9.754634857177734,-3.1501829624176025,-3.4707391262054443,0.42252665758132935,0.18784106,0.3744604,0
-8.98585319519043,-2.690824270248413,-3.1499664783477783,0.2249706983566284,0.13255776,0.7883216,0
-8.599576950073242,-2.04388165473938,-2.941412687301636,0.003117656335234642,-0.60048056,1.0592403,0
-8.827493667602539,-1.394154667854309,-3.1577110290527344,-0.06478025019168854,-0.48563787,0.74128497,0
-9.193991661071776,-0.7988482713699341,-3.569987773895264,0.015156383626163006,-0.08735373,0.37110063,0
-9.385308265686037,-0.3405923545360565,-3.8113298416137695,0.11084213107824326,0.0012217305,0.22479841,0
-9.394118309020996,0.008806508034467697,-3.807040452957153,0.11731255054473876,-0.11484267,0.14049901,0
-9.262598991394043,0.3309216499328613,-3.77873158454895,0.0491122268140316,-0.37659842,0.1151481,0
-9.057056427001953,0.6465354561805725,-3.900627613067627,-0.011846929788589478,-0.28680122,0.09743301,0
-8.944764137268066,0.9073294997215272,-3.865981340408325,-0.036781378090381615,-0.24129178,0.09712757,0
-8.95094108581543,1.1038014888763428,-3.7328824996948238,-0.056856505572795875,-0.17623462,0.1020145,0
-9.062982559204102,1.264058232307434,-3.592731475830078,-0.07948781549930573,-0.070249505,0.0720821,0
-9.23890781402588,1.4002703428268433,-3.444916248321533,-0.09733060747385024,-0.05100725,-0.008552114,0
-9.442073822021484,1.5444484949111938,-3.378237247467041,-0.0942387580871582,-0.05955936,-0.14294247,0
-9.598847389221193,1.7176785469055176,-3.518815755844116,-0.06781097501516342,-0.06841691,-0.20280726,0
-9.645917892456056,1.888435959815979,-3.725666284561157,-0.04164286330342293,0.044593163,-0.16768251,0
-9.565302848815918,1.964884638786316,-3.7846250534057617,-0.033028535544872284,0.20463985,-0.1133155,0
-9.45030689239502,1.910733699798584,-3.670121431350708,-0.037763465195894234,0.18051068,-0.08216137400000001,0
-9.34640407562256,1.8204376697540283,-3.5369348526000977,-0.04659564793109894,0.06994407,-0.046731193,0
-9.275721549987793,1.7341185808181765,-3.4343445301055913,-0.0522419735789299,-0.034513887,-0.025961773,0
-9.250420570373537,1.6655211448669434,-3.390355110168457,-0.048055637627840035,-0.087659165,-0.009773844,0
-9.251209259033203,1.6118072271347046,-3.391681909561157,-0.04518107324838638,-0.0015271631,0.026572637000000003,0
-9.294685363769533,1.5433518886566162,-3.4160006046295166,-0.057366609573364265,0.08093964,0.03176499,10
-9.37991714477539,1.4330133199691772,-3.4359138011932373,-0.08277594298124312,0.09315695,0.008552114,10
-9.426870346069336,1.3329929113388062,-3.461269855499268,-0.10335253179073334,0.09987647,-0.024129177,10
-9.422557830810547,1.274946212768555,-3.4791994094848637,-0.10713238269090652,0.1001819,-0.027794369,10
-9.389385223388672,1.2487107515335083,-3.4831767082214355,-0.09703008830547333,0.12950343,-0.014049901000000002,10
-9.350383758544922,1.2338471412658691,-3.4745724201202397,-0.08161624521017075,0.14996742,0.0021380284,10
-9.314640045166016,1.212756872177124,-3.4647462368011475,-0.07122237235307692,0.16340645,0.009468411,10
-9.284809112548828,1.1964858770370483,-3.4819014072418213,-0.06743237376213074,0.15118915,-0.007330383,10
-9.266319274902344,1.2022244930267334,-3.519489288330078,-0.06163696199655533,0.116980694,-0.031154128,10
-9.227992057800293,1.2335991859436035,-3.559686183929444,-0.050145186483860016,0.06383542,-0.027794369,10
-9.175498008728027,1.2663946151733398,-3.576221704483032,-0.03655744716525078,0.03359759,-0.021991149,10
-9.14061164855957,1.2806615829467771,-3.5895209312438965,-0.029899653047323223,0.050701816,-0.0036651916,10
-9.124865531921387,1.2843812704086304,-3.5972888469696045,-0.02935405448079109,0.05497787,0.01282817,10
-9.115470886230467,1.2913057804107666,-3.613863468170166,-0.03145622089505196,0.052534413,0.03359759,10
-9.10157871246338,1.2913550138473509,-3.6516296863555913,-0.03280467540025711,0.056199603,0.024740042,10
-9.078384399414062,1.2908172607421875,-3.69285249710083,-0.03228921070694924,0.05589417,0.023518313,10
-9.055352210998537,1.2888681888580322,-3.721449375152588,-0.028364982455968857,0.046731193,0.014660766,10
-9.047325134277344,1.2783509492874146,-3.739628553390503,-0.022583529353141785,0.03268129,0.0067195175,10
-9.056556701660156,1.2606749534606934,-3.7605292797088623,-0.01827560178935528,0.023518313,0.0009162979,10
-9.063676834106444,1.2442572116851809,-3.787888765335083,-0.015883378684520718,0.015882496,-0.013439035,10
-9.060867309570312,1.23219895362854,-3.812067747116089,-0.01312825921922922,0.027488936,-0.0009162979,10
-9.053235054016113,1.222501516342163,-3.8199977874755864,-0.011120318435132505,0.02687807,0.0018325958,10
-9.046957969665527,1.2150325775146484,-3.821925640106201,-0.009266376495361328,0.025961773,0.003970624,10
-9.05409336090088,1.2125838994979858,-3.822668075561523,-0.007311961147934198,0.011301007,-0.004886922,10
-9.062125205993652,1.219900608062744,-3.8241195678710938,-0.005676786880940199,-0.002443461,-0.011911872,10
-9.063193321228027,1.222074031829834,-3.815467834472656,-0.006640010979026556,0.009468411,-0.0012217305,10
-9.060781478881836,1.2095459699630735,-3.8027522563934326,-0.01182020828127861,0.025961773,0.013744468,10
-9.060486793518066,1.1891244649887085,-3.788964748382568,-0.018807027488946915,0.026572637000000003,0.02076942,10
-9.061121940612793,1.1812025308609009,-3.7899653911590576,-0.025250069797039032,-0.004886922,0.016493361,10
-9.058501243591307,1.1801669597625732,-3.808106422424317,-0.027716930955648426,-0.00580322,0.019242255,10
-9.046319007873537,1.1849203109741209,-3.818447828292847,-0.025089580565690998,-0.00061086525,0.022602014,10
-9.034440994262695,1.186878323554993,-3.7965197563171382,-0.02312137931585312,-0.02687807,0.040011674,10
-9.033296585083008,1.1869943141937256,-3.778775453567505,-0.02409930340945721,-0.05375614,0.03481932,10
-9.031545639038086,1.1879881620407104,-3.777402639389038,-0.027205051854252812,-0.051618114000000014,0.041233405,10
-9.03488540649414,1.2002226114273071,-3.78510046005249,-0.027564587071537968,-0.0421497,0.032986723,10
-9.04592514038086,1.2090468406677246,-3.7940976619720463,-0.02329998649656773,-0.021380283,0.03359759,10
-9.074708938598633,1.215203881263733,-3.78315544128418,-0.016860470175743103,-0.024740042,0.013133603,10
-9.111408233642578,1.2225533723831177,-3.76240611076355,-0.012710675597190857,-0.0015271631,0.012217305,10
-9.134397506713867,1.227812886238098,-3.7254924774169917,-0.01200326345860958,0.00061086525,0.011911872,10
-9.149603843688963,1.2231667041778564,-3.6854302883148193,-0.014185817912220957,-0.022907447,0.018325957,10
-9.150859832763672,1.2210795879364014,-3.664015054702759,-0.018228571861982342,-0.05589417,0.01282817,10
-9.140913009643556,1.2259911298751829,-3.659765481948853,-0.02092539332807064,-0.056199603,0.00030543262000000003,10
-9.13045883178711,1.2341686487197876,-3.664958238601685,-0.02118328772485256,-0.042455133,-0.01740966,10
-9.12387466430664,1.2328075170516968,-3.649944067001343,-0.020465297624468803,-0.019242255,-0.00580322,10
-9.123498916625977,1.2325037717819214,-3.6189136505126953,-0.02098049409687519,-0.010079277,0.007941248,10
-9.13081169128418,1.2311409711837769,-3.606509685516357,-0.023114591836929318,-0.00580322,0.010690141499999998,10
-9.137676239013672,1.2251529693603516,-3.620675802230835,-0.02656338736414909,-0.0067195175,0.008857545999999999,10
-9.139608383178713,1.2271661758422852,-3.65875506401062,-0.031415361911058426,-0.012217305,0.014660766,10
-9.138136863708496,1.2398605346679688,-3.686416387557984,-0.030961768701672557,-0.013744468,0.00061086525,10
-9.13276481628418,1.24481999874115,-3.693127155303955,-0.025621093809604645,0.007941248,0.004276057,10
-9.12110996246338,1.24041485786438,-3.668900966644287,-0.02259574458003044,0.046120327,0.022907447,10
-9.123334884643556,1.21598219871521,-3.626737356185913,-0.019425192847847942,0.028405234,0.03268129,10
-9.143346786499023,1.1813985109329224,-3.6020491123199463,-0.015900233760476112,-0.0021380284,0.045814894,10
-9.169208526611328,1.1565241813659668,-3.6176972389221187,-0.006749063730239868,-0.022602014,0.02687807,10
-9.188385009765623,1.153011679649353,-3.638391733169556,0.0004912485601380466,-0.020158553,0.0027488936,10
-9.19459056854248,1.1596630811691284,-3.656212568283081,0.005263772327452898,0.006414085,-0.0033597588,10
-9.167851448059082,1.1614457368850708,-3.6615006923675537,0.004163052886724472,0.015271631,-0.004886922,10
-9.127765655517578,1.1642369031906128,-3.6612417697906494,-0.0026678661815822124,0.01985312,0.008857545999999999,10
-9.09580898284912,1.182119846343994,-3.656272649765015,-0.01423552818596363,-0.015271631,0.015577064,10
-9.085711479187012,1.2155745029449463,-3.669356346130371,-0.027358006685972214,-0.021991149,0.03268129,10
-9.0947847366333,1.2463947534561155,-3.690354108810425,-0.03277426213026047,-0.012217305,0.028405234,10
-9.116950035095217,1.2625856399536133,-3.694096088409424,-0.032188478857278824,-0.013133603,0.02687807,10
-9.133646011352539,1.271153211593628,-3.675191402435303,-0.03062216937541962,-0.0009162979,0.02321288,10
-9.144564628601074,1.27919340133667,-3.641834259033203,-0.0261724442243576,-0.011301007,0.024740042,10
-9.152112007141113,1.2840580940246582,-3.61107349395752,-0.021847499534487724,-0.002443461,0.022602014,10
-9.152385711669922,1.2738100290298462,-3.6089026927948,-0.017400981858372692,0.011911872,0.024740042,10
-9.14865779876709,1.2498575448989868,-3.6168367862701416,-0.014208074659109116,0.012217305,0.027488936,10
-9.149053573608398,1.225898027420044,-3.612229347229004,-0.011908406391739844,0.018325957,0.025961773,10
-9.159061431884766,1.197697997093201,-3.6059510707855225,-0.012945275753736496,-0.002443461,0.027183503,10
-9.17018985748291,1.1820515394210815,-3.614499568939209,-0.016021430492401127,-0.005497787,0.016187929,10
-9.17480182647705,1.176656723022461,-3.6158559322357178,-0.01964273862540722,0.0125227375,0.019547688,10
-9.171645164489746,1.1708797216415403,-3.6095669269561768,-0.02348080836236477,0.020463986,0.028405234,10
-9.16090488433838,1.159815788269043,-3.61149525642395,-0.02783804014325142,0.01282817,0.022296581,10
-9.15048122406006,1.1620465517044067,-3.618592977523804,-0.030878409743309018,0.009773844,0.03023783,10
-9.141501426696776,1.175442457199097,-3.620127677917481,-0.032586708664894104,0.00580322,0.022296581,10
-9.145618438720703,1.1886402368545532,-3.618008136749268,-0.03137628361582756,0.012217305,0.011911872,10
-9.154098510742188,1.2070044279098509,-3.606034755706787,-0.02885275520384312,0.0027488936,0.0033597588,10
-9.152350425720217,1.226736068725586,-3.6015067100524902,-0.028915978968143463,-0.009773844,-0.0018325958,10
-9.144753456115724,1.2460743188858032,-3.602348804473877,-0.026495384052395817,0.0076358155,0.007330383,10
-9.13752269744873,1.2601605653762815,-3.6008570194244385,-0.024733131751418117,0.016187929,0.025961773,10
-9.143196105957033,1.271801233291626,-3.596199989318848,-0.0242138784378767,0.033292156,0.02687807,10
-9.157846450805664,1.278799533843994,-3.602494239807129,-0.02319909818470478,0.026572637000000003,0.024740042,10
-9.168706893920898,1.284852385520935,-3.5919430255889893,-0.018637893721461296,0.014660766,0.016493361,10
-9.17475128173828,1.2849786281585691,-3.5674545764923096,-0.014596311375498772,0.023518313,0.018020526,10
-9.179485321044922,1.276984691619873,-3.5493321418762207,-0.01286467257887125,0.033292156,0.009773844,10
-9.18348789215088,1.271841049194336,-3.537317037582397,-0.01515976618975401,0.03940081,0.013133603,10
-9.193211555480957,1.2749269008636477,-3.5216846466064453,-0.01610579341650009,0.046120327,0.006414085,10
-9.201651573181152,1.2649140357971191,-3.51743745803833,-0.013760830275714396,0.05955936,0.021991149,10
-9.196209907531738,1.249259352684021,-3.530311107635498,-0.010529565624892712,0.055283304000000005,0.017104227,10
-9.182905197143556,1.239599347114563,-3.5529282093048096,-0.01208176463842392,0.03848451,0.016187929,10
-9.175307273864746,1.233368754386902,-3.5825989246368413,-0.017650064080953598,0.04795292,0.004581489,10
-9.172872543334961,1.224102258682251,-3.6019573211669917,-0.02259419858455658,0.05100725,-0.0021380284,10
-9.162710189819336,1.2121871709823608,-3.6159207820892334,-0.02681534737348556,0.06291912,-0.003970624,10
-9.145869255065918,1.206579566001892,-3.6300570964813232,-0.03137440234422684,0.05925392700000001,0.0070249503,10
-9.126604080200195,1.216978907585144,-3.648658037185669,-0.03597417101264,0.060170225999999986,0.008857545999999999,10
-9.116324424743652,1.228820562362671,-3.664429903030396,-0.03626513108611107,0.04642576,0.0125227375,10
-9.115344047546387,1.2291097640991209,-3.67629075050354,-0.033447932451963425,0.024129177,0.008246681,10
-9.112716674804688,1.2327899932861328,-3.6873390674591056,-0.029702313244342807,0.0027488936,0.008246681,10
-9.108251571655273,1.2403260469436646,-3.700618505477905,-0.02704514004290104,0.009468411,0.012217305,10
-9.10349178314209,1.2493976354599,-3.695204734802246,-0.023512102663517002,0.01863139,0.014049901000000002,10
-9.09990119934082,1.2571821212768557,-3.67814564704895,-0.018705429509282112,-0.004581489,0.014660766,10
-9.103795051574707,1.250810623168945,-3.679181098937988,-0.012013561092317104,0.0021380284,0.01282817,10
-9.105890274047852,1.236055850982666,-3.690573930740357,-0.004650652874261141,0.0067195175,0.004581489,10
-9.0936861038208,1.2228442430496216,-3.698957920074463,0.0021717441268265247,-0.013133603,0.0030543262,10
-9.08080005645752,1.2054113149642944,-3.7062075138092037,0.004868954420089722,-0.01038471,0.004581489,10
-9.085965156555176,1.1881242990493774,-3.715305805206299,0.001092062098905444,-0.0009162979,0.01160644,10
-9.093608856201172,1.174618124961853,-3.7186028957366943,-0.007480239029973745,0.01863139,0.004276057,10
-9.102828979492188,1.1756489276885986,-3.716057777404785,-0.014464862644672394,0.04642576,0.016798794,10
-9.105623245239258,1.1791263818740845,-3.707683086395264,-0.020160876214504242,0.036651913,0.01160644,10
-9.109448432922363,1.181943416595459,-3.6934139728546143,-0.02284429594874382,0.016493361,0.0125227375,10
-9.115362167358398,1.1846506595611572,-3.68845009803772,-0.020678389817476276,-0.0018325958,0.009468411,10
-9.113273620605467,1.1912879943847656,-3.693535327911377,-0.017529074102640152,0.007941248,0.006414085,10
-9.115154266357422,1.1967881917953491,-3.703577041625977,-0.016071302816271782,0.021991149,0.021380283,10
-9.120695114135742,1.1985385417938232,-3.696503400802612,-0.01734437420964241,0.041233405,0.01282817,10
-9.117321968078613,1.1967371702194214,-3.691660642623901,-0.020978745073080063,0.01038471,0.005497787,10
-9.107744216918944,1.1986079216003418,-3.6945860385894775,-0.024491317570209503,0.004581489,0.008552114,10
-9.102482795715332,1.1945792436599731,-3.71220326423645,-0.025209628045558933,-0.0027488936,0.0018325958,10
-9.09068489074707,1.192254662513733,-3.72559118270874,-0.023554898798465732,-0.004581489,-0.004276057,10
-9.079280853271484,1.1940363645553589,-3.722080707550049,-0.022972343489527702,-0.022296581,0.005192355,10
-9.073892593383787,1.2025439739227295,-3.720351219177246,-0.024688972160220143,-0.013439035,0.0076358155,10
-9.07740879058838,1.2193610668182373,-3.7239432334899902,-0.026235215365886688,0.005192355,0.014966198,10
-9.093779563903807,1.220286846160889,-3.7263665199279785,-0.027179280295968056,0.021991149,0.01985312,10
-9.103344917297363,1.2124944925308228,-3.7256250381469727,-0.025818075984716412,0.0061086523,0.010995574,10
-9.108098030090332,1.2026758193969729,-3.722580909729004,-0.02551918663084507,0.00580322,0.0067195175,10
-9.10561466217041,1.1955820322036743,-3.735091209411621,-0.024976007640361786,0.023518313,0.025350908,10
-9.098226547241213,1.200592875480652,-3.741521835327149,-0.025672178715467453,0.029321533,0.034208454,10
-9.097991943359377,1.1959511041641235,-3.7279479503631587,-0.027967112138867375,0.014660766,0.027488936,10
-9.099410057067873,1.189537763595581,-3.720144033432007,-0.028062798082828518,-0.004886922,0.022907447,10
-9.10289478302002,1.1923116445541382,-3.717305183410645,-0.026925534009933468,-0.0076358155,0.029321533,10
-9.112661361694336,1.1996028423309326,-3.7166268825531006,-0.02526566945016384,-0.00580322,0.016187929,10
-9.12390422821045,1.206609845161438,-3.710494756698608,-0.023260315880179402,-0.0067195175,0.0012217305,10
-9.138439178466797,1.2067444324493408,-3.711417198181152,-0.020817384123802185,0.00580322,-0.0076358155,10
-9.149630546569824,1.20701003074646,-3.701388120651245,-0.018665561452507973,0.036957346,-0.004581489,10
-9.156962394714355,1.1985594034194946,-3.679335355758667,-0.016917185857892036,0.02321288,0.0033597588,10
-9.15878963470459,1.183787822723389,-3.6508729457855225,-0.015326808206737041,-0.0021380284,-0.0015271631,10
-9.162537574768066,1.173051118850708,-3.638756513595581,-0.015171364881098269,-0.013744468,-0.009468411,10
-9.152987480163574,1.1729929447174072,-3.6408724784851074,-0.0164144728332758,-0.015882496,-0.010079277,10
-9.13184928894043,1.1828653812408447,-3.6443789005279537,-0.016696222126483917,0.017104227,0.01160644,10
-9.111226081848145,1.1907206773757937,-3.644126892089844,-0.019447477534413338,0.015882496,0.012217305,10
-9.103009223937988,1.194913029670715,-3.640746116638184,-0.023023463785648342,0.010079277,0.016798794,10
-9.110692977905273,1.1970360279083252,-3.645408153533936,-0.024639993906021118,-0.007941248,0.008857545999999999,10
-9.117406845092773,1.1897313594818115,-3.66468358039856,-0.02177560143172741,-0.0009162979,0.0015271631,10
-9.11623477935791,1.1847258806228638,-3.676310777664185,-0.018527651205658916,0.02107485,0.004581489,10
-9.110568046569824,1.177938461303711,-3.683994054794312,-0.01697063446044922,0.027794369,0.014660766,10
-9.099614143371582,1.173065423965454,-3.691680908203125,-0.01949021406471729,0.02076942,0.02565634,10
-9.091577529907227,1.1686856746673584,-3.708288192749024,-0.022837407886981964,0.01740966,0.029321533,10
-9.082321166992188,1.1715019941329956,-3.7270822525024414,-0.02345032431185245,0.01282817,0.021380283,10
-9.068703651428224,1.183385729789734,-3.7338709831237793,-0.021684318780899048,0.011911872,0.023518313,10
-9.06146240234375,1.1968978643417358,-3.729581356048584,-0.02005358599126339,-0.011911872,0.025045475,10
-9.062838554382324,1.1990262269973757,-3.7271530628204346,-0.01979552023112774,0.00030543262000000003,0.021991149,10
-9.071233749389648,1.1923401355743408,-3.7283995151519775,-0.017774701118469242,0.00061086525,0.010079277,10
-9.085719108581543,1.183118224143982,-3.724665641784668,-0.01527849119156599,-0.0033597588,0.0067195175,10
-9.107057571411133,1.176807522773743,-3.719153642654419,-0.014901164919137956,-0.007941248,0.002443461,10
-9.12249755859375,1.1741447448730469,-3.718716859817505,-0.013460461050271988,-0.008552114,0.00061086525,10
-9.12917423248291,1.169900894165039,-3.713823795318604,-0.010624832473695278,0.010995574,0.009468411,10
-9.129023551940918,1.1757994890213013,-3.691905498504639,-0.011814150959253313,-0.0015271631,0.012217305,10
-9.129088401794434,1.1839910745620728,-3.673624277114868,-0.013596526347100736,-0.011301007,0.010079277,10
-9.123390197753906,1.1947067975997925,-3.6652348041534415,-0.013097663410007955,0.00030543262000000003,0.018325957,10
-9.122600555419922,1.1967285871505735,-3.659998893737793,-0.015131253749132156,0.02076942,0.030543262,10
-9.12766170501709,1.1909791231155396,-3.660392284393311,-0.01939402706921101,0.014049901000000002,0.017715093,10
-9.14175510406494,1.1841846704483032,-3.6765506267547607,-0.02399434708058834,0.02443461,0.013439035,10
-9.156044006347656,1.1802244186401367,-3.696683406829834,-0.026464201509952545,0.021380283,0.012217305,10
-9.15511417388916,1.1795696020126345,-3.7058181762695312,-0.024867268279194832,0.016798794,0.0067195175,10
-9.138681411743164,1.1776411533355713,-3.710294246673584,-0.023094087839126587,0.018325957,-0.0012217305,10
-9.114335060119627,1.1825757026672363,-3.6939351558685294,-0.019249875098466877,0.0009162979,0.004581489,10
-9.096996307373047,1.1953144073486328,-3.667646646499634,-0.016907822340726852,-0.02107485,0.011911872,10
-9.093399047851562,1.2012770175933838,-3.6485555171966553,-0.014294886961579325,-0.031154128,0.004886922,10
-9.092894554138184,1.1949666738510132,-3.6554839611053462,-0.011538212187588215,-0.040317107000000005,0.0021380284,10
-9.106850624084473,1.1879684925079346,-3.6582210063934326,-0.0057764770463109025,-0.04184427,-0.0076358155,10
-9.126385688781738,1.1813439130783079,-3.663145542144776,-0.00023010419681668282,-0.046120327,-0.002443461,10
-9.13582992553711,1.1743942499160769,-3.6600046157836914,0.004328879527747631,-0.03634648,-0.011301007,10
-9.134357452392578,1.178772211074829,-3.650346040725708,0.0069352714344859115,-0.008552114,0.003970624,10
-9.134366989135742,1.1838952302932741,-3.636367559432984,0.006471938453614712,0.004886922,0.00580322,10
-9.137717247009276,1.1849559545516968,-3.6270194053649902,0.002850590972229839,0.04184427,0.021991149,10
-9.149127006530762,1.172295331954956,-3.6294062137603764,-0.003242191392928362,0.05467244,0.01863139,10
-9.158407211303713,1.15648353099823,-3.629353046417236,-0.010354924947023392,0.058948494,0.018020526,10
-9.164827346801758,1.1422488689422607,-3.635881185531616,-0.016473911702632904,0.043982297,0.011911872,10
-9.170059204101562,1.1314313411712646,-3.647083520889282,-0.01878787577152252,0.05772676700000001,0.00061086525,10
-9.165667533874512,1.1222838163375854,-3.660170078277588,-0.01872855052351952,0.060170225999999986,0.006414085,10
-9.156737327575684,1.1078938245773315,-3.6628937721252437,-0.018690232187509537,0.047036625,0.009468411,10
-9.146531105041504,1.1001228094100952,-3.671381950378418,-0.020900053903460503,0.023518313,-0.0027488936,10
-9.137354850769043,1.0969247817993164,-3.698590278625488,-0.02382553182542324,0.033292156,0.0015271631,10
-9.120784759521484,1.0994093418121338,-3.723766803741455,-0.024834796786308292,0.034208454,0.011911872,10
-9.102797508239746,1.1015099287033079,-3.728336334228516,-0.025839241221547127,0.03481932,0.009162978,10
-9.084693908691406,1.1064293384552002,-3.724012613296509,-0.028123615309596058,0.022296581,0.020463986,10
-9.079124450683594,1.1196146011352541,-3.72253680229187,-0.03144139051437378,0.015271631,0.013744468,10
-9.07708740234375,1.1356520652770996,-3.732573986053467,-0.034325215965509415,0.019547688,0.016493361,10
-9.090304374694824,1.1453741788864136,-3.736219167709351,-0.03440123051404953,0.012217305,0.01740966,10
-9.111547470092773,1.1448168754577637,-3.741509914398194,-0.03102410025894642,0.02321288,0.0030543262,10
-9.120123863220217,1.1437984704971311,-3.744333505630493,-0.028252361342310905,0.023823744,0.010079277,10
-9.11447048187256,1.1408439874649048,-3.725364446640015,-0.02762551419436932,0.021991149,0.018936822,10
-9.10901927947998,1.1375912427902222,-3.71071720123291,-0.03121959790587425,0.022296581,0.03023783,10
-9.112290382385254,1.130525827407837,-3.7310423851013184,-0.035821426659822464,0.025350908,0.020158553,10
-9.119977951049805,1.1278836727142334,-3.754151582717896,-0.037553127855062485,0.03390302,0.009162978,10
-9.12122917175293,1.1320472955703735,-3.7619004249572754,-0.03789202868938446,0.034513887,0.0018325958,10
-9.123129844665527,1.1291290521621704,-3.7499496936798096,-0.038144655525684364,0.040317107000000005,-0.0061086523,10
-9.123863220214844,1.1250896453857422,-3.7286784648895264,-0.037308886647224426,0.046120327,0.0070249503,10
-9.127673149108887,1.1192028522491455,-3.7061841487884517,-0.03796662017703056,0.038179077,0.009468411,10
-9.129293441772461,1.1169371604919434,-3.695606231689453,-0.03830493986606598,0.027183503,0.013439035,10
-9.13193416595459,1.1221350431442259,-3.6984410285949703,-0.03882317245006561,0.029321533,0.014049901000000002,10
-9.12864589691162,1.1269389390945437,-3.7151944637298575,-0.03825844824314117,0.04550946,0.01282817,10
-9.12030029296875,1.1305291652679443,-3.724733829498291,-0.03851666674017906,0.05100725,0.026572637000000003,10
-9.10330581665039,1.1372774839401243,-3.7306604385375977,-0.039112254977226264,0.048258353,0.026267206,10
-9.08988094329834,1.147839903831482,-3.738703966140747,-0.04162251576781273,0.030543262,0.02443461,10
-9.090296745300293,1.1537123918533323,-3.749871492385864,-0.04329746216535568,0.037873644,0.013439035,10
-9.092849731445312,1.150785207748413,-3.770644187927246,-0.04339450597763062,0.03940081,0.017715093,10
-9.10006332397461,1.14564049243927,-3.7913293838500977,-0.04230266436934471,0.038179077,0.00580322,10
-9.104986190795898,1.1384917497634888,-3.8078243732452393,-0.04255098104476929,0.04734206,-0.0067195175,10
-9.10284423828125,1.1328860521316528,-3.8233585357666016,-0.04116109758615494,0.06505715,0.004886922,10
-9.092279434204102,1.1353579759597778,-3.820768117904663,-0.040248479694128036,0.056505036,0.016187929,10
-9.07508659362793,1.12833571434021,-3.813636302947998,-0.04304826632142067,0.05100725,0.020158553,10
-9.061577796936037,1.1192554235458374,-3.808871030807495,-0.046559147536754615,0.047647487,0.026267206,10
-9.06076431274414,1.1135542392730713,-3.8089234828948975,-0.051143497228622437,0.035430185,0.028099801,10
-9.070321083068848,1.1156376600265503,-3.8163323402404794,-0.05240379646420479,0.038789943,0.015882496,10
-9.078587532043457,1.121971845626831,-3.830334663391113,-0.05079154670238495,0.038789943,0.009162978,10
-9.082634925842283,1.1264480352401731,-3.8394176959991455,-0.046716056764125824,0.042760565999999986,0.021685716,10
-9.08457851409912,1.1306474208831787,-3.83371901512146,-0.04254651814699173,0.022296581,0.003970624,10
-9.07953929901123,1.1381758451461792,-3.8217389583587646,-0.0367828905582428,0.0021380284,0.007941248,10
-9.06666374206543,1.145116925239563,-3.809199333190918,-0.033035218715667725,-0.018020526,0.013133603,10
-9.059122085571287,1.1467208862304688,-3.8139557838439937,-0.03073939681053162,-0.015577064,0.01740966,10
-9.06316089630127,1.160194993019104,-3.816267251968384,-0.028300395235419273,-0.03390302,0.0030543262,10
-9.074326515197754,1.1688753366470337,-3.8162317276000977,-0.024421626701951027,-0.032070424,0.007330383,10
-9.079497337341307,1.1711654663085938,-3.814461708068848,-0.019535942003130916,-0.03023783,0.009162978,10
-9.08619213104248,1.1634981632232666,-3.8133525848388667,-0.018003320321440697,-0.01038471,0.01160644,10
-9.098628044128418,1.1490654945373535,-3.819957733154297,-0.018641702830791473,-0.0012217305,0.014966198,10
-9.105731010437012,1.1433858871459959,-3.832078218460083,-0.0191282220184803,0.0018325958,-0.002443461,10
-9.107890129089355,1.1460835933685305,-3.82741117477417,-0.015660403296351433,-0.009468411,-0.0009162979,10
-9.09469509124756,1.1401439905166626,-3.825103044509888,-0.012243529781699179,-0.024129177,0.007941248,10
-9.073556900024414,1.1254427433013916,-3.8309755325317374,-0.0074371551163494596,-0.013744468,0.023518313,10
-9.062376976013184,1.116079568862915,-3.8305821418762207,-0.004441415891051292,-0.02565634,0.01160644,10
-9.062888145446776,1.1133252382278442,-3.83439564704895,-0.0052966675721108905,-0.025045475,0.009468411,10
-9.072379112243652,1.117276310920715,-3.847744226455689,-0.006393668707460165,-0.0061086523,0.0067195175,10
-9.083799362182617,1.1224637031555176,-3.853094577789306,-0.0080217020586133,0.013439035,0.0067195175,10
-9.090218544006348,1.124176025390625,-3.838924884796143,-0.008737137541174889,0.009773844,-0.0021380284,10
-9.089335441589355,1.1235334873199463,-3.819912433624268,-0.006644483655691147,0.004886922,0.00580322,10
-9.088234901428224,1.1214581727981567,-3.800358533859253,-0.0037717642262578006,-0.0015271631,0.015271631,10
-9.087921142578123,1.125859022140503,-3.7801918983459473,-0.0027091025840491056,-0.015271631,0.007941248,10
-9.082330703735352,1.1267638206481934,-3.7673380374908447,-0.0021577626466751103,-0.027488936,0.010995574,10
-9.08128261566162,1.1272175312042236,-3.7639448642730713,-0.005229199305176735,-0.024740042,0.0143553335,10
-9.087026596069336,1.1234573125839231,-3.7687397003173833,-0.007295283954590559,-0.013133603,0.020158553,10
-9.096394538879396,1.1142354011535645,-3.781142950057984,-0.007922898977994919,-0.011911872,0.009468411,10
-9.103411674499512,1.106338381767273,-3.781685113906861,-0.008200109004974365,-0.00580322,0.01282817,10
-9.103577613830566,1.1023426055908203,-3.7762300968170166,-0.008908373303711414,-0.005497787,0.01985312,10
-9.107781410217283,1.1025315523147583,-3.7602577209472656,-0.01011492498219013,-0.013439035,0.016187929,10
-9.11214542388916,1.0966143608093262,-3.760826110839844,-0.009684635326266287,-0.0143553335,0.0030543262,10
-9.11270523071289,1.097179651260376,-3.770663738250733,-0.009652961976826193,-0.007941248,0.0009162979,10
-9.109119415283203,1.108404517173767,-3.777044296264648,-0.008406739681959152,0.005192355,0.014049901000000002,10
-9.10069179534912,1.1104364395141602,-3.774056673049927,-0.007216405123472214,-0.0033597588,0.013744468,10
-9.096877098083496,1.1127136945724487,-3.757389545440674,-0.006313279736787082,0.011301007,0.021380283,10
-9.104727745056152,1.1116008758544922,-3.744606733322144,-0.007685842923820019,-0.005497787,0.016493361,10
-9.113649368286133,1.109227180480957,-3.7459309101104736,-0.008707825094461441,-0.013133603,0.0036651916,10
-9.124334335327148,1.1057281494140625,-3.7598259449005127,-0.00647661229595542,0.010079277,0.0009162979,10
-9.13113498687744,1.1040935516357422,-3.757219076156616,-0.0032907656859606504,0.009468411,0.0018325958,10
-9.133225440979004,1.104619383811951,-3.741509199142456,-0.0015324921114370227,-0.013744468,-0.002443461,10
-9.130209922790527,1.1041253805160522,-3.724994659423828,-0.0025512271095067267,-0.0067195175,0.010079277,10
-9.135364532470703,1.1049703359603882,-3.714421510696411,-0.003689900506287813,-0.003970624,0.007941248,10
-9.139715194702148,1.1021054983139038,-3.7050287723541264,-0.005693825427442789,-0.014049901000000002,0.0036651916,10
-9.144938468933104,1.102260947227478,-3.700541496276856,-0.007941787131130695,-0.0125227375,0.0018325958,10
-9.147001266479492,1.104756236076355,-3.71322512626648,-0.009824015200138092,0.0018325958,0.006414085,10
-9.145784378051758,1.1053274869918823,-3.723694324493408,-0.011136556044220923,0.013133603,0.009773844,10
-9.139639854431152,1.0986278057098389,-3.723010540008545,-0.01468226220458746,0.01160644,0.011301007,10
-9.12855625152588,1.0909522771835327,-3.728917121887207,-0.017683278769254684,0.025961773,0.017715093,10
-9.123440742492676,1.0826116800308228,-3.734861850738525,-0.018210435286164284,0.022907447,0.016493361,10
-9.122197151184082,1.066961646080017,-3.734804391860962,-0.018177932128310204,0.022602014,0.016493361,10
-9.11981201171875,1.0514179468154907,-3.73251223564148,-0.01911362819373608,0.025350908,0.018020526,10
-9.110289573669434,1.0432291030883791,-3.736400365829468,-0.021718138828873638,0.03756821,0.0143553335,10
-9.103702545166016,1.0430427789688108,-3.7382442951202393,-0.025650862604379654,0.03726278,0.016798794,10
-9.094614028930664,1.0534147024154663,-3.745213270187378,-0.029607087373733517,0.03268129,0.02107485,10
-9.088191032409668,1.0707345008850098,-3.751108884811402,-0.03153470158576965,0.029321533,0.022296581,10
-9.088651657104492,1.0828194618225098,-3.753829479217529,-0.032586079090833664,0.020463986,0.023518313,10
-9.097288131713867,1.0857363939285278,-3.7573673725128174,-0.03303191810846329,0.022296581,0.025045475,10
-9.101874351501463,1.0784094333648682,-3.75734806060791,-0.033994503319263465,0.021380283,0.02107485,10
-9.107312202453613,1.0743739604949951,-3.7556562423706055,-0.03583182767033577,0.030848695,0.016493361,10
-9.105743408203123,1.0756536722183228,-3.7677583694458012,-0.03803234174847603,0.039095376,0.02443461,10
-9.103301048278807,1.0735095739364624,-3.774461269378662,-0.0408577136695385,0.04886922,0.029626964,10
-9.101993560791016,1.0755971670150757,-3.780297517776489,-0.04311228543519974,0.04917465,0.024740042,10
-9.099149703979492,1.0727354288101196,-3.778555870056152,-0.04494397342205048,0.049785517,0.023823744,10
-9.103449821472168,1.0699955224990845,-3.77304744720459,-0.047735147178173065,0.058948494,0.027183503,10
-9.10372543334961,1.0735478401184082,-3.7716689109802246,-0.05270583555102348,0.050396383,0.024129177,10
-9.10724925994873,1.0781257152557373,-3.7755429744720463,-0.05659549310803413,0.05589417,0.024740042,10
-9.112066268920898,1.081119179725647,-3.787290811538696,-0.05998830124735832,0.064446285,0.014049901000000002,10
-9.116347312927246,1.0865380764007568,-3.7968404293060303,-0.06061715260148048,0.06963864,0.012217305,10
-9.11567211151123,1.0927594900131226,-3.785664558410645,-0.06012450531125069,0.06811147,0.018936822,10
-9.11229133605957,1.097376823425293,-3.778221845626831,-0.05891919881105422,0.053450707,0.022602014,10
-9.104260444641113,1.1114708185195925,-3.778151273727417,-0.056936297565698624,0.0421497,0.019242255,10
-9.095596313476562,1.1192761659622192,-3.791755199432373,-0.05506685748696327,0.032375857,0.021685716,10
-9.093697547912598,1.1125189065933228,-3.8120844364166264,-0.05756363645195961,0.0421497,0.01282817,10
-9.098023414611816,1.1055063009262085,-3.827254056930542,-0.056949838995933526,0.0693332,0.003970624,10
-9.102739334106444,1.1060627698898315,-3.8291573524475098,-0.05427270382642746,0.08155051,0.017104227,10
-9.10735034942627,1.1215102672576904,-3.8195493221282963,-0.054034620523452766,0.040317107000000005,0.016493361,10
-9.102144241333008,1.1374430656433103,-3.819780111312866,-0.05180111527442932,0.026572637000000003,0.013744468,10
-9.092555046081543,1.1526210308074951,-3.8292760848999023,-0.04518532007932663,0.017715093,0.00061086525,10
-9.077428817749023,1.174834370613098,-3.8177881240844727,-0.0374901294708252,0.009468411,0.0030543262,10
-9.067947387695312,1.1937884092330933,-3.7937843799591056,-0.031066626310348514,-0.030848695,0.011301007,10
-9.070716857910156,1.2071903944015503,-3.770251274108887,-0.02651512436568737,-0.05009095,0.011911872,10
-9.08059310913086,1.2045515775680542,-3.763015508651733,-0.019124014303088188,-0.055283304000000005,0.015271631,10
-9.091450691223145,1.1921957731246948,-3.780426502227783,-0.010267406702041626,-0.020158553,0.013744468,10
-9.102152824401855,1.17447030544281,-3.805012226104736,-0.0036680584307759996,0.0076358155,0.022296581,10
-9.10410976409912,1.1574548482894895,-3.823679208755493,-0.0040662186220288285,0.027183503,0.01038471,10
-9.108721733093262,1.1390975713729858,-3.834882736206055,-0.009260041639208794,0.03023783,0.0076358155,10
-9.108565330505373,1.1228034496307373,-3.830245018005371,-0.013505222275853157,0.035124752999999995,0.021991149,10
-9.09320831298828,1.1048797369003296,-3.8181233406066895,-0.01552379224449396,0.009773844,0.011911872,10
-9.069107055664062,1.0949411392211914,-3.8181092739105225,-0.01665460877120495,0.0033597588,0.008857545999999999,10
-9.052431106567383,1.099254488945007,-3.828266143798828,-0.01854322105646133,-0.0012217305,0.022907447,10
-9.048857688903807,1.1065226793289185,-3.849968910217285,-0.01943955197930336,0.007941248,0.010079277,10
-9.056721687316896,1.1124105453491209,-3.8584485054016113,-0.019591573625802997,0.015882496,0.013744468,10
-9.066254615783693,1.126200556755066,-3.848168611526489,-0.02027909830212593,0.012217305,0.009468411,10
-9.07055377960205,1.1322691440582275,-3.8521416187286377,-0.02061709389090538,0.0021380284,0.013133603,10
-9.0623779296875,1.1403652429580688,-3.863635540008545,-0.019867721945047382,0.0067195175,0.0067195175,10
-9.05497932434082,1.1406221389770508,-3.872692584991455,-0.01867160387337208,-0.00061086525,0.019547688,10
-9.050185203552246,1.133148431777954,-3.874985933303833,-0.01773836649954319,-0.007330383,0.0076358155,10
-9.050610542297363,1.119330883026123,-3.8718852996826167,-0.017285281792283058,-0.0036651916,0.019242255,10
-9.05894374847412,1.1104207038879397,-3.863038063049317,-0.017234429717063904,-0.008857545999999999,0.004581489,10
-9.069092750549316,1.1101622581481934,-3.853975772857666,-0.015853183344006542,0.0076358155,0.018936822,10
-9.07217502593994,1.110287308692932,-3.848288774490357,-0.015443076379597187,0.0030543262,0.009468411,10
-9.069918632507324,1.109074354171753,-3.8483061790466313,-0.014068271033465862,0.004581489,0.01863139,10
-9.065277099609377,1.115597128868103,-3.845320463180542,-0.014205040410161018,0.010995574,0.025350908,10
-9.07305145263672,1.1199713945388794,-3.845768928527832,-0.016393562778830528,0.015882496,0.016798794,10
-9.089280128479004,1.114271879196167,-3.845663785934448,-0.01840056851506233,0.02107485,0.010079277,10
-9.102317810058594,1.1169490814208984,-3.8397524356842037,-0.018405802547931668,0.025961773,-0.0033597588,10
-9.100614547729492,1.1196297407150269,-3.8288280963897705,-0.018189800903201103,0.024740042,0.005497787,10
-9.08477783203125,1.1254819631576538,-3.8249669075012207,-0.019478658214211464,0.016798794,0.0143553335,10
-9.076332092285156,1.1272425651550293,-3.821736097335816,-0.02065432257950306,0.013744468,0.015271631,10
-9.079252243041992,1.1310800313949585,-3.8250439167022714,-0.02112399972975254,0.004276057,0.021380283,10
-9.086315155029297,1.1294063329696655,-3.8246700763702393,-0.020591186359524727,0.0067195175,0.006414085,10
-9.08546257019043,1.1286364793777466,-3.817429304122925,-0.02017221786081791,0.017715093,0.015271631,10
-9.0787992477417,1.1317704916000366,-3.8134610652923584,-0.02042576484382153,0.030848695,0.021991149,10
-9.07315444946289,1.1353741884231567,-3.820582389831543,-0.024294180795550343,0.019242255,0.02565634,10
-9.073848724365234,1.1416566371917725,-3.8354685306549072,-0.025975914672017097,0.007330383,0.018020526,10
-9.07242488861084,1.1419930458068848,-3.8486058712005615,-0.02411201968789101,0.010995574,0.0012217305,10
-9.068029403686523,1.1342247724533079,-3.851179361343384,-0.019588349387049675,0.006414085,0.018325957,10
-9.062772750854492,1.1126222610473633,-3.8410875797271733,-0.014790022745728491,-0.00580322,0.0015271631,10
-9.056882858276367,1.0898351669311523,-3.8345000743865967,-0.013706117868423462,-0.013744468,-0.0036651916,10
-9.068276405334473,1.0864022970199585,-3.840307474136353,-0.01304687187075615,0.002443461,0.004886922,10
-9.069695472717283,1.0924835205078125,-3.8530302047729488,-0.013439095579087734,0.007941248,0.008552114,10
-9.06536865234375,1.1025431156158447,-3.858626365661621,-0.014507601037621496,0.021380283,0.016187929,10
-9.063030242919922,1.1108862161636353,-3.859421491622925,-0.016895074397325516,0.020158553,0.020463986,10
-9.06145477294922,1.1165428161621094,-3.8602395057678223,-0.018422484397888184,0.014660766,0.01740966,10
-9.060108184814453,1.1186267137527466,-3.852757453918457,-0.01877099275588989,0.016187929,0.015577064,10
-9.065814018249512,1.1149287223815918,-3.8466176986694336,-0.017997996881604198,0.007941248,0.01740966,10
-9.064846992492676,1.1068984270095823,-3.8510005474090576,-0.01774657517671585,0.004886922,0.0030543262,10
-9.060327529907227,1.1063708066940308,-3.8647272586822514,-0.01801125891506672,0.0061086523,-0.0015271631,10
-9.055992126464844,1.107269525527954,-3.8669068813323975,-0.01903252862393856,0.027794369,0.01160644,10
-9.051628112792967,1.1105650663375854,-3.8628530502319336,-0.0231225173920393,0.024740042,0.016493361,10
-9.049863815307617,1.1166176795959473,-3.853687524795532,-0.02675436995923519,0.01038471,0.008857545999999999,10
-9.046392440795898,1.1214898824691772,-3.8423879146575928,-0.026759877800941467,-0.004276057,0.017104227,10
-9.050429344177246,1.1133413314819336,-3.83591628074646,-0.02451651357114315,-0.005497787,0.017715093,10
