acc_x,acc_y,acc_z,gyro_x,gyro_y,gyro_z,label
0.0,0.0,0.0,0.0,-0.08155051,0.0290161,1
0.0923149362206459,0.2738412022590637,-0.0032415930181741714,-0.0015515077393501995,-0.08032878,0.024129177,1
0.31184083223342896,0.9264754056930542,-0.012493976391851902,-0.004819949623197317,-0.08643743400000001,0.02107485,1
0.6146959066390991,1.8291298151016235,-0.02771756798028946,-0.008150745183229445,-0.08704830000000001,0.011301007,1
0.95265531539917,2.8393256664276123,-0.04783650115132332,-0.012439536862075329,-0.06536258,0.019242255,1
1.2890297174453735,3.84157919883728,-0.061933938413858414,-0.017399268224835396,-0.049785517,0.024740042,1
1.6049135923385618,4.764342784881592,-0.07195200771093369,-0.022811422124505043,-0.039095376,0.025350908,1
1.8858009576797483,5.575932502746582,-0.0856810137629509,-0.028003878891468048,-0.04520403,0.027794369,1
2.125506639480591,6.270373344421388,-0.1054522916674614,-0.03212670609354973,-0.05955936,0.0290161,1
2.3243284225463867,6.84420919418335,-0.12324891239404677,-0.035782840102910995,-0.041233405,0.02076942,1
2.4871838092803955,7.3162174224853525,-0.13453179597854614,-0.03770284354686737,-0.036651913,0.026267206,1
2.620839357376098,7.712038040161133,-0.14380475878715515,-0.03980300948023796,-0.024129177,0.025045475,1
2.736452579498291,8.039976119995117,-0.14864355325698853,-0.04157515987753868,-0.01863139,0.028405234,1
2.8299331665039062,8.3062744140625,-0.1454269289970398,-0.04256688803434372,-0.011301007,0.023823744,1
2.897853136062622,8.524503707885742,-0.14062687754631042,-0.04166559129953384,-0.019547688,0.029932396,1
2.9569988250732417,8.697891235351562,-0.13208980858325958,-0.041685473173856735,0.0036651916,0.03176499,1
3.008955240249634,8.826098442077637,-0.12759201228618622,-0.04037116840481758,0.0076358155,0.021991149,1
3.0503058433532715,8.922179222106934,-0.12880875170230865,-0.040161274373531335,-0.004276057,0.02321288,1
3.087318420410156,9.002143859863281,-0.12686669826507568,-0.03939322754740715,0.004276057,0.021991149,1
3.114607572555542,9.069265365600586,-0.1188080757856369,-0.03943963348865509,0.018325957,0.023518313,1
3.1411023139953613,9.123665809631348,-0.11649668961763382,-0.039942648261785514,0.025961773,0.020463986,1
3.1654651165008545,9.175884246826172,-0.11625784635543825,-0.038418103009462364,0.010079277,0.02076942,1
3.188461780548096,9.219501495361328,-0.11093068867921828,-0.03579509630799293,0.008552114,0.01863139,1
3.200850009918213,9.249351501464844,-0.10619745403528214,-0.033504076302051544,0.007330383,0.016187929,1
3.216005086898804,9.267454147338867,-0.09879323840141296,-0.03098479472100735,0.015577064,0.027183503,1
3.2348058223724365,9.280341148376463,-0.08939258009195328,-0.030404763296246532,0.01282817,0.025045475,1
3.254878044128418,9.293821334838867,-0.07444977760314941,-0.02963563613593578,-0.004886922,0.025350908,1
3.2707760334014893,9.299705505371094,-0.06678073108196259,-0.028165837749838833,-0.0125227375,0.019242255,1
3.2732930183410645,9.301961898803713,-0.0575975775718689,-0.02666194923222065,-0.0015271631,0.02076942,1
3.27569317817688,9.304807662963867,-0.05510345846414566,-0.026945926249027245,-0.005497787,0.015577064,1
3.2725625038146973,9.310945510864258,-0.057838860899209976,-0.02693511731922626,-0.005497787,0.021380283,1
3.2684571743011475,9.317869186401367,-0.0632106214761734,-0.02767809294164181,0.0076358155,0.018325957,1
3.2738158702850337,9.323097229003906,-0.06948477774858475,-0.027809696272015568,0.0009162979,0.02321288,1
3.2774579524993896,9.339269638061523,-0.06965290755033493,-0.026192203164100647,-0.010079277,0.028710667,1
3.273083209991455,9.34675407409668,-0.06802976876497269,-0.025864839553833008,-0.00030543262000000003,0.02443461,1
3.2649190425872803,9.33632755279541,-0.06631682068109512,-0.024992713704705242,0.011911872,0.028710667,1
3.257728576660156,9.326077461242676,-0.06749746203422546,-0.02413718402385712,-0.0015271631,0.028099801,1
3.250791072845459,9.324862480163574,-0.06440846621990204,-0.024520548060536385,0.015882496,0.02321288,1
3.252049684524536,9.328486442565918,-0.06261392682790756,-0.02709366008639336,0.02443461,0.030543262,1
3.251070499420166,9.340916633605957,-0.059816531836986535,-0.02764885313808918,0.017104227,0.018936822,1
3.2495555877685547,9.361612319946287,-0.060628112405538566,-0.027031457051634792,0.01282817,0.021380283,1
3.24800443649292,9.383223533630373,-0.06281568109989166,-0.022511208429932598,0.014660766,0.026267206,1
3.2439205646514893,9.396342277526855,-0.06173503026366234,-0.01648281142115593,0.013133603,0.020463986,1
3.242119312286377,9.396384239196776,-0.06433434039354324,-0.010086542926728724,0.0070249503,0.02076942,1
3.2303743362426762,9.38985538482666,-0.06642618775367737,-0.002643329324200749,0.024129177,0.019242255,1
3.221265316009521,9.384026527404783,-0.07395388931035995,0.005323037039488554,0.04428773,0.0143553335,1
3.199144124984741,9.385921478271484,-0.07493893057107925,0.015769688412547108,0.025350908,0.008552114,1
3.167014837265014,9.39494800567627,-0.07423460483551025,0.028135662898421288,0.038789943,0.00061086525,1
3.1491107940673833,9.412108421325684,-0.08373583853244781,0.044518310576677315,0.0580322,-0.018020526,1
3.1515717506408687,9.437237739562988,-0.10719484835863112,0.06071800366044045,0.052534413,-0.019242255,1
3.159285545349121,9.453277587890623,-0.13428646326065066,0.07847964018583298,0.018325957,-0.015882496,1
3.149407386779785,9.444610595703123,-0.16060201823711395,0.09690368175506593,0.015271631,-0.005497787,1
3.1102137565612797,9.410340309143066,-0.1675577610731125,0.11786797642707825,0.03756821,0.002443461,1
3.053621768951416,9.374110221862793,-0.1660756766796112,0.13710157573223114,0.08002335,0.009468411,1
2.994994163513184,9.35534381866455,-0.1654212921857834,0.1513015627861023,0.118507855,-0.00580322,1
2.979032278060913,9.359501838684082,-0.16910265386104584,0.1596725881099701,0.1337795,-0.011911872,1
3.007625102996826,9.381993293762207,-0.1849731951951981,0.16664233803749084,0.116980694,-0.009773844,1
3.057729959487915,9.408987998962402,-0.20668305456638336,0.17365719377994535,0.110872045,0.003970624,1
3.104909658432007,9.42686939239502,-0.24013017117977145,0.1874392181634903,0.08674286,0.030543262,1
3.1408803462982178,9.439085960388184,-0.2875049114227295,0.21058836579322812,0.08063421400000001,0.044593163,1
3.1583313941955566,9.437055587768556,-0.3296930193901062,0.2393839806318283,0.070249505,0.0571159,1
3.176289796829224,9.428146362304688,-0.3602993190288544,0.2677281200885773,0.08124508,0.06841691,1
3.1792917251586914,9.397441864013672,-0.3982053101062775,0.29692816734313965,0.042455133,0.043982297,1
3.1583714485168457,9.329021453857422,-0.4566074907779694,0.3221399188041687,0.04184427,0.020158553,1
3.1212422847747803,9.263850212097168,-0.5156180262565613,0.3422204852104187,0.028710667,0.017715093,1
3.0763607025146484,9.219378471374512,-0.5665858387947083,0.3519018888473511,0.0021380284,-0.0125227375,1
3.0417091846466064,9.1906099319458,-0.6185103058815002,0.34928810596466064,0.0021380284,-0.03145956,1
3.0279860496521,9.181529998779297,-0.6770685911178589,0.3356105089187622,0.058337633,0.00030543262000000003,0
3.0223641395568848,9.203951835632324,-0.7288877964019775,0.3206048607826233,0.083383106,0.05375614,0
3.001558780670166,9.225014686584473,-0.7621306777000427,0.31283748149871826,0.055588737,0.07574729,0
2.982507944107056,9.224136352539062,-0.7538256645202637,0.31383827328681946,0.015577064,0.08643743400000001,0
2.991415739059448,9.20163631439209,-0.7310217022895813,0.3231672942638397,-0.030848695,0.08521569999999999,0
3.026462316513061,9.175827026367188,-0.7023509740829468,0.33328160643577576,-0.074830994,0.108123146,0
3.07283091545105,9.12594223022461,-0.6858895421028137,0.3432710766792297,-0.09621128,0.12889257,0
3.090750932693481,9.019166946411133,-0.6826846599578857,0.3603072762489319,-0.17959438,0.16829337,0
3.075190544128418,8.86430549621582,-0.6768987774848938,0.39258554577827454,-0.29810223,0.16890424,0
3.033219814300537,8.66948413848877,-0.6377095580101013,0.4320475459098816,-0.44318274,0.16065755,0
2.970151424407959,8.402819633483888,-0.585153341293335,0.4679040908813477,-0.5516113,0.16676621,0
2.912602663040161,8.076153755187987,-0.5522904396057129,0.4952114820480346,-0.6010914,0.16310102,0
2.8779990673065186,7.73681116104126,-0.5572898983955383,0.5142252445220947,-0.6414085,0.17654006,0
2.844811201095581,7.405855178833008,-0.6524010896682739,0.5345631837844849,-0.7519751,0.19150625,0
2.8004472255706787,7.116554260253906,-0.8075890541076659,0.5503323674201965,-0.84849185,0.18753563,0
2.7520248889923096,6.954610347747803,-0.997064173221588,0.5690597295761108,-1.0005972,0.2134974,0
2.6903812885284424,7.034671306610107,-1.1777297258377075,0.6280896067619324,-1.0769554,0.16523905,0
2.564166307449341,7.184556007385254,-1.2746734619140625,0.7213466763496399,-1.0793989,0.06719518,0
2.359269618988037,7.187387943267822,-1.2627356052398682,0.7894324660301208,-1.0961976999999998,-0.11636983,0
2.077409029006958,7.0063438415527335,-1.2020817995071411,0.8150008320808411,-1.1123856,-0.28313604,0
1.7320419549942017,6.6838111877441415,-1.2031512260437012,0.7713003158569336,-0.8903360999999999,-0.4251622000000001,0
1.4109148979187012,6.524277210235597,-1.3185606002807615,0.7185484766960144,-0.9621128,-0.5699373000000001,0
1.146432399749756,6.557538032531737,-1.6399387121200562,0.7303447127342224,-1.0473285,-0.5726861999999999,0
0.9501984119415284,6.643264293670653,-2.0225191116333012,0.7827013731002808,-0.88514376,-0.5644395000000001,0
0.8333550095558167,6.676041126251222,-2.2683274745941158,0.8623320460319519,-0.7538077,-0.4560109000000001,0
0.6791502833366394,6.741861820220947,-2.429027557373047,0.9238604307174684,-0.73945236,-0.52656585,0
0.4990405440330506,6.808242321014403,-2.66489577293396,0.9561879634857178,-0.65118235,-0.47739118,0
0.2723349332809448,6.8118858337402335,-2.977320909500122,1.0297930240631104,-0.6743952,-0.32345316,0
0.06359072774648666,6.846373558044434,-3.4042851924896236,1.124809980392456,-0.50671273,-0.23090707,0
-0.1971239000558853,6.957901477813722,-3.7228736877441406,1.2264482975006104,-0.38453966,-0.035124752999999995,0
-0.21023599803447726,7.1265645027160645,-4.062392711639403,1.297335505485535,-0.58001655,0.035124752999999995,0
-0.2896585762500763,7.218120574951173,-4.3361663818359375,1.3406215906143188,-0.8396343000000001,-0.09315695,0
0.0449635274708271,7.3768630027771,-4.69241189956665,1.372169017791748,-0.70738196,0.14569137,0
0.3193528950214386,7.738710403442383,-5.172876834869385,1.3850538730621338,-0.63591075,0.43554693,0
-0.026414144784212112,7.951711654663086,-5.656139373779298,1.378562569618225,-0.23945917,0.9615019,0
-0.6947923898696899,8.041458129882812,-6.189052104949951,1.4185669422149658,-0.13652839,0.95294976,0
-1.266775608062744,8.092597007751465,-6.869662761688232,1.5272598266601562,0.5882632,1.0482447,0
-1.6855612993240356,8.104109764099121,-7.577942371368407,1.6879731416702268,1.2577715,1.0173961,0
-1.8260955810546875,7.921621799468994,-8.183784484863281,1.841141939163208,1.8429805,1.244638,0
-1.281683087348938,7.674854755401611,-8.105470657348633,1.9807218313217163,1.9294178,1.6691893,0
-0.2358389645814896,7.840867519378662,-7.740016460418701,2.283121347427368,1.7993035,1.210735,0
2.1223044395446777,7.964773654937744,-7.45395040512085,2.4821085929870605,0.32406402,1.0952813999999995,0
4.794327735900879,7.745069980621338,-7.5211076736450195,2.3422560691833496,0.8881981,1.5030339,0
7.0492000579833975,7.478697776794434,-9.09918975830078,1.987476110458374,0.9596693,0.636827,0
9.301620483398438,8.130146980285645,-10.94245433807373,1.596742868423462,1.0888673,2.0775528000000003,0
9.881864547729492,9.114179611206056,-12.501299858093262,1.3586856126785278,2.1896465,3.3405166,0
6.94705867767334,9.718021392822266,-12.067766189575195,1.443280577659607,4.6761737,4.5069637,0
2.6981985569000244,8.668110847473145,-9.661431312561037,1.4823018312454224,5.448002,4.733594999999998,0
-0.12302981317043304,6.74157190322876,-7.538694381713867,1.2294310331344604,4.5442266,2.9639182,0
-0.5010292530059814,4.3383822441101065,-6.282609939575195,0.8873737454414368,3.33227,1.4831808000000002,0
0.8846136331558228,2.393890142440796,-5.727561950683594,0.6038030982017517,2.187203,0.79626286,0
2.2919623851776123,1.2823909521102903,-5.706754684448242,0.4647012352943421,1.3038919,1.0115929,0
3.2856690883636475,0.6507176160812378,-5.9386024475097665,0.5187041163444519,1.8112154,1.2754866000000002,0
3.544623851776123,0.038280650973320014,-5.816429615020753,0.5483224391937256,2.144748,1.2046263,0
3.52920150756836,-0.602283775806427,-5.235583305358887,0.4916328191757202,2.0289888,1.1948525,0
3.7528576850891113,-1.1298736333847046,-4.4742398262023935,0.40877214074134827,2.0787745,0.926988,0
4.99918794631958,-1.3503069877624512,-3.953845977783203,0.3207615911960602,2.477975,0.58368176,0
7.05654239654541,-1.159581184387207,-3.891319274902344,0.21882806718349454,2.2473733,1.500285,0
8.288771629333496,-0.8582891225814819,-3.7865781784057617,0.2132491618394852,1.2721269,1.645671,0
8.676328659057617,-0.4687401056289673,-3.2029225826263428,0.3346867859363556,0.70249504,1.4559973,0
8.96971607208252,-0.3989997208118439,-2.9153590202331543,0.5506241917610168,0.42394048,1.5164729,0
9.256855964660645,-1.1132694482803345,-2.647402048110962,0.8808842301368713,0.004581489,1.1917981000000002,0
9.69407844543457,-2.6942875385284424,-1.6930078268051147,0.9288033843040466,0.61819565,0.77488256,0
10.482168197631836,-4.924410820007324,-0.9198731780052184,0.6544341444969177,1.1606439,0.65148777,0
10.958189964294434,-6.745301723480225,-0.7927824854850769,0.23666574060916898,-0.43188173,0.053450707,0
10.963743209838867,-7.547394752502441,-1.3128293752670288,-0.014959375374019148,-1.3399329,-0.5870415,0
10.867875099182127,-7.520355224609375,-1.8978427648544312,-0.03126194328069687,-1.4193454,-0.72692966,0
10.48813247680664,-7.048756122589111,-2.1986017227172847,0.07428040355443953,-1.568091,-0.7360926,0
9.669902801513672,-6.112452983856201,-2.0479848384857178,0.17663687467575073,-1.5683966,-0.7669413,0
8.531108856201174,-4.749960899353027,-1.6734764575958252,0.2398710548877716,-1.4544701999999998,-0.8231409,0
7.648693561553955,-3.771547555923462,-1.34254789352417,0.21795377135276794,-1.3286319,-0.9605856,0
7.232104778289795,-3.47698974609375,-1.1322437524795532,0.06153706833720207,-0.5897904,-1.1410962,0
7.514443874359131,-3.435734748840332,-1.2737361192703247,-0.2648039162158966,0.28710666,-0.9633345,0
8.429172515869139,-3.074016571044922,-2.2733967304229736,-0.6103159189224243,0.77274454,0.03268129,0
9.293715476989746,-2.8759572505950928,-3.546623945236206,-0.6617075800895691,0.13561209,1.2217305,0
9.551568984985352,-2.951188802719116,-4.5296244621276855,-0.40757861733436573,0.3915646,1.3487904,0
9.278964042663574,-3.1171016693115234,-4.761092185974121,0.026176359504461292,-0.12095132,0.7901541999999999,0
8.761992454528809,-3.2387578487396236,-4.041941642761231,0.2726356089115143,-0.6881397,0.24190263,0
8.438619613647461,-3.265311479568481,-3.027716636657715,0.2868654429912567,-1.0488556999999998,-0.32436943,0
8.362845420837402,-3.1072025299072266,-2.5800621509552,0.14913254976272586,-0.36010507,-0.7626653,0
8.432286262512207,-2.9010622501373287,-2.724757671356201,-0.1017952486872673,0.30757064,-0.8417723,0
8.545660018920897,-2.7857391834259038,-3.213812351226806,-0.3110260665416717,0.71593404,-0.55955255,0
8.701653480529785,-2.691721677780152,-3.7024662494659424,-0.3823692202568054,0.7360926,-0.32436943,0
8.927581787109375,-2.5874743461608887,-4.212871551513672,-0.3114503026008606,0.14110987,-0.07391469,0
9.124374389648438,-2.4876492023468018,-4.601400375366211,-0.11488208919763565,-0.74464476,-0.036957346,0
9.260266304016113,-2.4224953651428223,-4.820643901824951,0.09451144188642502,-0.5506949999999999,0.07147124,0
9.244786262512207,-2.36480975151062,-4.715993404388428,0.20090727508068085,-0.3472769,0.18387043,0
9.066812515258787,-2.28010630607605,-4.441551208496094,0.17852000892162326,-0.21868975,0.14019357,0
8.82404613494873,-2.1377291679382324,-4.242151737213135,0.09815395623445512,-0.112399206,-0.010079277,0
8.633034706115723,-1.97806978225708,-4.2915120124816895,0.007702420465648173,-0.02321288,-0.16035213,0
8.531843185424805,-1.8330942392349243,-4.539970874786377,-0.04060279577970505,-0.032375857,-0.21380283,0
8.513628959655763,-1.717150330543518,-4.815134048461914,-0.013907202519476414,-0.115453534,-0.20769419,0
8.546391487121582,-1.6103582382202148,-4.952937602996826,0.050439681857824326,-0.116675265,-0.16249016,0
8.583333969116211,-1.5136622190475464,-4.9646029472351065,0.09612879157066344,-0.05131268,-0.10476339,0
8.624776840209961,-1.3828006982803345,-4.900328159332275,0.09153751283884047,0.030543262,-0.02076942,0
8.67357349395752,-1.2241791486740112,-4.830152988433838,0.0539078414440155,0.1001819,0.04153884,0
8.706892013549805,-1.100731611251831,-4.807305335998535,0.028275731950998306,0.08674286,0.09468412,0
8.709042549133299,-1.075215220451355,-4.787724018096924,0.03283242881298065,0.029626964,0.09407325,0
8.690961837768555,-1.1049227714538574,-4.73210334777832,0.0495188869535923,-0.040927973,0.03848451,0
8.677635192871094,-1.1675364971160889,-4.641485691070557,0.06617338955402374,-0.105068825,-0.03726278,0
8.689757347106934,-1.250702142715454,-4.557874202728272,0.06619279086589812,-0.10262536,-0.0842994,0
8.736770629882812,-1.3320865631103516,-4.50511360168457,0.05493193492293358,-0.063224554,-0.09010262,0
8.817353248596191,-1.4111373424530032,-4.4953227043151855,0.04131200537085533,-0.014660766,-0.05467244,10
8.890168190002441,-1.4598962068557741,-4.507948875427246,0.02626047283411026,0.015577064,-0.0021380284,10
8.917827606201172,-1.4772756099700928,-4.517871379852295,0.017875399440526962,-0.007330383,0.03970624,10
8.893048286437988,-1.4946691989898682,-4.5211687088012695,0.01686151884496212,-0.029626964,0.05100725,10
8.83299446105957,-1.531388521194458,-4.510870456695557,0.014102283865213394,-0.018936822,0.020463986,10
8.777827262878418,-1.583646535873413,-4.491040229797363,0.005709032062441111,-0.02076942,0.002443461,10
8.734286308288574,-1.6359692811965942,-4.4819655418396,-0.009050131775438786,-0.020463986,-0.01160644,10
8.708457946777344,-1.6651841402053833,-4.4912872314453125,-0.02556192502379417,-0.007330383,-0.015577064,10
8.699921607971191,-1.656476974487305,-4.521998882293701,-0.03498784080147743,-0.007330383,-0.017104227,10
8.70124626159668,-1.625488519668579,-4.565101623535156,-0.03035058453679085,-0.013439035,-0.009773844,10
8.702145576477049,-1.6018203496932983,-4.593789577484131,-0.01844717562198639,-0.008857545999999999,-0.004886922,10
8.697196960449219,-1.5737359523773191,-4.611616611480713,-0.0060562118887901315,0.006414085,0.00580322,10
8.691584587097168,-1.5569511651992798,-4.6144537925720215,0.0009689955040812492,0.0067195175,0.013744468,10
8.685769081115723,-1.5464975833892822,-4.61400318145752,-0.0002705624501686543,0.03268129,0.0143553335,10
8.683638572692871,-1.5220479965209959,-4.608398914337158,-0.0047684647142887115,0.048563786,0.004886922,10
8.686007499694824,-1.486778974533081,-4.599534511566162,-0.008590745739638805,0.07147124,-0.016187929,10
8.692941665649414,-1.4484254121780396,-4.590634822845459,-0.008976523764431477,0.09040806,-0.017715093,10
8.703095436096191,-1.407667875289917,-4.58018970489502,-0.008332664147019386,0.099265605,-0.012217305,10
8.723953247070312,-1.3690766096115112,-4.560357093811035,-0.0061564608477056035,0.07422013,0.0076358155,10
8.750502586364746,-1.3415454626083374,-4.5317111015319815,-0.0013507561525329947,0.04917465,0.0012217305,10
8.777084350585938,-1.3317694664001465,-4.488300800323486,0.003603803692385553,0.028405234,0.008857545999999999,10
8.809632301330566,-1.347691774368286,-4.440990447998047,0.005367488134652376,0.009468411,0.0012217305,10
8.843700408935547,-1.382544994354248,-4.392682075500488,0.005538260564208032,0.010995574,0.009162978,10
8.870124816894531,-1.4066886901855469,-4.362189769744873,0.004973254632204771,0.013133603,0.010995574,10
8.883431434631348,-1.4121865034103394,-4.357748508453368,0.005499889608472586,0.016187929,0.016798794,10
8.87491512298584,-1.3965399265289309,-4.3658809661865225,0.005478899460285902,0.01160644,-0.0036651916,10
8.86371898651123,-1.3701083660125732,-4.3694257736206055,0.0008377518970519303,0.010995574,-0.00580322,10
8.859806060791016,-1.3498282432556152,-4.3739051818847665,-0.0041405195370316505,0.014660766,-0.0027488936,10
8.860751152038574,-1.342201828956604,-4.378039836883545,-0.006445953622460364,-0.0009162979,0.0067195175,10
8.877603530883789,-1.3460108041763306,-4.366922855377196,-0.0034626543056219816,-0.010995574,0.008246681,10
8.895702362060547,-1.3634353876113892,-4.35068416595459,0.00017952440248336643,-0.03756821,0.010690141499999998,10
8.913419723510742,-1.3883179426193235,-4.329887866973877,0.002077337354421616,-0.06352998,-0.004276057,10
8.92209243774414,-1.413706660270691,-4.315234184265137,0.0013458364410325885,-0.08704830000000001,-0.007941248,10
8.919607162475586,-1.436831831932068,-4.3179426193237305,-0.0022915471345186234,-0.09712757,-0.0036651916,10
8.902402877807617,-1.4675155878067017,-4.35720157623291,-0.0080093489959836,-0.08124508,-0.0021380284,10
8.864446640014648,-1.5010802745819092,-4.403688430786133,-0.013232477940618992,-0.04795292,0.01160644,10
8.808465957641602,-1.5224813222885132,-4.451118469238281,-0.017107896506786346,-0.042760565999999986,0.015577064,10
8.751734733581543,-1.5258368253707886,-4.5009613037109375,-0.020853137597441673,-0.020463986,0.018936822,10
8.704127311706543,-1.5046525001525881,-4.537131309509277,-0.02204810082912445,0.01160644,0.008552114,10
8.672372817993164,-1.4694340229034424,-4.564788341522217,-0.020632583647966385,0.025350908,-0.010995574,10
8.662633895874022,-1.4390194416046145,-4.5841031074523935,-0.015371387824416159,0.03145956,-0.016493361,10
8.6705322265625,-1.4189774990081787,-4.588602066040039,-0.004889797884970903,0.04153884,-0.03268129,10
8.694380760192871,-1.407462477684021,-4.574626445770264,0.007701244205236434,0.027183503,-0.032375857,10
8.730718612670897,-1.4115636348724363,-4.553389549255371,0.020093195140361786,0.01740966,-0.024740042,10
8.757335662841799,-1.4221129417419434,-4.528167724609375,0.02504667639732361,0.013744468,-0.02107485,10
8.770810127258299,-1.4280370473861694,-4.502013206481934,0.024977710098028183,0.005192355,-0.013744468,10
8.772258758544924,-1.42702317237854,-4.483792304992676,0.0227815005928278,0.019547688,-0.0027488936,10
8.768365859985353,-1.4264153242111206,-4.470961570739746,0.022676547989249233,0.029321533,-0.004886922,10
8.768185615539549,-1.431355118751526,-4.461036682128906,0.024086069315671917,0.04062254,-0.0036651916,10
8.77117919921875,-1.4318989515304563,-4.4426093101501465,0.025081712752580643,0.03848451,0.0061086523,10
8.780850410461426,-1.4285131692886353,-4.4323153495788565,0.022963162511587143,0.03940081,0.01282817,10
8.788477897644043,-1.4359055757522583,-4.430360317230225,0.0190375205129385,0.035430185,0.014660766,10
8.790040969848633,-1.4390379190444946,-4.4368085861206055,0.012149602174758913,0.003970624,0.016187929,10
8.79907512664795,-1.436918020248413,-4.445563793182373,0.006064115557819605,0.0070249503,0.010079277,10
8.80125617980957,-1.442601442337036,-4.459714412689209,0.002716888440772891,0.008552114,0.01160644,10
8.794191360473633,-1.4549169540405271,-4.475600719451903,0.001928427489474416,0.006414085,0.010079277,10
8.781900405883789,-1.4672749042510986,-4.486302375793457,0.001282731769606471,-0.009162978,0.008552114,10
8.769426345825195,-1.4775583744049072,-4.497904300689697,0.0006681346567347647,0.019547688,0.0030543262,10
8.763741493225098,-1.48931086063385,-4.499248027801514,-0.0008642693283036351,0.015271631,-0.0030543262,10
8.762679100036621,-1.501639485359192,-4.494074821472168,-0.0047792112454772,0.0125227375,0.0015271631,10
8.77116584777832,-1.4962687492370603,-4.489560604095459,-0.00753619708120823,0.018020526,-0.004581489,10
8.774753570556639,-1.4892930984497068,-4.477705955505371,-0.009157716296613216,0.019242255,0.0012217305,10
8.782083511352539,-1.476496338844299,-4.463746070861816,-0.00966297835111618,0.002443461,-0.011911872,10
8.78919506072998,-1.4605168104171753,-4.445465087890625,-0.009690627455711365,0.007941248,-0.003970624,10
8.802271842956543,-1.4513238668441772,-4.432118892669678,-0.009563982486724855,0.016187929,-0.009773844,10
8.818596839904785,-1.45173180103302,-4.419677257537842,-0.009433049708604813,0.0030543262,-0.008552114,10
8.833066940307617,-1.4515482187271118,-4.409353256225586,-0.009808377362787724,-0.004276057,-0.0015271631,10
8.841487884521484,-1.4525573253631592,-4.405338764190674,-0.010596188716590405,0.0027488936,0.0009162979,10
8.840492248535156,-1.4453428983688354,-4.402152061462402,-0.010895353741943836,0.008246681,0.003970624,10
8.837584495544434,-1.4368963241577148,-4.3987579345703125,-0.012519747950136663,0.006414085,0.010995574,10
8.837711334228516,-1.4316458702087402,-4.397111892700194,-0.016849607229232788,0.01282817,0.015882496,10
8.834778785705566,-1.4269568920135498,-4.406007766723633,-0.02196248434484005,0.01038471,0.020463986,10
8.823265075683594,-1.418894648551941,-4.41608476638794,-0.0241533387452364,0.013744468,0.013744468,10
8.80993938446045,-1.4128485918045044,-4.424070358276367,-0.024016564711928368,0.02565634,0.009773844,10
8.80224609375,-1.414223313331604,-4.432519435882568,-0.02331746183335781,0.023518313,0.014966198,10
8.801380157470703,-1.427390694618225,-4.4409027099609375,-0.022165093570947647,0.010690141499999998,0.010079277,10
8.808956146240234,-1.4391803741455078,-4.434014320373535,-0.019985336810350415,-0.002443461,0.010079277,10
8.82133674621582,-1.4564026594161987,-4.42437219619751,-0.01887752115726471,0.013133603,0.010995574,10
8.830743789672852,-1.4746097326278689,-4.407646179199219,-0.0173318013548851,0.0018325958,0.011911872,10
8.834010124206543,-1.4881033897399902,-4.392528057098389,-0.016300277784466743,-0.0030543262,0.004276057,10
8.837522506713867,-1.49468195438385,-4.3811373710632315,-0.015010219998657703,-0.007330383,-0.00030543262000000003,10
8.83739948272705,-1.492377758026123,-4.372410774230957,-0.014628905802965162,-0.004276057,0.0033597588,10
8.841750144958496,-1.4835143089294434,-4.368220806121826,-0.01589467562735081,-0.006414085,0.013744468,10
8.845966339111328,-1.4671833515167236,-4.368957042694092,-0.015787141397595406,0.0070249503,0.015271631,10
8.843623161315918,-1.4583414793014526,-4.370490550994873,-0.016518909484148026,-0.003970624,0.012217305,10
8.838138580322266,-1.4465911388397217,-4.377265930175781,-0.017453229054808617,-0.008857545999999999,0.01740966,10
8.835223197937012,-1.4350558519363403,-4.3821802139282235,-0.016486046835780144,-0.0027488936,0.013744468,10
8.839550971984863,-1.431867599487305,-4.383518695831299,-0.015807202085852626,-0.010079277,0.013439035,10
8.841425895690918,-1.4384126663208008,-4.387902736663818,-0.01640416868031025,-0.01038471,0.016798794,10
8.836533546447754,-1.4428160190582275,-4.401239395141602,-0.018347322940826416,-0.021685716,0.020158553,10
8.8270845413208,-1.4389619827270508,-4.416405200958252,-0.02021882869303226,-0.029932396,0.019547688,10
8.820030212402344,-1.4347914457321167,-4.4258079528808585,-0.021705659106373787,-0.007941248,0.014049901000000002,10
8.81186294555664,-1.4346070289611816,-4.430132865905762,-0.02203953079879284,0.01038471,0.021380283,10
8.805994987487793,-1.4437072277069092,-4.444182395935059,-0.022098131477832798,0.01160644,0.026572637000000003,10
8.798205375671387,-1.466207504272461,-4.451806545257568,-0.02185798622667789,0.0125227375,0.018020526,10
8.788228988647461,-1.4900583028793335,-4.455813407897949,-0.02278958447277546,-0.00030543262000000003,0.01985312,10
8.78794002532959,-1.513058304786682,-4.455244064331055,-0.02334566414356232,0.008552114,0.014049901000000002,10
8.78787899017334,-1.5224021673202517,-4.446042060852051,-0.023661993443965912,0.0012217305,0.005192355,10
8.79010009765625,-1.522651195526123,-4.434025764465332,-0.023310495540499687,0.00061086525,-0.01038471,10
8.793062210083008,-1.519460916519165,-4.423553943634033,-0.02170463651418686,-0.009162978,-0.010995574,10
8.799556732177734,-1.5053479671478271,-4.412717819213867,-0.0208036657422781,-0.022602014,-0.0012217305,10
8.808698654174805,-1.4832417964935305,-4.40019416809082,-0.019497917965054512,-0.0067195175,0.0012217305,10
8.818635940551758,-1.4564253091812134,-4.388685703277588,-0.01837638579308987,-0.010690141499999998,0.010079277,10
8.83240032196045,-1.4414654970169067,-4.364397048950194,-0.0182556975632906,-0.020463986,0.019242255,10
8.84577465057373,-1.4324628114700315,-4.345378398895264,-0.02013963833451271,-0.011911872,0.015577064,10
8.857033729553223,-1.4289902448654177,-4.3344926834106445,-0.02155546471476555,-0.021380283,0.020463986,10
8.867539405822754,-1.4351073503494265,-4.343141555786134,-0.02338637970387936,-0.01740966,0.018936822,10
8.874981880187988,-1.4417922496795654,-4.349515438079834,-0.025250967592000958,-0.016798794,0.022907447,10
8.875781059265137,-1.4482123851776123,-4.360152244567871,-0.02842857502400875,-0.022296581,0.023518313,10
8.859053611755371,-1.451136350631714,-4.384093761444092,-0.031265053898096085,-0.022602014,0.02443461,10
8.84581470489502,-1.4427353143692017,-4.40943717956543,-0.03326738625764847,-0.01740966,0.014660766,10
8.825127601623535,-1.4427300691604614,-4.42736291885376,-0.03305783122777939,-0.0012217305,0.010079277,10
8.808610916137695,-1.4557036161422732,-4.446069717407227,-0.03087300062179565,0.0012217305,0.011911872,10
8.799007415771484,-1.4765931367874146,-4.460871696472168,-0.02936292067170143,-0.009468411,0.014049901000000002,10
8.794415473937987,-1.493411660194397,-4.470681667327881,-0.027149034664034843,-0.018325957,0.009162978,10
8.786311149597168,-1.5057910680770874,-4.473426818847656,-0.025317445397377014,-0.016493361,0.0076358155,10
8.77802562713623,-1.5135328769683838,-4.476651668548584,-0.024179644882678986,-0.01160644,-0.0070249503,10
8.774893760681152,-1.511979341506958,-4.472922801971436,-0.02325477823615074,-0.008552114,-0.0012217305,10
8.77842903137207,-1.5053083896636963,-4.468846797943115,-0.021520795300602916,-0.008246681,-0.0021380284,10
8.784004211425781,-1.5006520748138428,-4.478026390075684,-0.02190140821039677,-0.016798794,0.003970624,10
8.791895866394043,-1.4890762567520142,-4.48255729675293,-0.0221655685454607,-0.01160644,0.010995574,10
8.798676490783691,-1.4715993404388428,-4.479057312011719,-0.02318076603114605,-0.0030543262,0.014966198,10
8.799636840820312,-1.4621632099151611,-4.475997447967528,-0.024724317714571956,0.0009162979,0.018936822,10
8.805559158325195,-1.4579020738601685,-4.477598667144775,-0.025942914187908173,-0.0067195175,0.016493361,10
8.806562423706055,-1.46406090259552,-4.472800254821777,-0.02814158797264099,-0.006414085,0.011911872,10
8.810657501220703,-1.4770253896713257,-4.467056751251222,-0.026928693056106567,0.0015271631,0.013744468,10
8.81442642211914,-1.4803611040115356,-4.4634108543396,-0.02534590288996696,-0.0012217305,0.004276057,10
8.815651893615723,-1.483040690422058,-4.463125228881836,-0.024348756298422813,-0.00061086525,0.004886922,10
8.811616897583008,-1.4763927459716797,-4.465578556060791,-0.0243532769382,-0.004276057,0.0033597588,10
8.805038452148438,-1.4619798660278318,-4.478433609008789,-0.024657303467392918,0.008857545999999999,-0.00061086525,10
8.801031112670898,-1.4471374750137331,-4.489869117736816,-0.024398623034358025,0.019242255,0.00030543262000000003,10
8.796030044555664,-1.446205735206604,-4.496375560760498,-0.02289562858641148,0.023518313,0.010079277,10
8.79476261138916,-1.460445761680603,-4.4981112480163565,-0.020869536325335503,0.019547688,0.011301007,10
8.789990425109862,-1.4805957078933716,-4.494202136993408,-0.018397551029920575,0.014966198,0.005497787,10
8.788333892822267,-1.4946044683456419,-4.484326362609863,-0.015828974545001984,0.028405234,0.004276057,10
8.793238639831543,-1.4983131885528564,-4.47353982925415,-0.01419392414391041,0.019547688,0.0030543262,10
8.79289722442627,-1.49285626411438,-4.458447456359863,-0.01469225250184536,0.021685716,-0.010690141499999998,10
8.796966552734375,-1.487425684928894,-4.44857120513916,-0.014467811211943625,0.021380283,-0.004886922,10
8.80776596069336,-1.4843984842300415,-4.4468350410461435,-0.014486409723758698,0.013439035,0.002443461,10
8.814212799072266,-1.4804644584655762,-4.4408302307128915,-0.014096607454121113,0.014660766,0.0076358155,10
8.814936637878418,-1.469623565673828,-4.434184074401856,-0.013462603092193605,0.00580322,0.0061086523,10
8.816312789916992,-1.4608497619628906,-4.431689739227295,-0.013703259639441969,0.00580322,0.014660766,10
8.818939208984375,-1.4602445363998413,-4.424589157104492,-0.014218556694686413,0.013439035,0.010995574,10
8.824801445007324,-1.4672592878341677,-4.425523281097412,-0.01639479771256447,0.022907447,0.0070249503,10
8.828686714172363,-1.4823752641677856,-4.4350314140319815,-0.017920427024364468,0.013744468,0.009773844,10
8.825153350830078,-1.4922077655792236,-4.441925048828125,-0.01670580729842186,0.021685716,-0.00030543262000000003,10
8.81866455078125,-1.4914200305938718,-4.444763660430908,-0.015042440965771675,0.015271631,0.00061086525,10
8.813218116760254,-1.485173583030701,-4.444646835327148,-0.014996550977230072,0.018020526,-0.005497787,10
8.808018684387207,-1.4793916940689087,-4.447291374206543,-0.01611905731260776,0.011301007,-0.00061086525,10
8.807873725891113,-1.4660325050354004,-4.443838596343994,-0.017041761428117752,-0.0021380284,-0.0033597588,10
8.806950569152832,-1.4631408452987669,-4.44089937210083,-0.017631344497203827,0.008246681,-0.0015271631,10
8.804929733276367,-1.468625545501709,-4.44246244430542,-0.017229575663805008,0.0036651916,0.0030543262,10
8.794477462768555,-1.476126194000244,-4.438691139221191,-0.016204962506890297,0.024740042,0.013744468,10
8.784209251403809,-1.4796388149261477,-4.438854217529297,-0.01392579823732376,0.020158553,0.0076358155,10
8.780916213989258,-1.4817588329315186,-4.434402942657472,-0.013520145788788795,0.022602014,0.0036651916,10
8.781069755554201,-1.4828401803970337,-4.428893566131592,-0.014826511964201929,0.031154128,0.0015271631,10
8.786999702453612,-1.4840550422668457,-4.424527645111084,-0.016179582104086876,0.017715093,0.0033597588,10
8.79715633392334,-1.4877715110778809,-4.419320583343506,-0.016532814130187038,0.015882496,0.0076358155,10
8.809839248657227,-1.4883960485458374,-4.418230056762695,-0.016199732199311256,-0.0015271631,0.007941248,10
8.819125175476074,-1.4827297925949097,-4.40924596786499,-0.01605539582669735,-0.009162978,0.0009162979,10
8.82252025604248,-1.4747145175933838,-4.399796009063722,-0.016165420413017273,0.00030543262000000003,0.0033597588,10
8.823259353637695,-1.4662554264068604,-4.393763065338135,-0.01724342629313469,0.011911872,0.0067195175,10
8.824967384338379,-1.4562196731567385,-4.3916215896606445,-0.01926693320274353,0.016798794,0.0061086523,10
8.830310821533203,-1.4513796567916868,-4.388216972351073,-0.02164420858025551,0.008857545999999999,0.005497787,10
8.839265823364258,-1.4574100971221924,-4.3868117332458505,-0.022479316219687462,0.010079277,0.011911872,10
8.839816093444824,-1.463986873626709,-4.386994361877441,-0.023025661706924442,0.004276057,0.008246681,10
8.842519760131836,-1.4641202688217163,-4.382555007934569,-0.023458704352378845,0.00061086525,0.012217305,10
8.841434478759766,-1.4656338691711426,-4.383087158203125,-0.023688336834311485,-0.00061086525,0.005192355,10
8.836833000183105,-1.46534264087677,-4.384745121002196,-0.023769479244947437,-0.010995574,0.0018325958,10
8.834131240844727,-1.460876703262329,-4.390895366668701,-0.02330594509840012,-0.0143553335,0.0027488936,10
8.83780288696289,-1.45684015750885,-4.400894165039063,-0.02284896001219749,0.0036651916,-0.0012217305,10
8.831743240356445,-1.463691234588623,-4.404892444610597,-0.021420734003186226,0.0033597588,0.005497787,10
8.827595710754395,-1.4692937135696411,-4.409867286682129,-0.0206022784113884,0.0125227375,0.0033597588,10
8.823161125183105,-1.472266674041748,-4.410216808319092,-0.019466858357191086,0.010079277,0.021991149,10
8.823751449584961,-1.4786946773529053,-4.406422138214111,-0.019033433869481087,0.011301007,0.016493361,10
8.826066970825195,-1.4791579246520996,-4.4029388427734375,-0.020088251680135727,0.013133603,0.010995574,10
8.832526206970215,-1.4779459238052368,-4.391958236694337,-0.02119414135813713,0.009773844,-0.0033597588,10
8.837552070617676,-1.4824820756912231,-4.380113124847412,-0.01965134218335152,-0.01282817,0.005192355,10
8.839418411254883,-1.4877606630325315,-4.371133804321288,-0.0193126741796732,-0.011911872,0.005192355,10
8.838805198669434,-1.4920969009399414,-4.366576194763184,-0.019085017964243892,-0.02076942,0.005192355,10
8.834774017333984,-1.4932372570037842,-4.3682861328125,-0.020454859361052517,-0.014049901000000002,0.010690141499999998,10
8.826044082641602,-1.491150140762329,-4.373973369598389,-0.021408362314105037,-0.0061086523,0.01740966,10
8.820024490356445,-1.4888969659805298,-4.377509593963623,-0.023740647360682487,-0.005192355,0.018325957,10
8.819499969482422,-1.489104151725769,-4.3772850036621085,-0.026548955589532845,-0.02107485,0.01863139,10
8.820472717285156,-1.4841275215148926,-4.376323223114014,-0.028433889150619507,-0.01740966,0.016493361,10
8.818309783935547,-1.4812771081924438,-4.3805832862853995,-0.029051635414361957,-0.004276057,0.011911872,10
8.813506126403809,-1.4749103784561155,-4.390878200531007,-0.02813861519098282,-0.008246681,0.016493361,10
8.81120777130127,-1.4703227281570437,-4.398043155670166,-0.02856682986021042,-0.009773844,0.014049901000000002,10
8.809993743896484,-1.4715375900268557,-4.402795314788818,-0.0296526812016964,-0.016187929,0.009773844,10
8.804081916809082,-1.4705508947372437,-4.403827667236328,-0.030037956312298775,-0.022296581,0.011301007,10
8.806571006774902,-1.4611434936523438,-4.412487983703613,-0.03191909566521645,-0.03176499,0.0125227375,10
8.808409690856934,-1.4492884874343872,-4.42620325088501,-0.03335859254002571,-0.01160644,0.010690141499999998,10
8.800921440124512,-1.4461441040039062,-4.435041427612305,-0.033335182815790176,-0.003970624,0.017715093,10
8.797748565673828,-1.4509273767471311,-4.444737911224365,-0.033388912677764886,0.004581489,0.025350908,10
8.797616958618164,-1.4642984867095947,-4.453505039215088,-0.03306195139884949,-0.008857545999999999,0.020158553,10
8.794975280761719,-1.4819194078445437,-4.457322597503662,-0.03140893206000328,-0.0070249503,0.01038471,10
8.79690170288086,-1.493635177612305,-4.448242664337158,-0.030614146962761882,-0.007330383,0.0021380284,10
8.802764892578125,-1.4993321895599363,-4.436668395996094,-0.029926953837275505,-0.01740966,0.0036651916,10
8.809311866760254,-1.5010331869125366,-4.428276538848877,-0.03053152374923229,-0.012217305,0.008246681,10
8.81425952911377,-1.4936367273330688,-4.420907974243164,-0.03146743029356003,-0.02076942,0.007941248,10
8.824847221374512,-1.4801472425460815,-4.420404434204102,-0.031788956373929984,-0.025350908,0.017715093,10
8.824349403381348,-1.46621572971344,-4.419801235198975,-0.031352315098047256,-0.021380283,0.02321288,10
8.820502281188965,-1.4549298286437988,-4.41973352432251,-0.03168799355626106,-0.0143553335,0.016798794,10
8.819334983825684,-1.4469823837280271,-4.415363788604736,-0.032353535294532776,-0.015882496,0.019547688,10
8.821540832519531,-1.4502787590026855,-4.413676738739014,-0.034790623933076865,-0.010079277,0.014966198,10
8.824041366577148,-1.4637960195541382,-4.4228858947753915,-0.03568095341324806,-0.01160644,0.018325957,10
8.821175575256348,-1.4762699604034424,-4.439390182495117,-0.035648055374622345,-0.017715093,0.017104227,10
8.813404083251953,-1.4854063987731934,-4.453363418579102,-0.035327550023794174,-0.020158553,0.013744468,10
8.80462646484375,-1.48753023147583,-4.459181785583496,-0.036434389650821686,-0.019547688,0.016187929,10
8.799943923950195,-1.491159439086914,-4.460577964782715,-0.03663571551442146,-0.01740966,0.009773844,10
8.79512882232666,-1.4946857690811155,-4.470990180969238,-0.03660720959305763,-0.015882496,0.017104227,10
8.789443969726562,-1.4875376224517822,-4.4777679443359375,-0.037090715020895004,-0.033292156,0.011911872,10
8.784698486328125,-1.4788851737976074,-4.4850592613220215,-0.03876448050141335,-0.005192355,0.007941248,10
8.774205207824707,-1.480224370956421,-4.492786884307861,-0.03724746406078338,0.002443461,0.011911872,10
8.760272026062013,-1.488569259643555,-4.4986958503723145,-0.03641251474618912,0.009468411,0.013133603,10
8.754704475402832,-1.497306227684021,-4.500847816467285,-0.035048868507146835,0.004886922,0.016798794,10
8.75616455078125,-1.500051975250244,-4.496720790863037,-0.031221486628055576,0.0027488936,0.0076358155,10
8.76249885559082,-1.5003621578216553,-4.4911231994628915,-0.02760319225490093,0.010995574,0.014966198,10
8.773116111755371,-1.4930154085159302,-4.478811264038086,-0.026492664590477943,0.013744468,0.00061086525,10
8.781537055969237,-1.4833642244338991,-4.469121932983398,-0.026461254805326462,0.01863139,0.0012217305,10
8.78685188293457,-1.483500599861145,-4.469087600708008,-0.02698359452188015,0.010079277,0.004276057,10
8.787104606628418,-1.480426788330078,-4.473330497741699,-0.025593413040041924,0.010079277,0.014049901000000002,10
8.785601615905763,-1.4675353765487669,-4.479729175567627,-0.02426907978951931,0.0070249503,0.008552114,10
8.783688545227049,-1.4580594301223757,-4.473081588745117,-0.023973606526851654,0.011301007,0.0030543262,10
8.784174919128418,-1.4615737199783323,-4.466490745544434,-0.02445131726562977,0.015882496,0.008246681,10
8.788444519042969,-1.4714311361312866,-4.461386203765869,-0.023935914039611816,0.020463986,0.007941248,10
8.792044639587402,-1.4819490909576416,-4.465089321136475,-0.02249281853437424,0.01740966,0.008552114,10
8.790816307067871,-1.4929848909378052,-4.472543716430664,-0.020851077511906624,0.019242255,0.012217305,10
8.787106513977049,-1.4967437982559204,-4.479039669036865,-0.02101326920092106,0.008857545999999999,0.009162978,10
8.788722991943361,-1.4896515607833862,-4.476903438568115,-0.02025792002677917,0.006414085,-0.004581489,10
8.791654586791992,-1.4794263839721682,-4.471105575561523,-0.018974237143993374,0.0012217305,0.0070249503,10
8.792884826660156,-1.4830490350723269,-4.466491222381592,-0.018759662285447117,-0.014966198,0.018936822,10
8.794903755187987,-1.493559956550598,-4.4753737449646,-0.0227435901761055,-0.02107485,0.018325957,10
8.796854019165039,-1.5077407360076904,-4.485743522644043,-0.02511308901011944,-0.013744468,0.015577064,10
8.792105674743652,-1.517770528793335,-4.4936299324035645,-0.025951722636818886,-0.008552114,0.010995574,10
8.788771629333496,-1.5186465978622437,-4.501870632171631,-0.024718359112739563,0.010995574,0.0070249503,10
8.775262832641603,-1.5152533054351809,-4.5041704177856445,-0.02291670069098473,0.025045475,-0.00030543262000000003,10
8.772407531738281,-1.513031840324402,-4.499185562133789,-0.02108941413462162,0.029321533,0.00030543262000000003,10
8.77459716796875,-1.5082947015762331,-4.497488021850586,-0.019592704251408573,0.021685716,-0.0061086523,10
8.771621704101562,-1.5039337873458862,-4.494231700897217,-0.018566731363534927,0.016187929,-0.00030543262000000003,10
8.768050193786621,-1.5038079023361206,-4.491762638092041,-0.017966512590646744,0.016493361,0.0036651916,10
8.768424987792969,-1.5039252042770386,-4.489768981933594,-0.016961745917797092,0.011911872,0.0009162979,10
8.767722129821777,-1.5008485317230225,-4.482066631317139,-0.016831614077091217,0.016798794,0.0070249503,10
8.763856887817383,-1.4896159172058103,-4.475644588470459,-0.01702997460961342,0.014049901000000002,0.0033597588,10
8.765899658203125,-1.481355905532837,-4.468865394592285,-0.01721861958503723,0.021685716,0.004886922,10
8.764883995056152,-1.481621503829956,-4.4604105949401855,-0.01803234219551086,0.025350908,0.0061086523,10
8.777275085449219,-1.4865372180938718,-4.452800273895264,-0.01961150392889976,0.01740966,0.005192355,10
8.78420352935791,-1.4952486753463743,-4.448656558990479,-0.020674627274274826,0.014049901000000002,0.008552114,10
8.788023948669434,-1.4978801012039185,-4.44260835647583,-0.01951284147799015,0.013439035,0.0012217305,10
8.792953491210938,-1.4972398281097412,-4.443182468414307,-0.017562409862875942,0.018325957,0.006414085,10
8.796327590942383,-1.4905104637145996,-4.439176559448242,-0.017072392627596855,0.008552114,0.007330383,10
8.801484107971191,-1.4775633811950684,-4.429258346557617,-0.01670175977051258,-0.003970624,-0.0018325958,10
8.811532974243164,-1.4757905006408691,-4.41966438293457,-0.018010364845395088,-0.02107485,0.0009162979,10
8.821706771850586,-1.476122498512268,-4.406513690948486,-0.02145272120833397,-0.034208454,0.0076358155,10
8.832290649414062,-1.4719921350479126,-4.402352333068848,-0.026272816583514214,-0.043066,0.01160644,10
8.83759593963623,-1.4717499017715454,-4.400115489959717,-0.030809270218014717,-0.049785517,0.017715093,10
8.838122367858887,-1.4680384397506714,-4.398709774017334,-0.03525182232260704,-0.05681047,0.018936822,10
8.837638854980469,-1.47087299823761,-4.404128551483153,-0.038806360214948654,-0.08277224,0.018325957,10
8.837302207946777,-1.4821432828903198,-4.405396938323975,-0.0435737669467926,-0.089491755,0.01985312,10
8.829326629638672,-1.5000966787338257,-4.411245822906494,-0.049989871680736535,-0.10934488,0.015882496,10
8.821723937988281,-1.5150138139724731,-4.421514987945557,-0.05811678245663642,-0.11301007,0.01282817,10
8.811670303344727,-1.5260833501815796,-4.445324897766113,-0.06521091610193253,-0.09682214,-0.00030543262000000003,10
8.79490852355957,-1.5403705835342407,-4.465607166290283,-0.0732811689376831,-0.10293079,-0.0076358155,10
8.77459716796875,-1.5585722923278809,-4.49067497253418,-0.07561906427145004,-0.064751714,-0.008246681,10
8.75397777557373,-1.5519570112228394,-4.521104335784912,-0.07230301201343536,-0.033292156,-0.010079277,10
8.728684425354004,-1.5214071273803709,-4.542564392089844,-0.06350349634885788,-0.010995574,-0.01282817,10
8.711908340454103,-1.472018480300903,-4.562187671661377,-0.05241167917847634,-0.013744468,-0.00580322,10
8.701354026794434,-1.4276793003082275,-4.587152004241943,-0.046179253607988364,-0.013744468,-0.005192355,10
8.698758125305176,-1.4100673198699951,-4.611867427825928,-0.045376665890216834,-0.030543262,0.010995574,10
8.690384864807129,-1.404300093650818,-4.623272895812988,-0.04934336617588997,-0.05009095,0.021685716,10
8.685544013977049,-1.3964171409606934,-4.630398750305176,-0.054141629487276084,-0.08552113,0.029626964,10
8.68873405456543,-1.3926522731781006,-4.631688594818115,-0.06514637172222137,-0.10720685,0.013439035,10
8.697261810302733,-1.39485764503479,-4.634234428405762,-0.08352651447057724,-0.12767084,0.004276057,10
8.704306602478027,-1.4060159921646118,-4.644724845886231,-0.09808357805013657,-0.100792766,-0.013133603,10
8.704580307006836,-1.421231985092163,-4.655282020568848,-0.09750278294086456,-0.058948494,-0.012217305,10
8.70167350769043,-1.4275712966918943,-4.650505542755127,-0.0775485634803772,-0.025350908,-0.0070249503,10
8.704695701599121,-1.4260916709899902,-4.632470607757568,-0.05571330711245537,0.021380283,-0.016493361,10
8.709973335266112,-1.4360392093658447,-4.627151012420653,-0.04386676475405693,0.042455133,-0.01282817,10
8.70847225189209,-1.4397639036178589,-4.6421847343444815,-0.0387619286775589,0.03756821,0.0070249503,10
8.684097290039062,-1.4232149124145508,-4.6783857345581055,-0.03272800147533417,0.004886922,0.02687807,10
8.656563758850098,-1.383649826049805,-4.713749885559082,-0.029735406860709187,-0.037873644,0.036957346,10
8.645487785339355,-1.3487101793289185,-4.726002216339111,-0.04327502474188805,-0.07147124,0.023518313,10
8.657610893249513,-1.345948576927185,-4.734169006347656,-0.06984182447195053,-0.124311075,0.004276057,10
8.67255973815918,-1.3705297708511353,-4.74627161026001,-0.08272799104452133,-0.07360926,-0.004276057,10
8.673895835876465,-1.3888009786605835,-4.732034206390381,-0.07049190253019333,-0.030848695,-0.016798794,10
8.674816131591799,-1.396120548248291,-4.687355995178223,-0.03921366110444069,0.018936822,-0.029321533,10
8.677624702453612,-1.4124047756195068,-4.6475791931152335,-0.015518159605562687,0.04886922,-0.03359759,10
8.678815841674805,-1.4140108823776243,-4.645343780517578,-0.010963107459247112,0.057421334,-0.021991149,10
8.676115036010742,-1.3904762268066406,-4.687433242797852,-0.013187062926590444,0.035430185,0.011301007,10
8.657046318054201,-1.347903847694397,-4.748779773712158,-0.016526451334357258,-0.035430185,0.040011674,10
8.652297019958496,-1.2949700355529783,-4.781741142272949,-0.03152487054467201,-0.07788532,0.052534413,10
8.663132667541504,-1.2746740579605105,-4.7838287353515625,-0.049770504236221313,-0.07849618,0.039095376,10
8.674345970153809,-1.301083207130432,-4.75869607925415,-0.05271079018712044,-0.022602014,0.019547688,10
8.687310218811035,-1.333437204360962,-4.706301212310791,-0.03166613727807999,-0.00580322,-0.002443461,10
8.700536727905272,-1.358360767364502,-4.646828651428223,0.002600518986582756,0.05100725,-0.02107485,10
8.704329490661621,-1.382933497428894,-4.627588272094727,0.0286983922123909,0.10293079,-0.02565634,10
8.691557884216309,-1.392608642578125,-4.6681342124938965,0.03820670396089554,0.108123146,-0.014966198,10
8.648725509643555,-1.3885198831558228,-4.743846893310547,0.03959357365965843,0.08674286,0.029932396,10
8.603415489196777,-1.371349573135376,-4.817418575286865,0.03301725909113884,0.044898596,0.037873644,10
8.57936954498291,-1.3671212196350098,-4.853623867034912,0.008357204496860504,-0.004581489,0.038179077,10
8.582630157470701,-1.4004968404769895,-4.859232902526856,-0.01954491436481476,0.01740966,0.026267206,10
8.593764305114746,-1.4622292518615725,-4.846399307250977,-0.03303666040301323,0.05222898,0.022907447,10
8.606958389282228,-1.5161129236221311,-4.825695991516113,-0.02686004154384136,0.046731193,0.004276057,10
8.613346099853517,-1.553433537483215,-4.792656421661377,-0.012205841951072216,0.05772676700000001,-0.020463986,10
8.616069793701174,-1.578234076499939,-4.757866859436035,0.0015223455848172307,0.084910266,-0.040011674,10
8.615229606628418,-1.5842726230621338,-4.742713451385498,0.00908807385712862,0.13133603,-0.034208454,10
8.590974807739258,-1.5510104894638062,-4.747451305389403,0.018038416281342503,0.17928895,-0.00580322,10
8.569692611694336,-1.4841679334640503,-4.748483657836914,0.0255501139909029,0.21960606,0.006414085,10
8.572464942932129,-1.399801254272461,-4.738091468811035,0.028584485873579982,0.22235495,0.027183503,10
8.593301773071289,-1.3339347839355469,-4.708006381988525,0.0261170007288456,0.2125811,0.04337143,10
8.638964653015138,-1.3207054138183594,-4.6540374755859375,0.019369574263691902,0.18967366,0.04795292,10
8.698905944824219,-1.3264824151992798,-4.601662635803223,0.006697725038975477,0.12308934,0.054061573,10
8.748235702514647,-1.339167833328247,-4.547764301300049,-0.007021960336714983,0.0888809,0.056199603,10
8.78116512298584,-1.3344192504882812,-4.507272243499756,-0.01854756288230419,0.07238753,0.05222898,10
8.804877281188965,-1.3096615076065063,-4.476556301116943,-0.023707857355475426,0.07269296,0.036957346,10
8.825148582458496,-1.2892664670944214,-4.447888374328613,-0.025821486487984657,0.07971791,0.011911872,10
