timestamp,rel_time,acc_x,acc_y,acc_z,gyro_x,gyro_y,gyro_z,azimuth,pitch,roll,label
0.0,0.0,0.0,0.0,0.0,0.0,0.09315695,0.01863139,236.5038,-86.289734,2.991727,STD
44558430000.0,1.5158524547587149e-05,-0.0018810387700796127,0.029452964663505554,3.26307381328661e-05,-1.553047331981361e-05,0.09468412,0.012217305,236.44672000000003,-86.325195,2.93474,STD
133012120000.0,7.488972914870828e-05,-0.005623576231300831,0.0879317969083786,-3.367991666891612e-05,-4.999817974749021e-05,0.10842858,0.019547688,236.38036,-86.35794,2.8812847,STD
264058600000.0,0.00020741620392072946,-0.011180806905031204,0.1745864599943161,-0.0003266642743255943,-6.582026981050149e-05,0.112399206,0.018325957,236.31707999999998,-86.39495,2.8247614,STD
435802340000.0,0.00043960585026070476,-0.018480559810996056,0.28817448019981384,-0.0009693899773992598,-1.1277208614046685e-05,0.122478485,0.018936822,236.2486,-86.42885600000001,2.7716667999999998,STD
645820300000.0,0.0007965012919157743,-0.027427926659584045,0.42710402607917786,-0.002078031888231635,1.993601836147718e-05,0.11942416,0.010690141499999998,236.1835,-86.462715,2.7168121,STD
891242740000.0,0.0012995615834370255,-0.0379081591963768,0.5894867181777954,-0.0037539154291152954,0.0001879053597804159,0.1255328,0.0012217305,236.11356,-86.49835999999999,2.6625493,STD
1168844000000.0,0.001968751195818186,-0.04979109764099121,0.7731984257698059,-0.006092551629990339,0.0002749859413597733,0.1337795,-0.004276057,236.04456000000002,-86.53068499999999,2.6080964,STD
1475139300000.0,0.0028178393840789795,-0.06293389946222305,0.9759414792060852,-0.009162632748484612,0.0008480791002511978,0.14721853,0.004276057,235.97295,-86.56706,2.5559034,STD
1806481400000.0,0.003860209370031953,-0.07718675583600998,1.1953104734420776,-0.013031505979597569,0.0010533406166359782,0.14905111,-0.002443461,235.9032,-86.598114,2.4988687,STD
2159152700000.0,0.005104352720081806,-0.09239552915096283,1.4288519620895386,-0.017745042219758034,0.0015515807317569852,0.15821409,-0.010690141499999998,235.82818999999998,-86.6356,2.444607,STD
2529451300000.0,0.006558092776685953,-0.10840652137994766,1.6741222143173218,-0.023346124216914177,0.0020392080768942833,0.15454891,-0.010690141499999998,235.75702,-86.66581,2.3919063,STD
2913764600000.0,0.008220291696488857,-0.12506724894046783,1.9287335872650146,-0.029837800189852715,0.0024978364817798138,0.16004670000000001,-0.006414085,235.68142999999998,-86.69736,2.3388982000000005,STD
3308632700000.0,0.010092563927173615,-0.14223246276378632,2.1904001235961914,-0.037234947085380554,0.0031602797098457813,0.16737708,-0.009162978,235.60717999999997,-86.730125,2.2849212000000003,STD
3710798300000.0,0.012172465212643147,-0.15976426005363464,2.456968069076538,-0.04553404077887535,0.0036865733563899994,0.16004670000000001,-0.0030543262,235.53612999999999,-86.75652,2.2357616,STD
4117243400000.0,0.014456926845014095,-0.17753466963768005,2.7264418601989746,-0.05472826212644577,0.004185175523161888,0.15088372,0.0018325957999999999,235.46436,-86.78421999999999,2.186353,STD
4525215000000.0,0.0169379785656929,-0.19542546570301056,2.9969992637634277,-0.06478852033615112,0.004442912060767412,0.15363261,0.010995574,235.3919,-86.806564,2.140743,STD
4932239400000.0,0.019611360505223274,-0.2133312225341797,3.2670035362243652,-0.0757015123963356,0.004448350053280592,0.14569137,0.011911871999999999,235.32587,-86.828156,2.0952344,STD
5336126000000.0,0.022466782480478287,-0.23115678131580353,3.535003662109375,-0.08742662519216537,0.004453746136277914,0.13652839,0.010690141499999998,235.293534730623,-86.83800378690171,2.07453737416383,STD
5734967000000.0,0.025494510307908058,-0.24881894886493683,3.799734115600586,-0.09992507100105286,0.004726631101220846,0.13194689,0.015577064,235.26129,-86.847824,2.0538983,STD
6127122600000.0,0.02868429571390152,-0.2662458121776581,4.060108661651611,-0.11315519362688065,0.004027573391795158,0.1142318,0.014966198,235.20084,-86.85938,2.0124438000000002,STD
6511214000000.0,0.03202802315354347,-0.28337693214416504,4.315212249755859,-0.12708419561386108,0.0034097733441740274,0.12125675400000001,0.024129177,235.13768,-86.8742,1.9753848000000003,STD
6886101000000.0,0.03551588952541351,-0.3001614809036255,4.564287185668945,-0.14167125523090363,0.0025337068364024162,0.10567969,0.019547688,235.08673,-86.88409,1.9353571,STD
7250863700000.0,0.039136987179517746,-0.3165576457977295,4.806722164154053,-0.15687020123004913,0.0015144215431064367,0.098043874,0.01038471,235.03197999999998,-86.893196,1.8970269,STD
7604783000000.0,0.042879264801740646,-0.3325316607952118,5.042037010192871,-0.17262934148311615,0.0008364468230865896,0.09040806,0.0070249503,234.98215,-86.90230600000001,1.8598301,STD
7947317400000.0,0.04673737660050392,-0.3480592370033264,5.269872188568115,-0.18892623484134674,9.420429705642164e-05,0.077579886,0.016187929,234.93634,-86.90729,1.8244126,STD
8278086000000.0,0.050700534135103226,-0.3631212115287781,5.48997163772583,-0.20571401715278625,-0.000738829025067389,0.08521569999999999,0.010690141499999998,234.88747999999998,-86.91589,1.7843575,STD
8596844700000.0,0.054760806262493134,-0.37770506739616394,5.7021708488464355,-0.22295819222927094,-0.0012327441945672035,0.07666359,-0.0012217305,234.84722999999997,-86.924934,1.7460544999999998,STD
8903470000000.0,0.05891029164195061,-0.3918033540248871,5.90638542175293,-0.2406240552663803,-0.0015889460919424891,0.07971791,0.017715093,234.80151,-86.92768000000001,1.7153866999999998,STD
9197942000000.0,0.06314000487327576,-0.4054126441478729,6.102598667144775,-0.25867190957069397,-0.0019310287898406386,0.07941248,0.0125227375,234.75997999999998,-86.93637,1.6752656000000004,STD
9480327000000.0,0.06744133681058884,-0.41853323578834534,6.290850639343262,-0.2770635485649109,-0.0023801298812031746,0.07971791,0.013439035,234.71742000000003,-86.94045,1.6428155,STD
9750762000000.0,0.07181385904550552,-0.43097373843193054,6.470981121063232,-0.2937965393066406,-0.002429034560918808,0.0842994,0.014355333500000001,234.67416,-86.947174,1.6094108999999999,STD
10009446000000.0,0.07624690234661102,-0.44272908568382263,6.643104553222656,-0.30871790647506714,-0.0027214395813643932,0.08399397,0.0070249503,234.63262999999998,-86.95075,1.5745174,STD
10256628000000.0,0.08073515444993973,-0.4538160562515259,6.80739164352417,-0.3218832314014435,-0.0030780683737248182,0.093462385,0.009162978,234.6354,-87.0223,1.5436642,STD
10492594000000.0,0.08527308702468872,-0.46425363421440125,6.964040756225586,-0.3333541750907898,-0.0034961614292114973,0.10415252,0.019242255,234.63797000000002,-87.090744,1.5139579,STD
10717658000000.0,0.08985842764377594,-0.47406062483787537,7.113267421722412,-0.3431822657585144,-0.0034735864028334618,0.110872045,0.011911871999999999,234.63922000000002,-87.16168,1.4807788999999998,STD
10932160000000.0,0.09448443353176117,-0.4832596182823181,7.255305767059326,-0.35144126415252686,-0.00443953787907958,0.113926366,0.015271631,234.63835,-87.22073,1.4543152,STD
11136454000000.0,0.09914808720350266,-0.49187201261520386,7.3903985023498535,-0.35819104313850403,-0.0050133345648646355,0.1142318,0.014660766,234.63666,-87.28808599999999,1.4254434,STD
11330905000000.0,0.10384642332792282,-0.49991971254348755,7.518795013427734,-0.36349260807037354,-0.00574897788465023,0.11698069400000001,0.019242255,234.63347000000002,-87.34543599999999,1.3997048,STD
11515884000000.0,0.10860840976238251,-0.5074065327644348,7.640726089477539,-0.36726945638656616,-0.0069873761385679245,0.10873401,0.021380282999999996,234.63353999999998,-87.401764,1.3739403000000001,STD
11691766000000.0,0.11336216330528259,-0.5143947005271912,7.756496906280518,-0.36988213658332825,-0.008085436187684536,0.11026118,0.01740966,234.63022,-87.45891,1.3482754,STD
11858923000000.0,0.11814329773187637,-0.5208842158317566,7.866334438323975,-0.37122559547424316,-0.008539766073226929,0.116675265,0.021380282999999996,234.62793,-87.51307,1.3261724,STD
12017723000000.0,0.12294457107782364,-0.5268996953964233,7.970494270324707,-0.3713798522949219,-0.010104680433869362,0.098043874,0.024740042,234.63257000000002,-87.55900600000001,1.3036472,STD
12168530000000.0,0.12776480615139008,-0.532461941242218,8.069223403930664,-0.3703979253768921,-0.011606821790337563,0.09254608,0.028405233999999998,234.63173999999998,-87.61089,1.2827363999999999,STD
12311701000000.0,0.1326049268245697,-0.5375901460647583,8.162761688232422,-0.36832278966903687,-0.012792541645467281,0.09162979,0.030543262,234.63502999999997,-87.65732,1.2630434,STD
12447583000000.0,0.1374608278274536,-0.5423058867454529,8.251348495483398,-0.36521804332733154,-0.01435123197734356,0.09101892,0.028710667000000002,234.6399,-87.69958000000001,1.2438068000000002,STD
12576513000000.0,0.1423310488462448,-0.5466286540031433,8.335213661193848,-0.36113452911376953,-0.014994373545050621,0.076052725,0.026267206,234.6492,-87.74746,1.2256273000000002,STD
12698818000000.0,0.14721375703811646,-0.5505776405334473,8.414580345153809,-0.35612332820892334,-0.015733223408460617,0.06688975,0.034208454,234.65701,-87.78664,1.2103021,STD
12814815000000.0,0.1521100252866745,-0.5541697144508362,8.48966121673584,-0.3502214848995209,-0.016562867909669876,0.0693332,0.03359759,234.66593999999998,-87.830315,1.1923348999999999,STD
12924809000000.0,0.15701644122600555,-0.5574237108230591,8.56066608428955,-0.34348392486572266,-0.01699470914900303,0.057421334000000004,0.028710667000000002,234.68155,-87.87406999999999,1.1760293,STD
13029092000000.0,0.16193318367004395,-0.5603557825088501,8.627793312072754,-0.335948646068573,-0.01696820743381977,0.061086524,0.01985312,234.69207999999998,-87.91741,1.1586343000000001,STD
13127946000000.0,0.16685843467712402,-0.5629824995994568,8.691235542297363,-0.32766059041023254,-0.016910767182707787,0.06169739,0.028710667000000002,234.70676,-87.95752,1.1454733999999998,STD
13221642000000.0,0.17179226875305176,-0.5653188228607178,8.751174926757812,-0.31865501403808594,-0.016500558704137802,0.062308256,0.020463986,234.72057999999998,-88.00416,1.1253341000000001,STD
13310437000000.0,0.1767539381980896,-0.5673679113388062,8.807772636413574,-0.3088826835155487,-0.017034189775586128,0.056505035999999995,0.019547688,234.73592999999997,-88.04166,1.1102808000000002,STD
13394580000000.0,0.1816992461681366,-0.5691689848899841,8.861228942871094,-0.2985675632953644,-0.017458895221352577,0.061391957000000004,0.024129177,234.74805,-88.08463,1.0948007,STD
13474305000000.0,0.18665052950382233,-0.5707221627235413,8.911686897277832,-0.28764408826828003,-0.01781270280480385,0.06963864,0.021991148999999998,234.7609,-88.12371,1.0776076,STD
13549840000000.0,0.1916060745716095,-0.5720409154891968,8.959300994873047,-0.27614936232566833,-0.018196534365415573,0.073303826,0.016798794,234.77362000000002,-88.16161,1.0612483,STD
13621397000000.0,0.19656699895858765,-0.5731365084648132,9.004216194152832,-0.2641068696975708,-0.018673665821552277,0.07147124,0.016798794,234.78552000000002,-88.1981,1.0461322,STD
13689182000000.0,0.20153294503688812,-0.5740204453468323,9.046570777893066,-0.25154510140419006,-0.018849864602088928,0.07360926,0.021380282999999996,234.79526,-88.23531,1.0312076,STD
13753389000000.0,0.20650489628314972,-0.5747029781341553,9.086496353149414,-0.23848557472229004,-0.019471148028969765,0.081855945,0.01863139,234.80379,-88.26923000000001,1.0145632,STD
13814204000000.0,0.21147511899471283,-0.5751988291740417,9.124124526977539,-0.22498618066310883,-0.01979987695813179,0.07696902,0.020158553,234.81546,-88.30518000000001,1.000899,STD
13871805000000.0,0.2164514660835266,-0.5755131840705872,9.159568786621094,-0.21103620529174805,-0.02038726396858692,0.08002335,0.021991148999999998,234.82251000000002,-88.33646999999999,0.98678565,STD
13926357000000.0,0.22142863273620605,-0.57565838098526,9.192946434020996,-0.1966807097196579,-0.0211871899664402,0.06658431,0.021991148999999998,234.83571,-88.36833,0.9730738000000001,STD
13978020000000.0,0.22640815377235413,-0.5756424069404602,9.224364280700684,-0.18193407356739044,-0.021473633125424385,0.06750060599999999,0.028710667000000002,234.84389,-88.3999,0.9620243,STD
14026946000000.0,0.23138892650604248,-0.575474202632904,9.253926277160645,-0.16682098805904388,-0.021631155163049698,0.0711658,0.026572637000000003,234.85516,-88.42975,0.9488197,STD
14073277000000.0,0.23637209832668304,-0.5751610398292542,9.281728744506836,-0.15135535597801208,-0.021244017407298088,0.06536258,0.025350908,234.8688,-88.46144,0.9381205,STD
14117151000000.0,0.24135687947273254,-0.5747109651565552,9.30786418914795,-0.13555864989757538,-0.02162512019276619,0.057726767000000005,0.02076942,234.88197000000002,-88.48841,0.9261063,STD
14158695000000.0,0.24634979665279388,-0.5741273164749146,9.332415580749512,-0.11941961944103241,-0.02169337309896946,0.04550946,0.026572637000000003,234.89807000000002,-88.51974,0.91705865,STD
14198035000000.0,0.25133752822875977,-0.5734246373176575,9.355475425720215,-0.10301218926906586,-0.021692965179681778,0.04550946,0.017715093,234.91287000000003,-88.54969,0.90277815,STD
14235284000000.0,0.25632596015930176,-0.5726059079170227,9.377118110656738,-0.08632612973451614,-0.02071692980825901,0.044593163,0.018020526000000002,234.93126,-88.581406,0.8931209000000001,STD
14270555000000.0,0.261312872171402,-0.5716903805732727,9.39746379852295,-0.06934745609760284,-0.020166797563433647,0.032375857,0.012217305,234.95285,-88.60976,0.8795698000000001,STD
14303951000000.0,0.2663039267063141,-0.5707977414131165,9.416997909545898,-0.05168667808175087,-0.018979081884026527,0.04184427,0.018020526000000002,234.96835,-88.643555,0.8696444,STD
14335572000000.0,0.27129635214805603,-0.5699270367622375,9.435761451721191,-0.03339490666985512,-0.01769186183810234,0.040927973,0.008552114,234.96932999999999,-88.610146,0.8549648000000001,STD
14365511000000.0,0.2762889266014099,-0.56907719373703,9.453794479370117,-0.014512388966977596,-0.016147764399647713,0.040011674,0.0076358155,234.96688999999998,-88.57753000000001,0.8443989,STD
14393858000000.0,0.28128212690353394,-0.5682470798492432,9.471135139465332,0.004932481795549393,-0.01455566007643938,0.046731193,0.005497787,234.96200000000002,-88.54652,0.8308926,STD
14420698000000.0,0.2862762212753296,-0.567435622215271,9.487821578979492,0.02491156756877899,-0.013031993061304092,0.04886922,-0.0030543262,234.95817999999997,-88.5175,0.81550086,STD
14446109000000.0,0.29127010703086853,-0.5666419267654419,9.503887176513672,0.04539038985967636,-0.011166393756866455,0.059253927000000005,-0.0036651915999999997,234.94955,-88.48999,0.8018426,STD
14470167000000.0,0.2962654232978821,-0.5658649206161499,9.519366264343262,0.0663519874215126,-0.009221108630299568,0.070249505,-0.011911871999999999,234.93982000000003,-88.463936,0.7837118000000001,STD
14492946000000.0,0.3012635409832001,-0.5651035308837891,9.53429126739502,0.08777935802936554,-0.007249198853969574,0.077579886,-0.018325957,234.92781000000002,-88.43941,0.7660593000000001,STD
14514512000000.0,0.3062596023082733,-0.5643573999404907,9.548686981201172,0.10962003469467163,-0.006326030008494854,0.08552113,-0.01282817,234.91218999999998,-88.4101,0.7496038,STD
14534930000000.0,0.3112559914588928,-0.5636255145072937,9.562583923339844,0.13186542689800262,-0.005191653501242399,0.084910266,-0.009162978,234.89676,-88.3882,0.73106354,STD
14554261000000.0,0.3162601590156555,-0.5629064440727234,9.57601547241211,0.15453781187534332,-0.0038084934931248426,0.09040806,-0.013133603,234.87714,-88.362404,0.71199375,STD
14572563000000.0,0.3212556540966034,-0.5622009634971619,9.588991165161133,0.17752031981945038,-0.0026129023171961308,0.09560041,-0.015882496,234.85757,-88.33530400000001,0.6944764,STD
14589891000000.0,0.3262508809566498,-0.5615076422691345,9.601542472839355,0.20084308087825775,-0.0010741386795416474,0.09285152,-0.013744468000000001,234.83861000000002,-88.3123,0.67741853,STD
14606296000000.0,0.33124542236328125,-0.5608258247375488,9.613692283630371,0.22448544204235077,2.4639724870212376e-05,0.090713486,-0.014966198,234.81796,-88.28582,0.65875036,STD
14621827000000.0,0.3362416625022888,-0.5601546764373779,9.62546443939209,0.24844442307949066,0.001178815378807485,0.089186326,-0.01282817,234.79782000000003,-88.26321999999999,0.64184463,STD
14636531000000.0,0.341238409280777,-0.5594937801361084,9.636877059936523,0.2726965546607971,0.0021575891878455877,0.07422013,-0.0021380284,234.78201,-88.23718000000001,0.62733465,STD
14650453000000.0,0.3462367653846741,-0.5588424801826477,9.647951126098633,0.2972327470779419,0.0031655998900532722,0.07696902,0.0012217305,234.76157,-88.21351999999999,0.61136466,STD
14663634000000.0,0.3512364327907562,-0.5582002401351929,9.658703804016113,0.32203689217567444,0.0037618563510477543,0.06750060599999999,0.008552114,234.74868999999998,-88.186,0.5999048,STD
14676112000000.0,0.35623374581336975,-0.5575669407844543,9.669149398803711,0.34707334637641907,0.004424001090228558,0.06841691,0.007941248,234.732,-88.16206,0.58707863,STD
14687926000000.0,0.3612307906150818,-0.5569419264793396,9.679305076599121,0.3723413050174713,0.004481220152229071,0.064751714,0.008246681,234.71918,-88.13266999999999,0.57673043,STD
14699111000000.0,0.36623209714889526,-0.5563243627548218,9.689191818237305,0.39785507321357727,0.004812080413103104,0.06841691,0.012217305,234.70387000000002,-88.10836,0.56719494,STD
14709701000000.0,0.37122946977615356,-0.5557145476341248,9.69881534576416,0.42355480790138245,0.005092761013656855,0.055283304000000005,0.010079277,234.69435,-88.080635,0.55619097,STD
14719726000000.0,0.37622836232185364,-0.5551115870475769,9.708195686340332,0.44946131110191345,0.005325934384018183,0.053145275,0.011911871999999999,234.6805,-88.05423,0.5472994000000001,STD
14729218000000.0,0.381227046251297,-0.5545153021812439,9.7173433303833,0.47555381059646606,0.005107224453240633,0.05222898,0.006414085,234.67001000000002,-88.02688,0.5358156,STD
14738203000000.0,0.3862254023551941,-0.5539253354072571,9.72627067565918,0.501821756362915,0.004818785935640335,0.06017022599999999,0.010690141499999998,234.65738,-88.00086,0.5275934,STD
14746710000000.0,0.39122456312179565,-0.553341269493103,9.734991073608398,0.5282623767852783,0.004838693421334028,0.06688975,0.014049901000000002,234.64527999999999,-87.975624,0.5175919,STD
14754765000000.0,0.3962251842021942,-0.5527626872062683,9.743515968322754,0.5548704862594604,0.004857540130615234,0.0580322,0.01160644,234.63880211124402,-87.9620149226475,0.5128737425,STD
14762390000000.0,0.40122610330581665,-0.5521894097328186,9.75185489654541,0.5816309452056885,0.004793999250978231,0.06811147,0.015271631,234.63235,-87.94846,0.50817436,STD
14769609000000.0,0.4062257409095764,-0.5516212582588196,9.760015487670898,0.6085261702537537,0.004457139875739813,0.07299839999999999,0.014660766,234.61642,-87.92226,0.49905920000000004,STD
14776444000000.0,0.41122475266456604,-0.5510579347610474,9.7680082321167,0.635552704334259,0.004154507536441088,0.06505715,0.02076942,234.6037,-87.89718,0.49230385,STD
14782915000000.0,0.4162254333496094,-0.5504990220069885,9.77584457397461,0.662716805934906,0.0039005554281175137,0.05681047,0.020158553,234.58975,-87.871826,0.4833628,STD
14789041000000.0,0.4212256371974945,-0.5499444007873535,9.783531188964844,0.6899988055229187,0.0033508746419101954,0.06261369,0.019547688,234.57394,-87.84498599999999,0.47602692,STD
14794841000000.0,0.4262251555919647,-0.549393892288208,9.791074752807617,0.7173911929130554,0.0024723925162106752,0.052839845,0.02443461,234.56485,-87.81835,0.47028420000000004,STD
14800333000000.0,0.4312647879123688,-0.5488433837890625,9.798524856567383,0.7451280355453491,0.0016570009756833315,0.05222898,0.015271631,234.55162,-87.79356999999999,0.46012917,STD
14805531000000.0,0.43626269698143005,-0.5483005046844482,9.805805206298828,0.772722065448761,0.0012431559152901173,0.04428773,0.014049901000000002,234.54306,-87.76861,0.4537359,STD
14810453000000.0,0.4412602484226227,-0.5477611422538757,9.812965393066406,0.8004111051559448,0.0003304984711576253,0.03268129,0.028405233999999998,234.53555,-87.739395,0.44921243,STD
14815113000000.0,0.4462582767009735,-0.5472249388694763,9.820012092590332,0.8281947374343872,-0.0005009691813029349,0.009162978,0.018936822,234.53394,-87.71698,0.43776643,STD
14819526000000.0,0.4512555003166199,-0.5466919541358948,9.826950073242188,0.8560607433319092,-0.001613670028746128,-0.009773844,0.023823743999999997,234.53384,-87.689026,0.43452543,STD
14823703000000.0,0.45625239610671997,-0.5461618900299072,9.833785057067871,0.8840072751045227,-0.0026670743245631456,-0.044593163,0.02107485,234.54495,-87.66459,0.42684633,STD
14827658000000.0,0.4612521529197693,-0.5455595850944519,9.840452194213867,0.911914587020874,-0.004771189298480749,-0.08063421400000001,0.021380282999999996,234.56142999999997,-87.63290400000001,0.42167574,STD
14831403000000.0,0.4662495255470276,-0.5440540909767151,9.846118927001953,0.9382588863372803,-0.006860836874693632,-0.09773844,0.01740966,234.58206,-87.6077,0.414731,STD
14834948000000.0,0.4712468087673187,-0.5416857600212097,9.850833892822266,0.9631227850914001,-0.0098971426486969,-0.10323623,0.015577064,234.55603,-87.46591,0.40089944,STD
14838305000000.0,0.47624367475509644,-0.5385019779205322,9.85464859008789,0.9865853190422058,-0.01417148020118475,-0.1160644,0.021685716,234.53569,-87.32555,0.38808578,STD
14841483000000.0,0.48124000430107117,-0.5345465540885925,9.857611656188965,1.008721113204956,-0.018917953595519066,-0.103847094,0.017715093,234.50874,-87.18771,0.37123877,STD
14844491000000.0,0.4862379729747772,-0.5298530459403992,9.859762191772461,1.0296003818511963,-0.02578795701265335,-0.070554934,0.01863139,234.47808999999998,-87.037125,0.3569702,STD
14847340000000.0,0.4912351667881012,-0.5244690775871277,9.861149787902832,1.049290657043457,-0.03414745256304741,-0.06505715,0.019547688,234.45091000000002,-86.88972,0.34141925,STD
14850037000000.0,0.496232807636261,-0.5184270739555359,9.861812591552734,1.0678550004959106,-0.043884508311748505,-0.06291912,0.029932396,234.41412000000003,-86.73363499999999,0.32794136,STD
14852590000000.0,0.5012765526771545,-0.5116006135940552,9.861677169799805,1.0853402614593506,-0.054372284561395645,-0.07696902,0.059253927000000005,234.37923999999998,-86.57441,0.31984577,STD
14855008000000.0,0.5062721371650696,-0.5043565034866333,9.861010551452637,1.1018303632736206,-0.0651312917470932,-0.09682214,0.08124508,234.34447999999998,-86.412254,0.31211898,STD
14857297000000.0,0.5112674236297607,-0.49655652046203613,9.85973072052002,1.1173653602600098,-0.0744379535317421,-0.105068825,0.10842858,234.30896,-86.256325,0.31349188,STD
14859465000000.0,0.5162633657455444,-0.48822692036628723,9.857867240905762,1.1319957971572876,-0.0816371887922287,-0.10048734,0.13561209,234.27417000000003,-86.10415,0.32030165,STD
14861517000000.0,0.5212594866752625,-0.47939762473106384,9.855452537536621,1.1457699537277222,-0.08638554066419601,-0.0983493,0.16798794,234.24103,-85.96291,0.33544442,STD
14863460000000.0,0.52625572681427,-0.4700954556465149,9.852517127990723,1.158733606338501,-0.08852063119411469,-0.084910266,0.19394971,234.20236,-85.83555600000001,0.35491940000000005,STD
14865300000000.0,0.5312530994415283,-0.46034184098243713,9.849084854125977,1.1709295511245728,-0.08928858488798141,-0.076052725,0.21319197,234.16353999999998,-85.71644,0.38032135,STD
14867042000000.0,0.5362517237663269,-0.45016026496887207,9.845182418823242,1.182398796081543,-0.08931569010019302,-0.056505035999999995,0.22632557,234.11736000000002,-85.60968000000001,0.4092923,STD
14868691000000.0,0.5412500500679016,-0.4395788311958313,9.840838432312012,1.1931803226470947,-0.08883675187826157,-0.024740042,0.24892759999999997,234.06465,-85.51066,0.4443356,STD
14870254000000.0,0.546246349811554,-0.42862507700920105,9.836080551147461,1.2033114433288574,-0.0885949432849884,-0.012217305,0.26206118,234.01205,-85.41405999999999,0.47869766,STD
14871732000000.0,0.5512449741363525,-0.41730374097824097,9.830921173095703,1.2128254175186157,-0.08815442025661469,-0.01985312,0.28130344,233.95607,-85.32394000000001,0.5191492,STD
14873132000000.0,0.5562437176704407,-0.4056417644023895,9.825386047363281,1.221755862236023,-0.0876397043466568,-0.048563786,0.2846632,233.90322999999998,-85.23449000000001,0.5571046,STD
14874458000000.0,0.5612420439720154,-0.39365920424461365,9.819496154785156,1.2301340103149414,-0.08726636320352554,-0.07880162,0.28038713,233.85338,-85.14693,0.5966191999999999,STD
14875714000000.0,0.5662440061569214,-0.3813589811325073,9.813261032104492,1.2379881143569946,-0.08692919462919235,-0.08827003,0.2764165,233.80621000000002,-85.062546,0.63546985,STD
14876903000000.0,0.5712573528289795,-0.36872971057891846,9.806679725646973,1.245343804359436,-0.08651233464479446,-0.09010262,0.2742785,233.76592999999997,-84.980515,0.6724015,STD
14878029000000.0,0.576255738735199,-0.3558802902698517,9.799833297729492,1.2522350549697876,-0.08696410804986954,-0.06994407,0.27183503,233.72249,-84.89579,0.7061553,STD
14879095000000.0,0.5812532305717468,-0.34277525544166565,9.792703628540039,1.2586828470230103,-0.0883033350110054,-0.04153884,0.2761111,233.6774,-84.81323,0.73948926,STD
14880105000000.0,0.5862518548965454,-0.3294212520122528,9.785301208496094,1.2647101879119873,-0.09116636961698532,-0.04795292,0.27000242,233.63719,-84.72529,0.7680248000000001,STD
14881061000000.0,0.5912500619888306,-0.3158368468284607,9.777644157409668,1.2703399658203125,-0.09486974775791168,-0.073303826,0.267559,233.59457,-84.63765,0.7970695,STD
14881966000000.0,0.5962487459182739,-0.3020312786102295,9.769743919372559,1.2755930423736572,-0.09979189187288284,-0.105374254,0.2706133,233.5561,-84.54178,0.82485574,STD
14882824000000.0,0.6012492775917053,-0.28801143169403076,9.76161003112793,1.280489206314087,-0.10547719150781631,-0.12889257,0.26816985,233.52282999999997,-84.44565,0.8494709,STD
14883636000000.0,0.6062479615211487,-0.27380135655403137,9.753263473510742,1.2850483655929565,-0.1114780455827713,-0.14538592,0.25503623,233.49692000000002,-84.34731,0.8712481,STD
14884404000000.0,0.6112456321716309,-0.259408563375473,9.74471378326416,1.2892884016036987,-0.117256760597229,-0.11698069400000001,0.24556783,233.46472000000003,-84.24915,0.89150864,STD
14885132000000.0,0.6162451505661011,-0.24483297765254974,9.735965728759766,1.2932254076004028,-0.12292284518480301,-0.07147124,0.23151793,233.43262000000001,-84.15093,0.9055705,STD
14885822000000.0,0.6212446093559265,-0.23009075224399567,9.727033615112305,1.2968761920928955,-0.1278800368309021,-0.013133603,0.20586158,233.38924,-84.05911,0.9114145,STD
14886475000000.0,0.6262431740760803,-0.21519361436367035,9.717928886413574,1.3002561330795288,-0.13284975290298462,0.03145956,0.18845193,233.3371,-83.96549,0.9137761999999999,STD
14887094000000.0,0.6312421560287476,-0.20014545321464539,9.708658218383789,1.3033792972564697,-0.1369035243988037,0.058948494000000004,0.18020524,233.27411,-83.88199,0.90955126,STD
14887680000000.0,0.6362400650978088,-0.18495942652225494,9.699234008789062,1.3062598705291748,-0.14044827222824097,0.10751228,0.16004670000000001,233.19387999999998,-83.79848,0.89446825,STD
14888235000000.0,0.641251266002655,-0.16959211230278015,9.689629554748535,1.3089065551757812,-0.14163921773433685,0.13408493,0.16096300000000002,233.11244,-83.72971,0.88242704,STD
14888760000000.0,0.6462491750717163,-0.15414509177207947,9.679917335510254,1.3113393783569336,-0.14008094370365143,0.16432275,0.16157386,233.01772999999997,-83.66776999999999,0.86268365,STD
14889258000000.0,0.6512454748153687,-0.13858354091644287,9.670076370239258,1.3135664463043213,-0.13570833206176758,0.19486602,0.15974127,232.9166,-83.61974000000001,0.84145474,STD
14889730000000.0,0.6562430262565613,-0.1229037418961525,9.660106658935547,1.3155980110168457,-0.12886671721935272,0.22937989,0.17195857,232.80669,-83.58515,0.8231821,STD
14890177000000.0,0.6612464785575867,-0.10725726187229156,9.649989128112793,1.317112684249878,-0.11957372725009918,0.2556471,0.17592919,232.69244,-83.567215,0.80129105,STD
14890600000000.0,0.6662420630455017,-0.09359651803970337,9.639593124389648,1.3142486810684204,-0.1093273013830185,0.27947086,0.18784106,232.57037000000003,-83.55546,0.7840345000000001,STD
14891001000000.0,0.6712409257888794,-0.08186336606740952,9.628900527954102,1.3070614337921143,-0.09837358444929123,0.301462,0.21258110000000002,232.48346,-83.56295,0.81090367,STD
14891380000000.0,0.6762397289276123,-0.0719410851597786,9.617936134338379,1.2958335876464844,-0.08730369061231613,0.28619036,0.22968534,232.40207999999998,-83.5742,0.8383056999999999,STD
14891740000000.0,0.6812386512756348,-0.06373387575149536,9.606714248657227,1.280777931213379,-0.07625404000282288,0.26450464,0.24953845,232.31747000000001,-83.58936,0.87176037,STD
14892081000000.0,0.6862372756004333,-0.057148441672325134,9.595250129699707,1.2621054649353027,-0.06463756412267685,0.24770586,0.2779437,232.23697,-83.609215,0.9114912000000001,STD
14892404000000.0,0.6912376880645752,-0.05210760608315468,9.583549499511719,1.2399743795394897,-0.052419357001781464,0.22052236,0.30024028,232.16705,-83.6307,0.9546843,STD
14892710000000.0,0.6962385177612305,-0.04852359741926193,9.571629524230957,1.2145893573760986,-0.03871995955705643,0.20830505,0.3268129,232.09848,-83.660416,1.0056143,STD
14893000000000.0,0.7012434005737305,-0.04633466899394989,9.559490203857422,1.1860644817352295,-0.02382991462945938,0.19058995,0.3484986,232.04044,-83.69318,1.060806,STD
14893275000000.0,0.7062431573867798,-0.0454268604516983,9.547171592712402,1.1547150611877441,-0.007568514905869961,0.17623462,0.35430184,231.98639,-83.73619000000001,1.1174794,STD
14893535000000.0,0.7112420201301575,-0.04574945196509361,9.534669876098633,1.1206259727478027,0.009519115090370178,0.17654006,0.36071593,231.93431,-83.78367,1.1786766000000002,STD
14893783000000.0,0.7162365913391113,-0.04722168669104576,9.52200698852539,1.0839998722076416,0.027047118172049522,0.16035213,0.35491269999999997,231.89299,-83.83874499999999,1.2371438999999997,STD
14894016000000.0,0.7212303876876831,-0.04979653283953667,9.509180068969727,1.0449188947677612,0.04544779285788536,0.15974127,0.34330627,231.84894,-83.90256,1.2934933000000002,STD
14894239000000.0,0.7262227535247803,-0.05341261997818947,9.496200561523438,1.003523588180542,0.063046894967556,0.17195857,0.3359759,231.80754,-83.96236400000001,1.3478487,STD
14894449000000.0,0.7312179207801819,-0.058032482862472534,9.483063697814941,0.9598700404167175,0.0797732025384903,0.1957823,0.30604348,231.7657,-84.030464,1.3906794,STD
14894648000000.0,0.7362128496170044,-0.06359005719423294,9.469786643981934,0.9141255021095276,0.09580344706773758,0.20952678,0.26236662,231.72551,-84.09897600000001,1.4260803,STD
14894836000000.0,0.7412071824073792,-0.07003370672464371,9.456377983093262,0.8664076328277588,0.11141888052225113,0.23273966,0.22174409,231.67822,-84.16846,1.4517871999999998,STD
14895016000000.0,0.7462011575698853,-0.07731716334819794,9.44284439086914,0.8168179988861084,0.12745548784732819,0.25350907,0.16737708,231.63089,-84.244835,1.4601621999999999,STD
14895186000000.0,0.7512005567550659,-0.08542105555534363,9.429174423217773,0.7653616666793823,0.14297927916049957,0.2724459,0.12950343,231.57963999999998,-84.31805,1.4607769,STD
14895347000000.0,0.7561984062194824,-0.09427224099636078,9.415396690368652,0.712247908115387,0.15704093873500824,0.27152961,0.0888809,231.53118999999998,-84.39419000000001,1.4453118,STD
14895500000000.0,0.7611965537071228,-0.1038384810090065,9.401510238647461,0.6575366854667664,0.16983234882354736,0.26572640000000003,0.058337633,231.48096,-84.47198,1.422075,STD
14895645000000.0,0.7662007808685303,-0.11410752683877945,9.387503623962402,0.6012166738510132,0.18163280189037323,0.24923302,0.03726278,231.43616,-84.547134,1.3911268,STD
14895782000000.0,0.7711988091468811,-0.12498879432678223,9.373420715332031,0.5435718894004822,0.19353684782981873,0.22907446,0.01160644,231.39612000000002,-84.62489000000001,1.3514985000000002,STD
14895912000000.0,0.7761964797973633,-0.13647432625293732,9.359248161315918,0.4845808446407318,0.20560409128665924,0.19822577,-0.004886922,231.36513,-84.69961500000001,1.3104175,STD
14896036000000.0,0.7811940908432007,-0.14853286743164062,9.344989776611328,0.4243117570877075,0.21766304969787598,0.15577064,-0.028710667000000002,231.34482999999997,-84.7769,1.2621997999999999,STD
14896153000000.0,0.7861928939819336,-0.1611395627260208,9.330645561218262,0.36281147599220276,0.23075592517852783,0.103847094,-0.04153884,231.3368,-84.86135,1.2150261,STD
14896265000000.0,0.7911911010742188,-0.17425762116909027,9.3162260055542,0.30017396807670593,0.24365563690662384,0.061086524,-0.040317107000000005,231.3389,-84.94085,1.1676792999999999,STD
14896371000000.0,0.796188473701477,-0.18785835802555084,9.301736831665039,0.23646515607833862,0.25612834095954895,0.01160644,-0.030543262,231.35797000000002,-85.02518,1.1224885,STD
14896471000000.0,0.8011883497238159,-0.20193076133728027,9.28717041015625,0.17168723046779633,0.2680339813232422,-0.03481932,-0.028405233999999998,231.38849,-85.10889,1.078303,STD
14896567000000.0,0.8061885833740234,-0.21644093096256256,9.272537231445312,0.10592993348836899,0.2801841199398041,-0.099571034,-0.021685716,231.43774,-85.1945,1.041593,STD
14896657000000.0,0.8111880421638489,-0.2313605397939682,9.257844924926758,0.03926404193043709,0.29206112027168274,-0.13194689,-0.009468411,231.49031000000002,-85.27506,1.0091065000000001,STD
14896743000000.0,0.8161900639533997,-0.24668224155902863,9.243085861206055,-0.028316013514995575,0.30488407611846924,-0.17409660000000002,0.008246681,231.56317,-85.3635,0.9835016,STD
14896825000000.0,0.8211925625801086,-0.262376070022583,9.228269577026367,-0.09672964364290237,0.31918853521347046,-0.19333886,0.018936822,231.63773999999998,-85.45447,0.9611004999999999,STD
14896902000000.0,0.8262342810630798,-0.27859488129615784,9.213276863098145,-0.16657677292823792,0.33595359325408936,-0.22357668,0.034208454,231.72603999999998,-85.555695,0.9476261,STD
14896976000000.0,0.8312331438064575,-0.294954389333725,9.198369979858398,-0.2364516258239746,0.35475513339042664,-0.23640485,0.04184427,231.81389,-85.66413,0.93630165,STD
14897046000000.0,0.8362326622009277,-0.3116307258605957,9.183414459228516,-0.3070377707481384,0.3725058436393738,-0.26358834,0.038789943,231.91347000000002,-85.77076,0.9283914000000001,STD
14897112000000.0,0.8412320613861084,-0.32860392332077026,9.168414115905762,-0.3782857656478882,0.3870154619216919,-0.32253686,0.044898596,232.02462999999997,-85.87676,0.9272556999999999,STD
14897175000000.0,0.8462313413619995,-0.3458578884601593,9.153371810913086,-0.45015949010849,0.4004751145839691,-0.3811799,0.029932396,232.14297000000002,-85.99161,0.9207984,STD
14897235000000.0,0.8512305021286011,-0.3633776903152466,9.138290405273438,-0.5226255655288696,0.4145684838294983,-0.4343252,0.043982297000000004,232.27462999999997,-86.098145,0.9264,STD
14897292000000.0,0.8562301993370056,-0.3811520040035248,9.1231689453125,-0.5956630706787109,0.4309871792793274,-0.43096542,0.06414085,232.40544,-86.210396,0.9306405999999999,STD
14897347000000.0,0.8612405061721802,-0.3987903296947479,9.108122825622559,-0.6688834428787231,0.449118971824646,-0.40256020000000003,0.08124508,232.54231000000001,-86.323875,0.93959606,STD
14897398000000.0,0.8662388324737549,-0.4115745425224304,9.094805717468262,-0.73614102602005,0.46643099188804626,-0.3484986,0.06505715,232.66956000000002,-86.4387,0.9450985999999999,STD
14897447000000.0,0.8712367415428162,-0.41959649324417114,9.08316421508789,-0.7976657152175903,0.4827715754508972,-0.25076020000000004,0.036651913,232.8749,-86.818954,0.9454845,STD
14897495000000.0,0.876234233379364,-0.4231099784374237,9.07310962677002,-0.8537630438804626,0.4976227879524231,-0.14141529999999997,0.008857545999999999,233.06118999999998,-87.188324,0.9403560999999999,STD
14897540000000.0,0.8812311291694641,-0.42235854268074036,9.064556121826172,-0.9047240018844604,0.5118615627288818,-0.03573562,-0.05497787,233.22105,-87.5568,0.9157743,STD
14897583000000.0,0.8862291574478149,-0.41754329204559326,9.057430267333984,-0.9508084654808044,0.5261065363883972,0.08093964,-0.12675454,233.34665,-87.91725,0.8801829999999999,STD
14897624000000.0,0.8912267684936523,-0.4089028835296631,9.051650047302246,-0.9922879934310913,0.5406992435455322,0.16462818,-0.22082779,233.45212,-88.27763,0.82036775,STD
14897662000000.0,0.8962421417236328,-0.39636310935020447,9.047210693359375,-1.029261589050293,0.5560606122016907,0.23823744,-0.29535335,233.52743999999998,-88.635475,0.7464053,STD
14897699000000.0,0.9012411832809448,-0.38064128160476685,9.043919563293457,-1.0622376203536987,0.5697569251060486,0.28191432,-0.38728857,233.588,-88.98591,0.6425276999999999,STD
14897735000000.0,0.9062377214431763,-0.3617066442966461,9.041762351989746,-1.091323733329773,0.5812420845031738,0.30848694,-0.4718934,233.63257000000002,-89.3238,0.52203685,STD
14897768000000.0,0.9112349152565002,-0.3396854102611542,9.040690422058105,-1.1167035102844238,0.5892503261566162,0.34391713,-0.559858,233.66212000000002,-89.61068,0.37761828,STD
14897801000000.0,0.9162361025810242,-0.31468892097473145,9.040657997131348,-1.138546347618103,0.594080924987793,0.33261612,-0.60139686,233.69717000000003,-90.31951,0.22632739999999998,STD
14897831000000.0,0.9212341904640198,-0.2869820296764374,9.041584014892578,-1.1570968627929688,0.5943242907524109,0.31429017,-0.6270532,233.72372000000001,-90.51805,0.058874533,STD
14897861000000.0,0.9262316226959229,-0.2566748559474945,9.043425559997559,-1.172512412071228,0.5924549102783203,0.24342979999999997,-0.6258314,233.76807000000002,-90.801636,-0.10823295,STD
14897889000000.0,0.931228518486023,-0.22390352189540863,9.046134948730469,-1.1849586963653564,0.589692234992981,0.13713925,-0.5839871999999999,233.8274,-91.08358,-0.26657465,STD
14897915000000.0,0.9362266063690186,-0.1887739896774292,9.04967212677002,-1.1945806741714478,0.585139811038971,-0.02687807,-0.52778757,233.92307000000002,-91.34978000000001,-0.4165342000000001,STD
14897940000000.0,0.9412244558334351,-0.15143238008022308,9.053987503051758,-1.2015396356582642,0.5788604617118835,-0.21197024,-0.47525316,234.05469,-91.604256,-0.55212003,STD
14897964000000.0,0.9462236166000366,-0.11197368800640106,9.059045791625977,-1.2059653997421265,0.5722320675849915,-0.34055737,-0.43249258,234.21631000000002,-91.84631999999999,-0.6712658,STD
14897987000000.0,0.9512224197387695,-0.07053527235984802,9.064800262451172,-1.2080059051513672,0.5652244687080383,-0.42271876,-0.3979787,234.41652000000002,-92.068954,-0.7751408000000001,STD
14898009000000.0,0.9562205672264099,-0.027226723730564117,9.071213722229004,-1.2077903747558594,0.5593879222869873,-0.44623706,-0.37751472,234.63521,-92.28814,-0.8679641,STD
14898031000000.0,0.961218535900116,0.01785883679986,9.078252792358398,-1.2054356336593628,0.5549041628837585,-0.5149594,-0.36041048,234.88875,-92.4972,-0.94995207,STD
14898052000000.0,0.9662232995033264,0.06473302096128464,9.085908889770508,-1.2009997367858887,0.5510174632072449,-0.6197228,-0.35002577,235.1576,-92.70111,-1.0257819,STD
14898072000000.0,0.9712217450141907,0.11310505121946335,9.094103813171387,-1.1946965456008911,0.5477936267852783,-0.7086037,-0.35063666,235.43958999999998,-92.90596,-1.0977365,STD
14898091000000.0,0.976219654083252,0.1629793345928192,9.102828025817871,-1.1865811347961426,0.5426743626594543,-0.79381937,-0.36132678,235.7482,-93.09614599999999,-1.1681336000000002,STD
14898109000000.0,0.9812191128730774,0.21430689096450806,9.112060546875,-1.1767337322235107,0.5368675589561462,-0.9120218000000001,-0.38331795,236.08893999999998,-93.29169499999999,-1.240939,STD
14898127000000.0,0.9862193465232849,0.26699963212013245,9.121771812438965,-1.1652522087097168,0.5294983386993408,-1.0241156,-0.4071417,236.44925,-93.47041,-1.3156443000000002,STD
14898144000000.0,0.9912198781967163,0.3209782838821411,9.131935119628906,-1.1522271633148193,0.5199337601661682,-1.1242975,-0.42821655,236.83632999999998,-93.639786,-1.3944372,STD
14898160000000.0,0.9962201714515686,0.37616613507270813,9.142523765563965,-1.1377451419830322,0.509283721446991,-1.2156218,-0.43401974,237.2491,-93.80296,-1.4740696000000002,STD
14898176000000.0,1.0012214183807373,0.4325158894062042,9.153519630432129,-1.1218748092651367,0.4972968101501465,-1.3017538999999998,-0.43004912,237.68478,-93.95067,-1.5550065,JOG
14898191000000.0,1.0062215328216553,0.4899362027645111,9.164894104003906,-1.104705572128296,0.48414191603660583,-1.3426818,-0.4156938,238.12936000000002,-94.08842,-1.6318026,JOG
14898206000000.0,1.0112206935882568,0.5483708381652832,9.176627159118652,-1.0863062143325806,0.4709067642688751,-1.348485,-0.40744713,238.58382999999998,-94.22041999999999,-1.706466,JOG
14898219000000.0,1.0162209272384644,0.607796847820282,9.188706398010254,-1.0667259693145752,0.4567166566848755,-1.3228287,-0.40103304,239.03651000000002,-94.33649399999999,-1.7741296000000002,JOG
14898233000000.0,1.0212212800979614,0.6681458353996277,9.20111083984375,-1.046035885810852,0.4427618980407715,-1.2986995000000001,-0.40103304,239.48657000000003,-94.45302,-1.8380251,JOG
14898245000000.0,1.0262211561203003,0.7293612360954285,9.213820457458496,-1.0242990255355835,0.4294694662094116,-1.2455542,-0.3998113,239.91653,-94.56172,-1.8953695,JOG
14898258000000.0,1.0312204360961914,0.7913935780525208,9.226818084716797,-1.0015729665756226,0.4168691337108612,-1.1808025,-0.39187005,240.33195,-94.66657,-1.9469463,JOG
14898271000000.0,1.036219835281372,0.8542116284370422,9.240092277526855,-0.9779038429260254,0.40598204731941223,-1.1200215,-0.38148534,240.72912999999997,-94.77493,-1.993542,JOG
14898282000000.0,1.0412200689315796,0.9177833795547485,9.253629684448242,-0.9533368349075317,0.395691454410553,-1.0632110000000001,-0.36438109999999996,241.10526000000002,-94.87562,-2.0319698,JOG
14898294000000.0,1.0462199449539185,0.982051432132721,9.267413139343262,-0.9279288053512573,0.3863562047481537,-1.0070114,-0.35277468,241.4606,-94.98186,-2.065314,JOG
14898305000000.0,1.0512197017669678,1.0469810962677002,9.281429290771484,-0.9017232656478882,0.37763240933418274,-0.97341377,-0.33628133,241.80324,-95.08339000000001,-2.0895273999999997,JOG
14898316000000.0,1.0562199354171753,1.1125462055206299,9.295668601989746,-0.8747580051422119,0.36943861842155457,-0.9486737,-0.32131509999999996,242.12942999999999,-95.18478,-2.1079574,JOG
14898326000000.0,1.0612378120422363,1.1789829730987549,9.31036376953125,-0.8470441102981567,0.3616001307964325,-0.9407325000000001,-0.31948254,242.44787999999997,-95.28499599999999,-2.1234452999999998,JOG
14898337000000.0,1.0662415027618408,1.24590265750885,9.329399108886719,-0.8212783932685852,0.3540491461753845,-0.9624181999999999,-0.31734450000000003,242.76523999999998,-95.383064,-2.1333406000000004,JOG
14898346000000.0,1.0712411403656006,1.313428521156311,9.35273265838623,-0.7973744869232178,0.34605416655540466,-0.98746365,-0.31673363,243.08975,-95.28522,-1.9204091,JOG
14898356000000.0,1.0762399435043335,1.381576657295227,9.380197525024414,-0.7752388119697571,0.33804577589035034,-1.0207558,-0.31673363,243.41766,-95.20226,-1.7143549,JOG
14898365000000.0,1.081238865852356,1.450325608253479,9.411587715148926,-0.7547785043716431,0.3312617540359497,-1.0231993000000001,-0.2910773,243.73932000000002,-95.13247,-1.5069202,JOG
14898374000000.0,1.0862383842468262,1.519653558731079,9.446707725524902,-0.7359055280685425,0.32584846019744873,-1.0115929,-0.26542094,244.06123,-95.07505,-1.3059204,JOG
14898384000000.0,1.0912374258041382,1.5895127058029175,9.485336303710938,-0.7185332775115967,0.3221886157989502,-0.99387777,-0.23976462,244.37761,-95.03551,-1.1034561,JOG
14898392000000.0,1.096237063407898,1.6598917245864868,9.527308464050293,-0.7025837302207947,0.32022133469581604,-0.95264435,-0.21227567,244.67969,-95.012764,-0.8979469999999999,JOG
14898401000000.0,1.1012381315231323,1.7307747602462769,9.572461128234863,-0.6879824995994568,0.3207516670227051,-0.9056076999999999,-0.19242255,244.97072999999997,-95.01444000000001,-0.69244593,JOG
14898409000000.0,1.1062368154525757,1.802077293395996,9.620552062988281,-0.6746509671211243,0.32309308648109436,-0.8356636999999999,-0.1826487,245.23946,-95.03279,-0.4862316,JOG
14898417000000.0,1.1112359762191772,1.8738203048706055,9.671479225158691,-0.6625264883041382,0.3282233774662018,-0.77366084,-0.18142697,245.4932,-95.080864,-0.2817635,JOG
14898426000000.0,1.1162370443344116,1.9460030794143677,9.725120544433594,-0.6515474319458008,0.3356846272945404,-0.6844745,-0.18173242,245.71572999999998,-95.14737,-0.07842936,JOG
14898434000000.0,1.1212360858917236,2.018541097640991,9.78125286102295,-0.6416456699371338,0.3456944525241852,-0.63285637,-0.19914207,245.92761000000002,-95.2401,0.11515022,JOG
14898441000000.0,1.1262348890304565,2.0914418697357178,9.839777946472168,-0.6327667832374573,0.3566195070743561,-0.5393939999999999,-0.19792034,246.09985,-95.34594,0.311564,JOG
14898449000000.0,1.131233811378479,2.1646928787231445,9.9005765914917,-0.6248571276664734,0.3696155250072479,-0.42027529999999996,-0.21991149,246.24652000000003,-95.47858000000001,0.4929492999999999,JOG
14898456000000.0,1.1362332105636597,2.2382795810699463,9.963533401489258,-0.6178655028343201,0.38362807035446167,-0.31612277,-0.24648413,246.36877,-95.61726999999999,0.6701252,JOG
14898464000000.0,1.1412321329116821,2.3121705055236816,10.028515815734863,-0.6117414236068726,0.3977240025997162,-0.23304509,-0.27366763,246.46107,-95.76649499999999,0.8383466999999999,JOG
14898471000000.0,1.1462316513061523,2.386364698410034,10.09543514251709,-0.6064403653144836,0.41132915019989014,-0.19364429,-0.31490102,246.53415,-95.92035,0.99177426,JOG
14898478000000.0,1.1512603759765625,2.461303234100342,10.164770126342773,-0.6019721031188965,0.4231349527835846,-0.19914207,-0.3753767,246.59451,-96.0683,1.1284184,JOG
14898486000000.0,1.156258463859558,2.5360193252563477,10.235212326049805,-0.5981836318969727,0.4344906508922577,-0.21319197,-0.42271876,246.64493,-96.22093000000001,1.2538067,JOG
14898493000000.0,1.1612557172775269,2.610970973968506,10.307270050048828,-0.5950909852981567,0.4450458288192749,-0.24129178,-0.4654793,246.69894,-96.36062,1.3592053999999998,JOG
14898499000000.0,1.1662570238113403,2.6862244606018066,10.38095760345459,-0.5926663279533386,0.4558035433292389,-0.29352075,-0.5329799,246.76117000000002,-96.49933,1.4399655,JOG
14898505000000.0,1.1712558269500732,2.761662006378174,10.456059455871582,-0.5908621549606323,0.46608561277389526,-0.35124752,-0.6059783000000001,246.83096,-96.62773,1.5035039,JOG
14898512000000.0,1.176254153251648,2.8373043537139893,10.532538414001465,-0.589648962020874,0.47593364119529724,-0.42546764,-0.65179324,246.91827,-96.754906,1.5516876,JOG
14898518000000.0,1.181252360343933,2.9131457805633545,10.61032772064209,-0.5889958143234253,0.48538705706596375,-0.46578476,-0.6954701,247.00912000000002,-96.87543000000001,1.5780159,JOG
14898524000000.0,1.186250925064087,2.989182233810425,10.689366340637207,-0.5888736844062805,0.4935879409313202,-0.516792,-0.752586,247.12091,-96.98583,1.5843499,JOG
14898531000000.0,1.1912494897842407,3.065399169921875,10.76958179473877,-0.5892537832260132,0.4998379647731781,-0.56596667,-0.8045095,247.24092000000002,-97.08837,1.5785198,JOG
14898537000000.0,1.1962480545043945,3.141787052154541,10.850912094116211,-0.5901093482971191,0.504778265953064,-0.61758476,-0.84238315,247.37302999999997,-97.18544,1.5592803999999998,JOG
14898543000000.0,1.2012512683868408,3.218409299850464,10.933389663696289,-0.5914235711097717,0.508804202079773,-0.6719518,-0.88697636,247.51605,-97.27154499999999,1.5227412,JOG
14898550000000.0,1.2062549591064453,3.295192003250122,11.016875267028809,-0.5931647419929504,0.5118017196655273,-0.7461719,-0.91782504,247.67654,-97.34962,1.4783705,JOG
14898556000000.0,1.2112525701522827,3.372023105621338,11.101183891296387,-0.5952980518341064,0.5133861303329468,-0.8145888000000001,-0.93554014,247.84752999999998,-97.41983,1.4253018999999998,JOG
14898562000000.0,1.2162566184997559,3.449094772338867,11.186519622802734,-0.5978254079818726,0.5142512917518616,-0.88789266,-0.93676186,248.03799999999998,-97.48833499999999,1.3676107,JOG
14898568000000.0,1.2212785482406616,3.526578664779663,11.273061752319336,-0.6007474064826965,0.5146796703338623,-0.9728029,-0.9016371,248.24916000000002,-97.5529,1.314821,JOG
14898575000000.0,1.2262754440307617,3.603787422180176,11.359899520874023,-0.6039650440216064,0.5152154564857483,-1.0005972,-0.8723155999999999,248.46167000000003,-97.61704,1.2620255,JOG
14898581000000.0,1.231271743774414,3.681103229522705,11.447484970092773,-0.6075056791305542,0.5150390267372131,-1.0314459999999999,-0.79381937,248.69904,-97.67956,1.2323021,JOG
14898586000000.0,1.2362689971923828,3.758544921875,11.535809516906738,-0.6113548874855042,0.5127559304237366,-1.0726794,-0.7058548000000001,248.9454,-97.73741,1.2142731000000002,JOG
14898591000000.0,1.2412663698196411,3.8360912799835205,11.624814987182617,-0.6154946088790894,0.507778525352478,-1.1294898000000002,-0.5867361,249.20572,-97.79348,1.2270586,JOG
14898597000000.0,1.2462654113769531,3.9137630462646484,11.714498519897461,-0.6199123859405518,0.5000713467597961,-1.1560625,-0.44623706,249.46982000000003,-97.84338000000001,1.2712435,JOG
14898602000000.0,1.2512856721878052,3.9918668270111084,11.80522346496582,-0.6246301531791687,0.48921018838882446,-1.1856893999999998,-0.28802297,249.75247000000002,-97.8838,1.3518816,JOG
14898607000000.0,1.2562823295593262,4.06968355178833,11.896047592163086,-0.6295503377914429,0.4763885736465454,-1.2263118999999998,-0.13225232,250.04721,-97.92387,1.4690595,JOG
14898612000000.0,1.2612735033035278,4.147496223449707,11.987306594848633,-0.6346935033798218,0.46153196692466736,-1.2308934999999999,0.007330383,250.34167000000002,-97.95671,1.6244315,JOG
14898618000000.0,1.2662690877914429,4.227258205413818,12.079384803771973,-0.6434638500213623,0.44512316584587097,-1.2241739,0.11942416,250.64517,-97.9923,1.8115481,JOG
14898623000000.0,1.2712613344192505,4.309098720550537,12.172125816345215,-0.6563236713409424,0.42696818709373474,-1.1930199,0.21258110000000002,250.94351,-98.02832,2.0291145,JOG
14898628000000.0,1.2762571573257446,4.396170616149902,12.266423225402832,-0.6682654023170471,0.40820181369781494,-1.1374311000000001,0.28680122,251.28668,-98.12911,2.3990419999999997,JOG
14898633000000.0,1.2812515497207642,4.488674640655518,12.362241744995117,-0.6783116459846497,0.3873591423034668,-1.0543533999999999,0.36377025,251.61165,-98.23326999999999,2.7869243999999997,JOG
14898639000000.0,1.2862498760223389,4.585226535797119,12.456974983215332,-0.6807160973548889,0.3644205927848816,-0.97402465,0.42424592,251.92662,-98.36754599999999,3.19522,JOG
14898644000000.0,1.2912439107894897,4.685060977935791,12.549980163574219,-0.6748197674751282,0.33905836939811707,-0.93951076,0.4841107,252.22928,-98.50950999999999,3.6141272000000004,JOG
14898649000000.0,1.2962427139282227,4.779350757598877,12.64432430267334,-0.671166718006134,0.3115318715572357,-0.91782504,0.5329799,252.5263,-98.65307,4.0281696,JOG
14898654000000.0,1.3012386560440063,4.8668317794799805,12.740266799926758,-0.671403706073761,0.2801659107208252,-0.9260716999999998,0.57971114,252.81982000000002,-98.79462,4.4472165,JOG
14898660000000.0,1.3062375783920288,4.94782829284668,12.837865829467773,-0.675403356552124,0.2441396564245224,-0.9077458,0.62949663,253.0977,-98.92451,4.8779793,JOG
14898665000000.0,1.3112307786941528,5.0227437019348145,12.936817169189453,-0.682844877243042,0.20228531956672668,-0.88453287,0.6942484,253.37482000000003,-99.0534,5.315321400000001,JOG
14898670000000.0,1.3162287473678589,5.093667030334473,13.051403999328613,-0.7051384449005127,0.15489721298217773,-0.79473567,0.7635816,253.63187000000002,-99.17866500000001,5.751936,JOG
14898675000000.0,1.321224331855774,5.161055088043213,13.182140350341797,-0.7426303625106812,0.10588382929563522,-0.6450737,0.8072583999999999,253.86287000000002,-99.31489599999999,6.192243599999999,JOG
14898681000000.0,1.3262220621109009,5.2205915451049805,13.316567420959473,-0.7790907621383667,0.051327552646398544,-0.42943826,0.9184359000000001,254.05933,-99.44753,6.642771000000001,JOG
14898686000000.0,1.3312228918075562,5.271674633026123,13.451876640319824,-0.8110935091972351,-0.008655277080833912,-0.17684549,1.07665,254.20177999999999,-99.60591,7.114253999999999,JOG
14898691000000.0,1.3362243175506592,5.30857515335083,13.58278751373291,-0.8230947256088257,-0.07517530769109726,0.05467244,1.2516629,254.2996,-99.79845,7.604972999999999,JOG
14898696000000.0,1.341225028038025,5.330397605895996,13.708102226257324,-0.8119133710861206,-0.14877940714359283,0.22540927,1.4251486,254.34423999999999,-100.01966999999999,8.132232,JOG
14898702000000.0,1.3462234735488892,5.330384254455566,13.817529678344727,-0.7696329355239868,-0.2265019565820694,0.36163223,1.6340646,254.33912999999998,-100.26044499999999,8.674124,JOG
14898707000000.0,1.3512245416641235,5.303382873535156,13.903512001037598,-0.6901170015335083,-0.30940937995910645,0.43188173,1.8979582999999998,254.30652,-100.55454,9.268528,JOG
14898712000000.0,1.3562226295471191,5.248007774353027,13.958035469055176,-0.5806537866592407,-0.39906468987464905,0.40347649999999996,2.179567,254.23471,-100.8526,9.870028,JOG
14898717000000.0,1.3612207174301147,5.164332389831543,13.979320526123047,-0.4439343214035034,-0.49567800760269165,0.32131509999999996,2.466063,254.15887,-101.24306999999999,10.532095,JOG
14898723000000.0,1.3662183284759521,5.0479607582092285,13.964367866516113,-0.2680988013744354,-0.5974135398864746,0.18600847,2.742785,254.06247000000002,-101.65720999999999,11.198507000000001,JOG
14898728000000.0,1.3712173700332642,4.894924640655518,13.91044807434082,-0.04269319400191307,-0.7014915943145752,-0.005497787,3.0088167,254.00099,-102.18627,11.923813,JOG
14898733000000.0,1.3762155771255493,4.711109638214111,13.833744049072266,0.22504276037216187,-0.8061270117759705,-0.3036,3.2195654,253.95975,-102.73124,12.619455,JOG
14898738000000.0,1.3812133073806763,4.499578475952148,13.741105079650879,0.5312299728393555,-0.911973774433136,-0.64934975,3.3826663,253.97477999999998,-103.384674,13.358347,JOG
14898743000000.0,1.3862115144729614,4.256510257720947,13.64848804473877,0.8029429316520691,-1.0194231271743774,-0.8032878000000001,3.4584135999999996,253.93625,-75.95884000000001,14.040229,JOG
14898749000000.0,1.3912101984024048,3.981293201446533,13.562541007995605,1.0108602046966553,-1.129333734512329,-0.6395759,3.4642167,253.88316,-75.22244,14.729931,JOG
14898754000000.0,1.39620840549469,3.6729791164398193,13.491156578063965,1.1111797094345093,-1.2392467260360718,-0.22327125,3.4012976000000004,253.70206000000002,-74.49436999999999,15.321876000000001,JOG
14898759000000.0,1.4012123346328735,3.3305165767669678,13.438674926757812,1.0793269872665405,-1.340258240699768,0.35002577,3.281568,253.40127999999999,-73.72754,15.873795499999998,JOG
14898764000000.0,1.4062153100967407,2.962986946105957,13.398211479187012,0.944205105304718,-1.426576018333435,0.9398162,3.145956,252.97395,-73.2796,16.07726,JOG
14898770000000.0,1.4112138748168945,2.5766172409057617,13.365077018737793,0.7261291146278381,-1.4961018562316895,1.3261883999999997,2.9758299999999998,252.42636000000002,-72.8508,16.213428,JOG
14898775000000.0,1.4162110090255737,2.1985363960266113,13.346269607543945,0.4758646488189697,-1.5486890077590942,1.4321736,2.867096,251.94691,-72.801834,16.062595,JOG
14898780000000.0,1.4212100505828857,1.8527346849441528,13.347978591918945,0.238410085439682,-1.5914093255996704,1.4816537,2.6245825000000003,251.37923999999998,-72.81707,15.826667,JOG
14898785000000.0,1.426208734512329,1.576616644859314,13.38372802734375,0.06596750766038895,-1.6212238073349,1.3243558000000002,2.4055874,250.98748999999998,-72.79533,15.730635999999999,JOG
14898791000000.0,1.4312071800231934,1.3953337669372559,13.462594032287598,-0.006030489690601826,-1.644045352935791,0.8909469999999999,2.2666154,250.66827,-72.812675,15.600079000000001,JOG
14898796000000.0,1.4362062215805054,1.3357194662094116,13.588595390319824,0.025784755125641823,-1.663322925567627,0.22602014,2.2446243999999997,250.49327000000002,-72.83578,15.486728,JOG
14898801000000.0,1.441205382347107,1.4269092082977295,13.766141891479492,0.1653066724538803,-1.680808186531067,-0.5491679,2.4281892999999997,250.47432,-72.84111,15.420289000000002,JOG
14898806000000.0,1.4462041854858398,1.5995566844940186,13.97465705871582,0.3163096606731415,-1.6993962526321411,-1.0925325000000001,2.7968466,250.46886,-72.73234000000001,15.400798000000002,JOG
14898812000000.0,1.4512046575546265,1.7960796356201172,14.197152137756348,0.3985871970653534,-1.7198748588562012,-1.0461067,3.1789427000000003,250.50421,-72.5586,15.458404000000002,JOG
14898817000000.0,1.4562023878097534,1.9887828826904297,14.424734115600586,0.4130587875843048,-1.7416385412216187,-0.47678033,3.4235942,250.46207,-71.73455,16.085048999999998,JOG
14898822000000.0,1.4612013101577759,2.110442638397217,14.637162208557129,0.35278573632240295,-1.7631213665008545,0.14874569,3.5155294,250.37296,-70.86893,16.754034,JOG
14898827000000.0,1.466204285621643,2.172879934310913,14.817044258117676,0.2462717890739441,-1.7806107997894287,0.7266241999999999,3.5109480000000004,250.25345,-70.01005,17.511791,JOG
14898833000000.0,1.4712036848068237,2.192077398300171,14.942937850952148,0.13046711683273315,-1.7956706285476685,1.1808025,3.4434474,249.9776,-69.16045,18.230787,JOG
14898838000000.0,1.4762392044067383,2.1785879135131836,14.99951171875,0.013861821964383125,-1.8098139762878418,1.3341296999999999,3.2452216,249.70674,-68.67905400000001,18.63469,JOG
14898843000000.0,1.481235384941101,2.1539087295532227,14.995867729187012,-0.0931268185377121,-1.8228780031204224,1.3796391000000001,2.9804115,249.34063999999998,-68.24318000000001,18.973501000000002,JOG
14898848000000.0,1.4862290620803833,2.1237878799438477,14.925248146057129,-0.1911873072385788,-1.8362387418746948,1.4825698999999999,2.7449228999999997,248.92432999999997,-67.87453000000001,19.220108,JOG
14898854000000.0,1.4912267923355103,2.1031229496002197,14.78695011138916,-0.2821900546550751,-1.8499454259872437,1.6218473,2.574186,248.49701000000002,-67.56126400000001,19.39978,JOG
14898859000000.0,1.4962247610092163,2.0862481594085693,14.582674980163574,-0.3669222593307495,-1.8627263307571411,1.7922786,2.4923303,248.0235,-67.20795,19.582722,JOG
14898864000000.0,1.5012239217758179,2.0639169216156006,14.31057357788086,-0.4464055001735687,-1.8744028806686401,2.0173824000000002,2.4211645,247.50485,-66.89972,19.700708,JOG
14898869000000.0,1.506221890449524,2.033184289932251,13.97307014465332,-0.5178818702697754,-1.8856199979782104,2.2143865000000003,2.3011293,246.95592000000002,-66.52561,19.855995,JOG
14898875000000.0,1.5112197399139404,1.9852484464645386,13.568140029907227,-0.5732395648956299,-1.8939930200576782,2.2944098,2.158187,246.38592999999997,-66.19338,19.965744,JOG
14898880000000.0,1.5162187814712524,1.922149896621704,13.105656623840332,-0.6140286922454834,-1.8987294435501099,2.4810293,2.0928242,245.71852,-65.78169,20.111656,JOG
14898885000000.0,1.521217703819275,1.8487324714660645,12.610814094543457,-0.6435230374336243,-1.9014391899108887,2.6847527,1.964848,245.0423,-65.43383,20.178665,JOG
14898890000000.0,1.5262161493301392,1.7680883407592773,12.0928316116333,-0.6613873243331909,-1.901628017425537,2.833193,1.8570304,244.2821,-65.0133,20.258987,JOG
14898896000000.0,1.5312142372131348,1.689499855041504,11.579035758972168,-0.6648467779159546,-1.898063063621521,2.8756482999999995,1.7696766,243.50644,-64.637985,20.28552,JOG
14898901000000.0,1.5362128019332886,1.6149346828460693,11.071979522705078,-0.6549111008644104,-1.8891700506210327,2.869845,1.7079792,242.66376,-64.21499,20.313124,JOG
14898906000000.0,1.5412113666534424,1.554083228111267,10.584819793701172,-0.6336268782615662,-1.876258373260498,2.8102856,1.6688838,241.8341,-63.824177,20.305904,JOG
14898911000000.0,1.5462507009506226,1.5087546110153198,10.117636680603027,-0.6008433699607849,-1.8602259159088135,2.7809641,1.6572775000000002,240.95181000000002,-63.346813,20.353545999999998,JOG
14898916000000.0,1.5512504577636719,1.4792958498001099,9.679990768432617,-0.5647037029266357,-1.8413203954696655,2.7159069,1.6563611,240.10269,-62.89915500000001,20.382893,JOG
14898922000000.0,1.5562512874603271,1.4640802145004272,9.270694732666016,-0.5243916511535645,-1.8197112083435059,2.595872,1.6533068,239.26865,-62.422180000000004,20.418432,JOG
14898927000000.0,1.56124746799469,1.4451963901519775,8.88594913482666,-0.4795094430446625,-1.7945982217788696,2.4599542999999997,1.6560557,238.46027,-61.969868000000005,20.444439000000003,JOG
14898932000000.0,1.566246747970581,1.4167827367782593,8.525186538696289,-0.4325212836265564,-1.767405390739441,2.3429737,1.6545285,237.65732000000003,-61.432156000000006,20.588028,JOG
14898937000000.0,1.5712441205978394,1.3394362926483154,8.19156265258789,-0.3999071419239044,-1.7370226383209229,2.2956316,1.6444492,236.87596000000002,-60.92629,20.720442000000002,JOG
14898943000000.0,1.5762395858764648,1.2173309326171875,7.883052825927734,-0.3801732063293457,-1.7032619714736938,2.2953262000000003,1.5925257,236.11472,-60.438023,20.802107,JOG
14898948000000.0,1.5812360048294067,1.0749216079711914,7.5900092124938965,-0.36222216486930847,-1.6655057668685913,2.2864685000000002,1.5396858,235.3734,-59.983230000000006,20.8694,JOG
14898953000000.0,1.5862525701522827,0.9115633964538574,7.311075210571289,-0.3453946113586426,-1.622957706451416,2.2708917,1.4618006000000001,234.58162000000002,-59.599532999999994,20.882206,JOG
14898958000000.0,1.5912491083145142,0.7364314794540405,7.035979270935059,-0.31663602590560913,-1.5736106634140015,2.2308798,1.3637567,233.80951000000002,-59.267563,20.86686,JOG
14898964000000.0,1.5962456464767456,0.5485823750495911,6.763670444488525,-0.2755982279777527,-1.5176316499710083,2.1499403,1.2629639,233.03735,-58.99889399999999,20.759418,JOG
14898969000000.0,1.6012433767318726,0.35277998447418213,6.4888434410095215,-0.2157088965177536,-1.4532907009124756,2.0610592,1.1200215,232.29799,-58.805923,20.609509,JOG
14898974000000.0,1.6062368154525757,0.15044273436069489,6.211194038391113,-0.13729996979236603,-1.3809031248092651,2.021353,0.95386606,231.5856,-58.677980000000005,20.421156,JOG
14898979000000.0,1.6112340688705444,-0.045311663299798965,5.932251453399658,-0.03883421793580055,-1.3003442287445068,1.9233092,0.75655663,230.88794,-58.576572,20.111708,JOG
14898985000000.0,1.6162550449371338,-0.23248329758644104,5.651264667510986,0.08080581575632095,-1.2183489799499512,1.7699821,0.552833,230.24032999999997,-58.525852,19.76448,JOG
14898990000000.0,1.6212513446807861,-0.38553133606910706,5.376651763916016,0.21037018299102783,-1.1243972778320312,1.707063,0.44104472,229.50002,-58.525948,19.363874,JOG
14898995000000.0,1.6262447834014893,-0.4982985854148865,5.108642578125,0.34934288263320923,-1.0304878950119019,1.5552629,0.2312125,228.86766,-58.553688,18.9103,JOG
14898999000000.0,1.631240963935852,-0.5515819787979126,4.853104591369629,0.49265778064727783,-0.931768000125885,1.3768903000000001,0.050396382999999996,228.18323999999998,-58.623405000000005,18.43384,JOG
14899005000000.0,1.6362357139587402,-0.5419198274612427,4.611701011657715,0.638137698173523,-0.8291938304901123,1.187522,-0.11026118,227.57176,-58.739784,17.92428,JOG
14899010000000.0,1.641231894493103,-0.46952953934669495,4.398293495178223,0.7923976182937622,-0.7250543236732483,0.9990701,-0.25167647,227.02354,-58.84143,17.478214,JOG
14899015000000.0,1.6462267637252808,-0.33762654662132263,4.215622425079346,0.9567939639091492,-0.6198886632919312,0.8521569999999999,-0.35155296,226.53426000000002,-58.995430000000006,17.018652,JOG
14899019000000.0,1.6512233018875122,-0.14497075974941254,4.08612060546875,1.1500788927078247,-0.5153467059135437,0.729984,-0.40958515,226.15245,-59.121019999999994,16.723843,JOG
14899024000000.0,1.6562180519104004,0.1055777296423912,4.0143256187438965,1.3765747547149658,-0.41403213143348694,0.63224554,-0.410196,225.81067000000002,-59.265938,16.435207000000002,JOG
14899030000000.0,1.661218285560608,0.40668782591819763,4.010818958282471,1.6480402946472168,-0.3186865746974945,0.5375614000000001,-0.35460728,225.54987999999997,-59.340545999999996,16.339241,JOG
14899035000000.0,1.6662160158157349,0.7517321705818176,4.07442045211792,1.9647719860076904,-0.2299686074256897,0.4297437,-0.24678956,225.31194,-59.407481999999995,16.27386,JOG
14899040000000.0,1.671215534210205,1.1224195957183838,4.203624725341797,2.3145225048065186,-0.1492178589105606,0.33139440000000003,-0.10781772,225.10272,-59.331844,16.405151,JOG
14899044000000.0,1.6762151718139648,1.510000228881836,4.3949127197265625,2.690680503845215,-0.07781652361154556,0.30909783,0.016798794,224.88892,-59.222942,16.564312,JOG
14899050000000.0,1.6812161207199097,1.8938052654266357,4.639683246612549,3.079322576522827,-0.01721961982548237,0.40347649999999996,0.11178834,224.6424,-58.94709,16.857904,JOG
14899055000000.0,1.6862232685089111,2.265784502029419,4.933837413787842,3.474914073944092,0.029649019241333008,0.6026186,0.18081611,224.36115,-58.624719999999996,17.155798,JOG
14899060000000.0,1.6912230253219604,2.6122782230377197,5.2520270347595215,3.860811233520508,0.060346923768520355,0.84391034,0.2510656,224.03017999999997,-58.189933999999994,17.498888,JOG
14899064000000.0,1.6962231397628784,2.927248477935791,5.583815097808838,4.23006010055542,0.0755893811583519,0.8888089,0.32162055,223.69394,-57.718982999999994,17.839385999999998,JOG
14899070000000.0,1.7012245655059814,3.1891744136810303,5.8874664306640625,4.559887409210205,0.0799764022231102,0.72295904,0.3475823,223.35057,-57.21054,18.152943,JOG
14899075000000.0,1.7062286138534546,3.390321731567383,6.146024703979492,4.841691493988037,0.07452598959207535,0.38698313,0.3286455,223.04771000000002,-56.674243999999995,18.466520000000003,JOG
14899080000000.0,1.711228370666504,3.518927812576294,6.341163158416748,5.056614398956299,0.060380950570106506,0.13591751,0.29229903,222.77733999999998,-56.143566,18.729879999999998,JOG
14899085000000.0,1.7162290811538696,3.5701138973236084,6.4652814865112305,5.196857929229736,0.04515039920806885,-0.43127087,0.26053402,222.69221000000002,-55.640423,19.060062,JOG
14899090000000.0,1.7212285995483398,3.520800828933716,6.518749237060547,5.27671480178833,0.0339544415473938,-0.9810496,0.16035213,222.66554,-55.186930000000004,19.329197,JOG
14899095000000.0,1.72622811794281,3.349581241607666,6.501389980316162,5.308538436889648,0.03512366861104965,-1.4608842,0.009773844,222.78821000000002,-54.80583000000001,19.635695000000002,JOG
14899100000000.0,1.731226921081543,3.0275142192840576,6.45439338684082,5.271477222442627,0.04419020935893059,-1.93797,-0.25778514,223.08386000000002,-54.528667000000006,19.889011,JOG
14899105000000.0,1.736227035522461,2.5405073165893555,6.400796413421631,5.1549506187438965,0.06686975806951523,-2.1923953999999997,-0.64934975,223.48833,-54.39405,20.104155,JOG
14899109000000.0,1.7412264347076416,1.942578911781311,6.399747371673584,5.110147476196289,0.11347287893295288,-1.720502,-1.1407908000000002,223.81984,-54.50079,19.983711,JOG
14899115000000.0,1.7462266683578491,1.26727294921875,6.486901760101318,5.228707790374756,0.1530510038137436,-0.32070425,-1.5812247,224.0158,-54.597435,19.68832,JOG
14899120000000.0,1.7512251138687134,0.6693384051322937,6.665571212768555,5.4318037033081055,0.14131347835063934,0.47250426,-1.7351627,224.24513,-54.893776,19.031060999999998,JOG
14899125000000.0,1.7562249898910522,0.2605900168418884,6.938918113708496,5.663150787353516,0.07423995435237885,-0.9502009,-1.6331482,224.69563,-55.136192,18.469267000000002,JOG
14899129000000.0,1.761224389076233,-0.0005544533487409353,7.232689380645752,5.7182769775390625,-0.0042993128299713135,-3.2479706000000004,-1.4379768,224.87685,-55.27915,17.493881,JOG
14899135000000.0,1.7662235498428345,-0.14584916830062866,7.491754531860352,5.446359157562256,-0.044258963316679,-4.376544,-1.2052372,225.09942999999998,-55.33185600000001,16.641342,JOG
14899140000000.0,1.771224021911621,-0.21808235347270966,7.71585750579834,4.99682092666626,-0.01798885501921177,-4.1218133,-1.0173961,225.6688,-55.389182999999996,16.292955,JOG
14899145000000.0,1.77622389793396,-0.25877657532691956,7.9050211906433105,4.514218330383301,0.05542030185461044,-3.580892,-0.96669424,226.42978,-55.524494,16.114086,JOG
14899149000000.0,1.781223177909851,-0.2719919681549072,8.068095207214355,4.01798677444458,0.1443036049604416,-3.1703906,-1.0757337,227.74353,-56.363780000000006,16.273249,JOG
14899155000000.0,1.786223292350769,-0.2639767825603485,8.220836639404297,3.5451903343200684,0.23160788416862488,-2.649628,-1.2113458000000001,228.88852999999997,-57.340717000000005,16.321554000000003,JOG
14899160000000.0,1.7912200689315796,-0.22905217111110687,8.366223335266113,3.11545991897583,0.310255229473114,-2.134974,-1.2938126,230.01166,-58.40192,16.42006,JOG
14899165000000.0,1.7962210178375244,-0.15898658335208893,8.50766372680664,2.7529828548431396,0.376019150018692,-1.9633208999999998,-1.3381003,231.10045,-59.448826000000004,16.452301000000002,JOG
14899170000000.0,1.8012276887893677,-0.05665051192045212,8.649693489074707,2.425102710723877,0.42410075664520264,-1.9123137,-1.3515393999999998,232.09985,-60.42846,16.451513000000002,JOG
14899174000000.0,1.806227445602417,0.07306747138500214,8.797383308410645,2.0920183658599854,0.45897457003593445,-1.8316795,-1.3130548,233.0386,-61.361019999999996,16.416716,JOG
14899180000000.0,1.8112215995788574,0.2214929312467575,8.948952674865723,1.7561652660369873,0.4931944012641907,-1.5949692,-1.2901474,233.88407999999998,-62.17814,16.382963,JOG
14899185000000.0,1.8162223100662231,0.3701499402523041,9.100848197937012,1.4224529266357422,0.528846025466919,-1.3808608999999998,-1.2877040000000002,234.7049,-62.936719999999994,16.341492000000002,JOG
14899190000000.0,1.8212169408798218,0.5165206789970398,9.252788543701172,1.0887668132781982,0.5734546780586243,-1.1227703000000002,-1.3414601000000002,235.49725,-63.704914,16.369556,JOG
14899194000000.0,1.8262170553207397,0.6558632850646973,9.40538501739502,0.747890055179596,0.6310029625892639,-0.7974846,-1.4474452,236.2098,-64.48751999999999,16.349117,JOG
14899200000000.0,1.8312146663665771,0.7875974774360657,9.558257102966309,0.4122997522354126,0.7039591670036316,-0.5155702999999999,-1.5732834,236.88849,-65.32298,16.313484,JOG
14899205000000.0,1.8362447023391724,0.9095104932785034,9.712224006652832,0.11167801171541214,0.7902162075042725,-0.35399640000000004,-1.7211128,237.51272999999998,-66.20339,16.219376,JOG
14899210000000.0,1.841240406036377,1.030312180519104,9.866474151611328,-0.15642529726028442,0.8862329721450806,-0.23793201,-1.8808541,238.10827999999998,-67.1634,16.081204999999997,JOG
14899214000000.0,1.8462371826171875,1.1735763549804688,10.025976181030273,-0.3819921612739563,0.9882013201713562,-0.12980886,-2.033876,238.65952000000001,-68.15656,15.889838000000001,JOG
14899220000000.0,1.8512359857559204,1.3382270336151123,10.190505981445312,-0.5671712160110474,1.0940135717391968,-0.03390302,-2.1771238,239.16005,-69.19846,15.604497,JOG
14899225000000.0,1.8562343120574951,1.4962611198425293,10.354512214660645,-0.7064815759658813,1.1998025178909302,0.07941248,-2.266921,239.61548,-70.23608399999999,15.286113,JOG
14899230000000.0,1.8612339496612549,1.6449437141418457,10.517478942871094,-0.8011927008628845,1.2998560667037964,0.17715092,-2.2922719,240.0368,-71.248856,14.946001999999998,JOG
14899235000000.0,1.8662317991256714,1.7847836017608643,10.679375648498535,-0.8540959358215332,1.3888803720474243,0.2275473,-2.2883012000000003,240.40062000000003,-72.131,14.651144,JOG
14899240000000.0,1.8712421655654907,1.9132364988327026,10.838789939880371,-0.8669854402542114,1.464712381362915,0.267559,-2.2736403999999997,240.72781,-72.97259,14.338619,JOG
14899245000000.0,1.8762391805648804,1.997193694114685,10.973742485046387,-0.8629841804504395,1.5274202823638916,0.34574974,-2.2992969,241.01912000000002,-73.75425,14.018748,JOG
14899250000000.0,1.881251335144043,2.035285234451294,11.083712577819824,-0.8418670892715454,1.5765478610992432,0.40072759999999996,-2.3512204,241.19415,-74.46845,13.631454000000002,JOG
14899255000000.0,1.8862483501434326,2.0416247844696045,11.1702880859375,-0.8190956115722656,1.6170672178268433,0.42302418,-2.399784,241.34836,-75.14239,13.246172,JOG
14899259000000.0,1.8912436962127686,2.016401767730713,11.233829498291016,-0.7946174144744873,1.651357889175415,0.42943826,-2.4373524,241.43462000000002,-75.88328,12.733908999999999,JOG
14899265000000.0,1.896242380142212,1.9606983661651611,11.27016544342041,-0.7708390951156616,1.6832351684570312,0.37873647,-2.4245240000000003,241.5247,-76.58959,12.237428999999999,JOG
14899270000000.0,1.9012383222579956,1.8768186569213867,11.279439926147461,-0.7485896944999695,1.7145041227340698,0.24801129,-2.3924537,241.6313,-77.26756999999999,11.751643,JOG
14899275000000.0,1.9062734842300415,1.7659393548965454,11.265052795410156,-0.7432056069374084,1.7462552785873413,0.026572637000000003,-2.31915,241.74017,-78.00315,11.197905,JOG
14899279000000.0,1.9112650156021118,1.6385431289672852,11.235321044921875,-0.7520431280136108,1.7797651290893555,-0.09773844,-2.2614229999999997,241.85326,-78.70938000000001,10.663843,JOG
14899285000000.0,1.9162628650665283,1.490236759185791,11.20101547241211,-0.7817199230194092,1.8121728897094727,-0.32803464,-2.1661282,242.03741000000002,-79.44055999999999,10.095403,JOG
14899290000000.0,1.9212555885314941,1.3231598138809204,11.165518760681152,-0.831204891204834,1.8463531732559204,-0.43554693,-2.1041252999999998,242.21649,-80.14041,9.546774000000001,JOG
14899295000000.0,1.926253318786621,1.1411463022232056,11.133715629577637,-0.850394070148468,1.880128026008606,-0.40164390000000005,-2.0280726000000002,242.41922000000002,-80.85279,8.969139,JOG
14899300000000.0,1.9312492609024048,0.9463505744934082,11.106355667114258,-0.831589937210083,1.910540223121643,-0.41172317,-1.9801197,242.66048999999998,-81.50909,8.414953,JOG
14899304000000.0,1.9362478256225586,0.7594833970069885,11.09162425994873,-0.7939382195472717,1.9357832670211792,-0.47891834,-1.9553796,242.91182999999998,-82.17602,7.812492,JOG
14899310000000.0,1.9412429332733154,0.5848398804664612,11.090513229370117,-0.7429413795471191,1.95085871219635,-0.6609562,-1.9984456000000002,243.19438,-97.21958000000001,7.215658,JOG
14899315000000.0,1.9462426900863647,0.45151612162590027,11.124532699584961,-0.6983043551445007,1.9541760683059692,-0.8045095,-2.0793852999999998,243.43252999999999,-96.60438,6.558039,JOG
14899320000000.0,1.9512429237365723,0.3638555109500885,11.196465492248535,-0.6642251014709473,1.949926733970642,-0.80878556,-2.1374176,243.67897000000002,-96.04531,5.9074,JOG
14899324000000.0,1.9562419652938843,0.3401779234409332,11.318307876586914,-0.6323819160461426,1.94093918800354,-0.7528914000000001,-2.175291,243.9266,-95.51971400000001,5.251835,JOG
14899330000000.0,1.961238980293274,0.3890700042247772,11.495511054992676,-0.5981841683387756,1.9279381036758423,-0.7125743,-2.1670444,244.17562999999998,-95.04986600000001,4.6079373,JOG
14899335000000.0,1.9662402868270874,0.5068086385726929,11.7139892578125,-0.5498896241188049,1.912000060081482,-0.7806858,-2.111761,244.44965,-94.737206,4.0781093,JOG
14899340000000.0,1.9712406396865845,0.6879327893257141,11.966514587402344,-0.4846939742565155,1.8952836990356445,-0.93523467,-2.0198259999999997,244.7327,-94.49993,3.5750375,JOG
14899345000000.0,1.9762579202651978,0.9184470772743225,12.223033905029297,-0.40535399317741394,1.8777002096176147,-1.1313223999999997,-1.8842138,245.05857999999998,-94.45792,3.3328303999999997,JOG
14899350000000.0,1.981256365776062,1.1836960315704346,12.471427917480469,-0.3157747685909271,1.8575053215026855,-1.3365731,-1.7400495999999999,245.42754,-94.45033000000001,3.1220939999999997,JOG
14899355000000.0,1.9862544536590576,1.454451084136963,12.667616844177246,-0.23088438808918,1.8343662023544312,-1.4770721000000002,-1.5952746000000002,245.80489,-94.54526,3.0988064,JOG
14899360000000.0,1.9912526607513428,1.7197948694229126,12.798741340637207,-0.15577860176563263,1.8087489604949951,-1.5299120000000002,-1.4972308,246.21219,-94.64841,3.0927307999999996,JOG
14899365000000.0,1.9962501525878906,1.9642788171768188,12.858722686767578,-0.08782580494880676,1.7823320627212524,-1.5409076000000002,-1.4526376,246.61962999999997,-94.79403,3.1557734,JOG
14899370000000.0,2.001251220703125,2.1821725368499756,12.84616756439209,-0.025797221809625626,1.757306694984436,-1.5286902,-1.4645494,247.03122000000002,-94.93916999999999,3.2172647,JOG
14899375000000.0,2.0062496662139893,2.372588872909546,12.775951385498047,0.03509049490094185,1.7342660427093506,-1.5216653,-1.4776831,247.42091000000002,-95.09644,3.197048,JOG
14899380000000.0,2.011246919631958,2.535722017288208,12.655060768127441,0.09690143913030624,1.7126975059509277,-1.4523321000000002,-1.5314392,247.78427000000002,-95.24553,3.162,JOG
14899385000000.0,2.0162456035614014,2.6753270626068115,12.491196632385254,0.1640380173921585,1.6927504539489746,-1.3603969,-1.6120733999999999,248.12817,-95.39113,3.0467675,JOG
14899389000000.0,2.0212435722351074,2.7953298091888428,12.292737007141113,0.24077260494232178,1.6736711263656616,-1.2168436000000002,-1.6939293000000002,248.43204,-95.535645,2.9230497000000004,JOG
14899395000000.0,2.026242256164551,2.8984735012054443,12.067766189575195,0.3262612223625183,1.6550551652908325,-1.0662653,-1.7751743999999998,248.69502000000003,-95.6626,2.7146938,JOG
14899400000000.0,2.0312411785125732,2.987581729888916,11.824762344360352,0.41958847641944885,1.637089490890503,-0.8943066999999999,-1.8374827,248.90567000000001,-95.79655,2.5001714,JOG
14899405000000.0,2.0362401008605957,3.0728137493133545,11.573806762695312,0.5307730436325073,1.6197068691253662,-0.7425067,-1.8811595,249.06802000000002,-95.90901,2.232409,JOG
14899409000000.0,2.041238784790039,3.1599886417388916,11.320760726928711,0.6650909781455994,1.6039830446243286,-0.5824600000000001,-1.8622226999999998,249.17664,-96.041565,1.9784671000000003,JOG
14899415000000.0,2.0462443828582764,3.2491796016693115,11.065314292907715,0.822100818157196,1.589341402053833,-0.47433686,-1.7907515,249.25311000000002,-96.16251,1.7066077000000002,JOG
14899420000000.0,2.051243782043457,3.339963436126709,10.808347702026367,0.9991792440414429,1.5721757411956787,-0.44043383,-1.6624697,249.30635,-96.28633,1.4675822,JOG
14899425000000.0,2.0562446117401123,3.4539730548858643,10.549599647521973,1.2115062475204468,1.5478675365447998,-0.44684792,-1.4556919,249.3429,-96.40594499999999,1.2704647,JOG
14899430000000.0,2.0612432956695557,3.607428550720215,10.289467811584473,1.469355583190918,1.509163498878479,-0.52015173,-1.1798861999999999,249.39465,-96.48122,1.1362233,JOG
14899434000000.0,2.066241979598999,3.7995059490203857,10.02999496459961,1.724571704864502,1.4517358541488647,-0.69058317,-0.8353582,249.46942,-96.37608,1.0953798000000001,JOG
14899440000000.0,2.0712411403656006,4.028862476348877,9.772719383239746,1.9424289464950562,1.3774126768112183,-0.84971356,-0.45265114,249.57342999999997,-96.20513000000001,1.1486006000000002,JOG
14899445000000.0,2.076240062713623,4.283112525939941,9.511399269104004,2.093269109725952,1.29106605052948,-0.9108001,-0.07360926,249.69554,-95.86267,1.3972826999999999,JOG
14899450000000.0,2.0812366008758545,4.5506591796875,9.240450859069824,2.150465250015259,1.1990337371826172,-0.915687,0.26939157,249.85802,-95.49741999999999,1.7470776999999997,JOG
14899454000000.0,2.0862324237823486,4.8209710121154785,8.958527565002441,2.1187164783477783,1.1058672666549683,-0.84482664,0.6123924,250.03464,-95.281746,2.3273726000000003,JOG
14899460000000.0,2.091230869293213,5.0839385986328125,8.664139747619629,2.0019073486328125,1.0161683559417725,-0.6798930000000001,0.9465357,250.19095,-95.198654,3.0086071,JOG
14899465000000.0,2.0962283611297607,5.320306301116943,8.366392135620117,1.8227952718734741,0.9326333403587341,-0.4392121,1.2421944999999999,250.33632000000003,-95.52818,3.8604712,JOG
14899470000000.0,2.101227045059204,5.508400917053223,8.0748291015625,1.604300856590271,0.8558452129364014,-0.31306845,1.4932601,250.47086000000002,-96.04201,4.7980127,JOG
14899474000000.0,2.106224298477173,5.639713287353516,7.792952060699463,1.3662986755371094,0.7867303490638733,-0.00061086525,1.6038266,250.52017,-96.86740999999999,5.8212410000000006,JOG
14899480000000.0,2.111222267150879,5.702703952789307,7.524803161621094,1.1308890581130981,0.7217382788658142,0.27824909999999997,1.790446,250.55243,-97.8217,6.93975,JOG
14899485000000.0,2.1162192821502686,5.703897953033447,7.282425403594971,0.9052977561950684,0.6569706797599792,0.50671273,2.0051650000000003,250.54645,-98.83196,8.016216,JOG
14899490000000.0,2.12121844291687,5.648741245269775,7.079166889190674,0.6973090171813965,0.5850256085395813,0.8005389,2.314874,250.45467000000002,-99.91759499999999,9.178657000000001,JOG
14899494000000.0,2.1262130737304688,5.541586399078369,6.9080810546875,0.5280203223228455,0.5002629160881042,1.0781771999999998,2.6218336,250.32834,-100.90903,10.234459,JOG
14899500000000.0,2.131211280822754,5.383489608764648,6.759823322296143,0.4396685063838959,0.40613290667533875,1.2935071000000002,2.7999007999999996,250.14764,-101.9455,11.343612,JOG
14899505000000.0,2.13620662689209,5.187695026397705,6.641942501068115,0.4443959593772888,0.31164783239364624,1.3778065000000002,2.8341092999999997,249.93686,-102.81255,12.282689999999999,JOG
14899510000000.0,2.1412062644958496,4.972817420959473,6.571057319641113,0.5748294591903687,0.2147919237613678,1.4285084,2.7495046000000003,249.6814,-103.675934,13.2322035,JOG
14899515000000.0,2.1462037563323975,4.741599082946777,6.556995391845703,0.7980165481567383,0.10117214173078537,1.5329663999999998,2.6401596,249.32062000000002,-104.23601500000001,13.930914999999999,JOG
14899519000000.0,2.1512041091918945,4.496740341186523,6.626914978027344,1.0591975450515747,-0.03456862270832062,1.7993035,2.5699099999999997,248.89296000000002,-104.78681999999999,14.603518,JOG
14899525000000.0,2.1562018394470215,4.235722541809082,6.7769575119018555,1.3117209672927856,-0.18581484258174896,2.2644775000000004,2.5625796000000003,248.18822999999998,-105.199844,15.157714000000002,JOG
14899530000000.0,2.161233901977539,3.945091485977173,7.020378589630127,1.4361652135849,-0.3465314209461212,2.8542678,2.5689938,247.34464,-74.33123,15.667363,JOG
14899535000000.0,2.166231632232666,3.633896589279175,7.33009672164917,1.4619959592819214,-0.5098492503166199,3.2904254999999996,2.557082,246.3251,-73.97622,15.92123,JOG
14899539000000.0,2.171229600906372,3.287511110305786,7.715493679046631,1.3679988384246826,-0.6669050455093384,3.0479121,2.5308146000000002,245.31604,-73.50293,16.13736,JOG
14899545000000.0,2.17622709274292,2.908540964126587,8.167694091796875,1.1832630634307861,-0.8131818175315857,1.9727893,2.4932466,244.70096,-73.798965,15.600473999999998,JOG
14899550000000.0,2.1812241077423096,2.5023550987243652,8.655386924743652,1.047302484512329,-0.9506539106369019,0.3277292,2.4755312999999997,244.31107999999998,-73.980896,15.130915,JOG
14899555000000.0,2.186220407485962,2.0704989433288574,9.17656135559082,0.957439661026001,-1.0787324905395508,-1.2501358,2.552195,244.35294,-74.25429,14.682316,JOG
14899559000000.0,2.191218614578247,1.635318636894226,9.691533088684082,0.9353548884391785,-1.1978530883789062,-2.2977695,2.7043004,244.68715,-74.430824,14.347975,JOG
14899565000000.0,2.196216344833374,1.202688217163086,10.190640449523926,0.9829180240631104,-1.3118137121200562,-2.7864617999999997,2.8053987,245.28256000000002,-74.53055,14.1071005,JOG
14899570000000.0,2.2012181282043457,0.791700541973114,10.670384407043457,1.003836750984192,-1.428800106048584,-2.8976393,2.9040534,245.93527000000003,-74.54913,13.860454,JOG
14899575000000.0,2.2062172889709473,0.4066568911075592,11.13037109375,0.9741337299346924,-1.5499368906021118,-2.9184086,2.9407053,246.671,-74.48389,13.69384,JOG
14899580000000.0,2.2112157344818115,0.11090179532766342,11.569184303283691,0.9132239818572998,-1.6676781177520752,-2.5350907000000005,3.025921,247.16299999999998,-74.29615,13.516098000000001,JOG
14899584000000.0,2.2162153720855713,-0.08139139413833618,11.98725414276123,0.8274481296539307,-1.7817814350128174,-2.4996605,3.114191,247.73312,-74.00599,13.414696,JOG
14899590000000.0,2.2212142944335938,-0.16135723888874054,12.38497543334961,0.7270159125328064,-1.8811931610107422,-2.6203065,3.2030717999999996,248.30516,-73.608536,13.501918,JOG
14899595000000.0,2.226213216781616,-0.1266058087348938,12.763056755065918,0.6174160242080688,-1.9597620964050293,-2.6090055,3.415653,248.79608,-73.14990999999999,13.666657,JOG
14899600000000.0,2.231245279312134,-0.003870955901220441,13.122109413146973,0.4970167875289917,-2.013618230819702,-2.6774223,3.5750887000000002,249.42659,-72.702675,14.003088,JOG
14899604000000.0,2.2362425327301025,0.17153233289718628,13.462701797485352,0.3699764013290405,-2.0407090187072754,-2.9123,3.6343427000000004,250.0774,-72.28454599999999,14.386311,JOG
14899610000000.0,2.241239547729492,0.4077358543872833,13.785551071166992,0.24409738183021545,-2.0400192737579346,-2.905275,3.6410622999999998,250.75986,-71.772705,15.024312,JOG
14899615000000.0,2.246236801147461,0.7027173638343811,14.091442108154297,0.12344515323638916,-2.0166757106781006,-2.488054,3.6114354,251.37692,-71.31846,15.644520000000002,JOG
14899620000000.0,2.251234769821167,1.0450735092163086,14.363751411437988,0.02840825542807579,-1.979942798614502,-1.7782288,3.5598172999999997,251.98291,-70.78518000000001,16.414587,JOG
14899625000000.0,2.256234645843506,1.4275068044662476,14.593655586242676,-0.029867028817534447,-1.939698338508606,-1.0262536,3.4468071000000005,252.4505,-70.31031,17.110374,JOG
14899630000000.0,2.2612340450286865,1.831206202507019,14.779200553894043,-0.04958659037947655,-1.901728868484497,-0.30451632,3.2473598,252.80643999999998,-69.63293,17.986403,JOG
14899635000000.0,2.2662312984466553,2.244380474090576,14.92005729675293,-0.0304077360779047,-1.8657991886138916,0.28924468,3.0051514999999998,252.9768,-69.01527,18.75894,JOG
14899640000000.0,2.2712290287017822,2.6342577934265137,15.013113021850586,0.002114298287779093,-1.830758810043335,0.79504114,2.7617217999999997,252.95879,-68.24463,19.607720999999998,JOG
14899645000000.0,2.2762269973754883,2.9807522296905518,15.057473182678223,0.031674593687057495,-1.7934025526046753,1.3048081,2.5674667,252.7619,-67.54531999999999,20.348501000000002,JOG
14899649000000.0,2.281224012374878,3.2734999656677246,15.043307304382324,0.05342753231525421,-1.7518028020858765,1.9679023999999998,2.4749205,252.32422999999997,-66.76576999999999,21.097034,JOG
14899655000000.0,2.2862226963043213,3.503258466720581,14.96153736114502,0.06312743574380875,-1.7070485353469849,2.6004534,2.4174993,251.74167000000003,-66.05145,21.755016,JOG
14899660000000.0,2.2912209033966064,3.680267572402954,14.823687553405762,0.06876377016305923,-1.6580708026885986,3.1089987999999997,2.3484714,250.98315,-65.38837,22.334093,JOG
14899665000000.0,2.2962183952331543,3.810948610305786,14.636831283569336,0.07460513710975647,-1.6044597625732422,3.2995887,2.2418754,250.1322,-64.77895,22.850428,JOG
14899670000000.0,2.301234006881714,3.8790647983551025,14.409433364868164,0.07145068049430847,-1.5489039421081543,3.6172385,2.1273382,249.082,-64.23548000000001,23.261429999999997,JOG
14899675000000.0,2.306231737136841,3.887002944946289,14.154524803161621,0.05641310289502144,-1.4927278757095337,3.6829066,2.051591,248.05815,-63.737114,23.638706,JOG
14899680000000.0,2.3112292289733887,3.8344063758850098,13.86955738067627,0.032633546739816666,-1.4365993738174438,3.7436876000000003,1.8594738000000002,246.93906,-63.325317000000005,23.889341,JOG
14899685000000.0,2.3162271976470947,3.724484443664551,13.554940223693848,0.0031235807109624147,-1.3787742853164673,3.7238345,1.6404786,245.83943,-62.965267000000004,24.094967,JOG
14899689000000.0,2.321225643157959,3.5734965801239014,13.208572387695312,-0.024053895846009254,-1.3187894821166992,3.6816847000000004,1.3881912,244.76242000000002,-62.812378,24.071892000000002,JOG
14899695000000.0,2.326223611831665,3.392800807952881,12.829732894897461,-0.043701767921447754,-1.2564345598220825,3.5995235,1.0998629,243.73712,-62.743324,23.970905,JOG
14899700000000.0,2.3312206268310547,3.1911845207214355,12.414791107177734,-0.0504441112279892,-1.1912174224853516,3.4492507000000003,0.80909103,242.72415,-62.703680000000006,23.828885999999997,JOG
14899705000000.0,2.336219310760498,2.9747250080108643,11.961158752441406,-0.040612880140542984,-1.1231764554977417,3.2430835,0.5326744999999999,241.78519,-62.752396,23.611985999999998,JOG
14899710000000.0,2.341217517852783,2.7488796710968018,11.477195739746094,-0.01220767106860876,-1.0525761842727661,2.9767463,0.28619036,240.86700000000002,-62.821835,23.36459,JOG
14899714000000.0,2.34621524810791,2.5177102088928223,10.969144821166992,0.03620040789246559,-0.9796344041824341,2.6303856,0.054061572999999995,240.06354,-62.97615,23.058973,JOG
14899720000000.0,2.351217269897461,2.2817955017089844,10.435619354248047,0.0982736349105835,-0.9031737446784973,2.1954496,-0.14691310000000002,239.3171,-63.14767,22.725264000000003,JOG
14899725000000.0,2.3562209606170654,2.0421628952026367,9.8764009475708,0.16702334582805634,-0.8226979970932007,1.7498235,-0.31001409999999996,238.69846,-63.38644,22.36,JOG
14899730000000.0,2.361220598220825,1.7976418733596802,9.302984237670898,0.23203182220458984,-0.7372492551803589,1.3127494,-0.44715336,238.21857999999997,-63.619569999999996,21.937479,JOG
14899734000000.0,2.3662214279174805,1.5465924739837646,8.723451614379883,0.28452950716018677,-0.6463599801063538,0.88606006,-0.58551437,237.88293,-63.908744999999996,21.50636,JOG
14899740000000.0,2.371218681335449,1.2848231792449951,8.137073516845703,0.32289665937423706,-0.5481715798377991,0.49999319999999997,-0.74220127,237.54622999999998,-64.24664,21.110912,JOG
14899745000000.0,2.3762168884277344,1.005659818649292,7.541197299957275,0.3442701995372772,-0.4443914592266083,0.15851954,-0.9138544,237.33595,-64.6465,20.699432,JOG
14899750000000.0,2.381213903427124,0.7103939056396484,6.9328389167785645,0.34924641251564026,-0.33671748638153076,-0.15393804,-1.1319333,237.23389,-65.136925,20.2471,JOG
14899754000000.0,2.3862128257751465,0.39972877502441406,6.302622318267822,0.33742567896842957,-0.22688725590705872,-0.43799037,-1.3704761,237.23895,-65.70218,19.761124,JOG
14899760000000.0,2.3912110328674316,0.07631117850542068,5.668795585632324,0.314902663230896,-0.11545514315366745,-0.66645396,-1.6417004000000002,237.33334,-66.39114000000001,19.182978,JOG
14899765000000.0,2.3962104320526123,-0.25730574131011963,5.053476333618164,0.28892114758491516,-0.0059573352336883545,-0.75533485,-1.9065105,237.48685,-67.15241,18.544426,JOG
14899770000000.0,2.4012093544006348,-0.5934358239173889,4.475578308105469,0.26530712842941284,0.09837241470813751,-0.85154617,-2.0124955,237.71517999999998,-67.98487,17.855871,JOG
14899775000000.0,2.406207799911499,-0.9234687685966492,3.957138776779175,0.2507452070713043,0.19440753757953644,-0.84421575,-2.1694880000000003,237.9608,-68.90073000000001,17.06897,JOG
14899779000000.0,2.4112038612365723,-1.236472725868225,3.505053758621216,0.24035248160362244,0.2772999405860901,-0.754724,-2.2806653999999997,238.20347999999998,-69.86668399999999,16.200210000000002,JOG
14899785000000.0,2.4162027835845947,-1.517474889755249,3.131179094314575,0.22779539227485657,0.346789687871933,-0.57726765,-2.3225097999999997,238.42413,-70.84954,15.29023,JOG
14899790000000.0,2.421198606491089,-1.7645976543426514,2.8313958644866943,0.21257497370243073,0.4034445583820343,-0.28893927,-2.2715025,238.57225,-71.84508000000001,14.305,JOG
14899795000000.0,2.4261980056762695,-1.9710657596588135,2.6055359840393066,0.19335585832595825,0.45048779249191284,0.009468411,-2.1633792,238.66655,-72.81844,13.303177,JOG
14899799000000.0,2.431197166442871,-2.1387948989868164,2.448967456817627,0.17135553061962128,0.4923056662082672,0.29504790000000003,-2.0350976000000003,238.69817999999998,-73.76455,12.316958,JOG
14899805000000.0,2.43619704246521,-2.2626349925994873,2.359344005584717,0.15736007690429688,0.532269299030304,0.6780604,-1.8869628,238.60931000000002,-74.66582,11.338364,JOG
14899810000000.0,2.441195249557495,-2.341886281967163,2.331876754760742,0.15739507973194122,0.5715844035148621,1.1246029,-1.6869043999999997,238.44707999999997,-75.46488000000001,10.4794,JOG
14899815000000.0,2.446194887161255,-2.3555474281311035,2.3596370220184326,0.21499326825141907,0.6091623902320862,1.5457945,-1.3991868,238.1701,-76.20218,9.668934,JOG
14899819000000.0,2.451195240020752,-2.30053973197937,2.4394075870513916,0.33836236596107483,0.6407498121261597,1.8017471,-1.0571023000000002,237.8536,-76.44394,9.286327,JOG
14899825000000.0,2.4561948776245117,-2.160757541656494,2.5675506591796875,0.557933509349823,0.6602200865745544,1.6924021,-0.6627888000000001,237.50227,-76.58388000000001,9.002541,JOG
14899830000000.0,2.4611949920654297,-1.9309329986572266,2.746920585632324,0.8688671588897705,0.6628636717796326,1.1194104999999999,-0.20250183,237.14844,-76.53178,8.8854685,JOG
14899835000000.0,2.4661943912506104,-1.576125979423523,2.996739387512207,1.2647291421890259,0.6467450857162476,0.16676621,0.29993483,236.9095,-76.34064000000001,8.915761,JOG
14899840000000.0,2.471194267272949,-1.1210346221923828,3.306084632873535,1.7321288585662842,0.6110086441040039,-0.86193085,0.7504479000000001,236.75702,-75.64353,9.308643,JOG
14899844000000.0,2.476193904876709,-0.6368565559387207,3.645188093185425,2.234320878982544,0.5525978803634644,-1.7098118000000002,1.1160508,236.78836,-74.80230999999999,9.845444,JOG
14899850000000.0,2.481193780899048,-0.14052964746952057,4.013455867767334,2.7561490535736084,0.4694006145000458,-2.468812,1.3756685,237.01962000000003,-73.62665600000001,10.702667,JOG
14899855000000.0,2.486229419708252,0.2618606984615326,4.421863079071045,3.2069880962371826,0.365407258272171,-3.1542027000000004,1.568091,237.43767000000003,-72.35191,11.668458,JOG
14899860000000.0,2.4912269115448,0.5882593393325806,4.862889289855957,3.5578882694244385,0.25554558634757996,-3.506672,1.7024814,237.92255,-70.89934000000001,12.782708999999999,JOG
14899864000000.0,2.4962239265441895,0.8099563121795654,5.41208028793335,3.467474937438965,0.14940640330314636,-3.382361,1.7266107,238.44228999999999,-69.43411,13.901667000000002,JOG
14899870000000.0,2.501243829727173,0.9270807504653931,6.071293354034424,2.936422109603882,0.03962930664420128,-1.647809,1.8255708,238.58499,-68.07868,14.819451,JOG
14899875000000.0,2.5062429904937744,1.0128121376037598,6.718084335327148,2.401926279067993,-0.0729081779718399,-0.8436049000000001,1.8246544999999998,238.9458,-66.79661999999999,15.7404785,JOG
14899880000000.0,2.5112552642822266,1.0665488243103027,7.346181869506836,1.8701649904251099,-0.15023039281368256,0.20433442,1.5940528999999999,239.30553999999998,-66.70589,16.31413,JOG
14899884000000.0,2.5162558555603027,1.1049413681030273,7.839625835418701,1.461905837059021,-0.15824110805988312,0.09315695,1.1835514,239.79716000000002,-66.73100000000001,16.847739999999998,JOG
14899890000000.0,2.5212533473968506,1.1284141540527344,8.202404022216797,1.1735658645629883,-0.1344747394323349,-0.61758476,0.63499445,240.24108999999999,-66.90675,17.152893,JOG
14899895000000.0,2.5262515544891357,1.1464887857437134,8.434012413024902,0.9461462497711182,-0.10414554178714752,-1.4123205,0.13133603,240.77767999999998,-67.271355,17.361407999999997,JOG
14899900000000.0,2.5312459468841553,1.161325454711914,8.542067527770996,0.7647150158882141,-0.06954026967287064,-2.0717494,-0.28160888,241.51846,-67.79254,17.475973,JOG
14899905000000.0,2.536245107650757,1.1494953632354736,8.522668838500977,0.5661655068397522,-0.03279126062989235,-2.2852468,-0.5323690999999999,242.215,-68.20418000000001,17.495872,JOG
14899910000000.0,2.5412425994873047,1.1082977056503296,8.384073257446289,0.3396284580230713,-0.0014352260623127222,-2.3417517999999995,-0.59803706,243.07356000000001,-68.6436,17.480984,JOG
14899915000000.0,2.5462405681610107,1.0137823820114136,8.1311616897583,-0.026748383417725563,0.020273858681321144,-2.2745566000000004,-0.6462954000000001,243.91043,-68.998085,17.458344,JOG
14899920000000.0,2.5512373447418213,0.8587526679039001,7.770543575286865,-0.5709797143936157,0.028064563870429993,-1.9605720000000002,-0.6731735,244.69293,-69.32905,17.408876,JOG
14899925000000.0,2.55627703666687,0.6224092841148376,7.34342622756958,-1.245694637298584,0.04009540379047394,-1.2342533000000002,-0.6450737,245.35962,-69.65361999999999,17.382013,JOG
14899929000000.0,2.5612733364105225,0.32849153876304626,6.897626876831055,-1.9739184379577637,0.0884997770190239,-0.04886922,-0.6731735,245.80386000000001,-70.03851,17.294292000000002,JOG
14899935000000.0,2.566272497177124,-0.0045008584856987,6.505926132202148,-2.664344310760498,0.19118133187294006,1.2562444,-0.84849185,246.26616,-70.80906,17.052725,JOG
14899940000000.0,2.571270227432251,-0.35793641209602356,6.207961559295654,-3.2619478702545166,0.331460565328598,2.2852468,-1.1038336000000002,246.45337,-71.623474,16.736155,JOG
14899945000000.0,2.5762674808502197,-0.7005889415740967,6.017612457275391,-3.7207911014556885,0.48275500535964966,2.892447,-1.4052955,246.47768,-72.712776,16.195097,JOG
14899949000000.0,2.5812652111053467,-1.0149592161178589,5.940704345703125,-4.017452239990234,0.6300884485244751,3.0903673,-1.7641789,246.29349,-73.84215999999999,15.544560999999998,JOG
14899955000000.0,2.5862629413604736,-1.2858083248138428,5.987368106842041,-4.154539585113525,0.7639381289482117,3.1224377,-2.1502457,245.88667,-75.05376,14.658803,JOG
14899960000000.0,2.59126353263855,-1.5054668188095093,6.161886215209961,-4.1352105140686035,0.871528685092926,3.076012,-2.552195,245.41972,-76.23926,13.680003,JOG
14899965000000.0,2.596261978149414,-1.6613163948059082,6.453518390655518,-3.974030017852783,0.9448024034500122,3.0130928,-2.7568347,244.8746,-77.22301,12.760253,JOG
14899970000000.0,2.6012604236602783,-1.7481989860534668,6.856306076049805,-3.679128408432007,0.9993425011634827,2.7091873,-3.0854805,244.41226,-101.73329,11.732302,JOG
14899975000000.0,2.6062583923339844,-1.7713431119918823,7.315227031707764,-3.359541893005371,1.0231417417526245,2.1285597999999997,-3.2244523,243.79486,-100.57366999999999,10.559289999999999,JOG
14899980000000.0,2.611255168914795,-1.734965205192566,7.802621841430664,-3.067701816558838,1.0258631706237793,1.4517213,-3.1105258,243.2897,-99.43711,9.390688,JOG
14899985000000.0,2.6162526607513428,-1.6405487060546875,8.311978340148926,-2.8135457038879395,1.0169639587402344,0.93309665,-2.7705792999999996,242.78392000000002,-98.40236,8.355896000000001,JOG
14899990000000.0,2.6212515830993652,-1.4879698753356934,8.82901668548584,-2.6229279041290283,1.0020769834518433,0.54275376,-2.3768766,242.44702,-97.44028,7.3986735,JOG
14899995000000.0,2.626272439956665,-1.2974070310592651,9.341736793518066,-2.459421157836914,0.9889111518859863,0.26939157,-2.0323486,242.26238999999998,-96.753204,6.7153325,JOG
14900000000000.0,2.63126802444458,-1.0960090160369873,9.835118293762207,-2.2891132831573486,0.984211266040802,-0.20952678,-1.7092009999999997,242.25522,-96.19412,6.157424,JOG
14900005000000.0,2.636261224746704,-0.8940584659576416,10.289243698120117,-2.1169536113739014,0.9926697611808777,-0.8979719,-1.3921618,242.44102,-95.905594,5.8543754,JOG
14900010000000.0,2.641258478164673,-0.7075109481811523,10.67559814453125,-1.951132893562317,1.0162060260772705,-1.5830573000000001,-1.1074986,242.76527000000002,-95.718666,5.639225499999999,JOG
14900014000000.0,2.646253824234009,-0.5481089949607849,10.993589401245117,-1.798006534576416,1.051477313041687,-2.146275,-0.91874135,243.2479,-95.67177,5.5547757,JOG
14900020000000.0,2.6512506008148193,-0.43220579624176025,11.239211082458496,-1.666167140007019,1.0930238962173462,-2.620001,-0.8151997,243.90031000000002,-95.70051600000001,5.5212636,JOG
14900025000000.0,2.656245231628418,-0.3633962869644165,11.417576789855957,-1.5610060691833496,1.138313889503479,-2.963002,-0.75961095,244.67337,-95.800064,5.5290885,JOG
14900030000000.0,2.6612448692321777,-0.3548130393028259,11.532212257385254,-1.4969934225082397,1.1842666864395142,-3.1138856,-0.7593055000000001,245.5224,-95.935875,5.543501,JOG
14900034000000.0,2.66623854637146,-0.4032275080680847,11.5927152633667,-1.4838413000106812,1.2281936407089233,-2.9162707,-0.84849185,246.36285,-96.01979,5.447342,JOG
14900040000000.0,2.671236038208008,-0.5128237009048462,11.609790802001953,-1.5517966747283936,1.2678101062774658,-2.3240368,-1.105666,247.12454,-96.092636,5.306469,JOG
14900045000000.0,2.6762330532073975,-0.6366854906082153,11.612801551818848,-1.6631711721420288,1.3033945560455322,-1.6453656000000003,-1.5467108,247.80264,-96.06943000000001,4.9419135999999995,JOG
14900050000000.0,2.68123197555542,-0.6694486141204834,11.667275428771973,-1.7372229099273682,1.3417867422103882,-1.1429288,-2.05098,248.34964,-96.057396,4.497833,JOG
14900056000000.0,2.68729567527771,-0.2761182188987732,11.973384857177734,-1.650748372077942,1.4034441709518433,-1.6676620999999998,-2.5980098,250.2034,-97.813034,0.849734,JOG
14900062000000.0,2.6932990550994873,0.24722149968147278,12.291332244873047,-1.527029037475586,1.4608391523361206,-2.1267272999999998,-2.2834144,250.65932,-98.41266,0.32103595,JOG
14900067000000.0,2.6992576122283936,0.8900210857391357,12.615104675292969,-1.3659372329711914,1.5100480318069458,-2.2962425,-1.8903223999999998,251.19284,-98.750946,0.3596835,JOG
14900072000000.0,2.7051568031311035,1.5005439519882202,12.85703182220459,-1.1698752641677856,1.5485445261001587,-2.2644775000000004,-1.6022996,251.80066000000002,-99.07483,0.42746112,JOG
14900077000000.0,2.71101713180542,2.0746724605560303,13.016631126403809,-0.9398858547210693,1.5745394229888916,-2.0720549,-1.4798211000000001,252.28578,-99.43786,0.5575826,JOG
14900083000000.0,2.7168219089508057,2.5440683364868164,13.097668647766113,-0.7060784697532654,1.585443377494812,-1.6991217,-1.4611896,252.71436,-99.74332,0.73163724,JOG
14900088000000.0,2.7225990295410156,2.9076647758483887,13.098387718200684,-0.46915724873542786,1.579016923904419,-1.1701124,-1.5042556999999999,253.02585,-99.94308000000001,0.8905098,JOG
14900093000000.0,2.7283191680908203,3.1903345584869385,13.047815322875977,-0.2709463834762573,1.5551743507385254,-0.6404922,-1.5882497,253.229,-100.06446,1.054166,JOG
14900098000000.0,2.7340006828308105,3.3926401138305664,12.945561408996582,-0.1109723299741745,1.5163413286209106,-0.17501289,-1.6484199000000002,253.30411,-100.075714,1.0860993,JOG
14900103000000.0,2.739647388458252,3.5580763816833496,12.813141822814941,0.00811006035655737,1.4666210412979126,0.15760323,-1.6887368999999999,253.26608,-100.006226,1.1223811000000001,JOG
14900109000000.0,2.7452585697174072,3.6938445568084717,12.6549072265625,0.08821988105773926,1.4113141298294067,0.34269542,-1.6694947,253.1418,-99.87476,1.1762224,JOG
14900114000000.0,2.750842571258545,3.849292278289795,12.451172828674316,0.17018792033195496,1.354755163192749,0.37690386,-1.5732834,252.98459,-99.74973,1.1316667999999999,JOG
14900119000000.0,2.756391763687134,4.032735824584961,12.201860427856445,0.26212048530578613,1.2991105318069458,0.30940324,-1.4208726,252.81068,-99.59307,1.1176589,JOG
14900124000000.0,2.761915683746338,4.229089736938477,11.916984558105469,0.35701653361320496,1.243664264678955,0.24953845,-1.2000448000000001,252.6395,-99.49268000000001,1.1091605,JOG
14900130000000.0,2.767411708831787,4.426935195922852,11.605703353881836,0.44971439242362976,1.185654878616333,0.2501493,-0.9443976999999999,252.48137999999997,-99.37118000000001,1.1583235,JOG
14900135000000.0,2.772881031036377,4.616940021514893,11.274138450622559,0.5329504013061523,1.1237213611602783,0.3155119,-0.6560693,252.3151,-99.25459000000001,1.3355066999999998,JOG
14900140000000.0,2.7783257961273193,4.7939934730529785,10.926098823547363,0.6028022170066833,1.057714819908142,0.40683624,-0.38148534,252.15402000000003,-99.12056,1.5879046,JOG
14900145000000.0,2.7837464809417725,4.955220699310303,10.565086364746094,0.6516907811164856,0.9874779582023621,0.4474588,-0.10354166,251.99754,-98.99059,1.945511,JOG
14900151000000.0,2.7891454696655273,5.097160816192627,10.19470500946045,0.6707019805908203,0.9167032837867737,0.49113566,0.039095376,251.82144,-98.86622,2.3516984,JOG
14900156000000.0,2.7945241928100586,5.211798191070557,9.820998191833496,0.6603214740753174,0.843498706817627,0.53969944,0.32375857,251.64972000000003,-98.78715,2.876598,JOG
14900161000000.0,2.7998850345611572,5.292953014373779,9.448704719543457,0.6210936307907104,0.7684820890426636,0.67073005,0.60994893,251.44817999999998,-98.7421,3.4523778,JOG
14900166000000.0,2.8052217960357666,5.34096622467041,9.074923515319824,0.5779116153717041,0.6934264898300171,0.8622363000000001,0.8924741,251.22995,-98.8152,4.096336,JOG
14900172000000.0,2.8105416297912598,5.354865074157715,8.696069717407227,0.5524300932884216,0.6199455261230469,1.0742066000000001,1.1365148,250.97835,-98.95828,4.8202915,JOG
14900177000000.0,2.8158442974090576,5.33633279800415,8.307103157043457,0.5740551948547363,0.5473204255104065,1.221425,1.3518448,250.7108,-99.21539,5.5634165,JOG
14900182000000.0,2.8211309909820557,5.286831378936768,7.90275239944458,0.6729907393455505,0.47436612844467163,1.2611313,1.5366315000000002,250.42227000000003,-99.55383,6.3734894,JOG
14900187000000.0,2.826402187347412,5.208283424377441,7.486128807067871,0.8434200882911682,0.3989841639995575,1.1242975,1.6878206999999998,250.14792000000003,-99.89199,7.1626625,JOG
14900193000000.0,2.8316590785980225,5.102441787719727,7.059976577758789,1.0800665616989136,0.3209620714187622,0.8542950999999999,1.783421,249.90363,-100.30065,7.987501600000001,JOG
14900198000000.0,2.836901903152466,4.971224784851074,6.638105392456055,1.3427609205245972,0.23375056684017181,0.5564981999999999,1.8383988999999998,249.67368,-100.57248,8.769414,JOG
14900203000000.0,2.8421339988708496,4.816142559051514,6.23408842086792,1.5919698476791382,0.12939143180847168,0.37568212,1.9016235000000001,249.48119,-100.91109,9.578339,JOG
14900208000000.0,2.8473522663116455,4.635417461395264,5.862685203552246,1.795701503753662,0.006047644652426243,0.35430184,1.9575175999999999,249.27466,-101.15456400000001,10.319703,JOG
14900214000000.0,2.8525619506835938,4.426128387451172,5.538766860961914,1.921494960784912,-0.1348295658826828,0.42394048,2.0216583999999997,249.07599,-101.50963,11.078329,JOG
14900219000000.0,2.8577558994293213,4.184755802154541,5.269681930541992,1.966571569442749,-0.2941288650035858,0.5222898,2.0995437999999997,248.85512999999997,-101.91513,11.770447,JOG
14900224000000.0,2.8629391193389893,3.899444580078125,5.075490474700928,1.9154688119888306,-0.4703475832939148,0.6224717,2.2611177000000002,248.58995,-102.508675,12.500981,JOG
14900229000000.0,2.8681111335754395,3.5757086277008057,4.948302745819092,1.784986138343811,-0.6542989015579224,0.66614854,2.5060747,248.3487,-76.837616,13.1348,JOG
14900235000000.0,2.873276948928833,3.2190051078796387,4.880163669586182,1.5943257808685303,-0.8294886946678162,0.7641924,2.7348437000000003,248.0365,-76.02389000000001,13.800394,JOG
14900240000000.0,2.878457546234131,2.8374505043029785,4.875495433807373,1.3518216609954834,-0.9788206219673157,0.9896017,2.892447,247.7592,-75.572556,14.071439999999999,JOG
14900245000000.0,2.8836052417755127,2.4496378898620605,4.924719333648682,1.0805187225341797,-1.0969176292419434,1.1523973,2.9358183999999996,247.44727999999998,-75.06138,14.3582,JOG
14900250000000.0,2.8887388706207275,2.0667502880096436,5.041592121124268,0.8133771419525146,-1.1878207921981812,1.564426,2.9071076000000002,247.0513,-74.71474,14.51149,JOG
14900256000000.0,2.8938708305358887,1.710959792137146,5.249011993408203,0.612205982208252,-1.265822172164917,1.8985691999999998,2.7479772999999996,246.6244,-74.399704,14.62718,JOG
14900261000000.0,2.8989973068237305,1.3925620317459106,5.547698974609375,0.5168632864952087,-1.3334813117980957,1.9281962,2.5137104999999997,246.22116,-74.32395,14.576098000000002,JOG
14900266000000.0,2.904118537902832,1.1308759450912476,5.945281982421875,0.601146936416626,-1.4048595428466797,1.4208726,2.3289237000000003,245.87964,-74.256744,14.502132000000001,JOG
14900271000000.0,2.909226894378662,0.924445629119873,6.426858901977539,0.8281495571136475,-1.4887925386428833,0.19853121,2.3075435,245.68286,-74.20859,14.342620000000002,JOG
14900276000000.0,2.9143409729003906,0.7917089462280273,6.952523231506348,1.049267292022705,-1.5860273838043213,-1.1346822,2.4007002999999996,245.66206,-74.12911,14.200042000000002,JOG
14900282000000.0,2.919438123703003,0.7071442008018494,7.505204677581787,1.2577059268951416,-1.6915578842163086,-2.0265455,2.6502388,245.64113999999998,-73.99825,13.809462,JOG
14900287000000.0,2.924532175064087,0.6208820343017578,8.058956146240234,1.4344385862350464,-1.7957942485809326,-2.776077,2.9620855,245.93515,-73.70476500000001,13.5782795,JOG
14900292000000.0,2.9296205043792725,0.5293227434158325,8.61071491241455,1.5666896104812622,-1.892212986946106,-3.265991,3.2027664000000002,246.40008999999998,-73.16431999999999,13.640595000000001,JOG
14900297000000.0,2.934706211090088,0.4158536493778229,9.148738861083984,1.5908008813858032,-1.9804819822311401,-3.100141,3.1917708,246.86122000000003,-72.56653,13.763565,JOG
14900303000000.0,2.9397854804992676,0.28930968046188354,9.672006607055664,1.5198286771774292,-2.0635910034179688,-2.4599542999999997,3.0833423,247.33132999999998,-71.94429000000001,13.969412,JOG
14900308000000.0,2.9448635578155518,0.19179466366767883,10.172767639160156,1.390906572341919,-2.1392922401428223,-1.9382755,3.0732630000000003,247.75817999999998,-71.310684,14.221204,JOG
14900313000000.0,2.949979543685913,0.14271114766597748,10.641199111938477,1.2331290245056152,-2.204106330871582,-1.6933185000000002,3.1306844,248.21301,-70.82428,14.512522,JOG
14900318000000.0,2.9550459384918213,0.1633298099040985,11.056696891784668,1.1287543773651123,-2.255211591720581,-2.25562,3.0925052,248.73904,-70.37445,14.807676999999998,JOG
14900324000000.0,2.96012020111084,0.2663116455078125,11.417505264282227,1.0818874835968018,-2.2761335372924805,-2.9205468,3.0668490000000004,249.3363,-69.97333499999999,15.269001000000001,JOG
14900329000000.0,2.965177059173584,0.4388926029205322,11.755763053894043,1.0377397537231445,-2.25923490524292,-3.0130928,3.216511,249.90955,-69.60582,15.766485999999999,JOG
14900334000000.0,2.970229148864746,0.6808254718780518,12.072518348693848,0.9961764812469482,-2.2116100788116455,-2.5607471,3.292869,250.45873999999998,-69.14079,16.384249,JOG
14900339000000.0,2.9752821922302246,0.9774886965751648,12.379796981811523,0.959813117980957,-2.149838924407959,-1.8301523000000002,3.2305607999999997,250.94751000000002,-68.74922,16.975492000000003,JOG
14900345000000.0,2.9803285598754883,1.3216171264648438,12.68001937866211,0.9288212060928345,-2.083888530731201,-0.98868537,3.1160235000000003,251.26973999999998,-68.42354,17.5205,JOG
14900350000000.0,2.9853768348693848,1.7204115390777588,12.962809562683105,0.9178095459938049,-2.018132209777832,-0.6068946,3.0228667000000002,251.59525,-67.93715999999999,18.2696,JOG
14900355000000.0,2.9904165267944336,2.170105457305908,13.226224899291992,0.9289038181304932,-1.9520713090896606,-0.03023783,2.9614747,251.62127999999998,-67.49589,18.907484,JOG
14900360000000.0,2.9954581260681152,2.6370201110839844,13.440022468566895,0.9660135507583618,-1.887398600578308,0.46822822,2.809064,251.63077,-66.91197,19.66541,JOG
14900366000000.0,3.0005006790161133,3.1121063232421875,13.599550247192383,1.028691291809082,-1.8238285779953003,0.9593639000000002,2.637716,251.47134,-66.36605,20.340436999999998,JOG
14900371000000.0,3.0055413246154785,3.500951051712036,13.6416015625,1.074323296546936,-1.7605048418045044,1.5748106000000002,2.4284947,251.15036,-65.68749,21.093945,JOG
14900376000000.0,3.010573148727417,3.765829086303711,13.543987274169922,1.0849816799163818,-1.6984397172927856,2.2204952000000002,2.2159138,250.67487000000003,-65.06775,21.741267999999998,JOG
14900381000000.0,3.0156071186065674,3.918619394302368,13.351640701293945,1.0711668729782104,-1.6391288042068481,2.7757716,2.0176878,250.01625,-64.36158,22.40024,JOG
14900387000000.0,3.02065372467041,3.969992160797119,13.105012893676758,1.0423351526260376,-1.5823928117752075,3.1538972999999997,1.8301523000000002,249.2229,-63.72653199999999,22.950947,JOG
14900392000000.0,3.0256829261779785,3.935102701187134,12.813741683959961,1.0009336471557617,-1.5279316902160645,3.3533447,1.6468927,248.30264,-63.204353000000005,23.334220000000002,JOG
14900397000000.0,3.0307114124298096,3.8133280277252197,12.476594924926758,0.9467505216598511,-1.4761288166046143,3.4477233999999997,1.4874569,247.31474,-62.734703,23.639181,JOG
14900402000000.0,3.035738945007324,3.638566255569458,12.118597030639648,0.8801261186599731,-1.4245961904525757,3.4358115,1.3267993,246.32192999999998,-62.317127,23.88082,JOG
14900408000000.0,3.040764570236206,3.429715156555176,11.753236770629883,0.801586925983429,-1.3726683855056763,3.4071010000000004,1.1472049,245.32541,-61.956630000000004,24.05387,JOG
14900413000000.0,3.0457890033721924,3.201275110244751,11.37810230255127,0.7195996046066284,-1.3187386989593506,3.3722816,0.95569867,244.31491,-61.843109999999996,23.914202,JOG
14900418000000.0,3.050816297531128,2.9623148441314697,10.991439819335938,0.639460027217865,-1.2604070901870728,3.3567044999999998,0.7901541999999999,243.33028,-61.7874,23.722397,JOG
14900423000000.0,3.055840015411377,2.718658208847046,10.587316513061523,0.5752936601638794,-1.1972570419311523,3.3240232000000005,0.59315014,242.3562,-61.784565,23.488737,JOG
14900429000000.0,3.0608601570129395,2.474273681640625,10.161003112792969,0.537315845489502,-1.1287965774536133,3.2305607999999997,0.38423425,241.42824,-61.851943999999996,23.20399,JOG
14900434000000.0,3.0658767223358154,2.2348034381866455,9.7144193649292,0.5326821804046631,-1.0554715394973755,3.0848694,0.19333886,240.52576000000002,-61.96878,22.871868,JOG
14900439000000.0,3.0708954334259033,2.0038106441497803,9.248287200927734,0.5663506388664246,-0.9773783683776855,2.8997773999999996,0.013744468000000001,239.68724,-62.161156000000005,22.491056,JOG
14900444000000.0,3.0759127140045166,1.7816838026046753,8.761931419372559,0.6378691792488098,-0.8929969072341919,2.6126707000000002,-0.14202617,238.88664,-62.356606000000006,22.080187,JOG
14900450000000.0,3.0809292793273926,1.5685986280441284,8.25446891784668,0.7470102906227112,-0.8017995953559875,2.2385156000000004,-0.29779682,238.18814,-62.621469999999995,21.64043,JOG
14900455000000.0,3.0859451293945312,1.3615857362747192,7.738402366638184,0.8835340738296509,-0.7042473554611206,2.0207422,-0.37293324,237.44199,-62.83161,21.20496,JOG
14900460000000.0,3.0909600257873535,1.158186912536621,7.224002361297607,1.0388739109039307,-0.6066363453865051,1.5632042,-0.52106804,236.90042000000003,-63.106014,20.758394,JOG
14900465000000.0,3.0959737300872803,0.9558565020561218,6.7155656814575195,1.2009884119033813,-0.5039075016975403,1.0555751,-0.6582073,236.31696000000002,-63.374790000000004,20.319641,JOG
14900469000000.0,3.100992441177368,0.7522855997085571,6.216062068939209,1.360347032546997,-0.39691948890686035,0.53969944,-0.8060366999999999,235.88657,-63.691359999999996,19.874886,JOG
14900475000000.0,3.106006622314453,0.5443580150604248,5.726703643798828,1.5083447694778442,-0.2870224416255951,0.03359759,-0.9502009,235.5521,-64.01044,19.420671,JOG
14900480000000.0,3.111018419265747,0.32885682582855225,5.24783992767334,1.6375930309295654,-0.17512015998363495,-0.41355577,-1.1023063999999998,235.36687999999998,-64.389824,18.961786,JOG
14900485000000.0,3.1160290241241455,0.10703250020742416,4.784716606140137,1.7443426847457886,-0.06498189270496368,-0.77304995,-1.2767084,235.29452999999998,-64.80681,18.472510999999997,JOG
14900489000000.0,3.121039628982544,-0.11919061094522476,4.347072124481201,1.8212056159973145,0.04068664833903313,-1.0467176,-1.4776831,235.34507999999997,-65.27495,17.963606,JOG
14900495000000.0,3.126049280166626,-0.34217163920402527,3.950199842453003,1.8644425868988037,0.13860777020454407,-1.1835514,-1.6978999,235.47935,-65.816795,17.384281,JOG
14900500000000.0,3.13105845451355,-0.5524957776069641,3.6136741638183594,1.8687578439712524,0.2279898226261139,-1.2006557,-1.8796324,235.67507999999998,-66.38864000000001,16.770014,JOG
14900505000000.0,3.13606333732605,-0.740912139415741,3.340333938598633,1.8390547037124634,0.30902743339538574,-1.1044444,-2.0076087,235.92255,-67.05099,16.076874,JOG
14900510000000.0,3.1410715579986572,-0.8956388235092163,3.136486053466797,1.779149055480957,0.38182348012924194,-0.91507614,-2.0922134,236.16287000000003,-67.72214,15.334529000000002,JOG
14900515000000.0,3.1460776329040527,-1.0096014738082886,2.998988151550293,1.7021291255950928,0.44611725211143494,-0.64660084,-2.1163425,236.42471,-68.4876,14.556422,JOG
14900520000000.0,3.1510872840881348,-1.07096529006958,2.9277498722076416,1.6240442991256714,0.5028501749038696,-0.33383787,-2.0482311,236.61954,-69.23151999999999,13.757378,JOG
14900525000000.0,3.1560916900634766,-1.0760964155197144,2.914217948913574,1.5585323572158813,0.5500649809837341,-0.059253927000000005,-1.9382755,236.8237,-69.94594000000001,13.051205,JOG
14900530000000.0,3.1610987186431885,-1.0148674249649048,2.952381134033203,1.5246882438659668,0.5881224274635315,0.16126843,-1.7776178,236.9426,-70.60942,12.361319,JOG
14900534000000.0,3.1661007404327393,-0.8904186487197876,3.0322818756103516,1.523066759109497,0.6163874268531799,0.258396,-1.5784757999999999,237.04462,-70.986824,11.9923935,JOG
14900540000000.0,3.1711087226867676,-0.6997976303100586,3.1441969871520996,1.5580633878707886,0.6358050107955933,0.21471913,-1.344209,237.10692999999998,-71.292496,11.680389,JOG
14900545000000.0,3.1761093139648438,-0.45437195897102356,3.2834668159484863,1.626842975616455,0.6473187208175659,-0.0070249503,-1.0571023000000002,237.18245,-71.351425,11.645038000000001,JOG
14900550000000.0,3.1811158657073975,-0.16135360300540924,3.448188543319702,1.7308743000030518,0.6530914902687073,-0.17409660000000002,-0.71868294,237.2327,-71.33626600000001,11.687873,JOG
14900554000000.0,3.1861162185668945,0.16827531158924103,3.6347403526306152,1.8627662658691406,0.6512806415557861,-0.6301074999999999,-0.5225952,237.39749,-70.88249,12.177887,JOG
14900560000000.0,3.191121816635132,0.5128079056739807,3.840243339538574,2.0079922676086426,0.643185555934906,-1.1383473999999998,-0.1151481,237.5824,-70.34913,12.798760000000001,JOG
14900565000000.0,3.1961236000061035,0.8510923385620117,4.056797504425049,2.16748046875,0.6183818578720093,-1.536937,0.2883284,237.84894,-69.823425,13.407962,JOG
14900570000000.0,3.2011337280273438,1.1426061391830444,4.27207612991333,2.3464415073394775,0.5755624771118164,-1.9541580000000003,0.64996064,238.23349,-69.21379,14.134295000000002,JOG
14900575000000.0,3.2061662673950195,1.3602763414382935,4.491647720336914,2.522632360458374,0.5177222490310669,-2.4978279999999997,0.9941832,238.72827,-68.46714,15.015460000000001,JOG
14900580000000.0,3.2111685276031494,1.4770690202713013,4.719789505004883,2.661585569381714,0.44351306557655334,-2.9639182,1.3274101999999999,239.2867,-67.595894,15.990375,JOG
14900585000000.0,3.216176748275757,1.4832414388656616,4.9625349044799805,2.755051612854004,0.3578277826309204,-2.705522,1.5045611,239.70087,-66.63226,16.915233999999998,JOG
