timestamp,rel_time,acc_x,acc_y,acc_z,gyro_x,gyro_y,gyro_z,azimuth,pitch,roll,label
0.0,0.0,0.0,0.0,0.0,0.0,-0.03848451,0.023518313,239.19775,-79.641266,0.24207966,STD
71369944.0,4.4614910876816793e-08,-1.8375733361608582e-06,8.814949978841469e-05,-3.1758017939864658e-06,-3.278969273878829e-08,-0.043066,0.029932396,239.31323,-79.77660999999998,0.29891777,STD
495138016.0,4.90540799091832e-07,-1.2731129572784994e-05,0.0006116689182817936,-2.197210051235743e-05,4.3330601329216734e-08,-0.049785517,0.02443461,239.42975,-79.91393000000002,0.3491751,STD
1745836928.0,2.333856855329941e-06,-4.483182055992074e-05,0.002157122828066349,-7.727105548838153e-05,-1.3364676476612658e-07,-0.05955936,0.025045475,239.54803,-80.04263,0.4024654,STD
4464352256.0,7.539902071584947e-06,-0.00011449136945884675,0.005517116282135248,-0.00019706832244992256,1.5801436603624097e-08,-0.048563786,0.015577064,239.66333,-80.17553000000002,0.44982553,STD
9421992960.0,1.9223640265408903e-05,-0.00024131765530910343,0.01164605189114809,-0.0004148065345361829,-2.187508925999282e-06,-0.04795292,0.020463986,239.78375,-80.29809,0.50160515,STD
17478625280.0,4.153485133429058e-05,-0.00044710520887747407,0.021608363837003708,-0.0007675419910810888,-5.170145868760301e-06,-0.04795292,0.017715093,239.90222000000003,-80.427414,0.5473233000000001,STD
29537996800.0,8.000436355359852e-05,-0.0007546492852270603,0.03652358427643776,-0.0012938317377120256,-9.554804819345009e-06,-0.056199603,0.021380283,240.02243,-80.547386,0.59585595,STD
46503374848.0,0.00014136485697235912,-0.0011866181157529354,0.057511456310749054,-0.0020318101160228252,-2.0969568140571937e-05,-0.04428773,0.014660766,240.1377,-80.66566999999998,0.6390219,STD
69236252672.0,0.0002334496530238539,-0.0017644966719672084,0.08564087003469467,-0.003017376409843564,-4.640150655177422e-05,-0.03848451,0.018325957,240.25644,-80.781975,0.6861123,STD
98520367104.0,0.0003649465797934681,-0.002507682191208005,0.12188529968261719,-0.004282668698579073,-8.578640699852258e-05,-0.04184427,0.02076942,240.37482000000003,-80.89707,0.7301635000000001,STD
135032619008.0,0.0005451953620649874,-0.003432752564549446,0.16708672046661377,-0.005854831542819738,-0.000149352868902497,-0.03634648,0.015271631,240.48932,-81.00412,0.77167416,STD
179321716736.0,0.0007839203462935984,-0.004552940372377634,0.22192910313606262,-0.0077551486901938915,-0.00024114735424518585,-0.04428773,0.010995574,240.6084,-81.11287,0.81428325,STD
231794720768.0,0.0010908662807196379,-0.0058778212405741215,0.28692153096199036,-0.009998566471040249,-0.00035729637602344155,-0.03268129,0.013744468,240.72035,-81.2191,0.8556002,STD
292711170048.0,0.0014756672317162156,-0.00741317356005311,0.3623908758163452,-0.012593471445143223,-0.0005229205125942826,-0.032375857,0.0125227375,240.83803,-81.31626999999997,0.8948527000000001,STD
362183917568.0,0.0019475618610158563,-0.009161028079688549,0.4484826326370239,-0.015541824512183666,-0.000735547742806375,-0.0421497,0.0061086523,240.95535,-81.420204,0.93274456,STD
440185552896.0,0.0025151576846837997,-0.011119857430458069,0.5451686978340149,-0.018839526921510696,-0.001007209299132228,-0.050396383,0.0125227375,241.07158,-81.51341,0.9732687,STD
526559379456.0,0.003186294576153159,-0.013284869492053986,0.6522608399391174,-0.022476956248283386,-0.0013319007121026516,-0.055283304000000005,0.006414085,241.19025,-81.610214,1.0081761,STD
621033357312.0,0.003967840224504471,-0.015648389235138893,0.7694277167320251,-0.026439659297466278,-0.0017266442300751805,-0.058643065,0.009773844,241.30997,-81.6987,1.0473002,STD
723236225024.0,0.004866508767008781,-0.018200194463133812,0.8962153792381287,-0.0307087954133749,-0.002196574816480279,-0.06658431,0.009162978,241.43257000000003,-81.78939,1.0834435,STD
832714375168.0,0.005886631552129984,-0.020928164944052696,1.0320667028427124,-0.035262640565633774,-0.002737778704613447,-0.06261369,0.0067195175,241.5524,-81.877045,1.1191483,STD
948948959232.0,0.0070321583189070225,-0.02381853573024273,1.1763436794281006,-0.04007667675614357,-0.003359477035701275,-0.06750060599999999,0.009773844,241.67645,-81.96021999999998,1.156392,STD
1071372238848.0,0.008306178264319897,-0.02685636095702648,1.3283474445343018,-0.04512449726462364,-0.004057559184730053,-0.07513642,0.008552114,241.80008,-82.04456,1.1911818,STD
1199382986752.0,0.009710583835840225,-0.030025942251086235,1.4873368740081787,-0.05037859082221985,-0.004814588464796543,-0.07452556,0.0070249503,241.92227000000003,-82.12762,1.2261021,STD
1332360380416.0,0.011246525682508945,-0.0333111472427845,1.6525460481643677,-0.05581081286072731,-0.005595750641077757,-0.07299839999999999,0.0012217305,242.04616,-82.2121,1.2592329,STD
1469675995136.0,0.012914265505969524,-0.03669573739171028,1.8231995105743408,-0.06139298528432846,-0.006405003368854523,-0.07422013,0.002443461,242.17003,-82.292046,1.2935205,STD
1610704486400.0,0.014713301323354244,-0.04016362130641937,1.9985246658325195,-0.06709732115268707,-0.007250288501381874,-0.07971791,0.005192355,242.2944,-82.37443499999998,1.3262798999999998,STD
1754832437248.0,0.01664246991276741,-0.043699078261852264,2.1777634620666504,-0.07289677858352661,-0.008098084479570389,-0.07849618,0.005192355,242.41684,-82.4598,1.3579652,STD
1901465174016.0,0.018700011074543,-0.04728693142533302,2.360180377960205,-0.078765369951725,-0.008924908936023712,-0.076052725,0.009773844,242.53976,-82.54118000000003,1.3914497,STD
2050032795648.0,0.020883776247501373,-0.050912678241729736,2.5450704097747803,-0.08467832207679749,-0.009716645814478397,-0.07086037,0.01160644,242.66116,-82.62411,1.4235665000000002,STD
2199993974784.0,0.023191066458821297,-0.054562605917453766,2.7317633628845215,-0.09061234444379807,-0.010508132167160511,-0.074830994,0.011911872,242.78394,-82.70262,1.4563255,STD
2350839234560.0,0.025618862360715866,-0.058226585388183594,2.919606924057007,-0.09652984142303467,-0.011266038753092289,-0.08093964,0.008246681,242.90549,-82.789,1.4878693,STD
2502093176832.0,0.02816402167081833,-0.0618954673409462,3.10798978805542,-0.102394238114357,-0.012003274634480476,-0.06719518,0.01282817,243.02176,-82.8649,1.5208073999999998,STD
2653314875392.0,0.030823182314634323,-0.06556081026792526,3.2963452339172363,-0.10817179828882217,-0.012732011266052723,-0.07696902,0.005192355,243.13153,-82.92917,1.5775955,STD
2804099055616.0,0.033592384308576584,-0.069214828312397,3.48415207862854,-0.11383241415023804,-0.013449406251311302,-0.115453534,0.013133603,243.24442,-82.99083,1.6396721999999997,STD
2954075308032.0,0.03646804019808769,-0.07285049557685852,3.670933723449707,-0.11934799700975418,-0.014151295647025108,-0.15974127,0.007941248,243.362,-83.05126,1.6954577000000002,STD
3102907564032.0,0.039446111768484116,-0.07646142691373825,3.856257677078247,-0.12469390779733658,-0.014882974326610565,-0.13836098,0.01038471,243.47081,-83.10429,1.7538087,STD
3250293047296.0,0.04252265393733978,-0.08004189282655716,4.03973388671875,-0.12984798848628998,-0.015618734993040562,-0.13988814,0.00030543262000000003,243.59872,-83.16471999999997,1.8084509,STD
3395960963072.0,0.04569375887513161,-0.08358680456876755,4.221014022827148,-0.13479061424732208,-0.01640600524842739,-0.13897185,0.0061086523,243.71872,-83.21053,1.8665254,STD
3539671187456.0,0.04895557463169098,-0.08709166944026947,4.399787902832031,-0.139504536986351,-0.017279811203479767,-0.14446963,-0.0027488936,243.84123,-83.26021999999998,1.9168966,STD
3681211645952.0,0.05230429768562317,-0.09055253863334656,4.575782775878906,-0.14397485554218292,-0.01825367659330368,-0.16493362,-0.00061086525,243.96664,-83.30438000000002,1.9715285,STD
3820397789184.0,0.05573602393269539,-0.09396596997976303,4.748760223388672,-0.14818909764289856,-0.01928977109491825,-0.14844026,-0.018325957,244.08344,-83.35095,2.0160902,STD
3957069971456.0,0.05924731120467186,-0.09732906520366669,4.918514251708984,-0.1521361619234085,-0.02045273222029209,-0.12339478,-0.034513887,244.20285,-83.38432,2.0611740000000003,STD
4091092140032.0,0.06283445656299591,-0.10063930600881577,5.084869384765625,-0.15580742061138153,-0.021773237735033035,-0.13164146,-0.053450707,244.32709,-83.42424,2.1001675,STD
4222349737984.0,0.06649511307477951,-0.10389477759599686,5.247675895690918,-0.15919379889965057,-0.023255081847310066,-0.12980886,-0.05955936,244.44086,-83.45904499999997,2.1364558,STD
4350748131328.0,0.07022465765476227,-0.10709360986948013,5.406813144683838,-0.16229189932346344,-0.024952637031674385,-0.11636983,-0.08643743400000001,244.5542,-83.48770999999998,2.1608287999999995,STD
4476211036160.0,0.07401977479457855,-0.11023443192243576,5.5621819496154785,-0.1650976985692978,-0.026861155405640602,-0.113926366,-0.10140363,244.66934,-83.51864,2.1866827,STD
4598678421504.0,0.07787719368934631,-0.11331619322299957,5.713705539703369,-0.1676086187362671,-0.02897738851606846,-0.089186326,-0.12308934,244.77464,-83.545364,2.2016454,STD
4718105985024.0,0.08179394900798798,-0.11633815616369247,5.861326217651367,-0.16982293128967285,-0.031345367431640625,-0.08460484,-0.13530666,244.88445,-83.566,2.215437,STD
4834463318016.0,0.08576714992523193,-0.11929982900619507,6.005003452301025,-0.1717400699853897,-0.03395466133952141,-0.07788532,-0.14172074,244.98639,-83.59074,2.223911,STD
4947731546112.0,0.08979395776987076,-0.12220095098018646,6.144713401794434,-0.17336052656173706,-0.03679855167865753,-0.06047566,-0.15485434,245.08383,-83.61036999999997,2.2266470000000003,STD
5057903853568.0,0.09387166053056717,-0.12504146993160248,6.2804460525512695,-0.17468561232089996,-0.0398813895881176,-0.036957346,-0.17348573,245.17728,-83.62823,2.2257636,STD
5164983386112.0,0.09799792617559433,-0.12782156467437744,6.412204742431641,-0.17571696639060974,-0.043133605271577835,-0.028405234,-0.1826487,245.26947,-83.65121500000002,2.2240002,STD
5268981678080.0,0.10217015445232391,-0.13054151833057404,6.540004730224609,-0.17645753920078278,-0.046535786241292953,-0.014966198,-0.19822577,245.3536,-83.669235,2.2146304,STD
5369918652416.0,0.10638593137264252,-0.13320176303386688,6.6638712882995605,-0.17691077291965485,-0.050036538392305374,-0.0027488936,-0.21563543,245.43536,-83.69507,2.2023427000000004,STD
5467821572096.0,0.11064310371875763,-0.13580290973186493,6.783838748931885,-0.17708033323287964,-0.05356872081756592,-0.005497787,-0.21563543,245.51688,-83.72197,2.1911533,STD
5562723467264.0,0.11494090408086777,-0.138345867395401,6.899947643280029,-0.17696814239025116,-0.05711229518055916,-0.0076358155,-0.22357668,245.59486,-83.74991,2.1729987,STD
5654663135232.0,0.11927571892738342,-0.14083118736743927,7.012248992919922,-0.17658157646656036,-0.060649216175079346,-0.017104227,-0.22724187,245.67502,-83.78161,2.1569896,STD
5743683567616.0,0.12364548444747925,-0.14325976371765137,7.120798587799072,-0.1759258508682251,-0.06415380537509918,-0.028710667,-0.22785273,245.75594,-83.81504,2.1403704,STD
5829832998912.0,0.12804844975471497,-0.1456325650215149,7.2256574630737305,-0.17500607669353485,-0.06764707714319229,-0.042455133,-0.21471913,245.83925,-83.84359,2.1276472,STD
5913161760768.0,0.1324828714132309,-0.14795061945915222,7.32689094543457,-0.17382773756980896,-0.07110995799303055,-0.052839845,-0.20952678,245.9245,-83.87783,2.1133707000000004,STD
5993723854848.0,0.13694705069065094,-0.1502149999141693,7.424567699432373,-0.17239658534526825,-0.07454786449670792,-0.0711658,-0.20158553,246.01483,-83.905525,2.1047828,STD
6071575904256.0,0.14143957197666168,-0.1524268537759781,7.518760681152344,-0.17071819305419922,-0.07797005027532578,-0.086132,-0.19181168,246.10626,-83.93291500000002,2.098869,STD
6146776629248.0,0.14595888555049896,-0.15458735823631287,7.60954475402832,-0.16879859566688538,-0.08133561164140701,-0.1001819,-0.18203785,246.2017,-83.962944,2.096108,STD
6219385798656.0,0.15050357580184937,-0.15669769048690796,7.696996688842773,-0.16664381325244904,-0.08463480323553085,-0.10262536,-0.16401732,246.29684,-83.98706,2.0988913,STD
6289465278464.0,0.15507234632968903,-0.15875907242298126,7.781195640563965,-0.16425985097885132,-0.08782880008220673,-0.105374254,-0.14569137,246.39502,-84.0161,2.1051657,STD
6357076934656.0,0.15966393053531647,-0.16077274084091187,7.862221717834473,-0.1616528183221817,-0.09093929827213287,-0.10842858,-0.12980886,246.4928,-84.03879,2.1160128,STD
6422284206080.0,0.1642771065235138,-0.16273991763591766,7.940155982971191,-0.15882888436317444,-0.09394446760416031,-0.10262536,-0.12186762,246.58783,-84.0677,2.129566,STD
6485150531584.0,0.1689106822013855,-0.16466186940670013,8.015079498291016,-0.15579421818256378,-0.09682156890630722,-0.09437868,-0.1133155,246.68187000000003,-84.09337,2.1476135,STD
6545739350016.0,0.1735636293888092,-0.16653983294963837,8.087074279785156,-0.15255482494831085,-0.09955143183469772,-0.09560041,-0.11056661,246.77621,-84.12068000000002,2.16609,STD
6604114100224.0,0.17823633551597595,-0.16837526857852936,8.156220436096191,-0.14911431074142456,-0.10211122781038284,-0.089186326,-0.10170906,246.86504,-84.14923,2.1879547,STD
6660338745344.0,0.18292632699012756,-0.17018486559391022,8.222578048706055,-0.14543995261192322,-0.10446710884571075,-0.096516706,-0.09590584,246.95749,-84.18115,2.2097740000000003,STD
6714475675648.0,0.18763284385204315,-0.17199034988880157,8.286198616027832,-0.14148348569869995,-0.1066230908036232,-0.09743301,-0.094989546,247.04565,-84.212036,2.2319326,STD
6766587281408.0,0.19235500693321228,-0.17381086945533752,8.347136497497559,-0.13720352947711945,-0.10856082290410995,-0.09590584,-0.09010262,247.11217,-84.20899,2.2683334,STD
6816735952896.0,0.19709175825119019,-0.17566326260566711,8.405448913574219,-0.1325649619102478,-0.11028612405061722,-0.089186326,-0.093462385,247.17712000000003,-84.20575,2.302243,STD
6864981983232.0,0.20184247195720673,-0.17756307125091553,8.461193084716797,-0.12753544747829437,-0.11177536100149155,-0.073303826,-0.094989546,247.23834,-84.207504,2.3374574,STD
6911385665536.0,0.20660632848739624,-0.1795237809419632,8.51442813873291,-0.12208816409111023,-0.1130097508430481,-0.0571159,-0.08093964,247.29675,-84.2086,2.3756466,STD
6956006244352.0,0.21138262748718262,-0.18155740201473236,8.565214157104492,-0.11619998514652252,-0.1139870434999466,-0.036651913,-0.081855945,247.34941,-84.21391,2.4082615,STD
6998901391360.0,0.21617065370082855,-0.1836744248867035,8.61361312866211,-0.10985162854194641,-0.11472676694393158,-0.019242255,-0.08521569999999999,247.39761,-84.21927,2.4433784,STD
7040128778240.0,0.22096988558769226,-0.1858842372894287,8.659686088562012,-0.10302634537220001,-0.11524795740842819,-0.019242255,-0.083383106,247.41494220580898,-84.2223067751273,2.46091103296736,STD
7079743455232.0,0.2257796972990036,-0.18819482624530792,8.70349407196045,-0.0957111120223999,-0.11557785421609879,0.023823744,-0.08246681,247.43214,-84.22532,2.4783077,STD
7117800472576.0,0.23059947788715363,-0.1906130015850067,8.745100021362305,-0.08789580315351486,-0.1157318726181984,0.047036625,-0.07360926,247.467,-84.2316,2.5136342000000003,STD
7154353307648.0,0.2354288250207901,-0.19314484298229218,8.784564971923828,-0.07957180589437485,-0.11569051444530487,0.08368854,-0.073303826,247.48566,-84.24103000000002,2.5453594,STD
7189453864960.0,0.24026717245578766,-0.1957952231168747,8.82194995880127,-0.07073375582695007,-0.11551403999328613,0.09712757,-0.069027774,247.50381,-84.24178,2.5802035,STD
7223153524736.0,0.24511434137821198,-0.19856871664524078,8.857315063476562,-0.06137637794017792,-0.11518920958042145,0.11148291,-0.06383542,247.51114,-84.25131999999998,2.6138837,STD
7255501570048.0,0.24996952712535858,-0.2014680951833725,8.890722274780273,-0.05149989202618599,-0.11474359780550003,0.11362094,-0.062002823,247.51807,-84.253235,2.6472108,STD
7286546235392.0,0.25483235716819763,-0.20449605584144592,8.92223072052002,-0.041103899478912354,-0.11419706046581268,0.11636983,-0.057421334,247.52054,-84.25659,2.6818078,STD
7316334706688.0,0.2597023844718933,-0.20765449106693268,8.951899528503418,-0.030190078541636467,-0.1135607436299324,0.116980694,-0.058643065,247.52313,-84.25969,2.714639,STD
7344912072704.0,0.2645792067050934,-0.2109447568655014,8.97978687286377,-0.018761372193694115,-0.11283101886510849,0.12767084,-0.05955936,247.52199,-84.26246,2.7478855,STD
7372323422208.0,0.269462525844574,-0.21436791121959686,9.005949020385742,-0.006821078713983297,-0.11200837790966034,0.14446963,-0.06414085,247.51907000000003,-84.265305,2.7789182999999995,STD
7398611746816.0,0.27435198426246643,-0.2179243117570877,9.03044319152832,0.005625620484352112,-0.11111779510974884,0.15454891,-0.06841691,247.51517,-84.26705,2.8090467,STD
7423818465280.0,0.2792471647262573,-0.2216138392686844,9.053323745727539,0.018572494387626648,-0.11014629900455475,0.17104226,-0.08460484,247.50513,-84.27486,2.8332858,STD
7447984472064.0,0.2841479182243347,-0.22543634474277496,9.074644088745117,0.03201361745595932,-0.10909809917211533,0.18020524,-0.106595986,247.49472000000003,-84.28126,2.8540237,JOG
7471149613056.0,0.2890538275241852,-0.22939088940620422,9.094457626342773,0.045940887182950974,-0.10800407826900482,0.20097467,-0.12675454,247.47682000000003,-84.288956,2.8695188,JOG
7493351112704.0,0.2939647138118744,-0.2334766387939453,9.112815856933594,0.06034686416387558,-0.10684433579444885,0.25900686,-0.14691310000000002,247.44638,-84.30413,2.877323,JOG
7514626195456.0,0.29888027906417847,-0.23769225180149078,9.129768371582031,0.07522290199995041,-0.10568276047706604,0.29535335,-0.17806722,247.4172,-84.31455,2.8761191000000004,JOG
7535010512896.0,0.3038003146648407,-0.24203625321388245,9.145364761352539,0.09056013077497482,-0.10451937466859818,0.3359759,-0.19883664,247.37082,-84.33317,2.8706098,JOG
7554538668032.0,0.308724582195282,-0.24650688469409943,9.159652709960938,0.10634905099868774,-0.10345827788114548,0.3567453,-0.23060162,247.32117,-84.343544,2.8528745,JOG
7573244215296.0,0.31365320086479187,-0.25110283493995667,9.172677993774414,0.1225820779800415,-0.10258816182613373,0.37720928,-0.27214047,247.26122,-84.35824000000002,2.8257852000000003,JOG
7591159136256.0,0.31858548521995544,-0.25582125782966614,9.184487342834473,0.1392465978860855,-0.10200358182191849,0.4147775,-0.30757064,247.19157,-84.36567,2.7909899,JOG
7608314363904.0,0.32352131605148315,-0.2606600522994995,9.195124626159668,0.156332865357399,-0.1017945408821106,0.44623706,-0.33567044,247.11922,-84.36811999999998,2.7468803,JOG
7624740306944.0,0.3284604251384735,-0.26561683416366577,9.204632759094238,0.1738303005695343,-0.10205712914466858,0.45265114,-0.364992,247.04474,-84.36336,2.6930115000000003,JOG
7640465801216.0,0.3334028422832489,-0.270689457654953,9.213052749633789,0.19172945618629456,-0.10289087891578674,0.45814893,-0.4111123,246.96326,-84.35175,2.6267178,JOG
7655519158272.0,0.3383482098579407,-0.27587515115737915,9.220425605773926,0.21001891791820526,-0.10443540662527084,0.46181414,-0.44440445,246.8815,-84.32427,2.5569105,JOG
7669927116800.0,0.3432963788509369,-0.28117144107818604,9.226790428161621,0.22868844866752625,-0.10679735988378525,0.4447099,-0.4822781,246.80595,-84.289764,2.4745798,JOG
7683715891200.0,0.34824734926223755,-0.28657591342926025,9.232185363769531,0.24772824347019196,-0.11004570871591568,0.43035457,-0.52106804,246.73001,-84.24157,2.3840737,JOG
7696910123008.0,0.35320091247558594,-0.29208582639694214,9.23664665222168,0.26712754368782043,-0.1142614334821701,0.44318274,-0.5696318,246.65291,-84.177986,2.2816317,JOG
7709534453760.0,0.35815688967704773,-0.2976984679698944,9.24021053314209,0.28687581419944763,-0.11954820156097412,0.43157628,-0.61483586,246.58826,-84.09793,2.1722524,JOG
7721611952128.0,0.363115131855011,-0.3034110963344574,9.242911338806152,0.3069625794887543,-0.125912606716156,0.43066,-0.63529986,246.51791,-84.0086,2.0578744,JOG
7733165162496.0,0.36807554960250854,-0.30922114849090576,9.244781494140625,0.32737797498703003,-0.13329851627349854,0.44257188,-0.675617,246.44937,-83.90827,1.9275442,JOG
7744216104960.0,0.37303784489631653,-0.31512558460235596,9.245855331420898,0.34811076521873474,-0.14175505936145782,0.45051312,-0.71959925,246.38324,-83.7848,1.7931713,JOG
7754784702464.0,0.3780020475387573,-0.3212284743785858,9.246281623840332,0.36923617124557495,-0.1512521207332611,0.46517387,-0.7516696999999999,246.31293,-83.66056999999998,1.6531075000000002,JOG
7764891402240.0,0.3829682767391205,-0.3276345431804657,9.246209144592285,0.39083051681518555,-0.1617979258298874,0.45753807,-0.78984874,246.24855,-83.51654,1.5023323,JOG
7774555602944.0,0.3879363238811493,-0.33443301916122437,9.245770454406738,0.41295626759529114,-0.17332831025123596,0.45173484,-0.81489426,246.10703,-83.26156999999998,1.322922,JOG
7783795654656.0,0.3929060399532318,-0.34170401096343994,9.245085716247559,0.4356693923473358,-0.18580901622772217,0.43157628,-0.84421575,245.97495,-82.98877,1.1356137,JOG
7792629383168.0,0.39787739515304565,-0.34951865673065186,9.244264602661133,0.4590193033218384,-0.19916412234306335,0.39553526,-0.8573494,245.85107,-82.71056999999998,0.9501622,JOG
7801073565696.0,0.40285030007362366,-0.3579382002353668,9.243404388427734,0.483047217130661,-0.21333611011505127,0.34238997,-0.8707884,245.74042000000003,-82.42056,0.76144326,JOG
7809144979456.0,0.40782463550567627,-0.3670160472393036,9.242592811584473,0.5077884793281555,-0.22821040451526642,0.3005457,-0.8549059000000001,245.63762000000003,-82.1299,0.5821078000000001,JOG
7816859353088.0,0.41280025243759155,-0.3767978250980377,9.241908073425293,0.5332722663879395,-0.24368751049041748,0.24312437,-0.8399397,245.55605,-81.83264,0.40527433,JOG
7824231366656.0,0.4177771806716919,-0.38732367753982544,9.24142074584961,0.5595241189002991,-0.25966963171958923,0.19303341,-0.8179486,245.48431,-81.53631,0.2401792,JOG
7831276224512.0,0.42275533080101013,-0.39862650632858276,9.241192817687988,0.5865636467933655,-0.27602946758270264,0.14355333,-0.78954333,245.42847000000003,-81.24471,0.087206185,JOG
7838007558144.0,0.4277358651161194,-0.410746306180954,9.241286277770996,0.6144219040870667,-0.29266488552093506,0.109650314,-0.7672467,245.3822,-80.95419,-0.056260273,JOG
7844438999040.0,0.43271735310554504,-0.4236915707588196,9.241742134094238,0.6430933475494385,-0.3094922602176666,0.10354166,-0.74128497,245.34088,-80.6697,-0.18643035,JOG
7850583130112.0,0.4376997649669647,-0.4374803900718689,9.242602348327637,0.6725866198539734,-0.32641956210136414,0.11942416,-0.7086037,245.3016,-80.393,-0.30482596,JOG
7856452534272.0,0.4426843523979187,-0.45213907957077026,9.243911743164062,0.7029226422309875,-0.34339186549186707,0.1518,-0.68233645,245.25839,-80.11901,-0.41542935,JOG
7862058745856.0,0.44766965508461,-0.4676634669303894,9.24569320678711,0.7340863943099976,-0.3603883683681488,0.1881465,-0.6563747,245.20786,-79.84962,-0.51539254,JOG
7867413299200.0,0.4526556432247162,-0.48405981063842773,9.247974395751953,0.76607745885849,-0.3774181306362152,0.2302962,-0.6252206,245.14478,-79.582275,-0.6061889,JOG
7872527204352.0,0.45764222741127014,-0.5013308525085449,9.250778198242188,0.7988927364349365,-0.3945126235485077,0.2565634,-0.60994893,245.07527,-79.3143,-0.69324005,JOG
7877410947072.0,0.4626293480396271,-0.519476592540741,9.25412368774414,0.8325270414352417,-0.41164088249206543,0.2843578,-0.5891795,244.99138,-79.05179,-0.7705930999999999,JOG
7882074488832.0,0.46761709451675415,-0.5384960174560547,9.258027076721191,0.8669753074645996,-0.428781121969223,0.30970868,-0.5705481,244.89993,-78.78556,-0.84406596,JOG
7886527791104.0,0.4726053774356842,-0.558384120464325,9.262499809265137,0.902228593826294,-0.4459770917892456,0.32742378,-0.5326744999999999,244.80045,-78.51637,-0.9061409,JOG
7890779766784.0,0.47759413719177246,-0.5791340470314026,9.26755142211914,0.9382768273353577,-0.46322187781333923,0.33261612,-0.4908302,244.69588,-78.25426,-0.9614914,JOG
7894838804480.0,0.48258352279663086,-0.6007394194602966,9.273189544677734,0.9751113653182983,-0.48046576976776123,0.31673363,-0.45204028,244.59009,-77.993,-1.0060871999999998,JOG
7898713817088.0,0.487573504447937,-0.6231904625892639,9.2794189453125,1.0127202272415161,-0.49769288301467896,0.29993483,-0.3933972,244.47922000000003,-77.73060600000002,-1.033156,JOG
7902413193216.0,0.4925638735294342,-0.6464742422103882,9.286240577697754,1.0510883331298828,-0.5149219036102295,0.26908615,-0.33628133,244.37418,-77.470375,-1.0478126,JOG
7905944272896.0,0.4975564181804657,-0.6705960631370544,9.293665885925293,1.0902239084243774,-0.5321219563484192,0.24098633,-0.25625798,244.26765,-77.21847,-1.039026,JOG
7909314396160.0,0.5025492310523987,-0.6955239176750183,9.301681518554688,1.1300894021987915,-0.5492567420005798,0.22388211,-0.17562376,244.16255,-76.967,-1.0135401,JOG
7912530903040.0,0.5075421929359436,-0.7212429642677307,9.310285568237305,1.1706691980361938,-0.5662765502929688,0.22143865,-0.103847094,244.05606,-76.721664,-0.9685668,JOG
7915600609280.0,0.5125353336334229,-0.7477380037307739,9.319473266601562,1.2119476795196533,-0.5831406116485596,0.21105394,-0.047647487,243.95174,-76.48074,-0.9056063,JOG
7918530330624.0,0.517528772354126,-0.7749951481819153,9.329239845275879,1.2539112567901611,-0.5998015999794006,0.2098322,-0.013133603,243.84167,-76.24676,-0.8313603999999999,JOG
7921325834240.0,0.5225225687026978,-0.8029983043670654,9.339579582214355,1.2965439558029175,-0.6161933541297913,0.22968534,0.040927973,243.72296,-76.02073,-0.73936963,JOG
7923993411584.0,0.5275166034698486,-0.8317304253578186,9.350483894348145,1.3398288488388062,-0.6323033571243286,0.2678644,0.08124508,243.5975,-75.79545999999998,-0.6456390000000001,JOG
7926538305536.0,0.5325110554695129,-0.8611757755279541,9.361946105957031,1.3837511539459229,-0.6481254696846008,0.29779682,0.1001819,243.46613,-75.57749,-0.54676825,JOG
7928966283264.0,0.5375060439109802,-0.8913187980651855,9.373957633972168,1.4282963275909424,-0.6636333465576172,0.32803464,0.105374254,243.32196,-75.3645,-0.44656903,JOG
7931282587648.0,0.5425012707710266,-0.922139048576355,9.386507034301758,1.4734439849853516,-0.6788172721862793,0.3378085,0.10598512,243.174,-75.15234,-0.34646004,JOG
7933492461568.0,0.5474969744682312,-0.9536213874816895,9.399585723876953,1.519180417060852,-0.6936772465705872,0.35460728,0.12034045,243.01425,-74.94363,-0.24714263,JOG
7935600623616.0,0.5524927973747253,-0.9857444167137146,9.41318130493164,1.5654845237731934,-0.7081561088562012,0.3585779000000001,0.13072516,242.85559,-74.743546,-0.15179089,JOG
7937611268096.0,0.5574886798858643,-1.0184904336929321,9.427282333374023,1.612339735031128,-0.722220242023468,0.34972036,0.12736541,242.69589,-74.54383,-0.059835885,JOG
7939529113600.0,0.5624846816062927,-1.0518429279327393,9.441878318786621,1.6597309112548828,-0.735850989818573,0.34208453,0.122478485,242.53427,-74.35084499999998,0.030949296,JOG
7941358354432.0,0.5674811601638794,-1.0857878923416138,9.456958770751953,1.7076462507247925,-0.7490164041519165,0.33169982,0.09621128,242.37799,-74.16564,0.11266063,JOG
7943103184896.0,0.5724775195121765,-1.1203017234802246,9.472509384155273,1.7560619115829468,-0.7616458535194397,0.31856623,0.074830994,242.22482,-73.98986,0.19218138,JOG
7944767275008.0,0.5774739980697632,-1.155178189277649,9.488216400146484,1.8048275709152222,-0.773707926273346,0.29718593,0.087659165,242.07642,-73.817604,0.27260754,JOG
7946354294784.0,0.5824705362319946,-1.1901743412017822,9.50370979309082,1.8537648916244507,-0.7851621508598328,0.29229903,0.09407325,241.9295,-73.65774499999998,0.34260768,JOG
7947867389952.0,0.5874668955802917,-1.2250741720199585,9.51866626739502,1.9027138948440552,-0.7959470748901367,0.31429017,0.07391469,241.61261,-73.2798,0.21579348,JOG
7949310230528.0,0.5924631357192993,-1.2596814632415771,9.532787322998047,1.9515308141708374,-0.8060026168823242,0.34177909999999995,0.07513642,241.29459,-72.91614,0.09802692,JOG
7950686486528.0,0.5974593162536621,-1.293821930885315,9.54581069946289,2.000087261199951,-0.815242350101471,0.3726278,0.0571159,240.97418,-72.57210500000002,-0.031015886,JOG
7951998255104.0,0.6024553775787354,-1.327340841293335,9.557504653930664,2.048269033432007,-0.8235623836517334,0.3930918,0.038789943,240.65044,-72.24721,-0.15962686,JOG
7953249206272.0,0.607451319694519,-1.3601012229919434,9.567666053771973,2.0959746837615967,-0.8308680057525635,0.4071417,0.03359759,240.32187,-71.94208,-0.2898898,JOG
7954441961472.0,0.612447202205658,-1.3919824361801147,9.576115608215332,2.1431148052215576,-0.8371274471282959,0.42332962,0.038789943,239.98932,-71.65357,-0.4223503,JOG
7955579142144.0,0.6174430251121521,-1.4228785037994385,9.582697868347168,2.189610719680786,-0.8423143625259399,0.4147775,0.048563786,239.66125,-71.3868,-0.55198175,JOG
7956663369728.0,0.6224387884140015,-1.452697515487671,9.587278366088867,2.235393762588501,-0.8464012145996094,0.4016439000000001,0.07880162,239.32913,-71.13719,-0.67366844,JOG
7957696741376.0,0.627434492111206,-1.4813604354858398,9.589743614196777,2.2804043292999268,-0.849380373954773,0.37507126,0.103847094,239.004,-70.902214,-0.7901566999999999,JOG
7958681878528.0,0.6324303150177002,-1.5087980031967163,9.589994430541992,2.3245913982391357,-0.851285457611084,0.32986724,0.11636983,238.6871,-70.67999,-0.89717185,JOG
7959620878336.0,0.6374262571334839,-1.534952998161316,9.587949752807617,2.3679115772247314,-0.8521105647087097,0.29077184,0.16432275,238.37128,-70.477165,-0.9843964,JOG
7960515837952.0,0.6424229741096497,-1.5597730875015259,9.58353042602539,2.4103281497955322,-0.851909875869751,0.26542094,0.22540927,238.0625,-70.279785,-1.0604218,JOG
7961369378816.0,0.6474198698997498,-1.583223581314087,9.576698303222656,2.4518110752105713,-0.850753903388977,0.24801129,0.29229903,237.7579,-70.09569,-1.1180516,JOG
7962182549504.0,0.6524168252944946,-1.6052743196487427,9.567416191101074,2.4923360347747803,-0.8487424850463867,0.23151793,0.35155296,237.45547,-69.91749,-1.1584927,JOG
7962957971456.0,0.6574138402938843,-1.6259015798568726,9.555654525756836,2.531883955001831,-0.8459067344665527,0.21380283,0.3744604,237.15584,-69.75218000000001,-1.1889753,JOG
7963696693248.0,0.6624107956886292,-1.6450886726379395,9.541398048400879,2.5704405307769775,-0.8423055410385132,0.20830505,0.40653083,236.85129,-69.58789,-1.2011938999999998,JOG
7964400812032.0,0.6674078106880188,-1.6628237962722778,9.524636268615723,2.6079955101013184,-0.8379825949668884,0.20341812,0.43035457,236.55054,-69.43359,-1.2084917,JOG
7965071900672.0,0.6724048256874084,-1.6791008710861206,9.505367279052734,2.644542932510376,-0.8328940272331238,0.2012801,0.4456262,236.24887,-69.29382,-1.2101110000000002,JOG
7965711532032.0,0.6774018406867981,-1.6939185857772827,9.483597755432129,2.680079936981201,-0.8270539045333862,0.19242255,0.47708577,235.94696,-69.1561,-1.2009101,JOG
7966321278976.0,0.6823989748954773,-1.707279086112976,9.45933723449707,2.714607000350952,-0.8204354047775269,0.1853976,0.47983465,235.64737,-69.037056,-1.1963311,JOG
7966902190080.0,0.6873962879180908,-1.7191885709762573,9.432601928710938,2.7481274604797363,-0.8130686283111572,0.17715092,0.47708577,235.34866,-68.92251,-1.185006,JOG
7967455838208.0,0.6923937201499939,-1.7296576499938965,9.403416633605957,2.7806472778320312,-0.8050442934036255,0.17959438,0.4718934,235.04996,-68.815025,-1.1751633999999995,JOG
7967983271936.0,0.6973913908004761,-1.738698959350586,9.371808052062988,2.8121743202209473,-0.7963588833808899,0.18600847,0.45234573,234.7552,-68.72385,-1.1705608,JOG
7968486064128.0,0.7023892998695374,-1.7463281154632568,9.337806701660156,2.8427186012268066,-0.7870232462882996,0.20861048,0.44348818,234.45595,-68.6332,-1.1674865,JOG
7968965263360.0,0.7073874473571777,-1.7525633573532104,9.301447868347168,2.8722920417785645,-0.7770142555236816,0.27122417,0.41538838,234.14952,-68.55566,-1.1804563999999995,JOG
7969421918208.0,0.7123856544494629,-1.757426381111145,9.262773513793945,2.9009077548980713,-0.7662913799285889,0.29229903,0.3979787,233.84923,-68.489136,-1.1916584,JOG
7969857077248.0,0.7173840999603271,-1.7609381675720215,9.221821784973145,2.9285805225372314,-0.7548515796661377,0.3304781,0.3680463,233.53342,-68.430916,-1.2223687,JOG
7970271789056.0,0.7223827242851257,-1.7631224393844604,9.17863655090332,2.9553263187408447,-0.7426785826683044,0.39950588,0.34208453,233.20676,-68.388,-1.2622167,JOG
7970667102208.0,0.7273815274238586,-1.7640044689178467,9.133262634277344,2.9811618328094482,-0.7298005819320679,0.4550946,0.31826079999999995,232.87816,-68.35110999999999,-1.3118695,JOG
7971043540992.0,0.732380747795105,-1.763608455657959,9.085741996765137,3.0061044692993164,-0.7162014842033386,0.5149594,0.29016098,232.5351,-68.32994000000001,-1.3767246000000002,JOG
7971402153984.0,0.7373802065849304,-1.7619625329971313,9.036125183105469,3.030172824859619,-0.7019192576408386,0.6035349,0.25809056,232.1745,-68.31079,-1.4570601,JOG
7971743989760.0,0.7423797845840454,-1.7590956687927246,8.984464645385742,3.0533859729766846,-0.6870237588882446,0.6805039,0.22540927,231.80626,-68.2993,-1.5489597,JOG
7972070096896.0,0.74737948179245,-1.7550357580184937,8.930809020996094,3.075762987136841,-0.6715505719184875,0.7452555999999999,0.204029,231.42215,-68.29664,-1.6529062,JOG
7972380475392.0,0.7523804306983948,-1.7498035430908203,8.875185012817383,3.0973236560821533,-0.6555619835853577,0.7812967,0.19272798,231.03,-68.293495,-1.7661243999999998,JOG
7972676173824.0,0.7573812007904053,-1.7434382438659668,8.817671775817871,3.1180882453918457,-0.639129102230072,0.8491027,0.17562376,230.61754,-68.29386,-1.894681,JOG
7972958240768.0,0.7623817920684814,-1.7359695434570312,8.758321762084961,3.1380767822265625,-0.6222987174987793,0.9071349,0.15363261,230.20236,-68.2982,-2.0281322,JOG
7973226676224.0,0.7673822641372681,-1.727426290512085,8.697183609008789,3.1573097705841064,-0.6051200032234192,0.9633345,0.13072516,229.77419,-68.30250500000001,-2.170995,JOG
7973482528768.0,0.7723825573921204,-1.7178385257720947,8.634308815002441,3.175807476043701,-0.5876405239105225,1.028697,0.10598512,229.33337000000003,-68.308624,-2.3247428,JOG
7973726322688.0,0.7773827910423279,-1.7075939178466797,8.5703706741333,3.1935274600982666,-0.5698396563529968,1.1004738,0.08979719,228.88022,-68.322784,-2.4861438,JOG
7973959106560.0,0.7823829650878906,-1.697079062461853,8.5060396194458,3.2104275226593018,-0.551750123500824,1.1633928999999998,0.08521569999999999,228.41629,-68.333176,-2.6540487,JOG
7974180880384.0,0.7873830199241638,-1.6866376399993896,8.441912651062012,3.2264726161956787,-0.5333856344223022,1.2241739,0.087659165,227.90659,-68.224236,-2.6936097,JOG
7974392168448.0,0.7923829555511475,-1.6765804290771484,8.37852954864502,3.241633653640747,-0.5147365927696228,1.278541,0.09437868,227.38478,-68.12149000000001,-2.7403007,JOG
7974593495040.0,0.7973831295967102,-1.6671926975250244,8.31638240814209,3.2558846473693848,-0.49582043290138245,1.3542882,0.12034045,226.84186,-68.02252,-2.7910085,JOG
7974785384448.0,0.8023831248283386,-1.6587120294570923,8.25588607788086,3.269209146499634,-0.47667089104652405,1.4306464,0.15821409,226.28555,-67.93016999999999,-2.843665,JOG
7974968360960.0,0.8073829412460327,-1.6513563394546509,8.197418212890625,3.281593084335327,-0.4572763442993164,1.5326608,0.19639318,225.70287,-67.848,-2.90129,JOG
7975142424576.0,0.8123826384544373,-1.6453192234039307,8.141313552856445,3.2930262088775635,-0.43759238719940186,1.6300939,0.25167647,225.0988,-67.77448000000001,-2.9533236,JOG
7975308623872.0,0.8173823356628418,-1.640771508216858,8.08786678314209,3.303501605987549,-0.41750630736351013,1.7165313999999998,0.31184670000000003,224.46974,-67.71709399999999,-3.005061,JOG
7975466958848.0,0.8223838210105896,-1.6378968954086304,8.037379264831543,3.313007354736328,-0.39685314893722534,1.8203784,0.38728857,223.80667000000003,-67.67918,-3.0519712,JOG
7975617953792.0,0.8273851871490479,-1.6367837190628052,7.990020751953125,3.3215532302856445,-0.3753982186317444,1.9077321,0.49266282,223.11955,-67.67074000000001,-3.084074,JOG
7975761608704.0,0.8323866724967957,-1.6375445127487183,7.94598388671875,3.329141139984131,-0.3530080318450928,1.9914207,0.60048056,222.40205,-67.6809,-3.1080155,JOG
7975898972160.0,0.8373880982398987,-1.6402698755264282,7.90542459487915,3.3357768058776855,-0.32963240146636963,2.0839667,0.72173727,221.65105,-67.719955,-3.112593,JOG
7976029519872.0,0.8423905968666077,-1.6450592279434204,7.868505001068115,3.3414621353149414,-0.30525174736976624,2.1762075000000003,0.8417723,220.87161,-67.78355400000001,-3.0998907000000004,JOG
7976154300416.0,0.8473928570747375,-1.6519490480422974,7.835298538208008,3.3462131023406982,-0.27984002232551575,2.2693644,0.9627236,220.05975,-67.868225,-3.0672483,JOG
7976273313792.0,0.8523949384689331,-1.6609909534454346,7.805892467498779,3.3500406742095947,-0.2532970905303955,2.3185391,1.0931433000000002,219.22708,-67.97801,-3.0082088,JOG
7976386560000.0,0.8573967814445496,-1.6722235679626465,7.78035306930542,3.3529574871063232,-0.2256031334400177,2.4205534,1.1615603,218.35556,-68.09595,-2.952472,JOG
7976494563328.0,0.8623983860015869,-1.6856753826141357,7.758728504180908,3.3549773693084717,-0.19685299694538116,2.5347853,1.2815952,217.45483,-68.22923,-2.858518,JOG
7976597848064.0,0.8673998117446899,-1.7013680934906006,7.741054058074951,3.3561148643493652,-0.16710951924324036,2.626415,1.3771957,216.53534,-68.37886,-2.7649372000000003,JOG
7976696414208.0,0.8724010586738586,-1.7193130254745483,7.7273478507995605,3.3563859462738037,-0.13657239079475403,2.7027733,1.4330899,215.58829,-68.518074,-2.6648557,JOG
7976790261760.0,0.8774022459983826,-1.7395150661468506,7.717616558074951,3.355806827545166,-0.10546530783176422,2.7528641,1.4251486,214.62808,-68.65701,-2.567946,JOG
7976879915008.0,0.8824033737182617,-1.7619720697402954,7.711854457855225,3.3543949127197266,-0.07399214804172516,2.792876,1.3500122,213.6591,-68.78438,-2.4862726000000004,JOG
7976965373952.0,0.8874043822288513,-1.786673665046692,7.710042476654053,3.352168321609497,-0.04243294894695282,2.8050933,1.210124,212.69951,-68.8851,-2.4318957,JOG
7977046638592.0,0.8924058675765991,-1.813617467880249,7.712169170379639,3.34914231300354,-0.010946986265480518,2.74981,1.0118983,211.76883,-68.976974,-2.4155502,JOG
7977124233216.0,0.8974071741104126,-1.8427708148956299,7.7181830406188965,3.345339059829712,0.020360488444566727,2.6294694,0.8069529999999999,210.87508,-69.04586,-2.437815,JOG
7977198682112.0,0.9024083018302917,-1.8741101026535034,7.72804069519043,3.3407773971557617,0.05139825865626335,2.5247061,0.63194007,210.01665,-69.098,-2.5048177000000003,JOG
7977269460992.0,0.9074092507362366,-1.907607913017273,7.741693496704102,3.3354766368865967,0.08196041733026505,2.5072963,0.4908302,209.19159,-69.125015,-2.6169388,JOG
7977337094144.0,0.9124099016189575,-1.9432306289672852,7.759082794189453,3.3294568061828613,0.11179263889789581,2.557082,0.3866777,208.3974,-69.134125,-2.7639203,JOG
7977401581568.0,0.9174104332923889,-1.980948805809021,7.780154228210449,3.3227362632751465,0.14066559076309204,2.6074784,0.32406402,207.62447,-69.121414,-2.9370205,JOG
7977463447552.0,0.9224109053611755,-2.020726203918457,7.804843425750732,3.3153343200683594,0.16848056018352509,2.6578746,0.27763826,206.85379,-69.091415,-3.1395543,JOG
7977522167808.0,0.9274113178253174,-2.062525510787964,7.8330841064453125,3.307270050048828,0.19520670175552368,2.567161,0.19120082,206.12465,-69.03832,-3.3610737,JOG
7977578266624.0,0.9324116706848145,-2.1063077449798584,7.864806652069092,3.2985622882843018,0.2208515852689743,2.3625214,0.12950343,205.42159,-68.97383,-3.5824223,JOG
7977632268288.0,0.9374119639396667,-2.1520302295684814,7.899936199188232,3.2892305850982666,0.24544762074947357,2.022575,0.119729586,204.78923,-68.9023,-3.7899606,JOG
7977683648512.0,0.9424121975898743,-2.199650287628174,7.938397407531738,3.2792935371398926,0.2689678370952606,1.6514741999999998,0.18448131,204.22484,-68.821686,-3.9697077,JOG
7977732931584.0,0.947412371635437,-2.249124765396118,7.980113983154297,3.2687695026397705,0.29150038957595825,1.3100005,0.29810223,203.7448,-68.752815,-4.10698,JOG
7977780117504.0,0.952412486076355,-2.3004090785980225,8.025007247924805,3.257676839828491,0.31311413645744324,1.1896601,0.43585235,203.30011,-68.680984,-4.2055917,JOG
7977825206272.0,0.9574125409126282,-2.3534584045410156,8.072998046875,3.2460336685180664,0.33390459418296814,1.0784826,0.5198463,202.94185,-68.619675,-4.255308599999998,JOG
7977868197888.0,0.9624133110046387,-2.4082436561584473,8.124028205871582,3.233853816986084,0.35396233201026917,1.0571023000000002,0.73914695,202.5667,-68.5768,-4.2310567,JOG
7977909616640.0,0.9674139618873596,-2.4647016525268555,8.177993774414062,3.221158742904663,0.3733280897140503,1.0247264,0.79259765,202.23569,-68.53026,-4.2187204000000005,JOG
7977948938240.0,0.9724141955375671,-2.5227808952331543,8.234807014465332,3.2079672813415527,0.39187636971473694,1.0060950000000002,0.8732319,201.88406,-68.48621999999999,-4.1437907,JOG
7977986686976.0,0.9774143099784851,-2.5821304321289062,8.293745040893555,3.194322347640991,0.4095456302165985,1.0051788,0.96761054,201.53226,-68.450874,-4.0536633,JOG
7978022862848.0,0.9824144840240479,-2.6423301696777344,8.353941917419434,3.1802730560302734,0.4263257086277008,1.0274754,1.072374,201.17252,-68.40865,-3.9446166,JOG
7978057465856.0,0.9874145984649658,-2.7030036449432373,8.414628028869629,3.165865898132324,0.44238176941871643,1.0369438,1.1847731,200.68675,-68.612656,-4.123558999999998,JOG
7978090496000.0,0.992414653301239,-2.763810396194458,8.475106239318848,3.1511423587799072,0.4579913914203644,1.0699303999999998,1.2825116,200.18245,-68.82401999999999,-4.27522,JOG
7978122477568.0,0.9974146485328674,-2.8244454860687256,8.534753799438477,3.136141061782837,0.47349056601524353,1.0775663,1.387275,199.67357,-69.05747,-4.3863629999999985,JOG
7978152886272.0,1.002414584159851,-2.8846359252929688,8.59301471710205,3.1208972930908203,0.48922666907310486,1.0952813999999995,1.4798211,199.14827,-69.31953,-4.4727015,JOG
7978182246400.0,1.0074145793914795,-2.9441375732421875,8.649391174316406,3.1054434776306152,0.5055563449859619,1.0751228000000002,1.5583171999999998,198.6264,-69.61838,-4.5261054000000005,JOG
7978210033664.0,1.0124143362045288,-3.0027363300323486,8.70345401763916,3.0898094177246094,0.5228071212768555,1.044885,1.6239853000000002,198.09955,-69.95366,-4.55382,JOG
7978236772352.0,1.0174140930175781,-3.060239553451538,8.75481128692627,3.074021816253662,0.5412655472755432,0.9960158,1.7088956000000002,197.57922,-70.32893,-4.5468407,JOG
7978262462464.0,1.0224138498306274,-3.1164793968200684,8.803126335144043,3.05810546875,0.5611608028411865,0.9068295,1.8530598000000005,197.07237,-70.74436,-4.49522,JOG
7978287104000.0,1.0274134874343872,-3.1713085174560547,8.848103523254395,3.0420827865600586,0.5826819539070129,0.79320854,1.990199,196.5851,-71.196724,-4.4121084,JOG
7978310696960.0,1.0324138402938843,-3.2245934009552,8.8894681930542,3.025972366333008,0.6059106588363647,0.66431594,2.0906863,196.12389,-71.677605,-4.28786,JOG
7978333765632.0,1.037414312362671,-3.276228189468384,8.927018165588379,3.009794235229492,0.6308405995368958,0.5372560000000001,2.1282544,195.69449,-72.18339,-4.132152,JOG
7978355785728.0,1.0424158573150635,-3.326110601425171,8.960537910461426,2.993562698364258,0.6574448347091675,0.4016439000000001,2.0732768,195.31001,-72.7064,-3.9620984,JOG
7978376757248.0,1.0474170446395874,-3.3741729259490967,8.989919662475586,2.9772965908050537,0.6856692433357239,0.34574974,1.9193386,194.95139,-73.23376,-3.8052113,JOG
7978397204480.0,1.0524179935455322,-3.420348644256592,9.015035629272461,2.9610095024108887,0.71541827917099,0.267559,1.8164078,194.64394,-73.76598,-3.6367657,JOG
7978416603136.0,1.057418704032898,-3.4645841121673584,9.035784721374512,2.944713830947876,0.7464943528175354,0.25473082,1.5989398,194.3622,-74.27763,-3.5427046000000004,JOG
7978435477504.0,1.0624191761016846,-3.5068366527557373,9.05208969116211,2.9284207820892334,0.7787184119224548,0.32559118,1.4107933,194.09058,-74.788246,-3.4685483,JOG
7978453827584.0,1.067419409751892,-3.5470731258392334,9.06389045715332,2.912139892578125,0.8118138909339905,0.4541782999999999,1.2617421,193.82524,-75.269646,-3.4449604,JOG
7978471653376.0,1.0724194049835205,-3.5852701663970947,9.071149826049805,2.8958804607391357,0.8452971577644348,0.54183745,1.1459832,193.56757,-75.7116,-3.4634252,JOG
7978488430592.0,1.0774191617965698,-3.621412515640259,9.073846817016602,2.879650115966797,0.8785479068756104,0.5564981999999999,1.0726794,193.30612,-76.111046,-3.511836,JOG
7978504683520.0,1.0824187994003296,-3.655491590499878,9.07197093963623,2.8634557723999023,0.9108140468597412,0.5393939999999999,1.040609,193.0377,-76.44689,-3.5808942000000004,JOG
7978520412160.0,1.0874183177947998,-3.6875061988830566,9.065529823303223,2.847303628921509,0.9413331747055054,0.514654,1.0073168,192.77501,-76.71247,-3.6673067,JOG
7978535616512.0,1.0924177169799805,-3.717461109161377,9.054543495178223,2.8311991691589355,0.9693722724914551,0.46792278,0.9896017,192.52617,-76.89846,-3.7523812999999993,JOG
7978550296576.0,1.0974169969558716,-3.745366334915161,9.039041519165039,2.8151469230651855,0.9943421483039856,0.37720928,1.0076222,192.29753,-77.011024,-3.8294823,JOG
7978564452352.0,1.1024162769317627,-3.7712366580963135,9.019062042236328,2.7991509437561035,1.0158414840698242,0.24862215,1.0601566,192.09186,-77.054,-3.8941884,JOG
7978578083840.0,1.1074154376983643,-3.795091152191162,8.994654655456543,2.783214807510376,1.0335958003997803,0.13713925,1.1447614,191.90327,-77.03401,-3.9385114,JOG
7978591715328.0,1.1124144792556763,-3.816953182220459,8.965877532958984,2.7673416137695312,1.0475537776947021,0.06841691,1.2479976000000002,191.73323,-76.9761,-3.9565017,JOG
7978604822528.0,1.1174134016036987,-3.836848497390747,8.932790756225586,2.7515335083007812,1.0577434301376343,0.03390302,1.3460416000000002,191.57819,-76.87749000000002,-3.9472222,JOG
7978617405440.0,1.1224123239517212,-3.8548061847686768,8.895462989807129,2.735792636871338,1.064263105392456,0.052839845,1.423316,191.42023,-76.75617,-3.9144924,JOG
7978629464064.0,1.127411127090454,-3.8708579540252686,8.853968620300293,2.720120906829834,1.0672754049301147,0.09773844,1.4193454,191.26132,-76.612785,-3.87787,JOG
7978641522688.0,1.1324100494384766,-3.885035276412964,8.808377265930176,2.7045187950134277,1.067003846168518,0.15057829,1.2617421,191.09753,-76.44614,-3.8661838,JOG
7978653057024.0,1.1374090909957886,-3.897374153137207,8.758770942687988,2.6889872550964355,1.0636554956436157,0.20219639,1.0974194,190.92003,-76.261566,-3.8622544,JOG
7978664067072.0,1.1424082517623901,-3.907912015914917,8.705236434936523,2.673527240753174,1.057308316230774,0.26358834,0.96761054,190.73083,-76.04619,-3.8978598,JOG
7978675077120.0,1.147409200668335,-3.916672706604004,8.647801399230957,2.6581344604492188,1.047911524772644,0.30726522,0.8454375,190.54039,-75.79651,-3.9795883,JOG
7978685562880.0,1.1524100303649902,-3.9237117767333984,8.58661937713623,2.6428141593933105,1.0353440046310425,0.32803464,0.7886270000000001,190.34132,-75.51379,-4.081415,JOG
7978696048640.0,1.157410740852356,-3.9290695190429688,8.521780967712402,2.627566337585449,1.0197596549987793,0.37720928,0.6579019,190.1334,-75.20822,-4.241779,JOG
7978706010112.0,1.1624112129211426,-3.932786464691162,8.453376770019531,2.6123905181884766,1.0011193752288818,0.4098906,0.53878313,189.92522,-74.8422,-4.4140615,JOG
7978715971584.0,1.1674116849899292,-3.934903621673584,8.381497383117676,2.5972862243652344,0.9794096350669861,0.45173484,0.39858958,189.70952,-74.45089,-4.6309752,JOG
7978725408768.0,1.1724120378494263,-3.935462474822998,8.306235313415527,2.5822527408599854,0.954706072807312,0.50243664,0.2574797,189.48898,-74.02579,-4.8821163,JOG
7978734845952.0,1.1774122714996338,-3.9350838661193848,8.226371765136719,2.5674831867218018,0.9271126985549927,0.5036584,0.12705997,189.27824,-73.56285,-5.165789,JOG
7978743758848.0,1.1824123859405518,-3.9344303607940674,8.140593528747559,2.5531840324401855,0.8968480825424194,0.48899764,0.010079277,189.06572,-73.078514,-5.483884,JOG
7978752671744.0,1.1874126195907593,-3.934084892272949,8.047733306884766,2.5394890308380127,0.8641226887702942,0.4196644000000001,-0.116980694,188.73332,-72.39833,-5.7542496,JOG
7978761060352.0,1.1924127340316772,-3.934540271759033,7.946835517883301,2.5264766216278076,0.8291849493980408,0.31764993,-0.24312437,188.42484,-71.70145,-6.0571160000000015,JOG
7978769448960.0,1.1974128484725952,-3.935972213745117,7.836865425109863,2.5141382217407227,0.7922326326370239,0.19639318,-0.34300083,188.01859,-70.89804000000002,-6.418875,JOG
7978777837568.0,1.2024129629135132,-3.9382455348968506,7.71669340133667,2.5023794174194336,0.7534851431846619,0.036651913,-0.41630468,187.66298,-70.08292,-6.8005257,JOG
7978786226176.0,1.2074129581451416,-3.941169261932373,7.585669040679932,2.4910051822662354,0.7131433486938477,-0.13316862,-0.50243664,187.35675,-69.29961,-7.2549314,JOG
7978794090496.0,1.212412714958191,-3.9445343017578125,7.443423271179199,2.47978138923645,0.6714117527008057,-0.30207285,-0.5873469,187.10483,-68.5008,-7.718478699999999,JOG
7978801954816.0,1.2174147367477417,-3.9482123851776123,7.290037631988525,2.468266725540161,0.6284602284431458,-0.48075095,-0.67073005,186.9191,-67.684,-8.214364,JOG
7978809819136.0,1.2224164009094238,-3.9521377086639404,7.12628698348999,2.456127405166626,0.584457516670227,-0.65668017,-0.7651087,186.79361,-66.84695,-8.723925,JOG
7978817159168.0,1.2274178266525269,-3.9562387466430664,6.9534173011779785,2.4429540634155273,0.5396498441696167,-0.8374963,-0.8597928,186.73035,-65.98221600000001,-9.255356,JOG
7978824499200.0,1.2324192523956299,-3.9604451656341553,6.773014068603516,2.4283504486083984,0.49427568912506104,-0.98624194,-0.95233893,186.72252,-65.09482,-9.800375,JOG
7978831839232.0,1.2374204397201538,-3.9646174907684326,6.587368965148926,2.412005662918091,0.44853225350379944,-1.1325442,-1.0433578,186.7721,-64.18989599999999,-10.362892,JOG
7978839179264.0,1.2424229383468628,-3.968552827835083,6.399377822875977,2.393608331680298,0.4024766981601715,-1.2409728,-1.1068878,186.86626,-63.261726,-10.933458,JOG
7978846519296.0,1.2474250793457031,-3.971330404281616,6.213510990142822,2.3740243911743164,0.35608401894569397,-1.2956451999999998,-1.1713341,187.00246,-62.34434,-11.512456,JOG
7978853335040.0,1.2524269819259644,-3.971463441848755,6.035804748535156,2.3548316955566406,0.3094116151332855,-1.4175128,-1.1976013,187.19502,-61.41431400000001,-12.079033,JOG
7978860150784.0,1.257428526878357,-3.9683573246002197,5.871099472045898,2.338130235671997,0.2623608112335205,-1.5919148,-1.2544118,187.45001,-60.524895,-12.616124,JOG
7978866966528.0,1.2624298334121704,-3.9621999263763428,5.723206996917725,2.326493501663208,0.2147826999425888,-1.8270979,-1.3109168,187.76053,-59.61243,-13.135775,JOG
7978873782272.0,1.2674309015274048,-3.954479455947876,5.5965704917907715,2.3229658603668213,0.1665114313364029,-2.0967948,-1.3649784,187.97264,-58.71878,-13.279613,JOG
7978880598016.0,1.27243173122406,-3.9483559131622314,5.49662446975708,2.3313117027282715,0.11716528236865997,-2.3658812,-1.4269812,188.26459,-57.778564,-13.393510999999998,JOG
7978887413760.0,1.2774323225021362,-3.9451756477355957,5.427302837371826,2.350883722305298,0.06615186482667923,-2.6703975,-1.5082263,188.35991,-56.60909300000001,-13.161731,JOG
7978893705216.0,1.2824327945709229,-3.9443414211273193,5.391182899475098,2.376121997833252,0.012381143867969513,-2.9984322,-1.6688838,188.57632,-55.346745,-12.9022455,JOG
7978899996672.0,1.2874345779418945,-3.9434797763824463,5.389375686645508,2.400012493133545,-0.04503880441188812,-3.1584787,-1.8139644,188.80585,-53.979404,-12.667177,JOG
7978906288128.0,1.292436122894287,-3.9392619132995605,5.420709609985352,2.415888547897339,-0.10594885796308517,-3.1548135,-1.9343048,189.11388,-52.615166,-12.422843,JOG
7978912579584.0,1.297437310218811,-3.9283230304718018,5.48382043838501,2.417957067489624,-0.16915640234947205,-3.0692923,-1.9098701,189.50131,-51.73245,-12.081346,JOG
7978918871040.0,1.3024382591247559,-3.907590866088867,5.576490879058838,2.4027347564697266,-0.23291894793510437,-2.8170052000000005,-1.7235563000000005,189.85744,-50.913097,-11.7619295,JOG
7978925162496.0,1.307438850402832,-3.8743605613708496,5.6965484619140625,2.36777925491333,-0.2958120107650757,-2.3518312000000003,-1.5149458999999998,190.3891,-50.760475,-11.292377,JOG
7978931453952.0,1.312439203262329,-3.8259782791137695,5.841498374938965,2.3141720294952393,-0.35733336210250854,-1.8090774,-1.4544701999999998,190.86603,-50.649376,-10.884997,JOG
7978937745408.0,1.3174391984939575,-3.760141611099243,6.008894920349121,2.2431466579437256,-0.4177967309951782,-1.3185526,-1.4895949,191.45625,-50.94758,-10.322567,JOG
7978944036864.0,1.3224390745162964,-3.674891471862793,6.195511341094971,2.1573314666748047,-0.47765281796455383,-0.92149025,-1.534188,191.95006,-51.233017,-9.849316,JOG
7978949804032.0,1.3274387121200562,-3.56915020942688,6.398108005523682,2.059634208679199,-0.5370600819587708,-0.5531385,-1.5234979,192.48717,-51.570137,-9.193433,JOG
7978955571200.0,1.332438349723816,-3.4445958137512207,6.612313747406006,1.9551596641540527,-0.595970094203949,-0.2556471,-1.502423,192.95888,-51.828022,-8.63118,JOG
7978961338368.0,1.3374378681182861,-3.302992105484009,6.8343939781188965,1.8484885692596436,-0.6544865965843201,-0.17715092,-1.5167783,193.52275,-51.97738,-7.8489656,JOG
7978967105536.0,1.3424372673034668,-3.1473755836486816,7.062211513519287,1.7442626953125,-0.7129621505737305,-0.20463985,-1.5647314,194.04184,-52.049232,-7.13855,JOG
7978972872704.0,1.347436547279358,-2.9806785583496094,7.293991565704346,1.6464356184005737,-0.7718213796615601,-0.23823744,-1.6035212,194.58148,-51.823658,-6.324602,JOG
7978978639872.0,1.352435827255249,-2.8071796894073486,7.529504299163818,1.5570422410964966,-0.8311418294906616,-0.31398472,-1.6844609,195.154,-51.55066,-5.546908,JOG
7978984407040.0,1.3574347496032715,-2.630669355392456,7.7685136795043945,1.4778244495391846,-0.8910819292068481,-0.29840767,-1.783421,195.73676,-51.029816,-4.8361793,JOG
7978990174208.0,1.362433671951294,-2.4568281173706055,8.011463165283203,1.410609483718872,-0.951408863067627,-0.1600467,-1.892766,196.32655,-50.506813,-4.1757913,JOG
7978995941376.0,1.3674325942993164,-2.2909371852874756,8.258795738220215,1.3569716215133667,-1.011698603630066,0.01985312,-1.9550742,196.91544,-49.961872,-3.5553352999999994,JOG
7979001708544.0,1.3724315166473389,-2.1375536918640137,8.510201454162598,1.3192323446273804,-1.0714585781097412,0.08857546,-1.981036,197.43529,-49.39460800000001,-3.1916804,JOG
7979007475712.0,1.3774313926696777,-2.0009665489196777,8.765363693237305,1.2996633052825928,-1.1302123069763184,0.0015271631,-1.9025398,197.94301,-48.858753,-2.8326304,JOG
7979013242880.0,1.3824313879013062,-1.882761836051941,9.023513793945312,1.2979050874710083,-1.1876091957092285,-0.20219639,-1.7186694,198.2737,-48.305443,-2.7632246,JOG
7979018485760.0,1.387431263923645,-1.784461259841919,9.28397274017334,1.3136616945266724,-1.243293046951294,-0.36193767,-1.4776831,198.43112,-47.700584,-2.9237542000000003,JOG
7979023728640.0,1.3924310207366943,-1.7068239450454712,9.545130729675293,1.3457695245742798,-1.2969512939453125,-0.43401974,-1.3008375,198.59062,-47.138275,-3.0326967,JOG
7979028971520.0,1.3974305391311646,-1.6503868103027344,9.805449485778809,1.393046259880066,-1.3482789993286133,-0.47128254,-1.255328,198.75525,-46.62512,-3.092903,JOG
7979034214400.0,1.4024299383163452,-1.6130170822143555,10.06082820892334,1.4530268907546997,-1.3970295190811157,-0.43218717,-1.2357804,198.78151,-46.09942,-3.292128,JOG
7979039457280.0,1.4074289798736572,-1.5923149585723877,10.307221412658691,1.5232508182525635,-1.4428902864456177,-0.25778514,-1.1475104,198.76682,-45.62977,-3.4798481,JOG
7979044700160.0,1.4124279022216797,-1.5857383012771606,10.540263175964355,1.6022233963012695,-1.485490322113037,-0.03573562,-1.1304061,198.67223,-45.20472,-3.891456,JOG
7979049943040.0,1.417426586151123,-1.590954065322876,10.756099700927734,1.6886540651321411,-1.5244371891021729,0.07147124,-1.1716396,198.56697,-44.83219,-4.290388,JOG
7979055185920.0,1.4224252700805664,-1.6059373617172241,10.952872276306152,1.7808939218521118,-1.5594830513000488,0.1432479,-1.1994339,198.45717,-44.438374,-4.711596,JOG
7979060428800.0,1.4274238348007202,-1.6288725137710571,11.129234313964844,1.8773932456970215,-1.5904101133346558,0.28221974,-1.2394456,198.32697,-44.107113,-5.1641226,JOG
7979065671680.0,1.432422399520874,-1.659089207649231,11.284642219543457,1.9778939485549927,-1.6169427633285522,0.26542094,-1.2831224,198.26968,-43.712017,-5.5587797,JOG
7979070914560.0,1.4374210834503174,-1.6963651180267334,11.418943405151367,2.0826168060302734,-1.6386842727661133,0.09865474,-1.385137,198.23653,-43.38573,-5.958385,JOG
7979076157440.0,1.4424209594726562,-1.7395883798599243,11.532793998718262,2.19093918800354,-1.6553092002868652,-0.08582657,-1.5427402,198.26834,-43.055153,-6.3330398,JOG
7979081400320.0,1.447420597076416,-1.7876355648040771,11.627165794372559,2.3021321296691895,-1.6665351390838623,-0.17989981,-1.6172657,198.31996,-42.8043,-6.6852837,JOG
7979086643200.0,1.4524201154708862,-1.8388559818267822,11.702714920043945,2.4152724742889404,-1.6725112199783325,-0.33292156,-1.7061466,198.4603,-42.52203,-7.06955,JOG
7979091886080.0,1.457419514656067,-1.891574740409851,11.760032653808594,2.5294456481933594,-1.6729897260665894,-0.5580254,-1.7712038,198.64622,-42.35254000000001,-7.4173884,JOG
7979097128960.0,1.462418794631958,-1.944092035293579,11.79979419708252,2.643458604812622,-1.6679123640060425,-0.8371908000000001,-1.7910568999999998,198.90211,-42.17037,-7.6929145,JOG
7979102371840.0,1.4674179553985596,-1.9947750568389893,11.82269287109375,2.7560527324676514,-1.6574214696884155,-1.1548406999999998,-1.7635679,199.21446,-42.045967,-7.906423599999999,JOG
7979107614720.0,1.472419023513794,-2.0418407917022705,11.829070091247559,2.865382194519043,-1.6418673992156982,-1.4883732,-1.6771306,199.60733,-41.919945,-7.950101400000001,JOG
7979112857600.0,1.4774197340011597,-2.0840847492218018,11.819512367248535,2.9699134826660156,-1.6217119693756104,-1.7672331,-1.5326608,200.03154,-41.83026,-7.915562599999999,JOG
7979118100480.0,1.4824204444885254,-2.1200122833251953,11.793757438659668,3.067490816116333,-1.5974690914154053,-1.9566014,-1.3552046,200.5023,-41.735867,-7.686466999999999,JOG
7979123343360.0,1.487420916557312,-2.148245334625244,11.751174926757812,3.1558749675750732,-1.569667100906372,-2.0744984,-1.20371,200.98349,-41.654022,-7.3883443,JOG
7979128586240.0,1.4924211502075195,-2.1676480770111084,11.691080093383789,3.2300541400909424,-1.5388809442520142,-2.05098,-1.0476339,201.47977,-41.614677,-6.99661,JOG
7979133829120.0,1.4974212646484375,-2.1773321628570557,11.612730979919434,3.2820472717285156,-1.5055665969848633,-1.8897116000000005,-0.90133166,201.93776,-41.585335,-6.5817266000000005,JOG
7979139072000.0,1.5024211406707764,-2.176804542541504,11.51557445526123,3.3082404136657715,-1.4699360132217407,-1.5128077,-0.7504479000000001,202.37546,-41.624702,-6.1552887,JOG
7979144314880.0,1.5074208974838257,-2.166074752807617,11.39918327331543,3.3111963272094727,-1.4320333003997803,-0.88025683,-0.6059783000000001,202.70059,-41.67806,-5.7894764,JOG
7979149557760.0,1.5124202966690063,-2.144958734512329,11.262304306030273,3.290484666824341,-1.3917176723480225,-0.06994407,-0.47616947,202.95134,-42.136864,-5.6492443,JOG
7979154800640.0,1.517419695854187,-2.1127002239227295,11.101374626159668,3.2386553287506104,-1.348683476448059,0.7715228,-0.33933565,203.04025,-42.656776,-5.618112,JOG
7979160043520.0,1.522418737411499,-2.068833112716675,10.914731979370117,3.1530497074127197,-1.3025246858596802,1.5238034,-0.15699236,202.98363,-43.162907,-5.653666,JOG
7979165286400.0,1.527417778968811,-2.0131757259368896,10.70341968536377,3.038547992706299,-1.2529194355010986,2.1508565,0.023518313,202.75151,-43.74334,-5.808075,JOG
7979170529280.0,1.532416820526123,-1.945982575416565,10.46907901763916,2.900597095489502,-1.1998273134231567,2.5347853,0.1881465,202.37239,-44.522987,-5.989075,JOG
7979175772160.0,1.537415862083435,-1.868130087852478,10.214265823364258,2.7457447052001953,-1.1436681747436523,2.6340508,0.3268129,201.8756,-45.3544,-6.2080894,JOG
7979181015040.0,1.5424169301986694,-1.7808641195297241,9.9420747756958,2.5803565979003906,-1.0852128267288208,2.5341744,0.40683624,201.33961,-46.111477,-6.357999,JOG
7979186257920.0,1.5474177598953247,-1.6859254837036133,9.656200408935547,2.40901780128479,-1.02519690990448,2.4559836,0.42119157,200.7473,-46.890106,-6.514049,JOG
7979191500800.0,1.5524182319641113,-1.585057020187378,9.360289573669434,2.236248731613159,-0.9641166925430298,2.2797492000000004,0.41813725,200.2026,-47.507824,-6.5649223,JOG
7979196743680.0,1.5574183464050293,-1.480305790901184,9.058331489562988,2.0654869079589844,-0.9024409055709839,2.146275,0.398895,199.65535,-48.09928,-6.6044474000000015,JOG
7979201986560.0,1.5624184608459473,-1.3735597133636475,8.753942489624023,1.8998993635177612,-0.8405079245567322,2.1255057,0.36071593,199.12784,-48.58071500000001,-6.641638,JOG
7979207229440.0,1.5674182176589966,-1.2666655778884888,8.449946403503418,1.742533564567566,-0.7786774039268494,2.2424862,0.33444872,198.59357,-49.042633,-6.674086,JOG
7979212472320.0,1.5724177360534668,-1.161217212677002,8.148824691772461,1.5961194038391113,-0.7173085808753967,2.4291058,0.33414328,198.04147,-49.443302,-6.7571573,JOG
7979217715200.0,1.5774171352386475,-1.0580042600631714,7.85220193862915,1.4628703594207764,-0.6568688154220581,2.5995371,0.33353242,197.46667,-49.81489600000001,-6.8574347000000015,JOG
7979222433792.0,1.5824164152145386,-0.957673192024231,7.561548233032227,1.3446555137634277,-0.5978583693504333,2.7241535,0.3268129,196.85039,-50.067406,-7.0270147,JOG
7979227676672.0,1.587415337562561,-0.8601173758506775,7.278524398803711,1.2421684265136719,-0.5408275127410889,2.7983737,0.3295618,196.2026,-50.27556,-7.210667,JOG
7979232919552.0,1.5924146175384521,-0.7652570009231567,7.004679203033447,1.155968427658081,-0.4862723648548126,2.8319712000000004,0.32711834,195.48396,-50.22164,-7.3307,JOG
7979237638144.0,1.5974136590957642,-0.673366129398346,6.741222381591797,1.0848206281661987,-0.4345906972885132,2.795014,0.32192600000000005,194.76442,-50.114475,-7.4490747000000015,JOG
7979242356736.0,1.602412462234497,-0.5846883058547974,6.489239692687988,1.0275804996490479,-0.3860831558704376,2.7394252,0.28985557,193.94858,-49.71406,-7.3828607,JOG
7979247599616.0,1.6074110269546509,-0.4989335536956787,6.249647617340088,0.9841353297233582,-0.3411029279232025,2.6627617000000003,0.26236662,193.14763,-49.24934,-7.312464,JOG
7979252842496.0,1.6124098300933838,-0.41570809483528137,6.023248195648193,0.9545733332633972,-0.3000216782093048,2.5011878,0.24770586,192.38368,-48.72748,-7.2268485999999985,JOG
7979257561088.0,1.617408275604248,-0.33389368653297424,5.81031608581543,0.9398936629295349,-0.2630685865879059,2.2204952,0.26633725,191.72925,-48.341656,-7.223814,JOG
7979262803968.0,1.622407078742981,-0.2523858845233917,5.611135482788086,0.9405521750450134,-0.23038354516029358,1.9263636,0.33078352,191.12679,-47.92626,-7.1697216,JOG
7979267522560.0,1.6274056434631348,-0.17006045579910278,5.425897121429443,0.9502572417259216,-0.20221775770187378,1.7883080000000002,0.3921755,190.55025,-47.445705,-7.091704400000001,JOG
7979272765440.0,1.6324048042297363,-0.08568514138460159,5.2550787925720215,0.9632824063301086,-0.1782187968492508,1.8851302,0.44532076,190.00168,-46.910038,-6.8927665,JOG
7979277484032.0,1.6374038457870483,0.003014575457200408,5.102030277252197,0.979356586933136,-0.15682628750801086,1.9501873,0.6026186,189.45859,-46.445812,-6.634546,JOG
7979282726912.0,1.6424036026000977,0.0983336940407753,4.9701337814331055,0.9982391595840454,-0.13590048253536224,1.8460348,0.93615097,188.83977,-46.337196,-6.2273097,JOG
7979287969792.0,1.647403597831726,0.1989351063966751,4.8651604652404785,1.0194272994995117,-0.11340951174497604,1.6762142,1.1859949,188.20724,-46.354797,-5.809835,JOG
7979292688384.0,1.6524032354354858,0.3023754954338074,4.793337821960449,1.0423603057861328,-0.08851524442434311,1.1902708999999998,1.8203784,187.51988,-46.48345,-5.1657166,JOG
7979297406976.0,1.657402753829956,0.405133455991745,4.75692081451416,1.0548219680786133,-0.05967788025736809,1.4935656000000002,2.550057,186.61234,-47.095627,-4.280263400000001,JOG
7979302649856.0,1.6624020338058472,0.5037160515785217,4.756608009338379,1.0424598455429077,-0.026867913082242012,2.849381,3.5100317000000003,185.42334,-47.657803,-3.3445926,JOG
7979307368448.0,1.6674011945724487,0.5913127064704895,4.7913360595703125,1.0082961320877075,0.009062346071004868,3.1600057999999995,4.100433,184.27412,-48.63808,-2.2942462000000003,JOG
7979312611328.0,1.6724002361297607,0.6607280969619751,4.8595075607299805,0.9602336883544922,0.046758946031332016,2.1450534,3.6166277,183.16399,-49.5413,-1.3126167,JOG
7979317329920.0,1.6773991584777832,0.7083267569541931,4.957515239715576,0.904190182685852,0.08526363223791122,0.95722586,2.8225029,181.98027,-51.526646,-0.67111367,JOG
7979322572800.0,1.6823980808258057,0.7318370938301086,5.081347465515137,0.8450873494148254,0.12425828725099564,0.29229903,2.6187794,180.93713,-53.372414,0.09333886,JOG
7979327815680.0,1.6873970031738281,0.7315046787261963,5.223933219909668,0.7870436310768127,0.1634347289800644,0.023823744,2.8151724,180.08055,-54.83091,0.4205031,JOG
7979332534272.0,1.6923960447311401,0.7085580229759216,5.377493858337402,0.7335930466651917,0.20220568776130676,-0.14569137,3.1019738,179.41544,-56.17121,0.8337745000000001,JOG
7979337777152.0,1.6973952054977417,0.6622205972671509,5.535416603088379,0.6857065558433533,0.23983342945575714,-0.40500367,3.2033772000000003,178.80714,-57.172474,1.0425731,JOG
7979342495744.0,1.7023944854736328,0.5899539589881897,5.692142486572266,0.6420959830284119,0.27586644887924194,-0.56107974,2.944065,178.25262,-58.099743,1.2579136999999998,JOG
7979347738624.0,1.707393765449524,0.4909566044807434,5.8470940589904785,0.5999851226806641,0.3105829954147339,-0.4175264,2.3976462000000005,177.70401,-58.634438,1.3198341999999998,JOG
7979352457216.0,1.712393045425415,0.36518293619155884,6.001584529876709,0.5562250018119812,0.34482520818710327,-0.035124752999999995,1.8545868000000003,177.18091,-59.16729,1.3137802,JOG
7979357700096.0,1.7173922061920166,0.21590612828731537,6.156403541564941,0.5101991891860962,0.37953653931617737,0.2648101,1.5488489,176.67577,-59.76431,0.94282424,JOG
7979362418688.0,1.7223913669586182,0.04806127771735191,6.312043190002441,0.46266207098960876,0.41556644439697266,0.5155702999999999,1.4077389,176.15562,-60.43139,0.45279196,JOG
7979367661568.0,1.7273904085159302,-0.13398477435112,6.468719959259033,0.4145415127277374,0.45369595289230347,0.7870999,1.2324207,175.62714,-61.396248,-0.30431727,JOG
7979372904448.0,1.7323896884918213,-0.32639169692993164,6.626150608062744,0.36730656027793884,0.49442562460899353,1.0961976999999998,1.0943651,175.05203,-62.40723000000001,-1.0876195,JOG
7979377623040.0,1.7373892068862915,-0.5263867974281311,6.784853458404541,0.323333740234375,0.5379746556282043,1.3237450000000002,1.056186,174.45769,-63.457382,-1.7432593,JOG
7979382865920.0,1.7423888444900513,-0.7350293397903442,6.949461936950684,0.2905600965023041,0.5842105746269226,1.310306,1.0815369,173.8618,-64.52353000000001,-2.3945892000000004,JOG
7979387584512.0,1.7473883628845215,-0.9528418779373169,7.12376594543457,0.2747710347175598,0.6326954960823059,1.0598511999999998,1.1377366000000002,173.27025,-65.5086,-2.9167817000000005,JOG
7979392827392.0,1.7523880004882812,-1.1772749423980713,7.30854606628418,0.271458238363266,0.6827253103256226,0.52564955,1.1517864,172.76273999999995,-66.46081,-3.3857388,JOG
7979397545984.0,1.7573875188827515,-1.4056870937347412,7.5043463706970215,0.276610791683197,0.7334563136100769,-0.12461651,1.0482447,172.21928,-66.87845,-3.9098768,JOG
7979402788864.0,1.7623870372772217,-1.631311058998108,7.710600852966309,0.28677627444267273,0.7845849990844727,-0.6420194,0.9896017,171.78026,-67.29903,-4.333622,JOG
7979408031744.0,1.7673873901367188,-1.8479663133621216,7.926521301269531,0.2989773452281952,0.8364505171775818,-1.0332786,1.0250319,171.52148,-67.90810400000001,-4.5934224000000015,JOG
7979412750336.0,1.7723877429962158,-2.052443742752075,8.148171424865723,0.31343352794647217,0.8896055221557617,-1.5033393999999998,1.1285735,171.4229,-68.51817,-4.7645800000000005,JOG
7979417468928.0,1.7773878574371338,-2.2417550086975098,8.371910095214844,0.33035457134246826,0.9443829655647278,-1.9242256,1.235475,171.44182,-69.28613,-4.6030746,JOG
7979422711808.0,1.7823880910873413,-2.4131689071655273,8.594404220581055,0.34993404150009155,1.0003920793533325,-2.1038198,1.3338243,171.51425,-70.05096400000001,-4.396564499999998,JOG
7979427430400.0,1.7873882055282593,-2.5643889904022217,8.812737464904785,0.37232470512390137,1.056578278541565,-1.9709567,1.4242324,171.6088,-70.79500999999998,-4.1573343000000005,JOG
7979432673280.0,1.7923882007598877,-2.6964900493621826,9.024726867675781,0.397887647151947,1.111361026763916,-1.4373659,1.42973,171.63033,-71.43500999999998,-3.9374025,JOG
7979437391872.0,1.7973881959915161,-2.810974359512329,9.228489875793457,0.4269776940345764,1.1627784967422485,-0.5448918,1.282817,171.52351000000004,-71.926674,-3.7818866,JOG
7979442634752.0,1.8023881912231445,-2.906794548034668,9.425143241882324,0.4597262442111969,1.2087445259094238,0.41630468,1.0790935,171.19243,-72.07866,-3.4052935,JOG
7979447353344.0,1.8073878288269043,-2.982523202896118,9.61634349822998,0.4961942434310913,1.247518539428711,1.0656544,0.95142263,170.70909,-72.03644,-3.1079683,JOG
7979452596224.0,1.8123873472213745,-3.0372724533081055,9.801922798156738,0.53678297996521,1.2780832052230835,1.2449434,0.9550878,170.12198,-71.824135,-2.882386,JOG
7979457839104.0,1.8173868656158447,-3.070404529571533,9.981410026550293,0.5819027423858643,1.300001859664917,1.1096367,1.0299188,169.44795,-71.44041,-2.7094867,JOG
7979462557696.0,1.822386384010315,-3.0832011699676514,10.152667999267578,0.6313872337341309,1.313279151916504,0.8781188,1.1383473999999998,168.82281,-71.05011999999998,-2.408378,JOG
7979467800576.0,1.8273859024047852,-3.077749252319336,10.312945365905762,0.6848194599151611,1.3182690143585205,0.6743952,1.2302825000000002,168.22427,-70.57636,-2.092548,JOG
7979473043456.0,1.8323876857757568,-3.057504653930664,10.458209037780762,0.7413254380226135,1.3156009912490845,0.50335294,1.2550226,167.7223,-70.08018,-1.6365099,JOG
7979477762048.0,1.8373892307281494,-3.025604009628296,10.585935592651367,0.8000534176826477,1.306073784828186,0.43890667,1.2253957,167.24768,-69.55223000000001,-1.1741037,JOG
7979483004928.0,1.8423917293548584,-2.9854934215545654,10.692665100097656,0.8599720001220703,1.2904952764511108,0.33414328,1.1505647,166.8391,-68.981094,-0.70977545,JOG
7979487723520.0,1.8473938703536987,-2.9399993419647217,10.776095390319824,0.9201836585998535,1.269498586654663,0.32620203,1.1166617,166.42352,-68.39581,-0.25587213,JOG
7979492442112.0,1.85239577293396,-2.89180326461792,10.833662986755371,0.9795807600021362,1.243666410446167,0.30879238,1.0320568,166.03645,-67.7718,0.082758434,JOG
7979497684992.0,1.8573973178863525,-2.843271493911743,10.863058090209961,1.0370057821273804,1.2134150266647339,0.29504790000000003,0.92179567,165.65753,-67.13189,0.39915177,JOG
7979502403584.0,1.862398624420166,-2.7962896823883057,10.862787246704102,1.0914709568023682,1.1790763139724731,0.30879238,0.799928,165.25877,-66.42771,0.5885236999999999,JOG
7979507646464.0,1.867400050163269,-2.752483367919922,10.831698417663574,1.1420841217041016,1.1409931182861328,0.33261612,0.63194007,164.87877,-65.713394,0.7311026999999999,JOG
7979512365056.0,1.872401237487793,-2.713254690170288,10.769668579101562,1.1882805824279785,1.0995866060256958,0.36468655,0.45448375,164.3238,-64.71583000000001,0.73383594,JOG
7979517607936.0,1.8774020671844482,-2.679936408996582,10.67705249786377,1.2296768426895142,1.0554189682006836,0.37140608,0.22907446,163.80156000000005,-63.725033,0.6717388000000001,JOG
7979522850816.0,1.8824042081832886,-2.6540615558624268,10.553799629211426,1.265847086906433,1.0090781450271606,0.34330627,-0.020463986,163.58951000000005,-63.144344,0.4948768,JOG
7979527569408.0,1.8874061107635498,-2.638012170791626,10.399725914001465,1.296463966369629,0.9611649513244629,0.3277292,-0.30940324,163.40712,-62.577164,0.24220820000000004,JOG
7979532812288.0,1.8924076557159424,-2.634237766265869,10.214634895324707,1.3213516473770142,0.9123889207839966,0.3484986,-0.6563747,163.2513,-62.006336,-0.20997843,JOG
7979537530880.0,1.8974088430404663,-2.6448802947998047,9.999879837036133,1.3412742614746094,0.8634126782417297,0.35979962,-1.0592403,163.15155,-61.4486,-0.75424844,JOG
7979542773760.0,1.9024115800857544,-2.671250104904175,9.757674217224121,1.3571946620941162,0.8146789073944092,0.34666604,-1.4581354,163.06781,-60.822754,-1.5688098999999998,JOG
7979547492352.0,1.9074138402938843,-2.711271047592163,9.493562698364258,1.3704875707626343,0.7663390636444092,0.3277292,-1.7421877,163.03264,-60.18394,-2.4669986,JOG
7979552735232.0,1.912415862083435,-2.7627551555633545,9.212963104248047,1.382585048675537,0.7182579040527344,0.30695978,-1.8380935,163.00701999999995,-59.40889,-3.6283,JOG
7979557453824.0,1.9174175262451172,-2.8209004402160645,8.921823501586914,1.3952970504760742,0.670129656791687,0.21838433,-1.8280143,163.04831,-58.572613,-4.83063,JOG
7979562696704.0,1.922419786453247,-2.881218194961548,8.625740051269531,1.4103505611419678,0.6217306852340698,0.04337143,-1.8270979,163.15344,-57.688198,-6.013129,JOG
7979567415296.0,1.9274216890335083,-2.941760301589966,8.329028129577637,1.4287196397781372,0.5729870796203613,-0.22021692,-1.8781052,163.3282,-56.735035,-7.184705,JOG
7979572658176.0,1.9324233531951904,-3.000633478164673,8.035839080810547,1.4513869285583496,0.5238605737686157,-0.5299255999999999,-1.917506,163.6189,-55.78626,-8.078911999999999,JOG
7979577901056.0,1.937424898147583,-3.055845260620117,7.750190258026123,1.4783798456192017,0.4742640554904938,-0.6966918000000001,-1.8915442,163.95123,-54.78843000000001,-8.951414999999997,JOG
7979582619648.0,1.9424258470535278,-3.10563588142395,7.475587368011475,1.5095219612121582,0.42407315969467163,-1.0913107,-1.8750509,164.43468,-53.742947,-9.748061,JOG
7979587862528.0,1.9474265575408936,-3.147745370864868,7.2152099609375,1.544400930404663,0.37324222922325134,-1.5198327,-1.7876971999999998,164.96907,-52.73060600000001,-10.323069,JOG
7979592581120.0,1.952426791191101,-3.180182933807373,6.971772193908691,1.582610845565796,0.3213670253753662,-2.000889,-1.6646078000000002,165.60783,-51.651546,-10.800899,JOG
7979597824000.0,1.9574267864227295,-3.202087879180908,6.748464107513428,1.6240113973617554,0.26788952946662903,-2.5097399,-1.5158621,166.29422,-50.606285,-10.964611,JOG
7979602542592.0,1.9624265432357788,-3.212825298309326,6.548080921173096,1.6684819459915161,0.21219271421432495,-3.0509665,-1.3487904,167.07093999999995,-49.509483,-10.988002,JOG
7979607785472.0,1.967426061630249,-3.2174196243286133,6.379344463348389,1.718689203262329,0.15371601283550262,-3.6282341,-1.1771374,167.80441000000005,-48.326443,-10.518355,JOG
7979613028352.0,1.9724262952804565,-3.2214677333831787,6.251455783843994,1.7775943279266357,0.0919623076915741,-4.309349,-1.0219775,168.63794,-47.084038,-9.87382,JOG
7979617746944.0,1.9774261713027954,-3.226991653442383,6.1648712158203125,1.8349037170410156,0.026454566046595573,-4.9290714000000015,-0.85062987,169.59848,-46.08765800000001,-8.993031,JOG
7979622465536.0,1.9824261665344238,-3.235293388366699,6.118505954742432,1.877291202545166,-0.04271313548088074,-4.975192,-0.6123924,170.51921000000004,-45.07649,-8.035313,JOG
7979627708416.0,1.9874259233474731,-3.245115041732788,6.110271453857422,1.8974180221557617,-0.11411886662244797,-4.1749587,-0.3811799,171.14948,-44.390877,-7.284524,JOG
7979632427008.0,1.9924253225326538,-3.2543938159942627,6.137821197509766,1.8904342651367188,-0.18530906736850739,-2.908635,-0.27977628,171.6661,-43.795017,-6.618385000000001,JOG
7979637669888.0,1.997424602508545,-3.2598414421081543,6.196611404418945,1.8600834608078003,-0.25420501828193665,-1.8762726000000003,-0.35827246,171.95717,-43.997528,-6.296153,JOG
7979642388480.0,2.0024237632751465,-3.2583727836608887,6.282102584838867,1.8111323118209839,-0.3203754127025604,-1.3536774,-0.63194007,172.14168,-44.217102,-6.1467633,JOG
7979647631360.0,2.007422685623169,-3.2471978664398193,6.390135765075684,1.7479348182678223,-0.3849898874759674,-1.2690725,-1.0253373,172.29166,-44.765736,-6.1011305,JOG
7979652349952.0,2.0124216079711914,-3.223875045776367,6.516930103302002,1.6744132041931152,-0.4495721757411957,-1.1200215,-1.4165965,172.39824,-45.247032,-6.224670400000001,JOG
7979657592832.0,2.0174202919006348,-3.184762477874756,6.660297393798828,1.5939085483551025,-0.5149692893028259,-0.80481493,-1.7079792,172.52557,-45.613747,-6.451551,JOG
7979662835712.0,2.022418975830078,-3.126267194747925,6.818573951721191,1.5093637704849243,-0.581255316734314,-0.4071417,-1.8677205,172.66528,-45.841236,-6.770275999999999,JOG
7979667554304.0,2.0274176597595215,-3.0460166931152344,6.9911274909973145,1.4245706796646118,-0.6481090188026428,0.0067195175,-1.9193386,172.91425,-45.71492,-6.645409,JOG
7979672797184.0,2.032416582107544,-2.942026376724243,7.1776323318481445,1.343328833580017,-0.7152521014213562,0.33108896,-1.8976529,173.12022,-45.536777,-6.605214599999999,JOG
7979677515776.0,2.0374157428741455,-2.8147096633911133,7.377073764801025,1.2686505317687988,-0.7825419306755066,0.42577308,-1.8365663,173.38501000000005,-45.240734,-6.193743,JOG
7979682758656.0,2.0424180030822754,-2.664865255355835,7.588440895080566,1.2038302421569824,-0.84979647397995,0.5522222,-1.7427986,173.57144,-44.93985,-5.862417,JOG
7979687477248.0,2.047420024871826,-2.496284246444702,7.810344219207764,1.1500259637832642,-0.9166670441627502,0.5549710999999999,-1.6792686,173.91988999999995,-44.638226,-5.255521,JOG
7979692720128.0,2.0524215698242188,-2.3152830600738525,8.041521072387695,1.108461856842041,-0.9828075170516968,0.5329799,-1.5540411,174.21773000000005,-44.32029,-4.6777067,JOG
7979697438720.0,2.0574228763580322,-2.1303093433380127,8.280655860900879,1.0809210538864136,-1.0474854707717896,0.5681046999999999,-1.5173893,174.60263,-44.006092,-4.046151,JOG
7979702681600.0,2.0624237060546875,-1.9509685039520264,8.526432991027832,1.069496512413025,-1.1098822355270386,0.5992588000000001,-1.645671,174.99753,-43.708344,-3.4652479,JOG
7979707400192.0,2.0674242973327637,-1.7850027084350586,8.777624130249023,1.0755289793014526,-1.1691837310791016,0.46181414,-1.9654589,175.37915,-43.448196,-3.1470482000000004,JOG
7979712643072.0,2.0724246501922607,-1.6381806135177612,9.033072471618652,1.0995121002197266,-1.2248555421829224,0.2302962,-2.2602015,175.79276000000004,-43.239414,-2.8618279,JOG
7979717361664.0,2.0774247646331787,-1.5132403373718262,9.2916898727417,1.1404050588607788,-1.2767691612243652,0.044593163,-2.3738225,176.03131000000005,-42.99532,-3.1363275,JOG
7979722604544.0,2.0824248790740967,-1.410955548286438,9.55246639251709,1.1961917877197266,-1.3250534534454346,0.008246681,-2.3051,176.30917,-42.790043,-3.409557,JOG
7979727847424.0,2.0874249935150146,-1.3317267894744873,9.81226634979248,1.2648156881332397,-1.369777798652649,0.112704635,-2.107485,176.42946,-42.54209,-3.9733455,JOG
7979732566016.0,2.0924248695373535,-1.2757554054260254,10.065884590148926,1.3441649675369263,-1.410911202430725,0.2733622000000001,-1.9477439,176.5429,-42.30789,-4.512548000000002,JOG
7979737808896.0,2.0974245071411133,-1.2420814037322998,10.307860374450684,1.4323779344558716,-1.448230504989624,0.5198463,-1.7996091,176.49092,-42.05993,-5.1518345000000005,JOG
7979742527488.0,2.102423906326294,-1.2288209199905396,10.532625198364258,1.5278172492980957,-1.4813566207885742,0.8573494,-1.5818355,176.34557,-41.85788,-5.7754426,JOG
7979747770368.0,2.1074233055114746,-1.234444260597229,10.73568344116211,1.629441738128662,-1.509742259979248,1.1414018,-1.3884968,176.12918,-41.648994,-6.563312,JOG
7979752488960.0,2.112422466278076,-1.2577528953552246,10.913501739501953,1.7367631196975708,-1.532921552658081,1.3038919,-1.31672,175.85498,-41.501556,-7.3516207,JOG
7979757731840.0,2.1174216270446777,-1.297908902168274,11.064542770385742,1.8495700359344482,-1.5507546663284302,1.3561208,-1.3011429,175.57484,-41.279854,-8.192188999999999,JOG
7979762450432.0,2.1224207878112793,-1.3544524908065796,11.189336776733398,1.967944860458374,-1.5634541511535645,1.3066407,-1.3771957,175.29124,-41.105114,-9.027779,JOG
7979767693312.0,2.127419948577881,-1.4256583452224731,11.289440155029297,2.091367721557617,-1.571441888809204,1.0995574,-1.4819591,175.08372,-40.82362,-9.906553,JOG
7979772936192.0,2.1324191093444824,-1.5085698366165161,11.36734390258789,2.2187631130218506,-1.575124979019165,0.7556403,-1.5974126,174.93938,-40.555317,-10.742412,JOG
7979777654784.0,2.137418270111084,-1.600159764289856,11.425049781799316,2.348613739013672,-1.5747522115707397,0.5696318,-1.643533,174.82846,-40.228134,-11.641007,JOG
7979782373376.0,2.1424174308776855,-1.6965303421020508,11.463600158691406,2.4779813289642334,-1.570578932762146,0.19211712,-1.7125608,174.86313,-39.886406,-12.430428,JOG
7979787616256.0,2.147416353225708,-1.7943536043167114,11.483445167541504,2.6040053367614746,-1.5625557899475098,-0.17898351,-1.7259997,174.95498999999995,-39.58765,-13.08009,JOG
7979792859136.0,2.1524152755737305,-1.8908289670944214,11.484110832214355,2.7236621379852295,-1.5505316257476807,-0.5158757,-1.715615,175.1291,-39.30851,-13.648239000000002,JOG
7979798102016.0,2.1574158668518066,-1.9830013513565063,11.464925765991211,2.833651065826416,-1.5343345403671265,-0.8332202,-1.6887369,175.39056000000005,-39.095554,-14.009085999999998,JOG
7979802820608.0,2.1624159812927246,-2.06864857673645,11.425870895385742,2.931537389755249,-1.5137859582901,-1.1001683,-1.5989398,175.69069,-38.946026,-14.285472,JOG
7979807539200.0,2.1674158573150635,-2.1453449726104736,11.366730690002441,3.014702558517456,-1.4887710809707642,-1.2840388,-1.4349225,176.03699,-38.878822,-14.41799,JOG
7979812782080.0,2.1724154949188232,-2.2104923725128174,11.287373542785645,3.0805821418762207,-1.459234356880188,-1.391551,-1.2226468,176.38675,-38.88221400000001,-14.479804,JOG
7979817500672.0,2.177415132522583,-2.261868953704834,11.187881469726562,3.127209186553955,-1.4251798391342163,-1.3933836000000002,-0.9914343,176.73949,-38.984776,-14.408176999999998,JOG
7979822743552.0,2.1824147701263428,-2.2974853515625,11.068559646606445,3.153273344039917,-1.3867851495742798,-1.2971723,-0.7620544,177.04433,-39.145912,-14.294299,JOG
7979827462144.0,2.1874146461486816,-2.315938711166382,10.92965316772461,3.1579644680023193,-1.3442972898483276,-1.0537425,-0.5390885999999999,177.35652,-39.498688,-14.141194,JOG
7979832705024.0,2.1924145221710205,-2.3164470195770264,10.771064758300781,3.1409897804260254,-1.2980767488479614,-0.68569624,-0.37568212,177.58700000000005,-39.89288300000001,-14.003955,JOG
7979837423616.0,2.1974141597747803,-2.2984869480133057,10.592458724975586,3.1023359298706055,-1.2485692501068115,-0.25228736,-0.2415972,177.76962,-40.410603,-13.8055935,JOG
7979842666496.0,2.20241379737854,-2.2619216442108154,10.392354965209961,3.0425469875335693,-1.1962772607803345,0.14935656,-0.12156218,177.85175,-40.95542,-13.647946,JOG
7979847385088.0,2.2074131965637207,-2.2066211700439453,10.169489860534668,2.962252140045166,-1.141671895980835,0.48380527,0.011301007,177.85922,-41.53109,-13.439956,JOG
7979852627968.0,2.2124125957489014,-2.13222074508667,9.922852516174316,2.8625354766845703,-1.0852073431015015,0.7458665,0.18509217,177.76248,-42.123333,-13.26477,JOG
7979857870848.0,2.217412233352661,-2.038551092147827,9.651643753051758,2.7444677352905273,-1.0274614095687866,0.9786061,0.38026363,177.61186,-42.63648,-13.046758,JOG
7979862589440.0,2.222411632537842,-1.9280245304107666,9.357759475708008,2.610238790512085,-0.9691709280014038,1.1288790000000002,0.52748215,177.39273,-43.141026,-12.835531,JOG
7979867832320.0,2.2274138927459717,-1.803100824356079,9.043044090270996,2.46187686920166,-0.9112163782119751,1.2189816,0.6038403,177.15271,-43.534252,-12.529249,JOG
7979872550912.0,2.2324159145355225,-1.6677356958389282,8.713129043579102,2.3015096187591553,-0.8543780446052551,1.2654073,0.6404922,176.86178999999996,-43.900284,-12.219388,JOG
7979877269504.0,2.237417459487915,-1.525864601135254,8.37354564666748,2.1311192512512207,-0.7991812825202942,1.349096,0.64599,176.53723,-44.169544,-11.943543,JOG
7979882512384.0,2.242419958114624,-1.3813817501068115,8.030289649963379,1.9558614492416382,-0.7457495927810669,1.4340062,0.61758476,176.1972,-44.411766,-11.67395,JOG
7979887755264.0,2.247421979904175,-1.2372843027114868,7.688118934631348,1.7802364826202393,-0.6942650079727173,1.4563028,0.5897904,175.84714,-44.60226,-11.404904,JOG
7979892473856.0,2.2524235248565674,-1.096221685409546,7.351733684539795,1.607677936553955,-0.6447099447250366,1.5231925,0.5158757,175.44765,-44.872574,-11.295045,JOG
7979897716736.0,2.2574245929718018,-0.9604145884513855,7.02524471282959,1.4408913850784302,-0.5969755053520203,1.6236799,0.4175264,175.04338,-45.129948,-11.203241,JOG
7979902435328.0,2.262425184249878,-0.8318946957588196,6.712408542633057,1.2823519706726074,-0.5509433150291443,1.8164078,0.3436117,174.60332,-45.352535,-11.235471,JOG
7979907678208.0,2.267425537109375,-0.7124262452125549,6.416489124298096,1.1342120170593262,-0.506530225276947,2.07572,0.28527406,174.1414,-45.57335,-11.313535,JOG
7979912396800.0,2.272425651550293,-0.6016890406608582,6.13901948928833,0.9983060359954834,-0.4637073874473572,2.331978,0.22937989,173.65079,-45.79277,-11.440475,JOG
7979917639680.0,2.277425527572632,-0.4989156126976013,5.880959987640381,0.8761894106864929,-0.42253294587135315,2.5729644,0.17409660000000002,173.11526,-46.005764,-11.623631,JOG
7979922358272.0,2.2824251651763916,-0.4030010402202606,5.642932891845703,0.7684693932533264,-0.38312283158302307,2.802039,0.13011430000000002,172.41312,-46.106747,-11.950768,JOG
7979927601152.0,2.2874245643615723,-0.3128458559513092,5.425384521484375,0.6754637360572815,-0.3457728922367096,2.9791899,0.10140363,171.67305,-46.175873,-12.319756,JOG
7979932844032.0,2.292423963546753,-0.22728553414344788,5.2288713455200195,0.5995540022850037,-0.31095147132873535,3.0543263,0.08063421400000001,170.88419,-46.11852,-12.637753,JOG
7979938086912.0,2.297424554824829,-0.14513230323791504,5.0540924072265625,0.5439110994338989,-0.27918216586112976,2.9449813,0.070249505,170.09792,-46.015427,-12.956057,JOG
7979942805504.0,2.302424907684326,-0.06537416577339172,4.902734756469727,0.514299213886261,-0.25088223814964294,2.4642303,0.052839845,169.40575,-45.910088,-13.155506,JOG
7979947524096.0,2.307425022125244,0.013042723760008812,4.777398586273193,0.5186071395874023,-0.22607138752937317,1.557401,0.018936822,168.83409,-45.77257,-13.255176,JOG
7979952766976.0,2.312424659729004,0.08968963474035263,4.682497978210449,0.5573248863220215,-0.20476345717906952,0.5696318,-0.028710667,168.44738999999996,-45.49526,-13.121784,JOG
7979957485568.0,2.3174242973327637,0.16362795233726501,4.622798919677734,0.6281781792640686,-0.18727146089076996,-0.20677789,-0.03756821,168.2116,-45.163136,-12.855812,JOG
7979962728448.0,2.3224236965179443,0.23303347826004028,4.599291801452637,0.7136381268501282,-0.17295511066913605,-0.5186246,0.03604105,168.1712,-44.647404,-12.27517,JOG
7979967447040.0,2.327423095703125,0.29596269130706787,4.611732482910156,0.792961061000824,-0.16031809151172638,-0.4529566,0.3472769,168.16228,-44.196846,-11.602916,JOG
7979972689920.0,2.3324227333068848,0.34606269001960754,4.658934593200684,0.8562121987342834,-0.14804406464099884,0.35277468,1.2281445,167.8739,-44.137356,-10.919135,JOG
7979977932800.0,2.3374223709106445,0.37499862909317017,4.738995552062988,0.9009632468223572,-0.13573813438415527,1.1432343,1.6707164,167.59999,-44.102093,-10.319155,JOG
7979982651392.0,2.342421770095825,0.37663733959198,4.846072196960449,0.9270556569099426,-0.123494952917099,0.8127562,2.0769417000000003,166.80821,-44.878963,-9.733845,JOG
7979987369984.0,2.347421169281006,0.34632444381713867,4.971807956695557,0.9358129501342773,-0.11153621971607208,0.16157386,1.7528778000000005,166.01096,-45.619762,-9.321952,JOG
7979992612864.0,2.3524203300476074,0.2836076021194458,5.107371807098389,0.9288691282272339,-0.10017607361078262,-0.15851954,1.325883,165.08151,-46.60027,-9.429572,JOG
7979997855744.0,2.357419729232788,0.19187481701374054,5.243640899658203,0.9081352353096008,-0.08965359628200531,-0.19639318,1.1472049,164.28351999999995,-47.50748,-9.466496,JOG
7980002574336.0,2.3624188899993896,0.0754510909318924,5.373635292053223,0.8752160668373108,-0.07958212494850159,-0.09193522,1.2764030000000002,163.58586,-48.255413,-9.934328,JOG
7980007817216.0,2.367418050765991,-0.060590893030166626,5.491975784301758,0.8314558267593384,-0.06902223080396652,0.099265605,1.5540411,162.9065,-49.001072,-10.384745,JOG
7980012535808.0,2.3724169731140137,-0.21149791777133942,5.596566200256348,0.7780227661132812,-0.056648414582014084,0.25900686,1.9062049,162.26641999999995,-49.609783,-10.86909,JOG
7980017778688.0,2.377415895462036,-0.372783362865448,5.688172817230225,0.7159242033958435,-0.040967296808958054,0.3036,2.1939225,161.58408,-50.34203,-11.300262,JOG
7980022497280.0,2.3824148178100586,-0.5403161644935608,5.768946170806885,0.6466358304023743,-0.020900510251522064,0.39003745,2.3365595,160.88838,-51.075706,-11.654628,JOG
7980027740160.0,2.387413740158081,-0.7103532552719116,5.842336177825928,0.5720745921134949,0.0039507984183728695,0.5662721,2.4251351000000003,160.13441,-51.9354,-11.967757,JOG
7980032458752.0,2.3924126625061035,-0.8797095417976379,5.9113287925720215,0.4941539168357849,0.033539287745952606,0.6582073,2.4966063,159.39209,-52.940567,-12.1142645,JOG
7980037701632.0,2.397411584854126,-1.0457655191421509,5.978478908538818,0.4150257110595703,0.0676286369562149,0.677755,2.5515842,158.63007,-54.015812,-12.250311,JOG
7980042420224.0,2.4024102687835693,-1.2067193984985352,6.046786308288574,0.3369729518890381,0.1059647724032402,0.7089091,2.6459627,157.84161,-55.196823,-12.184454,JOG
7980047663104.0,2.4074089527130127,-1.3617117404937744,6.119992256164551,0.2625720500946045,0.14824286103248596,0.74372846,2.8527408,157.0391,-56.41062,-12.071655,JOG
7980052381696.0,2.412407636642456,-1.5099283456802368,6.202198028564453,0.1953764706850052,0.19406311213970184,0.6765333,3.1166344,156.23781,-57.590977,-11.771606,JOG
7980057624576.0,2.4174063205718994,-1.6505498886108398,6.298232555389404,0.14039014279842377,0.24313436448574066,0.47250426,3.4306192,155.44359,-58.81149,-11.389167,JOG
7980062343168.0,2.4224047660827637,-1.7827949523925781,6.41105318069458,0.10209998488426208,0.2950545847415924,0.13622294,3.7754526,154.60291999999995,-59.79813000000001,-10.84523,JOG
7980067586048.0,2.427403211593628,-1.9057948589324951,6.541579246520996,0.08495143055915833,0.34892532229423523,-0.0421497,4.034154,153.75636,-60.74949300000001,-10.247925,JOG
7980072828928.0,2.432401657104492,-2.019580841064453,6.689938545227051,0.09012535214424133,0.4035436809062958,-0.3943135,4.096157,153.062,-61.606297,-9.420476,JOG
7980077547520.0,2.4374005794525146,-2.1255922317504883,6.855145454406738,0.11382962018251419,0.45828577876091003,-0.7076874,4.0924916,152.38826,-62.441612,-8.550391000000001,JOG
7980082790400.0,2.4424006938934326,-2.2254176139831543,7.036293029785156,0.15203173458576202,0.5126831531524658,-1.2238685,3.7528505,151.98532,-63.13204,-7.5683084,JOG
7980087508992.0,2.447401285171509,-2.323207139968872,7.23191499710083,0.19521227478981018,0.5682106018066406,-1.3448198,3.5833356,151.54398999999995,-63.941803,-6.583492999999999,JOG
7980092751872.0,2.452401638031006,-2.4227066040039062,7.439894199371338,0.2357134073972702,0.6255500316619873,-1.3958270000000002,3.223536,151.2653,-64.64936,-5.7441998,JOG
7980097470464.0,2.457401990890503,-2.526792049407959,7.654381275177002,0.2723235785961151,0.686121940612793,-1.4172074,2.8038714,151.04518000000004,-65.543655,-4.975992,JOG
7980102713344.0,2.46240234375,-2.6381447315216064,7.8700408935546875,0.3043816387653351,0.7504650950431824,-1.3991868,2.4098635,150.69202,-66.34872,-4.5480957,JOG
7980107431936.0,2.467402458190918,-2.7600996494293213,8.08140754699707,0.3341846764087677,0.8181165456771851,-1.1511755,1.9474384,150.34146,-67.18533000000001,-4.279808999999998,JOG
7980112674816.0,2.4724032878875732,-2.895408868789673,8.283746719360352,0.36396777629852295,0.8876023292541504,-0.5491679,1.4526376,150.0389,-68.14825400000001,-4.2642174000000015,JOG
7980117393408.0,2.4774038791656494,-3.0417816638946533,8.477148056030273,0.39644479751586914,0.9565552473068237,0.35399640000000004,1.0567969,149.62976,-68.97026,-4.3962054,JOG
7980122636288.0,2.482408046722412,-3.1968092918395996,8.66167163848877,0.43499282002449036,1.0220476388931274,1.2095132,0.86498517,149.18771,-69.57935,-4.812989,JOG
7980127879168.0,2.4874119758605957,-3.3544888496398926,8.838883399963379,0.4808381497859955,1.0813289880752563,1.6194037,0.77824235,148.65483,-69.93673000000001,-5.3359685,JOG
7980132597760.0,2.492415189743042,-3.5080995559692383,9.010541915893555,0.5356212258338928,1.1327753067016602,1.6811012,0.70402217,147.93857,-69.88316999999999,-5.931604,JOG
7980137840640.0,2.49741792678833,-3.650456666946411,9.177536010742188,0.5987968444824219,1.1758414506912231,1.6197093,0.605062,147.15462,-69.61895,-6.568812400000001,JOG
7980142559232.0,2.502419948577881,-3.775282382965088,9.340481758117676,0.6693923473358154,1.2106239795684814,1.4184291,0.57726765,146.39084,-69.20906,-7.185875,JOG
7980147802112.0,2.5074217319488525,-3.875947952270508,9.49914836883545,0.7448083758354187,1.2374634742736816,1.0705414,0.6258314,145.51575,-68.48859399999999,-7.5768228,JOG
7980152520704.0,2.512423038482666,-3.9466514587402344,9.653098106384277,0.8222435712814331,1.2567236423492432,0.7128797,0.7858781,144.69511,-67.75171,-7.918893,JOG
7980157763584.0,2.5174245834350586,-3.98502779006958,9.799813270568848,0.8985664248466492,1.2688332796096802,0.31520647,1.0183123,144.18376,-67.40850999999999,-7.823820599999999,JOG
7980162482176.0,2.522425651550293,-3.990619421005249,9.936511039733887,0.9710162878036499,1.274353265762329,-0.027488936,1.1517864,143.75023000000004,-67.05721,-7.6854186,JOG
7980167725056.0,2.5274264812469482,-3.9693243503570557,10.057074546813965,1.0365824699401855,1.2739028930664062,-0.14049901,1.1823297,143.4109,-66.93689,-7.157725,JOG
7980172967936.0,2.5324275493621826,-3.929159641265869,10.154544830322266,1.0923737287521362,1.2679606676101685,-0.2012801,1.1435398,143.14944,-66.78496,-6.5936418,JOG
7980177686528.0,2.537428617477417,-3.875842809677124,10.224780082702637,1.1379140615463257,1.2570055723190308,-0.07971791,1.0968086,142.8413,-66.66153,-5.9100432000000005,JOG
7980182405120.0,2.5424294471740723,-3.8134937286376953,10.265521049499512,1.174277663230896,1.2413477897644043,0.03604105,0.98929626,142.57314,-66.48246,-5.2572794,JOG
7980187648000.0,2.5474300384521484,-3.745661735534668,10.275757789611816,1.2029787302017212,1.2212687730789185,0.1001819,0.86437434,142.18842,-66.09527,-4.9251914,JOG
7980192890880.0,2.552432060241699,-3.675715684890747,10.254810333251953,1.2258061170578003,1.1970744132995605,0.09682214,0.61758476,141.82453999999996,-65.67195,-4.665661,JOG
7980197609472.0,2.557433843612671,-3.6061787605285645,10.203103065490723,1.2442784309387207,1.169055700302124,0.05467244,0.5143485,141.36064,-64.99732,-4.565043,JOG
7980202852352.0,2.5624351501464844,-3.5396628379821777,10.120749473571777,1.2599955797195435,1.1374988555908203,0.027794369,0.30970868,140.94666999999995,-64.29196,-4.5636415,JOG
7980207570944.0,2.5674362182617188,-3.4789068698883057,10.008063316345215,1.2742067575454712,1.1027123928070068,0.03573562,0.11148291,140.86636,-63.93116800000001,-4.554238,JOG
7980212813824.0,2.572437047958374,-3.4266159534454346,9.865478515625,1.2879201173782349,1.0650224685668945,0.08002335,-0.098043874,140.81017,-63.542305000000006,-4.6039143,JOG
7980217532416.0,2.57743763923645,-3.385281562805176,9.694486618041992,1.3016397953033447,1.0247653722763062,0.14782938,-0.36193767,140.76332,-62.98340200000001,-4.850782,JOG
7980222775296.0,2.5824379920959473,-3.357098340988159,9.497122764587402,1.3155802488327026,0.9823218584060669,0.28496864,-0.6808093000000001,140.72322,-62.399807,-5.1851654,JOG
7980227493888.0,2.587437868118286,-3.342519521713257,9.277059555053711,1.3301366567611694,0.9379438161849976,0.4529566,-1.0418307,140.68442,-61.62844000000001,-5.784998000000001,JOG
7980232736768.0,2.592437505722046,-3.3404715061187744,9.039505004882812,1.3458949327468872,0.8917853236198425,0.6374379,-1.368949,140.6528,-60.815765,-6.486280000000002,JOG
7980237455360.0,2.5974366664886475,-3.348217725753784,8.789791107177734,1.3632409572601318,0.8438586592674255,0.74464476,-1.6016886,140.62364,-59.850986,-7.463452,JOG
7980242698240.0,2.602435350418091,-3.361872673034668,8.533219337463379,1.38240385055542,0.7940834164619446,0.8051204000000001,-1.6862935,140.60068,-58.820522,-8.514559,JOG
7980247416832.0,2.607433795928955,-3.3781673908233643,8.274267196655273,1.4038336277008057,0.7424388527870178,0.7415904000000001,-1.6612481,140.61015,-57.75607,-9.600525,JOG
7980252659712.0,2.6124320030212402,-3.394390821456909,8.016669273376465,1.4281426668167114,0.6890287399291992,0.5467244000000001,-1.604743,140.66253999999998,-56.635483,-10.695869,JOG
7980257378304.0,2.617429733276367,-3.4086005687713623,7.763902187347412,1.455597162246704,0.6341540813446045,0.23304509,-1.5839735,140.78915,-55.60276800000001,-11.580726,JOG
7980262621184.0,2.6224277019500732,-3.4195268154144287,7.5192694664001465,1.4861558675765991,0.578079342842102,-0.17134771,-1.593442,140.99536,-54.53641999999999,-12.416214,JOG
7980267339776.0,2.6274256706237793,-3.4263603687286377,7.28535795211792,1.519229531288147,0.5209468603134155,-0.38545597,-1.5778649,141.2416,-53.53296,-13.040018,JOG
7980272582656.0,2.6324236392974854,-3.428589344024658,7.0643630027771,1.5537618398666382,0.46294018626213074,-0.83016586,-1.5042557,141.64331,-52.53402,-13.544476,JOG
7980277301248.0,2.6374213695526123,-3.4257054328918457,6.858765602111816,1.5893357992172241,0.40398508310317993,-1.3570372,-1.4355333,142.05759,-51.54883,-13.853202,JOG
7980282544128.0,2.6424195766448975,-3.4170961380004883,6.671719074249268,1.6261945962905884,0.3439067304134369,-1.9474384,-1.3313808,142.57773,-50.56717,-14.035982,JOG
7980287787008.0,2.6474177837371826,-3.4029006958007812,6.506522178649902,1.6657612323760986,0.2825767695903778,-2.5998425,-1.2070698,143.01572,-49.518402,-13.944969,JOG
7980292505600.0,2.6524159908294678,-3.3841328620910645,6.367607116699219,1.711298942565918,0.21997828781604767,-3.2937853,-1.0580186000000005,143.57985,-48.481667,-13.693175,JOG
7980297224192.0,2.657413959503174,-3.362757444381714,6.25856351852417,1.7631574869155884,0.15610577166080475,-3.976122,-0.87689704,144.32626000000005,-47.70933,-13.198448,JOG
7980302467072.0,2.66241192817688,-3.3420820236206055,6.182718276977539,1.8183321952819824,0.09084861725568771,-4.5588875,-0.6627888000000001,145.1603,-46.927723,-12.544473,JOG
7980307709952.0,2.6674094200134277,-3.324153423309326,6.141627788543701,1.870818853378296,0.023963285610079765,-4.578435,-0.38637227,145.9614,-46.234055,-11.751134,JOG
7980312428544.0,2.6724071502685547,-3.309535026550293,6.1348958015441895,1.909653663635254,-0.04448716342449188,-3.8423424,-0.121256754,146.67325,-45.552692,-10.9599085,JOG
7980317671424.0,2.6774046421051025,-3.2982912063598633,6.161377429962158,1.928214192390442,-0.11348840594291687,-3.0198123,-0.028405234,147.15726999999995,-45.19195,-10.337092,JOG
7980322390016.0,2.6824023723602295,-3.2898035049438477,6.219013214111328,1.9251315593719482,-0.18129180371761322,-2.4666739,-0.22968534,147.55069,-44.88178,-9.828392,JOG
7980327632896.0,2.6874001026153564,-3.2827038764953613,6.305171489715576,1.9003549814224243,-0.24654783308506012,-2.1633792,-0.6563747,147.65848,-45.093143,-9.6028,JOG
7980332875776.0,2.6923983097076416,-3.273475408554077,6.415602684020996,1.8566882610321045,-0.3091758191585541,-1.779145,-1.2363913,147.72755,-45.277897,-9.582423,JOG
7980337594368.0,2.6973965167999268,-3.258551597595215,6.546730041503906,1.7970014810562134,-0.37006598711013794,-1.2040153999999998,-1.779145,147.7736,-45.638924,-9.74758,JOG
7980342837248.0,2.702394962310791,-3.2321174144744873,6.696326732635498,1.7253332138061523,-0.4301365315914154,-0.5369505,-2.1270328,147.8099,-45.92919000000001,-10.0821905,JOG
7980347555840.0,2.7073936462402344,-3.1892030239105225,6.862438201904297,1.6455947160720825,-0.48979201912879944,0.13347405,-2.2782218,147.85957,-46.06681,-10.3966465,JOG
7980352798720.0,2.7123923301696777,-3.126326322555542,7.043896198272705,1.5631214380264282,-0.5491541624069214,0.5488624,-2.336865,147.86948999999996,-46.093052,-10.84175,JOG
7980358041600.0,2.7173917293548584,-3.0403552055358887,7.2396345138549805,1.482867956161499,-0.6083632707595825,0.6951646,-2.3197608,147.92305,-45.933517,-10.968682,JOG
7980362760192.0,2.722391128540039,-2.9318909645080566,7.448143005371094,1.4077492952346802,-0.6677094101905823,0.7470882,-2.2763894,147.91516,-45.717537,-11.172765,JOG
7980367478784.0,2.727390766143799,-2.801440477371216,7.668056964874268,1.340500831604004,-0.7274366617202759,0.78984874,-2.2666154,148.1445,-45.49401500000001,-11.051648,JOG
7980372721664.0,2.7323906421661377,-2.652315378189087,7.897896766662598,1.2812649011611938,-0.787399172782898,0.9236283000000002,-2.2919664,148.34184,-45.247585,-10.977904,JOG
7980377440256.0,2.7373900413513184,-2.4880878925323486,8.136246681213379,1.22963285446167,-0.8469667434692383,1.1582005,-2.314874,148.50743,-44.996544,-10.948059,JOG
7980382683136.0,2.742389678955078,-2.3152663707733154,8.381742477416992,1.1862205266952515,-0.9048817753791809,1.3096951,-2.2840252,148.78603,-44.75687,-10.766255,JOG
7980387401728.0,2.747389316558838,-2.1414220333099365,8.63309097290039,1.1520891189575195,-0.9595550298690796,1.2935071000000002,-2.3115141,149.06346000000005,-44.58711,-10.6385355,JOG
7980392644608.0,2.7523889541625977,-1.9744888544082642,8.889081001281738,1.1288914680480957,-1.009673833847046,1.1004738,-2.4736989,149.33142,-44.4907,-10.627807,JOG
7980397887488.0,2.7573885917663574,-1.8223464488983154,9.148589134216309,1.1185873746871948,-1.0545941591262817,0.8197812,-2.6673431,149.62694,-44.48361,-10.625089,JOG
7980402606080.0,2.762388229370117,-1.6907179355621338,9.41037368774414,1.1223610639572144,-1.0943286418914795,0.46914452,-2.8011227,149.84917,-44.50099,-10.934847,JOG
7980407848960.0,2.767387866973877,-1.584084391593933,9.673197746276855,1.1409865617752075,-1.1295028924942017,0.10751228,-2.819143,150.14244,-44.538074,-11.200598,JOG
7980412567552.0,2.772387742996216,-1.503979206085205,9.934213638305664,1.1736096143722534,-1.1610262393951416,-0.14782938,-2.7479773,150.31653,-44.45418,-11.801598,JOG
7980417810432.0,2.7773876190185547,-1.4504070281982422,10.18986988067627,1.2185918092727661,-1.1898558139801025,-0.28252518,-2.5821273,150.52536,-44.331524,-12.318928,JOG
7980422529024.0,2.7823877334594727,-1.4215099811553955,10.43509578704834,1.273629069328308,-1.216666340827942,-0.34788775,-2.4184155,150.60745,-44.025894,-13.048597,JOG
7980427771904.0,2.7873880863189697,-1.4143739938735962,10.664145469665527,1.3361046314239502,-1.241646647453308,-0.3210097,-2.2715025,150.67561,-43.70111,-13.7046,JOG
7980432490496.0,2.792388439178467,-1.4255311489105225,10.872160911560059,1.4031093120574951,-1.2645634412765503,-0.09590584,-2.1490240000000003,150.62646,-43.220905,-14.444536,JOG
7980437733376.0,2.797388792037964,-1.4512814283370972,11.054912567138672,1.4716358184814453,-1.2848318815231323,0.25167647,-2.043955,150.52632,-42.788322,-15.154825,JOG
7980442451968.0,2.802389144897461,-1.4877138137817383,11.210025787353516,1.5398160219192505,-1.3017973899841309,0.6536258,-1.9126191000000003,150.43784,-42.299984,-15.923077,JOG
7980447694848.0,2.8073902130126953,-1.5307873487472534,11.336348533630371,1.6065726280212402,-1.3148869276046753,1.03786,-1.7424932,150.25406,-41.899788,-16.70336,JOG
7980452413440.0,2.8123910427093506,-1.5774149894714355,11.435001373291016,1.6712602376937866,-1.3236924409866333,1.2550226,-1.6142114,150.10596,-41.52843,-17.495216,JOG
7980457656320.0,2.8173916339874268,-1.6248441934585571,11.508240699768066,1.7334272861480713,-1.3278224468231201,1.3857478,-1.5186110000000002,149.86678999999995,-41.255455,-18.302896,JOG
7980462374912.0,2.822392225265503,-1.670774221420288,11.557721138000488,1.7926820516586304,-1.3268176317214966,1.432479,-1.4517213,149.66156,-40.983753,-19.001678,JOG
7980467617792.0,2.827392816543579,-1.7132580280303955,11.584552764892578,1.8486758470535278,-1.3202872276306152,1.4504995,-1.4013249,149.41637,-40.79442,-19.691368,JOG
7980472860672.0,2.8323936462402344,-1.7502944469451904,11.589550971984863,1.900831699371338,-1.3083961009979248,1.3784174,-1.3756685,149.19588000000005,-40.61716,-20.237652,JOG
7980477579264.0,2.8373944759368896,-1.7799023389816284,11.573312759399414,1.9484153985977173,-1.290930151939392,1.217149,-1.3048081,148.96497,-40.569363,-20.737581,JOG
7980482822144.0,2.8423964977264404,-1.79983651638031,11.536306381225586,1.9904776811599731,-1.267903208732605,0.9859365,-1.1325442,148.82903000000005,-40.61117,-21.13799,JOG
7980487540736.0,2.847398281097412,-1.8084158897399902,11.47934341430664,2.026240587234497,-1.2393909692764282,0.6908886,-1.0506883,148.74078,-40.713654,-21.487143,JOG
7980492783616.0,2.8523998260498047,-1.8039008378982544,11.402972221374512,2.054893970489502,-1.205942153930664,0.3408628,-0.8042041,148.7214,-40.919544,-21.639503,JOG
7980497502208.0,2.857401132583618,-1.7843868732452393,11.30640697479248,2.075469970703125,-1.168088436126709,-0.005497787,-0.5149594,148.73386000000005,-41.186832,-21.702265,JOG
7980502745088.0,2.8624024391174316,-1.748320460319519,11.188945770263672,2.087103843688965,-1.1264939308166504,-0.35888332,-0.22052236,148.79413,-41.339886,-21.488491,JOG
7980507463680.0,2.867403507232666,-1.695427417755127,11.049036979675293,2.088636636734009,-1.081814169883728,-0.6704246,0.011301007,148.86838,-41.52173,-21.167751000000006,JOG
7980512706560.0,2.8724048137664795,-1.6255370378494263,10.885290145874023,2.07899808883667,-1.03470778465271,-0.82802784,0.17745635,149.0978,-41.926285,-20.726852,JOG
7980517949440.0,2.877408027648926,-1.539552092552185,10.696883201599121,2.05704402923584,-0.9857598543167114,-0.8017605999999999,0.2968805,149.3127,-42.34483,-20.218035,JOG
7980522668032.0,2.882411241531372,-1.4385749101638794,10.484028816223145,2.022329092025757,-0.9355164170265198,-0.6123924,0.39767328,149.55966,-42.74401,-19.64842,JOG
7980527910912.0,2.88741397857666,-1.323759913444519,10.24708080291748,1.9739153385162354,-0.8845503330230713,-0.34819320000000004,0.5018258,149.75523,-43.136215,-19.066214,JOG
7980532629504.0,2.89241623878479,-1.1962743997573853,9.986648559570312,1.910943627357483,-0.8333459496498108,-0.026572637000000003,0.6441574000000001,149.8646,-43.530678,-18.49668,JOG
7980537872384.0,2.897418260574341,-1.0581645965576172,9.704399108886719,1.8329331874847412,-0.7822660207748413,0.37323865,0.8042041,149.88895,-43.882565,-17.982122,JOG
7980542590976.0,2.9024198055267334,-0.9116554856300354,9.402387619018555,1.7397133111953735,-0.7315450310707092,0.7867944,0.93554014,149.81226,-44.23389,-17.502113,JOG
7980547833856.0,2.907421112060547,-0.7599105834960938,9.084249496459961,1.633029580116272,-0.6812204122543335,1.1606439,0.9810496,149.6199,-44.594376,-17.1035,JOG
7980552552448.0,2.9124224185943604,-0.606243371963501,8.75401782989502,1.5152770280838013,-0.6313366889953613,1.3967434,0.9645562,149.3474,-44.956043,-16.738075,JOG
7980557795328.0,2.9174234867095947,-0.45428985357284546,8.41576862335205,1.3893041610717773,-0.5820843577384949,1.4963144,0.9071349,148.97057,-45.341953,-16.492224,JOG
7980562513920.0,2.92242431640625,-0.3077054023742676,8.073433876037598,1.258054256439209,-0.5337798595428467,1.5436565,0.82772243,148.55473,-45.721195,-16.285576000000002,JOG
7980567756800.0,2.9274251461029053,-0.16980884969234467,7.730865478515625,1.1246784925460815,-0.48668843507766724,1.6701056,0.70371675,148.08186,-46.081272,-16.23507,JOG
7980572475392.0,2.9324262142181396,-0.0435677170753479,7.391775131225586,0.9924361109733582,-0.44093072414398193,1.8359555,0.6407976,147.58798000000004,-46.43291,-16.200777,JOG
7980577718272.0,2.937427043914795,0.06941688060760498,7.059635639190674,0.8645161390304565,-0.39683666825294495,2.0244074,0.50640726,147.05678,-46.688995,-16.385641,JOG
7980582436864.0,2.942427635192871,0.16849197447299957,6.73774528503418,0.7440647482872009,-0.35479262471199036,2.2079725,0.40744713,146.48944,-46.926266,-16.604951999999994,JOG
7980587679744.0,2.947429656982422,0.253601610660553,6.428799152374268,0.6340082883834839,-0.3151303827762604,2.3948972,0.33017266,145.87042,-47.07301,-17.013026999999994,JOG
7980592398336.0,2.9524314403533936,0.3252592980861664,6.134372711181641,0.5361770391464233,-0.2781734764575958,2.5152376,0.23976462,145.24155,-47.163612,-17.468426,JOG
7980597641216.0,2.957432746887207,0.38389045000076294,5.856167793273926,0.4525376260280609,-0.2442224770784378,2.5760188,0.1423316,144.60576,-47.16937,-17.985094,JOG
7980602359808.0,2.9624335765838623,0.4299796521663666,5.5959906578063965,0.38496217131614685,-0.2135789543390274,2.5778513,0.054061573,143.96815,-47.11799600000001,-18.53178,JOG
7980607602688.0,2.9674341678619385,0.46401992440223694,5.355452537536621,0.3349636197090149,-0.18639972805976868,2.5072963,-0.029626964,143.33206,-46.39646,-19.220758,JOG
7980612845568.0,2.9724345207214355,0.48702090978622437,5.13614559173584,0.30119094252586365,-0.16267843544483185,2.281887,-0.14294247,142.76263,-45.651752,-19.90168,JOG
7980617564160.0,2.9774346351623535,0.5005635619163513,4.940442085266113,0.2842041552066803,-0.1420837938785553,1.7663169,-0.28527406,142.35085,-44.899136,-20.485146,JOG
7980622807040.0,2.9824345111846924,0.5093261003494263,4.775379180908203,0.2935566008090973,-0.12363946437835693,0.8512407,-0.43493605,142.11389,-44.194935,-20.96464,JOG
7980627525632.0,2.987434148788452,0.5164199471473694,4.646780967712402,0.3337351381778717,-0.10622487217187881,-0.3735441,-0.5647449000000001,142.06444,-43.76791400000001,-21.236206,JOG
7980632768512.0,2.992433786392212,0.5177772641181946,4.556991100311279,0.383700430393219,-0.08922313898801804,-1.5796975,-0.6805039,142.24648,-43.36296,-21.355347,JOG
7980637487104.0,2.9974331855773926,0.5091822743415833,4.507691860198975,0.4257488548755646,-0.07179653644561768,-1.6939293000000002,-0.8536841999999999,142.71603000000005,-43.12346,-20.936907,JOG
7980642729984.0,3.0024325847625732,0.48250651359558105,4.497681140899658,0.4538295567035675,-0.051071908324956894,-0.39584067,-0.44501534,143.03076,-43.19816,-20.494316,JOG
7980647448576.0,3.007431983947754,0.4307898283004761,4.525643825531006,0.46339932084083557,-0.025340596213936806,1.2159272,0.20097467,142.57898,-43.787334,-20.66358,JOG
7980652691456.0,3.0124311447143555,0.3502931296825409,4.588845729827881,0.4632915258407593,0.0035687643103301525,1.1630874,0.72021013,142.15535,-44.34948,-20.697777,JOG
7980657934336.0,3.0174310207366943,0.2372252643108368,4.684839248657227,0.4620090425014496,0.03303232043981552,-0.20372356,0.73456544,141.24158,-45.371014,-21.19962,JOG
7980662652928.0,3.022430658340454,0.09445377439260483,4.802633762359619,0.4576546251773834,0.06057368591427803,-0.77579886,0.5296202,140.1418,-46.23794,-21.736147,JOG
7980667371520.0,3.027430295944214,-0.07451982796192169,4.9303083419799805,0.44691312313079834,0.08537198603153229,-1.2049317,0.009162978,139.43405,-46.924057,-22.09156,JOG
7980672614400.0,3.0324296951293945,-0.2604099214076996,5.060786724090576,0.4294065535068512,0.10688407719135284,-0.84757555,-0.19425514,138.74982,-46.90658,-22.710356,JOG
7980677332992.0,3.037429094314575,-0.4543091952800751,5.188075542449951,0.4050567150115967,0.12605340778827667,-0.22204952,0.172264,138.10555,-46.929974,-23.245306,JOG
7980682575872.0,3.0424294471740723,-0.6477060914039612,5.309704780578613,0.37477919459342957,0.14449729025363922,0.25289822,0.7974846,137.52113,-47.033905,-23.845253,JOG
7980687294464.0,3.047429323196411,-0.8341934084892273,5.424116134643555,0.33945733308792114,0.16352678835391998,0.41813725,1.4401149,136.80053999999998,-47.234703,-24.382025,JOG
7980692537344.0,3.052428960800171,-1.0100537538528442,5.531064033508301,0.29886680841445923,0.1838616132736206,0.3659083,1.969735,136.0583,-47.62252,-24.638472,JOG
7980697780224.0,3.0574283599853516,-1.1723597049713135,5.630517959594727,0.2527066171169281,0.20573017001152039,0.32559118,2.3484714,135.19011,-48.15657,-24.800936,JOG
7980702498816.0,3.062427520751953,-1.320695161819458,5.723423480987549,0.20106269419193268,0.2291671335697174,0.36682457,2.5625796000000003,134.34286,-48.7954,-24.671389,JOG
7980707741696.0,3.0674266815185547,-1.4553290605545044,5.8109002113342285,0.14412598311901093,0.2541349232196808,0.4175264,2.7437012000000003,133.45099,-49.513325,-24.455387,JOG
7980712460288.0,3.0724258422851562,-1.5772109031677246,5.895147323608398,0.08264967054128647,0.28064239025115967,0.34819320000000004,2.937651,132.58324,-50.399452,-24.026716,JOG
7980717703168.0,3.0774247646331787,-1.6873716115951538,5.978366851806641,0.01744133234024048,0.3087806701660156,0.19211712,3.1239647999999995,131.70963999999998,-51.326313,-23.552801,JOG
7980722421760.0,3.082423686981201,-1.784637451171875,6.064483165740967,-0.04966825246810913,0.338663250207901,0.009468411,3.3050864,130.83722,-52.35191,-22.979689,JOG
7980727664640.0,3.0874223709106445,-1.8676180839538574,6.157271862030029,-0.11684662848711014,0.370551735162735,-0.13072516,3.5436292000000003,129.97581,-53.444237,-22.333483,JOG
7980732383232.0,3.092421054840088,-1.9341825246810913,6.260977745056152,-0.17599058151245117,0.4046609699726105,-0.10445796,3.8899899,129.04997,-54.53516,-21.647920000000006,JOG
7980737626112.0,3.0974197387695312,-1.98236882686615,6.37939453125,-0.21858704090118408,0.44085368514060974,0.047647487,4.24307,128.11362,-55.663185,-20.907476000000006,JOG
7980742868992.0,3.1024184226989746,-2.0126736164093018,6.514133453369141,-0.238244891166687,0.47814643383026123,-0.06627888,4.476726,127.15252,-56.54335,-20.121315,JOG
7980747587584.0,3.107417106628418,-2.026383399963379,6.6658759117126465,-0.22999480366706848,0.514913022518158,-0.6609562,4.522846,126.27403,-57.381763,-19.27748,JOG
7980752830464.0,3.1124157905578613,-2.0317111015319824,6.834020137786865,-0.20372600853443146,0.550397515296936,-1.1456778,4.1868706,125.741234,-58.525547,-17.948914000000006,JOG
7980757549056.0,3.1174144744873047,-2.0378811359405518,7.017686367034912,-0.1720655858516693,0.5863184928894043,-1.1557571000000002,3.442531,125.30094,-59.635162,-16.742736999999998,JOG
7980762791936.0,3.122413396835327,-2.0510852336883545,7.212189197540283,-0.1416708528995514,0.6250642538070679,-1.0027353,3.0042353,125.08577,-60.632915,-15.414522,JOG
7980767510528.0,3.1274125576019287,-2.0760934352874756,7.411537170410156,-0.11659139394760132,0.667018473148346,-0.7110472,2.2177463,124.97499,-61.40955400000001,-14.427703,JOG
7980772753408.0,3.1324117183685303,-2.11629056930542,7.607281684875488,-0.09685174375772476,0.7122079730033875,-0.45142943,1.6190983,124.59299,-62.355232,-14.02176,JOG
7980777472000.0,3.137410879135132,-2.1744813919067383,7.7902116775512695,-0.08090037107467651,0.7597749829292297,-0.05925392700000001,1.14018,124.181915,-63.167675,-13.844847,JOG
7980782714880.0,3.1424100399017334,-2.2513463497161865,7.955137729644775,-0.06530217081308365,0.8083895444869995,0.4529566,0.6765333,123.57172,-63.50154499999999,-14.316904,JOG
7980787433472.0,3.147409200668335,-2.3464436531066895,8.099140167236328,-0.04575885459780693,0.8563753366470337,1.1004738,0.2779437,122.849915,-63.68018000000001,-14.927429,JOG
7980792676352.0,3.1524085998535156,-2.454963207244873,8.223830223083496,-0.018869878724217415,0.9017069339752197,1.8014416,0.055588737,122.201515,-63.8284,-15.608575,JOG
7980797394944.0,3.1574079990386963,-2.570152997970581,8.333003997802734,0.018146002665162086,0.9422434568405151,2.2672265,0.026572637000000003,121.46112,-63.77409,-16.370224,JOG
7980802637824.0,3.162407159805298,-2.686068534851074,8.429462432861328,0.06581398099660873,0.9761838316917419,2.3860397,0.10629055,120.75792,-63.42301,-17.205446,JOG
7980807880704.0,3.1674065589904785,-2.7974050045013428,8.515384674072266,0.12344706803560257,1.0025831460952759,2.2996023,0.20005837,119.988304,-62.93706,-18.059504,JOG
7980812599296.0,3.172405958175659,-2.899508476257324,8.5924072265625,0.1895415484905243,1.0213412046432495,2.1056526,0.27488935,119.07061000000002,-61.96601500000001,-18.938856,JOG
7980817842176.0,3.177405595779419,-2.9882068634033203,8.661810874938965,0.2621611952781677,1.0330742597579956,1.8417587,0.35705075,118.206764,-61.004436,-19.749617,JOG
7980822560768.0,3.1824049949645996,-3.0600099563598633,8.723605155944824,0.3390478193759918,1.0387258529663086,1.5213598999999998,0.4538729,117.517715,-60.397934,-20.16595,JOG
7980827803648.0,3.1874046325683594,-3.111790895462036,8.776419639587402,0.41748589277267456,1.0393186807632446,1.1609493,0.528093,116.91782,-59.82671,-20.528477,JOG
7980832522240.0,3.192404270172119,-3.142836570739746,8.81824779510498,0.49512049555778503,1.0357539653778076,0.8191703,0.59803706,116.459724,-59.63255,-20.529285,JOG
7980837765120.0,3.197403907775879,-3.154381513595581,8.846565246582031,0.5698988437652588,1.0288158655166626,0.5549710999999999,0.61819565,116.082054,-59.471558,-20.494421,JOG
7980843008000.0,3.2024052143096924,-3.148479700088501,8.859029769897461,0.6406282186508179,1.0190918445587158,0.3735441,0.6270532,115.757385,-59.475437,-20.271362,JOG
7980847726592.0,3.2074062824249268,-3.1275994777679443,8.854528427124023,0.7070315480232239,1.0069835186004639,0.183565,0.61391956,115.5132,-59.489975,-20.021463,JOG
7980852445184.0,3.212407112121582,-3.094111442565918,8.831965446472168,0.7686813473701477,0.9927353262901306,-0.010995574,0.5824600000000001,115.28832,-59.43892,-19.822834,JOG
7980857688064.0,3.217407703399658,-3.05023193359375,8.790501594543457,0.825069010257721,0.9764475226402283,-0.10476339,0.50518554,115.10045,-59.36977,-19.633274,JOG
7980862406656.0,3.2224082946777344,-2.9981908798217773,8.729512214660645,0.8756271600723267,0.9582114219665527,-0.2180789,0.44959682,114.963066,-59.181164,-19.5178,JOG
7980867649536.0,3.2274088859558105,-2.940232038497925,8.648536682128906,0.9197290539741516,0.9381733536720276,-0.23976462,0.33964106,114.85055,-58.959133,-19.439306,JOG
7980872892416.0,3.2324092388153076,-2.8787553310394287,8.547375679016113,0.9571368098258972,0.9162483811378479,-0.23915374,0.17470746,114.79064,-58.62969200000001,-19.45396,JOG
7980878135296.0,3.237410306930542,-2.816474437713623,8.425911903381348,0.9879586100578308,0.8924170136451721,-0.23335053,-0.032375857,114.763084,-58.269287,-19.506657,JOG
7980882853888.0,3.242410898208618,-2.7556252479553223,8.284953117370605,1.012819528579712,0.866654098033905,-0.226631,-0.26908615,114.86376,-58.099754,-19.479132,JOG
7980887572480.0,3.2474114894866943,-2.698477268218994,8.12585735321045,1.0328960418701172,0.838978111743927,-0.23457226,-0.516792,114.9966,-57.870285,-19.505741,JOG
7980892815360.0,3.2524116039276123,-2.646892786026001,7.950293064117432,1.0493534803390503,0.8093400001525879,-0.22510384,-0.768163,115.16203,-57.470047,-19.724913,JOG
