timestamp,rel_time,acc_x,acc_y,acc_z,gyro_x,gyro_y,gyro_z,azimuth,pitch,roll,label
0.0,0.0,0.0,0.0,0.0,0.0,0.39492437,0.22632557,292.84753,-105.70649,14.785258,STD
505398912.0,4.538429010381151e-08,-1.1088607607234735e-05,8.745227387407795e-05,1.3438218957162462e-05,-1.7761082915512816e-07,0.39828414,0.23762658,292.44086,-105.611206,14.752474,STD
3506267648.0,4.898137717646023e-07,-7.7921045885887e-05,0.0006113634444773197,9.05761553440243e-05,-2.7920809770876076e-06,0.4184427,0.25137106,292.0035,-105.49966,14.70668,STD
12362956800.0,2.324315119039966e-06,-0.0002762825752142817,0.002173639601096511,0.0003075101994909346,-1.5750483726151288e-05,0.4297437,0.26358834,291.5676,-105.3897,14.662929,STD
31613820928.0,7.4594390753190964e-06,-0.0007027320680208504,0.005596502684056759,0.0007475829916074872,-5.348346894606948e-05,0.43493605,0.26419923,291.1315600000001,-105.263336,14.602232,STD
66720792576.0,1.8938568246085197e-05,-0.0014633608516305685,0.011877955868840218,0.0014831088483333588,-0.00013649887114297599,0.4428773,0.26878070000000004,290.69138,-105.140594,14.545875,STD
123772895232.0,4.1012506699189544e-05,-0.0026563394349068403,0.022127840667963028,0.0025727429892867804,-0.00029474878101609647,0.43157628,0.25900686,290.27246,-105.009094,14.474392000000002,STD
209169907712.0,7.921954966150224e-05,-0.004350070375949144,0.03749493882060051,0.004059420898556709,-0.0005571920773945749,0.41080686,0.25350907,289.8539,-104.88291,14.405213,STD
329308176384.0,0.00014033063780516386,-0.0065882145427167416,0.059109169989824295,0.005800605285912752,-0.0009511628886684775,0.38240165,0.2666427,289.3554,-104.80428,14.373334,STD
490288218112.0,0.00023214744578581303,-0.009386344812810421,0.08802742511034012,0.00744250463321805,-0.0014917008811607957,0.36010507,0.27672195,288.86026,-104.72542,14.337999,STD
697659949056.0,0.0003635368775576353,-0.0127688217908144,0.1251792162656784,0.009056203067302704,-0.002163727767765522,0.32192600000000005,0.2864958,288.3358,-104.68998,14.337728,STD
956216770560.0,0.00054368149721995,-0.016774503514170647,0.17133823037147522,0.011155120097100735,-0.0029425022657960653,0.28252518,0.28924468,287.81775,-104.65614,14.336526999999998,STD
1269844148224.0,0.0007822471670806408,-0.021449707448482513,0.2270968109369278,0.013942022807896137,-0.003779122605919838,0.23273966,0.29168814,287.43002,-104.65261,14.3344145,STD
1641424748544.0,0.001089006196707487,-0.026848793029785156,0.29285404086112976,0.01723979227244854,-0.0046232049353420734,0.2049453,0.28985557,287.0466,-104.64959,14.3310585,STD
2072796200960.0,0.001473678625188768,-0.03298062086105347,0.36881986260414124,0.020552437752485275,-0.005429461132735014,0.15607607,0.28924468,286.3819299999999,-104.696976,14.405974,STD
2564757651456.0,0.0019454692956060171,-0.039809975773096085,0.4550226628780365,0.023108389228582382,-0.00613897992298007,0.10629055,0.28496864,285.72733,-104.74318,14.475705,STD
3117115244544.0,0.0025128889828920364,-0.04736924543976784,0.551324725151062,0.02504284866154194,-0.00668593542650342,0.06047566,0.28405234,285.1501,-104.78114,14.525835,STD
3728759062528.0,0.003183795837685466,-0.05575625225901604,0.6574357151985168,0.027363136410713196,-0.00700707221403718,-0.013439035,0.27030787,284.59668,-104.813705,14.567839,STD
4397762609152.0,0.003965236712247133,-0.06508670747280121,0.7729374766349792,0.03043411299586296,-0.007019842509180307,-0.05497787,0.24923302,284.1914,-104.84506,14.58372,STD
5121496842240.0,0.004863136913627386,-0.0754869133234024,0.8973070383071899,0.03396480530500412,-0.006643433589488268,-0.10781772,0.21991149,283.81104,-104.87111000000002,14.591299,STD
5896749449216.0,0.005882480647414923,-0.08702225238084793,1.0299639701843262,0.037296704947948456,-0.005833873990923166,-0.14355333,0.18753563,283.26773,-104.88572,14.614168,STD
6719845957632.0,0.007027308922261,-0.09968774765729904,1.1702964305877686,0.03937350586056709,-0.004501543007791042,-0.16768251,0.16187929,282.73743,-104.89606,14.62866,STD
7586766651392.0,0.008300523273646832,-0.11348710209131241,1.3176630735397339,0.039758164435625076,-0.0026307713706046343,-0.18784106,0.11636983,282.26706,-104.8736,14.603242000000002,STD
8493253263360.0,0.009704147465527058,-0.12843753397464752,1.471413254737854,0.03871331363916397,-0.00019145687110722065,-0.19394971,0.09101892,281.80014,-104.852005,14.575784,STD
9434909638656.0,0.01124000083655119,-0.14448504149913788,1.630915880203247,0.036456648260354996,0.002852686680853367,-0.17501289,0.05955936,281.47687,-104.808876,14.501771,STD
10407285620736.0,0.012907815165817738,-0.16150355339050293,1.795552134513855,0.033132292330265045,0.006519426126033068,-0.14294247,0.026572637000000003,281.1502,-104.761246,14.421128,STD
11405953597440.0,0.014706838876008987,-0.17933274805545807,1.9647282361984253,0.02885165996849537,0.010838514193892479,-0.1142318,0.0070249503,280.80298,-104.70165,14.329994,STD
12426569318400.0,0.016635965555906296,-0.19769766926765442,2.137939929962158,0.023587984964251518,0.015819206833839417,-0.07849618,-0.008246681,280.44293,-104.63732,14.232766,STD
13464921702400.0,0.018693579360842705,-0.2162972241640091,2.314664602279663,0.01737459935247898,0.021442823112010956,-0.012217305,-0.016493361,280.04553,-104.57336,14.137466,STD
14516974780416.0,0.020877927541732788,-0.2347700595855713,2.4943416118621826,0.010353918187320232,0.027659473940730095,0.06994407,-0.023823744,279.63208,-104.50842,14.040747,STD
15578896007168.0,0.02318565733730793,-0.2528204619884491,2.6764047145843506,0.002701506484299898,0.03440478444099426,0.16157386,-0.03970624,279.19772,-104.45222,13.951599,STD
16647077232640.0,0.025613998994231224,-0.2701829969882965,2.8603017330169678,-0.005337516777217388,0.04157843440771103,0.2452624,-0.04917465,278.7413,-104.39666,13.865279999999998,STD
17718151479296.0,0.028159460052847862,-0.2866078019142151,3.045518398284912,-0.013575530610978603,0.049031343311071396,0.2782491,-0.04795292,278.25772,-104.35822,13.801315,STD
18788997136384.0,0.030818654224276543,-0.3018323481082916,3.231595993041992,-0.02191314473748207,0.05664285644888878,0.35643986,-0.052534413,277.73627,-104.31557,13.736782,STD
19856743202816.0,0.03358800709247589,-0.31565046310424805,3.4180774688720703,-0.030222628265619278,0.0643484964966774,0.42058071,-0.05222898,277.18118,-104.29184,13.699489000000002,STD
20918768238592.0,0.03646400570869446,-0.32794347405433655,3.6044747829437256,-0.03830812871456146,0.07201896607875824,0.464563,-0.06291912,276.60983,-104.258804,13.659334,STD
21972689879040.0,0.03944246470928192,-0.33862099051475525,3.790294647216797,-0.046034231781959534,0.079559326171875,0.49938235,-0.05100725,276.00818,-104.25186,13.650493,STD
23016366931968.0,0.04251936078071594,-0.3476138412952423,3.974980592727661,-0.05336596071720123,0.08691119402647018,0.52839845,-0.045814894,275.3966,-104.23674,13.637135,STD
24047880503296.0,0.045690830796957016,-0.3548567295074463,4.158030986785889,-0.060270439833402634,0.09402665495872498,0.52870387,-0.043982297,274.75653,-104.23435,13.6449585,STD
25065529802752.0,0.048952989280223846,-0.36023059487342834,4.339041233062744,-0.06669963896274567,0.1009112298488617,0.51893,-0.03390302,274.11365,-104.23385,13.655779999999998,STD
26067815366656.0,0.05230202525854111,-0.3635924756526947,4.517632484436035,-0.07265354692935944,0.10754687339067459,0.4810564000000001,-0.018936822,273.47137000000004,-104.24813,13.685113,STD
27053428572160.0,0.05573415383696556,-0.3646608293056488,4.6934003829956055,-0.07830154150724411,0.11392714083194733,0.44440445,-0.00580322,272.83472,-104.262985,13.714883,STD
28021239054336.0,0.059245578944683075,-0.3632441461086273,4.86600399017334,-0.08377859741449356,0.12007708847522736,0.40622538,0.018325957,272.1952,-104.301704,13.770306,STD
28970282123264.0,0.06283269077539444,-0.3594478964805603,5.035220623016357,-0.08911090344190598,0.1259917914867401,0.34880406,0.03756821,271.57568,-104.33911,13.824643,STD
29899748278272.0,0.06649255007505417,-0.35338443517684937,5.200858116149902,-0.094322569668293,0.13168519735336304,0.27977628,0.05772676700000001,270.974,-104.42018,13.91907,STD
30808966430720.0,0.07022131979465485,-0.3453044891357422,5.362767696380615,-0.09942372143268585,0.13719767332077026,0.21624629,0.08002335,270.39185,-104.504326,14.015488,STD
31697395515392.0,0.07401572912931442,-0.3354416787624359,5.520825386047363,-0.10442428290843964,0.14255110919475555,0.15302174,0.09896017,269.80966,-104.607506,14.130743,STD
32564614004736.0,0.07787243276834488,-0.3240126669406891,5.674931526184082,-0.10933337360620499,0.14778698980808258,0.109650314,0.11362094,269.245,-104.713295,14.246667,STD
33410305228800.0,0.08178875595331192,-0.3112235367298126,5.825007915496826,-0.11415590345859528,0.15293806791305542,0.06780604,0.12370021,268.69205,-104.82049,14.363155,STD
34234253180928.0,0.08576147258281708,-0.29732388257980347,5.970996856689453,-0.11884793639183044,0.15804611146450043,0.04550946,0.1441642,268.15082,-104.93211,14.482739000000002,STD
35036327837696.0,0.08978837728500366,-0.2825508117675781,6.1128621101379395,-0.1233702227473259,0.16311392188072205,0.022602014,0.14966199,267.62317,-105.04028,14.59786,STD
35816478867456.0,0.09386616200208664,-0.26715147495269775,6.250626087188721,-0.12771472334861755,0.16816724836826324,0.010995574,0.14538592,267.10294,-105.149376,14.712348,STD
36574725144576.0,0.09799234569072723,-0.25135594606399536,6.384322643280029,-0.13187415897846222,0.17325158417224884,0.006414085,0.14630222,266.59027000000003,-105.253105,14.821313,STD
37311152652288.0,0.10216427594423294,-0.23537017405033112,6.513993740081787,-0.13584277033805847,0.17837436497211456,0.0143553335,0.14263703,266.081,-105.350945,14.924578,STD
38025903996928.0,0.10637965053319931,-0.2193819135427475,6.639688968658447,-0.1396157443523407,0.18352843821048737,0.029626964,0.14049901,265.57477,-105.44713,15.025526,STD
38719167922176.0,0.11063665896654129,-0.20352253317832947,6.761630535125732,-0.14309115707874298,0.18873648345470428,0.043676864,0.1328632,265.07022,-105.5387,15.120996,STD
39391179309056.0,0.11493287980556488,-0.18790124356746674,6.880038261413574,-0.14617303013801575,0.19398435950279236,0.07727446,0.1337795,264.55927,-105.62826499999998,15.215995,STD
40042214981632.0,0.11926613748073578,-0.17252859473228455,6.9950642585754395,-0.14864538609981537,0.19927214086055756,0.106595986,0.11759156,264.05307,-105.689865,15.282112,STD
40672581124096.0,0.12363472580909729,-0.15739862620830536,7.106849670410156,-0.150288388133049,0.2045859843492508,0.14385876,0.116980694,263.5385,-105.75319,15.351313,STD
41282609086464.0,0.12803660333156586,-0.142510786652565,7.2154860496521,-0.15090695023536682,0.20990391075611115,0.17837265,0.11453723,262.9612,-105.80424,15.4124975,STD
41872667967488.0,0.13247011601924896,-0.1278672218322754,7.3210344314575195,-0.15031783282756805,0.2151552438735962,0.21624629,0.11362094,262.3771,-105.8517,15.471959,STD
42443135254528.0,0.13693606853485107,-0.11349320411682129,7.4235053062438965,-0.14839912950992584,0.22027499973773956,0.23854288,0.10934488,261.75885,-105.894394,15.532991,STD
42994409406464.0,0.14143015444278717,-0.09941264986991882,7.522908687591553,-0.14513398706912994,0.22517068684101105,0.25350907,0.10445796,261.13766,-105.932,15.590945,STD
43526905659392.0,0.14595088362693787,-0.08564846962690353,7.619258880615234,-0.14047785103321075,0.22977371513843536,0.2706133,0.109650314,260.48782,-105.96856,15.653083,STD
44041051832320.0,0.1504969596862793,-0.07222044467926025,7.7125773429870605,-0.13439299166202545,0.23399661481380463,0.28099802,0.10842858,259.84222,-105.99718,15.708533,STD
44537284132864.0,0.15506711602210999,-0.05917327478528023,7.802934169769287,-0.12706801295280457,0.23780259490013123,0.29718593,0.1133155,259.17322,-106.029175,15.767824,STD
45016042962944.0,0.1596599519252777,-0.04655776172876358,7.890418529510498,-0.11877105385065079,0.2411235272884369,0.3023783,0.105068825,258.5116,-106.05225,15.819036,STD
45477772918784.0,0.16427424550056458,-0.03441778942942619,7.975083827972412,-0.10980486124753952,0.24388150870800018,0.30757064,0.10629055,257.80695,-106.075195,15.875323000000002,STD
45922926985216.0,0.16890902817249298,-0.022791646420955658,8.056967735290527,-0.10047586262226105,0.24604634940624237,0.31306845,0.100792766,257.10916000000003,-106.091286,15.922851,STD
46351953952768.0,0.17356301844120026,-0.011707459576427937,8.136079788208008,-0.09106136113405228,0.24758662283420563,0.30909783,0.108123146,256.43643,-106.10236,15.962557,STD
46765302611968.0,0.17823518812656403,-0.0011871122987940907,8.21241283416748,-0.08181757479906082,0.24850620329380035,0.31031954,0.10934488,255.76855,-106.10836,15.994959,STD
47163421753344.0,0.18292473256587982,0.008756285533308983,8.285967826843262,-0.07299526780843735,0.24882856011390686,0.32070425,0.10873401,255.12231,-106.10718,16.016014000000002,STD
47546760167424.0,0.18763060867786407,0.01812887005507946,8.35676097869873,-0.06486719101667404,0.2485816329717636,0.32345316,0.109650314,254.4856,-106.10527,16.034174,STD
47915754061824.0,0.19235198199748993,0.026945188641548157,8.424816131591797,-0.0576639398932457,0.24780508875846863,0.3222314000000001,0.103847094,253.87576,-106.09554,16.040304000000006,STD
48270848032768.0,0.1970881223678589,0.03527310490608215,8.490188598632812,-0.051486797630786896,0.24656373262405396,0.3268129,0.11148291,253.27051,-106.088936,16.047532999999998,STD
48612469899264.0,0.20183835923671722,0.043174926191568375,8.552934646606445,-0.04642396792769432,0.2449014037847519,0.3286455,0.10903945,252.7113,-106.07168,16.040447,STD
48941043286016.0,0.20660173892974854,0.050729334354400635,8.613131523132324,-0.04252442717552185,0.2428560107946396,0.310625,0.11636983,252.1625,-106.05861000000002,16.03598,STD
49256987623424.0,0.2113775610923767,0.058013878762722015,8.670857429504395,-0.03982578217983246,0.24050335586071014,0.29993483,0.12156218,251.61673,-106.0436,16.028019,STD
49560718147584.0,0.21616531908512115,0.06509942561388016,8.726190567016602,-0.03835968300700188,0.23790881037712097,0.28344148,0.12003502,251.10272,-106.030136,16.019607999999998,STD
49852633317376.0,0.22096428275108337,0.07204904407262802,8.779208183288574,-0.03814861178398132,0.2351299524307251,0.27397305,0.12522738,250.59503,-106.019264,16.012691,STD
50133131591680.0,0.22577379643917084,0.07902199029922485,8.829974174499512,-0.039123620837926865,0.2321920096874237,0.24556783,0.1423316,250.10028,-106.00862,16.004988,STD
50402598846464.0,0.23059332370758057,0.08617018163204193,8.87855052947998,-0.04121261462569237,0.22913022339344025,0.21624629,0.14752395,249.61362000000003,-105.99533,15.993695,STD
50661416763392.0,0.23542240262031555,0.09357140958309174,8.924901962280273,-0.04426371306180954,0.22597479820251465,0.18753563,0.14691310000000002,249.1638,-105.99101,15.990369,STD
50909950246912.0,0.24026036262512207,0.10128579288721085,8.968994140625,-0.04812827706336975,0.22278687357902527,0.16554448,0.15913039999999998,248.72504,-105.99082,15.990692,STD
51148560007168.0,0.245107039809227,0.10941313207149506,9.010859489440918,-0.052823685109615326,0.21957974135875702,0.1423316,0.16554448,248.30287,-73.99959,16.000410000000002,STD
51377598365696.0,0.2499620020389557,0.11804445832967758,9.050545692443848,-0.05838123708963394,0.2163558155298233,0.13041973,0.16310102,247.88809,-73.99029,16.009520000000002,STD
51597409255424.0,0.25482478737831116,0.12713128328323364,9.08813762664795,-0.06473004817962646,0.2131069302558899,0.11026118,0.1685988,247.48628,-73.96919,16.030119,STD
51808319832064.0,0.2596946656703949,0.1366005688905716,9.123726844787598,-0.07178288698196411,0.20981714129447937,0.102319926,0.16890424,247.08841,-73.95158,16.046915,STD
52010657251328.0,0.26457154750823975,0.1463857740163803,9.157400131225586,-0.07946006953716278,0.20649655163288116,0.105068825,0.14996742,246.70737000000003,-73.928764,16.068853,STD
52204736086016.0,0.2694561183452606,0.1564263552427292,9.189238548278809,-0.08768914639949799,0.20315693318843842,0.12156218,0.14599679999999998,246.32837,-73.902985,16.093496,STD
52390862520320.0,0.2743467092514038,0.16663116216659546,9.219328880310059,-0.0964200347661972,0.19980105757713318,0.13683382,0.13775012,245.95267,-73.88514,16.109964,STD
52569334349824.0,0.2792431116104126,0.17689867317676544,9.24775218963623,-0.10561753809452057,0.19641324877738953,0.15821409,0.13469578,245.57404,-73.86813000000002,16.125269,STD
52740436787200.0,0.28414490818977356,0.18718068301677704,9.274605751037598,-0.11519713699817657,0.1929813027381897,0.17104226,0.12644911,245.18861,-73.85404,16.137392000000002,STD
52904446656512.0,0.28905192017555237,0.19745320081710815,9.299989700317383,-0.12505844235420227,0.18951432406902313,0.20341812,0.11942416,244.79474,-73.84163000000002,16.147444,STD
53061636587520.0,0.29396387934684753,0.20769475400447845,9.323997497558594,-0.1351107358932495,0.186049222946167,0.22327125,0.112399206,244.40848,-73.83675,16.149855,STD
53212266627072.0,0.2988806664943695,0.21788620948791504,9.346717834472656,-0.14527194201946259,0.18260344862937927,0.26236662,0.10170906,244.01059,-73.835815,16.147799,STD
53356588433408.0,0.3038017153739929,0.2280489206314087,9.368215560913086,-0.15541279315948486,0.17922380566596985,0.28955013,0.1020145,243.60745,-73.83401500000002,16.146515,STD
53494845276160.0,0.30872687697410583,0.23822742700576782,9.388542175292969,-0.1653798669576645,0.17593298852443695,0.31520647,0.09712757,243.19724,-73.8376,16.13937,STD
53627276230656.0,0.31365612149238586,0.24847161769866943,9.40773868560791,-0.1751311719417572,0.17275281250476837,0.3387248,0.093767814,242.77959,-73.83962,16.133297,STD
53754107789312.0,0.31858909130096436,0.2588288187980652,9.4258394241333,-0.18467526137828827,0.16971205174922943,0.34605515,0.093462385,242.3634,-73.84322,16.12549,STD
53875562250240.0,0.3235255181789398,0.26935887336730957,9.44291877746582,-0.19396118819713593,0.16683265566825867,0.36071593,0.09162979,241.92746,-73.842926,16.120544,STD
53991849328640.0,0.3284653127193451,0.2801233232021332,9.459060668945312,-0.20292101800441742,0.1641390025615692,0.37323865,0.1001819,241.49466,-73.84093,16.117186,STD
54103178739712.0,0.3334082365036011,0.29112595319747925,9.474373817443848,-0.2114962488412857,0.16166892647743225,0.37293324,0.108123146,241.06581,-73.8362,16.11672,STD
54209747615744.0,0.33835411071777344,0.30235108733177185,9.488966941833496,-0.2196352779865265,0.15945570170879364,0.36926803,0.109650314,240.639,-73.83214,16.11554,STD
54311744700416.0,0.3433028757572174,0.3137429654598236,9.502933502197266,-0.22732660174369812,0.1575162559747696,0.3652974,0.119729586,240.21088,-73.81644,16.125637,STD
54409358737408.0,0.3482544422149658,0.3252330720424652,9.516355514526367,-0.23457594215869904,0.15586327016353607,0.35918877,0.13164146,239.78944,-73.801346,16.135365,STD
54502761693184.0,0.3532084822654724,0.3367600440979004,9.529306411743164,-0.24139004945755005,0.15446217358112335,0.34605515,0.13591751,239.36273,-73.782616,16.147856,STD
54592129728512.0,0.35816484689712524,0.34826865792274475,9.541854858398438,-0.24777603149414062,0.15332551300525665,0.3390302,0.14110987,238.94128,-73.7623,16.16248,STD
54677626421248.0,0.36312374472618103,0.3596837818622589,9.554064750671387,-0.25375309586524963,0.15243256092071533,0.33108896,0.15790866,238.52914,-73.7384,16.180227,STD
54759411154944.0,0.36808469891548157,0.37089699506759644,9.565994262695312,-0.2593609690666199,0.15175016224384308,0.32559118,0.16035213,238.12354,-73.71861,16.193916,STD
54837634924544.0,0.3730475902557373,0.3817996382713318,9.577658653259277,-0.2646687626838684,0.15127748250961304,0.30695978,0.16707164,237.70618,-73.697525,16.208506,STD
54912444530688.0,0.37801238894462585,0.39228346943855286,9.589032173156738,-0.2697746753692627,0.15099412202835083,0.30482176,0.17440203,237.29123,-73.676636,16.222305,STD
54983986774016.0,0.3829789459705353,0.40225401520729065,9.600092887878418,-0.2747662663459778,0.15087775886058807,0.31520647,0.18692477,236.88435,-73.66096,16.231022,STD
55052391677952.0,0.3879471719264984,0.4116276204586029,9.610820770263672,-0.2797226309776306,0.15089666843414307,0.31520647,0.19120082,236.48663,-73.64658,16.238241,STD
55117793460224.0,0.39291706681251526,0.42032670974731445,9.621192932128906,-0.2846815288066864,0.15103155374526978,0.32009340000000003,0.1957823,236.08157000000003,-73.62758000000002,16.249589999999998,STD
55180317949952.0,0.3978886008262634,0.42828091979026794,9.631181716918945,-0.2896401882171631,0.1512838751077652,0.32895094,0.1966986,235.68077,-73.609764,16.259584,STD
55240082587648.0,0.4028615653514862,0.43542322516441345,9.640776634216309,-0.2945912480354309,0.15163207054138184,0.32895094,0.20280726,235.29904,-73.60732,16.255383,STD
55297209008128.0,0.40783587098121643,0.4416390061378479,9.650060653686523,-0.2994939684867859,0.15206432342529297,0.32589662,0.20616703,234.92038,-73.60655,16.249585999999994,STD
55351806263296.0,0.4128115475177765,0.44682788848876953,9.65910530090332,-0.3043080270290375,0.15253685414791107,0.3109304,0.21655174,234.55023,-73.6116,16.237473,STD
55403979210752.0,0.41778844594955444,0.45091086626052856,9.667963027954102,-0.308976411819458,0.15306496620178223,0.32070425,0.22479841,234.17816,-73.617714,16.224657,STD
55453836902400.0,0.4227665662765503,0.4538225531578064,9.676678657531738,-0.31344807147979736,0.1536119133234024,0.30787608,0.22418754,233.81769,-73.63632,16.197922,STD
55501471612928.0,0.42774584889411926,0.45555579662323,9.685266494750977,-0.3176825940608978,0.15415595471858978,0.29749137,0.22357668,233.45786,-73.65349,16.172808,STD
55546984005632.0,0.4327261745929718,0.45610788464546204,9.69373893737793,-0.32164451479911804,0.15464986860752106,0.26847526,0.22327125,233.10544,-73.68304,16.133753,STD
55590462160896.0,0.43770745396614075,0.45545440912246704,9.70215129852295,-0.3253842890262604,0.15506796538829803,0.2434298,0.23426682,232.759,-73.70965,16.097520000000006,STD
55631994159104.0,0.4426896572113037,0.4535706639289856,9.71056079864502,-0.32896488904953003,0.15536747872829437,0.23762658,0.23487769,232.41968,-73.73838,16.058064,STD
55671663886336.0,0.44767293334007263,0.4504159688949585,9.71903133392334,-0.3325154185295105,0.15556073188781738,0.22296582,0.22937989,232.06786,-73.77313000000002,16.011477,STD
55709551034368.0,0.45265883207321167,0.4459294080734253,9.727632522583008,-0.3362017869949341,0.15562176704406738,0.20158553,0.23396139,231.72354,-73.803566,15.967757,STD
55745735294976.0,0.4576452970504761,0.44014617800712585,9.736347198486328,-0.34001660346984863,0.15557800233364105,0.18173242,0.23609942,231.38872,-73.85051,15.908724,STD
55780287971328.0,0.46263253688812256,0.4331090450286865,9.745125770568848,-0.34388160705566406,0.1553771048784256,0.1600467,0.23976462,231.06432,-73.89354,15.851752,STD
55813284560896.0,0.46762028336524963,0.42489638924598694,9.753907203674316,-0.34778642654418945,0.15500211715698242,0.13958271,0.24098633,230.75119,-73.95535,15.778785,STD
55844787978240.0,0.4726087152957916,0.4156096577644348,9.762621879577637,-0.35177430510520935,0.15446263551712036,0.13011430000000002,0.22999077,230.44458,-74.01833,15.703883,STD
55874865332224.0,0.47759774327278137,0.40540483593940735,9.771138191223145,-0.35601142048835754,0.15375034511089325,0.118507855,0.2302962,230.13763,-74.082886,15.62541,STD
55903579537408.0,0.48258736729621887,0.39445731043815613,9.779298782348633,-0.3607156574726105,0.15285398066043854,0.09865474,0.22724187,229.83937000000003,-74.15046,15.543611,STD
55930989314048.0,0.48757749795913696,0.38293468952178955,9.786966323852539,-0.36594030261039734,0.15181340277194977,0.10354166,0.21624629,229.53926,-74.22069499999998,15.459543,STD
55957153382400.0,0.49256810545921326,0.3709966242313385,9.794023513793945,-0.3716031014919281,0.15058059990406036,0.09773844,0.21471913,229.25099,-74.28609499999997,15.378269,STD
55982126268416.0,0.4975593090057373,0.3588222563266754,9.800383567810059,-0.37766996026039124,0.1491260975599289,0.09315695,0.20097467,228.98567000000003,-74.35574,15.297927,STD
56005962498048.0,0.5025511384010315,0.3466063141822815,9.80599308013916,-0.38414958119392395,0.14749611914157867,0.08979719,0.18936823,228.72404,-74.42475,15.218298,STD
56028708208640.0,0.5075433254241943,0.3345702290534973,9.810872077941895,-0.39100196957588196,0.14570915699005127,0.09468412,0.17928895,228.46123,-74.48715,15.143221,STD
56050417926144.0,0.5125361084938049,0.3229701817035675,9.815109252929688,-0.3981422185897827,0.14379090070724487,0.098043874,0.1685988,228.20235,-74.553024,15.065126,STD
56071133593600.0,0.5175291299819946,0.3120204210281372,9.818822860717773,-0.405483603477478,0.14169538021087646,0.098043874,0.14691310000000002,227.95361,-74.61273,14.993033,STD
56090897154048.0,0.5225224494934082,0.30190977454185486,9.822175025939941,-0.4129314124584198,0.13938619196414948,0.07819075,0.14477506,227.71167000000003,-74.66967,14.924116,JOG
56109754744832.0,0.5275160670280457,0.2928166091442108,9.825295448303223,-0.42039522528648376,0.13688427209854126,0.058337633,0.14294247,227.46619,-74.71287,14.868106,JOG
56127748308992.0,0.5325099229812622,0.2849244177341461,9.828269004821777,-0.42778289318084717,0.13415512442588806,0.04062254,0.14477506,227.22813,-74.75275400000002,14.812964,JOG
56144911400960.0,0.5375038981437683,0.27833592891693115,9.831149101257324,-0.43504348397254944,0.1312083750963211,0.026572637000000003,0.14569137,226.99644,-74.77871999999998,14.772282999999998,JOG
56161285963776.0,0.5424981117248535,0.273051381111145,9.833950996398926,-0.4421825408935547,0.12805242836475372,0.00061086525,0.15851954,226.77567,-74.799385,14.735967,JOG
56176905551872.0,0.5474925637245178,0.269061803817749,9.83668041229248,-0.44925060868263245,0.12470059841871262,-0.016187929,0.16798794,226.54942000000003,-74.80233,14.716136,JOG
56191803719680.0,0.5524872541427612,0.26634544134140015,9.839322090148926,-0.4564230740070343,0.12117578834295273,-0.044898596,0.172264,226.33684,-74.80329,14.698729,JOG
56206014021632.0,0.557482123374939,0.2648456394672394,9.841883659362793,-0.4639112949371338,0.11752937734127045,-0.07086037,0.1881465,226.13055,-74.78936,14.697341,JOG
56219565817856.0,0.5624772310256958,0.26445379853248596,9.844405174255371,-0.47200870513916016,0.11381729692220688,-0.093767814,0.20341812,225.93425,-74.7752,14.696829,JOG
56232488468480.0,0.5674724578857422,0.2650570571422577,9.846887588500977,-0.48093125224113464,0.1100621148943901,-0.11759156,0.21685717,225.76222,-74.754425,14.707884,JOG
56244815527936.0,0.5724679231643677,0.2665243446826935,9.849249839782715,-0.49079006910324097,0.10634402185678482,-0.122478485,0.22296582,225.59317,-74.73478,14.720459,JOG
56256567967744.0,0.5774635672569275,0.2687206268310547,9.851369857788086,-0.5016770362854004,0.10273131728172302,-0.12522738,0.23365596,225.45638,-74.71743000000002,14.739398,JOG
56267775148032.0,0.5824593901634216,0.27146467566490173,9.85295581817627,-0.5136674642562866,0.09927885234355927,-0.13683382,0.23884831,225.32498,-74.70214,14.758005,JOG
56278462234624.0,0.5874553918838501,0.2745945155620575,9.853747367858887,-0.5267707705497742,0.09612293541431427,-0.13133603,0.2510656,225.19954,-74.68721,14.78391,JOG
56288650199040.0,0.5924518704414368,0.2779655158519745,9.853510856628418,-0.5408616065979004,0.09334152936935425,-0.11453723,0.2666427,225.07501,-74.67071999999997,14.811401000000002,JOG
56298364207104.0,0.5974484086036682,0.2814790904521942,9.852054595947266,-0.5557657480239868,0.09104160219430923,-0.111177474,0.2773328,224.96732000000003,-74.662735,14.838894,JOG
56307625230336.0,0.602445125579834,0.28512388467788696,9.849200248718262,-0.5711554288864136,0.08934888988733292,-0.099571034,0.2846632,224.85274,-74.65468,14.868524,JOG
56316454240256.0,0.6074420213699341,0.28891870379447937,9.844797134399414,-0.5867335796356201,0.08837869763374329,-0.089186326,0.2941316,224.74298,-74.6487,14.899128,JOG
56324868014080.0,0.6124387383460999,0.29298049211502075,9.83873176574707,-0.6022279858589172,0.08823925256729126,-0.08460484,0.29718593,224.63232,-74.64623,14.929067000000002,JOG
56332891717632.0,0.6174352765083313,0.29741764068603516,9.830949783325195,-0.6174083352088928,0.08893932402133942,-0.08093964,0.30085114,224.50885,-74.63376600000002,14.965875,JOG
56340537933824.0,0.6224316358566284,0.3023342490196228,9.821664810180664,-0.6321650147438049,0.09044013172388077,-0.10751228,0.29749137,224.39412,-74.624985,15.001129,JOG
56347827634176.0,0.6274279952049255,0.3077990412712097,9.811119079589844,-0.6464565396308899,0.09264393895864487,-0.14385876,0.28496864,224.2642,-74.59785,15.050202,JOG
56354773401600.0,0.6324242353439331,0.31379300355911255,9.799673080444336,-0.6604239344596863,0.09542036801576614,-0.17989981,0.27091873,224.14354,-74.57221,15.0971985,JOG
56361392013312.0,0.6374203562736511,0.3202725052833557,9.787715911865234,-0.6741729378700256,0.09869085252285004,-0.2134974,0.25900686,224.03133,-74.536736,15.152506,JOG
56367700246528.0,0.6424164772033691,0.327100545167923,9.775840759277344,-0.6877145171165466,0.10232719033956528,-0.24098633,0.25228736,223.92935,-74.50177,15.204595,JOG
56373710684160.0,0.6474126577377319,0.33410462737083435,9.764607429504395,-0.7010387182235718,0.10624118894338608,-0.25778514,0.23732115,223.84439,-74.47411,15.251247,JOG
56379440103424.0,0.65240877866745,0.34095028042793274,9.754627227783203,-0.7140629291534424,0.11036776751279831,-0.27855456,0.21594086,223.76978,-74.449196,15.293554,JOG
56384901087232.0,0.6574051380157471,0.34730786085128784,9.74642276763916,-0.7266843914985657,0.11464887112379074,-0.3005457,0.19333886,223.6978,-74.44174,15.316945,JOG
56390102024192.0,0.6624023914337158,0.3527923822402954,9.74032211303711,-0.7387061715126038,0.11900945752859116,-0.33567044,0.16676621,223.63678,-74.44041,15.332921,JOG
56395059691520.0,0.6673997640609741,0.3571002185344696,9.736568450927734,-0.749972403049469,0.12338899821043015,-0.35185838,0.13011430000000002,223.55289,-74.47708,15.307284,JOG
56399782477824.0,0.6723973155021667,0.3596183955669403,9.735304832458496,-0.7603235244750977,0.12780866026878357,-0.4089743,0.1020145,223.49231,-74.518524,15.277739000000002,JOG
56404282966016.0,0.6773958206176758,0.35969939827919006,9.736623764038086,-0.7696065306663513,0.132261261343956,-0.51159966,0.032070424,223.45155,-74.58012,15.22695,JOG
56408569544704.0,0.6823943257331848,0.35697388648986816,9.740118980407715,-0.7777350544929504,0.1368435025215149,-0.5665775,0.0012217305,223.37428,-74.67873399999998,15.136245,JOG
56412654796800.0,0.6873927712440491,0.351081520318985,9.745413780212402,-0.7846248745918274,0.14152199029922485,-0.6771441,-0.042760565999999986,223.31224,-74.851135,14.967338,JOG
56416547110912.0,0.6923913359642029,0.3419484794139862,9.751866340637207,-0.7902693748474121,0.1463402509689331,-0.79809546,-0.08155051,223.27045,-75.029945,14.79535,JOG
56420254875648.0,0.697390079498291,0.3295481503009796,9.758868217468262,-0.7946744561195374,0.15128831565380096,-0.9306532,-0.10415252,223.26527,-75.21177,14.620556,JOG
56423786479616.0,0.7023888230323792,0.31410637497901917,9.765804290771484,-0.7979879379272461,0.15639416873455048,-1.0519098999999998,-0.13683382,223.2592,-75.450005,14.388001999999998,JOG
56427150311424.0,0.7073875069618225,0.295866996049881,9.772109031677246,-0.8003650307655334,0.16159659624099731,-1.1753048,-0.15943582,223.29277,-75.68559,14.158259,JOG
56430354759680.0,0.7123863101005554,0.2751864790916443,9.777287483215332,-0.8020157814025879,0.1668204814195633,-1.3100005,-0.18784106,223.35599,-75.94586,13.903465,JOG
56433404018688.0,0.7173851132392883,0.2524319291114807,9.780919075012207,-0.803148627281189,0.17204701900482178,-1.4263704,-0.20769419,223.44919,-76.20492,13.650851,JOG
56436310671360.0,0.7223839163780212,0.22807078063488007,9.782821655273438,-0.8039764165878296,0.1772732436656952,-1.5381587,-0.23243423,223.57922,-76.47025,13.393051000000002,JOG
56439078912000.0,0.7273827195167542,0.2025587111711502,9.78288459777832,-0.8046965599060059,0.182499960064888,-1.6490307,-0.2611449,223.74121,-76.73711999999998,13.134316,JOG
56441712934912.0,0.7323815822601318,0.17647473514080048,9.781184196472168,-0.8054658770561218,0.187717467546463,-1.7519615000000002,-0.2761111,223.94377000000003,-76.99446999999998,12.887546,JOG
56444221128704.0,0.7373804450035095,0.1504097580909729,9.77786636352539,-0.8064156770706177,0.19291017949581146,-1.8350391,-0.29657507,224.17009,-77.25663,12.636064,JOG
56446611881984.0,0.7423794269561768,0.12491971254348755,9.773232460021973,-0.8076758980751038,0.19805289804935455,-1.9126191000000003,-0.31764993,224.44176,-77.50033,12.40531,JOG
56448889389056.0,0.7473787665367126,0.10051305592060089,9.767614364624023,-0.8093672394752502,0.20318132638931274,-1.9614882,-0.33322698,224.72533,-77.744156,12.174403,JOG
56451057844224.0,0.7523780465126038,0.07766171544790268,9.761305809020996,-0.8115504384040833,0.20829971134662628,-2.0042489,-0.34391713,225.05176,-77.95805,11.974348,JOG
56453121441792.0,0.7573773264884949,0.056822456419467926,9.754575729370117,-0.814258337020874,0.21341799199581146,-2.0250182,-0.36835176,225.38147,-78.17612,11.769292,JOG
56455088570368.0,0.7623767256736755,0.03846383094787598,9.747613906860352,-0.8175258040428162,0.21854594349861145,-2.0292943,-0.37904188,225.73396,-78.35484,11.603834,JOG
56456959229952.0,0.7673760652542114,0.023040935397148132,9.740535736083984,-0.8213859796524048,0.22367317974567413,-2.0299053,-0.38820487,226.0865,-78.5354,11.434678,JOG
56458741809152.0,0.7723754048347473,0.010873251594603062,9.733448028564453,-0.8262485265731812,0.22876353561878204,-2.0216584,-0.38728857,226.45018,-78.67039,11.309784,JOG
56460440502272.0,0.7773768901824951,0.002263586735352874,9.726458549499512,-0.8328036069869995,0.23378817737102509,-1.9874501,-0.38453966,226.80139,-78.803246,11.184849,JOG
56462055309312.0,0.7823781371116638,-0.0027254156302660704,9.719708442687988,-0.8411957621574402,0.23875178396701813,-1.9364429,-0.36987892,227.16394,-78.88559000000002,11.108811,JOG
56463594618880.0,0.7873790860176086,-0.004018233623355627,9.713410377502441,-0.8513562083244324,0.2436491847038269,-1.8637499,-0.3549127,227.50528,-78.96333,11.034896,JOG
56465058430976.0,0.7923799753189087,-0.0017131163040176034,9.70781135559082,-0.8634104132652283,0.24848896265029907,-1.790446,-0.33108896,227.88475,-101.009766,11.009752,JOG
56466450939904.0,0.7973808646202087,0.003985656425356865,9.703166007995605,-0.8775867819786072,0.2532789707183838,-1.7214183,-0.31184670000000003,228.23926,-100.989815,10.987511,JOG
56467776339968.0,0.8023815751075745,0.012802548706531525,9.69991683959961,-0.893731951713562,0.25800207257270813,-1.6636915,-0.2706133,228.59035,-101.01638,11.007717,JOG
56469038825472.0,0.8073821663856506,0.024426095187664032,9.698619842529297,-0.9114599227905273,0.2626630961894989,-1.6374242,-0.22113322,228.92616,-101.05389,11.034941,JOG
56470242590720.0,0.8123828172683716,0.03856634721159935,9.699594497680664,-0.9301788806915283,0.26725611090660095,-1.6337591,-0.17195857,229.28528,-101.11399,11.078309,JOG
56471387635712.0,0.817383348941803,0.05495045706629753,9.70283031463623,-0.9489942193031311,0.271750807762146,-1.6609426,-0.12003502,229.64157000000003,-101.19172,11.134716,JOG
56472478154752.0,0.8223837614059448,0.07340975105762482,9.708220481872559,-0.9671784043312073,0.2761429250240326,-1.7058412,-0.05589417,229.983,-101.281845,11.20072,JOG
56473518342144.0,0.8273841738700867,0.0938752219080925,9.71556568145752,-0.9841623902320862,0.2803889513015747,-1.7776178,0.00580322,230.33647,-101.38642,11.278151,JOG
56474508197888.0,0.8323845267295837,0.11633715033531189,9.724631309509277,-0.9995238184928894,0.2844286859035492,-1.8454239,0.06169739,230.67015,-101.50101,11.370738,JOG
56475447721984.0,0.8373847603797913,0.1408703476190567,9.735129356384277,-1.012986421585083,0.2882443070411682,-1.9306396,0.11575896,231.02644,-101.63142,11.4769945,JOG
56476341108736.0,0.842384934425354,0.16754335165023804,9.746715545654297,-1.0244451761245728,0.29175713658332825,-2.0033326,0.16462818,231.37677,-101.78331,11.612941,JOG
56477192552448.0,0.847387969493866,0.19649392366409302,9.75892162322998,-1.033962607383728,0.2948897182941437,-2.058616,0.20586158,231.7432,-101.94502,11.758104,JOG
56478006247424.0,0.852390468120575,0.22769695520401,9.771427154541016,-1.0417402982711792,0.2975771725177765,-2.0900755,0.22602014,232.11148,-102.137985,11.941318,JOG
56478777999360.0,0.8573926091194153,0.26122283935546875,9.783864974975586,-1.0480936765670776,0.299751341342926,-2.1071796000000003,0.2321288,232.48752,-102.33275,12.127386,JOG
56479512002560.0,0.8623944520950317,0.2970745265483856,9.795856475830078,-1.0532833337783813,0.30136042833328247,-2.1056526,0.23426682,232.87839,-102.55866,12.346921,JOG
56480212451328.0,0.8673959970474243,0.33513912558555603,9.806954383850098,-1.0574918985366821,0.3022884726524353,-2.1025982000000005,0.21838433,233.26877,-102.77356,12.557783,JOG
56480879345664.0,0.8723971843719482,0.375259667634964,9.816755294799805,-1.0608950853347778,0.30255749821662903,-2.0842721,0.20066923,233.6734,-103.02347,12.800782,JOG
56481512685568.0,0.8773983120918274,0.41707444190979004,9.824862480163574,-1.0636978149414062,0.3021726608276367,-2.0476203,0.1685988,234.06647,-103.25665,13.029829,JOG
56482116665344.0,0.8823990225791931,0.46025550365448,9.830941200256348,-1.0660814046859741,0.30113956332206726,-2.0045543,0.11148291,234.47305,-103.501465,13.269428,JOG
56482691284992.0,0.8873995542526245,0.5045041441917419,9.83468246459961,-1.0682132244110107,0.2994624674320221,-1.9599612,0.06261369,234.86317000000003,-103.733604,13.497148,JOG
56483236544512.0,0.8924000263214111,0.5495113134384155,9.835878372192383,-1.0701861381530762,0.29716959595680237,-1.9000963,0.027794369,235.24625,-103.949974,13.709445,JOG
56483756638208.0,0.8974008560180664,0.5948345065116882,9.834595680236816,-1.071844458580017,0.2943573296070099,-1.8249599,-0.0009162979,235.60623,-104.1503,13.905545000000002,JOG
56484251566080.0,0.9024017453193665,0.6401056051254272,9.830941200256348,-1.0729694366455078,0.2911170721054077,-1.7559321,-0.027183503,235.98035,-104.352425,14.099401,JOG
56484725522432.0,0.9074023962020874,0.6850706934928894,9.82514476776123,-1.0729986429214478,0.2875882685184479,-1.6823229,-0.05100725,236.32611,-104.54534,14.282886499999998,JOG
56485174312960.0,0.9124029874801636,0.729534387588501,9.817464828491211,-1.0713993310928345,0.2839045822620392,-1.6542231,-0.052839845,236.65079,-104.718544,14.447537,JOG
56485602131968.0,0.9174038171768188,0.7735477089881897,9.808438301086426,-1.0675791501998901,0.2802070677280426,-1.6417004000000002,-0.062308256,236.95422,-104.88231,14.600918,JOG
56486008979456.0,0.9224044680595398,0.8171747326850891,9.798564910888672,-1.0610772371292114,0.27654579281806946,-1.6358972,-0.048258353,237.22926,-105.0427,14.760557,JOG
56486394855424.0,0.927405059337616,0.8606308698654175,9.788501739501953,-1.0516345500946045,0.27298209071159363,-1.6575828999999995,-0.034513887,237.50494,-105.19995,14.913759,JOG
56486763954176.0,0.9324054718017578,0.9040947556495667,9.778838157653809,-1.0390287637710571,0.269571453332901,-1.6649131999999998,-0.009468411,237.73111,-105.36898,15.090635999999998,JOG
56487116275712.0,0.9374056458473206,0.9476881623268127,9.77013111114502,-1.0230422019958496,0.26636838912963867,-1.6789632,0.029626964,237.9628,-105.54319,15.270314,JOG
56487451820032.0,0.9424058198928833,0.9915232062339783,9.762883186340332,-1.0034816265106201,0.26346805691719055,-1.679574,0.08032878,238.1691,-105.74823,15.488108,JOG
56487770587136.0,0.947405993938446,1.0357706546783447,9.757665634155273,-0.9799907803535461,0.26098260283470154,-1.6832392,0.13561209,238.3778,-105.96165,15.711132,JOG
56488072577024.0,0.9524062871932983,1.0806043148040771,9.755024909973145,-0.9522027373313904,0.2589419484138489,-1.6811012,0.19120082,238.58261,-106.18439,15.941814,JOG
56488361984000.0,0.9574064016342163,1.1261523962020874,9.755170822143555,-0.9199166297912598,0.2574150860309601,-1.6823229,0.2415972,238.75659,-106.441765,16.214779999999998,JOG
56488634613760.0,0.9624064564704895,1.1725330352783203,9.758259773254395,-0.8829609155654907,0.2563764452934265,-1.6792686,0.30115658,238.92685,-106.70882,16.49599,JOG
56488894660608.0,0.9674065709114075,1.219925880432129,9.764314651489258,-0.8415099382400513,0.2557141184806824,-1.6762142,0.32620203,239.02185,-107.00029,16.811998000000006,JOG
56489142124544.0,0.9724066257476807,1.2685227394104004,9.773287773132324,-0.7959012985229492,0.255349338054657,-1.6560557,0.39003745,239.11227,-107.309525,17.14215,JOG
56489377005568.0,0.9774069786071777,1.3185118436813354,9.78512954711914,-0.7464559674263,0.2551186680793762,-1.6230688999999998,0.45081854,239.1884,-107.661766,17.524773,JOG
56489603497984.0,0.9824073910713196,1.3702304363250732,9.799627304077148,-0.6937655210494995,0.25478851795196533,-1.5980235,0.5216789000000001,239.26105,-108.018654,17.908388000000006,JOG
56489817407488.0,0.9874087572097778,1.424027442932129,9.816564559936523,-0.6383760571479797,0.25413158535957336,-1.5650368,0.5888741,239.31842000000003,-108.432396,18.349573,JOG
56490022928384.0,0.9924099445343018,1.4801210165023804,9.835392951965332,-0.5808030962944031,0.2529086470603943,-1.5274686000000002,0.6579019,239.3676,-108.84608,18.787111,JOG
56490215866368.0,0.9974111914634705,1.5387418270111084,9.855476379394531,-0.5215165019035339,0.2509416341781616,-1.5100589,0.7254025,239.44028,-109.316376,19.277163,JOG
56490400415744.0,1.0024120807647705,1.599904179573059,9.8750638961792,-0.4608762562274933,0.24809123575687408,-1.4840971,0.79809546,239.49942,-109.78489,19.7616,JOG
56490576576512.0,1.0074126720428467,1.6635453701019287,9.892623901367188,-0.3991861343383789,0.24422037601470947,-1.4541647,0.86254174,239.59021,-110.31153,20.29998,JOG
56490744348672.0,1.0124132633209229,1.7291295528411865,9.907241821289062,-0.33658361434936523,0.23922818899154663,-1.4251486,0.9193522,239.67255,-110.831345,20.827364000000006,JOG
56490903732224.0,1.01741361618042,1.796174168586731,9.91813850402832,-0.2731989324092865,0.23304393887519836,-1.3991868,0.9776898,239.80807,-111.39796,21.397474,JOG
56491054727168.0,1.022413730621338,1.8643765449523926,9.92440128326416,-0.20922662317752838,0.22558939456939697,-1.3674219,1.0259482,239.92914,-68.04605,21.953568,JOG
56491201527808.0,1.0274137258529663,1.9334797859191895,9.925188064575195,-0.14485229551792145,0.2167937010526657,-1.3213016000000002,1.067487,240.0346,-67.49773,22.498526,JOG
56491339939840.0,1.0324134826660156,2.0032505989074707,9.91977596282959,-0.08024415373802185,0.20661364495754242,-1.2709051000000002,1.103528,240.15332,-66.93966999999999,23.049578,JOG
56491469963264.0,1.0374135971069336,2.0734832286834717,9.90749454498291,-0.015558102168142796,0.1950526088476181,-1.2131784,1.1462886,240.29128,-66.38714,23.591509,JOG
56491595792384.0,1.042413592338562,2.14401912689209,9.888039588928223,0.04898872971534729,0.18216179311275482,-1.1508701,1.1835514,240.40526,-65.84536,24.118979,JOG
56491717427200.0,1.0474146604537964,2.214716672897339,9.861051559448242,0.11319363117218018,0.16799171268939972,-1.0833695,1.2244794,240.57065,-65.30815,24.640312,JOG
56491830673408.0,1.052415370941162,2.2852914333343506,9.82658863067627,0.17678752541542053,0.1526433378458023,-1.0024298,1.2541064,240.70447,-64.77545,25.154018,JOG
56491939725312.0,1.0574159622192383,2.355482578277588,9.784642219543457,0.23951858282089233,0.1362902969121933,-0.8927795000000001,1.2873985,240.84457,-64.24155,25.667643,JOG
56492044582912.0,1.062416434288025,2.424875259399414,9.735480308532715,0.3009626269340515,0.11910929530858994,-0.8350528,1.3222178,240.96844,-63.707405,26.179098,JOG
56492141051904.0,1.0674165487289429,2.4930408000946045,9.679462432861328,0.3606785833835602,0.10126104950904846,-0.68661255,1.3402383,241.02238,-63.17805,26.68162,JOG
56492233326592.0,1.0724164247512817,2.559591770172119,9.617593765258789,0.41848963499069214,0.08293313533067703,-0.5103779,1.3741413,241.07709,-62.630157,27.202253,JOG
56492321406976.0,1.077416181564331,2.6241838932037354,9.550912857055664,0.4742811620235443,0.0642811581492424,-0.30085114,1.4095715,241.06752000000003,-62.0854,27.715405,JOG
56492405293056.0,1.0824156999588013,2.6868395805358887,9.481108665466309,0.5280284881591797,0.04550013691186905,-0.03940081,1.4581354,240.99652000000003,-61.535233,28.232744,JOG
56492489179136.0,1.087415099143982,2.7476541996002197,9.409859657287598,0.579730749130249,0.026708852499723434,0.2846632,1.5045611,240.83249,-60.985096,28.743048,JOG
56492568870912.0,1.0924144983291626,2.807084560394287,9.339231491088867,0.6293109059333801,0.007968678139150143,0.68477994,1.5570955,240.57248,-60.43363000000001,29.245365000000003,JOG
56492644368384.0,1.0974138975143433,2.865806818008423,9.27145004272461,0.676647961139679,-0.010797379538416862,1.1517864,1.5916093999999998,240.18149,-59.88569,29.730568,JOG
56492715671552.0,1.1024154424667358,2.924853801727295,9.208894729614258,0.7222166657447815,-0.029771892353892326,1.7092009999999995,1.6346754,239.63303,-59.33163,30.200466,JOG
56492782780416.0,1.1074166297912598,2.9849417209625244,9.153046607971191,0.7665191888809204,-0.049359917640686035,2.3063216,1.6575828999999995,238.92085,-58.787037,30.632647,JOG
56492845694976.0,1.1124175786972046,3.046847105026245,9.105595588684082,0.8102874755859375,-0.07028708606958389,2.8722885,1.6496416,238.0607,-58.248856,31.021374,JOG
56492908609536.0,1.1174182891845703,3.111201047897339,9.068000793457031,0.8543310165405273,-0.09353651851415634,3.412904,1.5964963,237.02458,-57.71823000000001,31.3486,JOG
56492967329792.0,1.1224186420440674,3.178036689758301,9.041119575500488,0.8997494578361511,-0.12003219127655029,3.8557813,1.4633276000000002,235.8399,-57.202175,31.58857,JOG
56493021855744.0,1.127418875694275,3.2471306324005127,9.025496482849121,0.9477064609527588,-0.1502668410539627,4.227493,1.2812898,234.52878,-56.703297,31.735674,JOG
56493076381696.0,1.1324188709259033,3.3175528049468994,9.020819664001465,0.9971367716789246,-0.1842828392982483,4.543921,1.0345002,233.10318,-56.233864,31.75057,JOG
56493126713344.0,1.1374186277389526,3.3879923820495605,9.02629566192627,1.045719027519226,-0.22181420028209686,4.8597383,0.700357,231.61404,-55.817688,31.622494,JOG
56493177044992.0,1.1424182653427124,3.4567816257476807,9.040080070495605,1.0898702144622803,-0.26212072372436523,5.3524013,0.23090707,229.96646,-55.4937,31.265175,JOG
56493223182336.0,1.1474179029464722,3.5221452713012695,9.059828758239746,1.12550950050354,-0.30416417121887207,5.995337,-0.31581733,228.27008,-55.26911,30.717007,JOG
56493265125376.0,1.1524173021316528,3.582763195037842,9.083711624145508,1.149240255355835,-0.34682953357696533,6.680728,-0.8539896,226.55443,-55.18165,29.996073,JOG
56493307068416.0,1.157416582107544,3.6377921104431152,9.110450744628906,1.158257007598877,-0.38904106616973877,6.989215,-1.278541,224.87149,-55.213734,29.110744,JOG
56493349011456.0,1.162415862083435,3.6876020431518555,9.139934539794922,1.1532458066940308,-0.4297969341278076,7.447364,-1.42973,223.1229,-55.381847,28.158482,JOG
56493386760192.0,1.1674150228500366,3.733677387237549,9.173115730285645,1.1381088495254517,-0.46872034668922424,7.517307799999998,-1.6206254999999998,221.50487,-55.664837,27.079031,JOG
56493424508928.0,1.17241632938385,3.777636766433716,9.211702346801758,1.118395209312439,-0.505394697189331,6.8126745,-1.6502525,220.11649,-56.053192,26.104622,JOG
56493458063360.0,1.1774173974990845,3.8206310272216797,9.25695514678955,1.0987118482589722,-0.5398545861244202,6.436687,-1.6279559,218.65685,-56.46325,25.049088,JOG
56493491617792.0,1.1824182271957397,3.862419366836548,9.311468124389648,1.0835974216461182,-0.5724435448646545,5.5261927,-1.575116,217.52745,-56.821045,24.109959,JOG
56493525172224.0,1.1874186992645264,3.9014036655426025,9.378592491149902,1.0767700672149658,-0.6039146184921265,4.539645,-1.4538593,216.53853,-57.121685,23.252739,JOG
56493558726656.0,1.1924190521240234,3.9340603351593018,9.460029602050781,1.080320954322815,-0.6351088881492615,3.7067304,-1.2492194,215.66734,-57.243576,22.447226,JOG
56493588086784.0,1.19741952419281,3.9555587768554688,9.556208610534668,1.0950812101364136,-0.666789710521698,3.0708196,-1.1004738,215.03229,-57.288918,21.760542,JOG
56493617446912.0,1.2024198770523071,3.9611732959747314,9.666910171508789,1.121049165725708,-0.6992538571357727,2.6740627,-1.0442741,214.41985,-57.29539000000001,20.951618,JOG
56493646807040.0,1.207419991493225,3.9461638927459717,9.79138469696045,1.1575170755386353,-0.7322333455085754,2.5103507,-1.0051788,213.92415,-57.236880000000006,20.24078,JOG
56493671972864.0,1.2124199867248535,3.906149387359619,9.928695678710938,1.2039220333099365,-0.7649320960044861,2.3994787,-0.88178396,213.35245,-57.2559,19.279892,JOG
56493697138688.0,1.2174197435379028,3.8372881412506104,10.07766056060791,1.2598304748535156,-0.7962246537208557,2.2547035,-0.79259765,212.85695,-57.288662,18.372053,JOG
56493722304512.0,1.222419261932373,3.737819194793701,10.237068176269531,1.3247483968734741,-0.8249257802963257,2.0460932,-0.65484756,212.27142,-57.453274,17.217029999999998,JOG
56493747470336.0,1.2274187803268433,3.6082427501678467,10.405652046203613,1.3981103897094727,-0.8501254916191101,1.7950275000000002,-0.42302418,211.73018,-57.63126800000001,16.170568,JOG
56493768441856.0,1.2324180603027344,3.4509124755859375,10.581576347351074,1.478790283203125,-0.8713200092315674,1.564426,-0.23182335,211.09854,-57.91082,14.890834,JOG
56493789413376.0,1.237417221069336,3.270455837249756,10.762250900268555,1.5649503469467163,-0.8885107040405273,1.3665055,-0.15424347,210.52838,-58.18688,13.720325,JOG
56493810384896.0,1.2424170970916748,3.0719785690307617,10.944976806640625,1.6546742916107178,-0.9019956588745117,1.2067643,-0.064446285,209.92867,-58.45465,12.535056,JOG
56493831356416.0,1.2474170923233032,2.860710620880127,11.127218246459961,1.7461426258087158,-0.912183403968811,1.0323622,0.009468411,209.3952,-58.695644,11.445874,JOG
56493848133632.0,1.252416968345642,2.641543388366699,11.306486129760742,1.8376681804656982,-0.9194409251213074,0.8332202,0.0693332,208.93756,-58.89394,10.50858,JOG
56493864910848.0,1.2574167251586914,2.4189648628234863,11.4803466796875,1.927733063697815,-0.9239960312843323,0.72356987,0.124005646,208.50333,-59.065964,9.632539,JOG
56493881688064.0,1.2624163627624512,2.1969058513641357,11.646464347839355,2.0148723125457764,-0.9260424971580505,0.46944994,0.14905111,208.21245,-59.205757,8.976147000000003,JOG
56493898465280.0,1.2674158811569214,1.9785524606704712,11.802471160888672,2.0975842475891113,-0.9256030917167664,0.2098322,0.20922135,207.94235,-59.347042,8.374103999999999,JOG
56493915242496.0,1.272415041923523,1.7666898965835571,11.946331024169922,2.174447774887085,-0.9225266575813293,-0.005497787,0.27855456,207.7775,-59.49283000000001,7.970231,JOG
56493932019712.0,1.2774142026901245,1.5636168718338013,12.07642936706543,2.2438507080078125,-0.9165507555007935,-0.17287487,0.3491095,207.65814,-59.665653000000006,7.6168547,JOG
56493948796928.0,1.2824159860610962,1.3721697330474854,12.190014839172363,2.303880214691162,-0.9073764085769653,-0.25289822,0.39828414,207.61067,-59.875374,7.430332000000001,JOG
56493961379840.0,1.2874174118041992,1.1943475008010864,12.28469181060791,2.353463888168335,-0.8947551250457764,-0.31490102,0.43218717,207.59264,-60.131462,7.2780520000000015,JOG
56493973962752.0,1.2924185991287231,1.0325807332992554,12.357402801513672,2.391193389892578,-0.8786570429801941,-0.364992,0.44715336,207.63783,-60.44753299999999,7.265480499999999,JOG
56493986545664.0,1.297419548034668,0.8867527842521667,12.406694412231445,2.4180312156677246,-0.8592075109481812,-0.4465425,0.46028697,207.70192,-60.803837,7.2708697,JOG
56493999128576.0,1.302420973777771,0.756442129611969,12.431391716003418,2.4351627826690674,-0.8366663455963135,-0.5564981999999999,0.4352415,207.78891,-61.18612,7.277953599999999,JOG
56494011711488.0,1.3074220418930054,0.6411551833152771,12.430813789367676,2.443666458129883,-0.8114538192749023,-0.68111473,0.38789943,207.9735,-61.55646,7.505758,JOG
56494024294400.0,1.3124239444732666,0.54051274061203,12.403974533081055,2.4445505142211914,-0.784135639667511,-0.80664754,0.3304781,208.19238,-61.92106999999999,7.736594999999999,JOG
56494036877312.0,1.3174253702163696,0.45292049646377563,12.350953102111816,2.4391977787017822,-0.7553955316543579,-1.0094548,0.24129178,208.47472,-62.26735,7.970510000000001,JOG
56494049460224.0,1.322426438331604,0.37670785188674927,12.271702766418457,2.428995370864868,-0.7259016036987305,-1.2589933,0.110872045,208.81519,-62.59185400000001,8.197755,JOG
56494062043136.0,1.3274272680282593,0.30948129296302795,12.16689395904541,2.414694309234619,-0.696126401424408,-1.5308284,-0.021991149,209.1734,-62.62634300000001,8.565147999999999,JOG
56494074626048.0,1.332427740097046,0.249008908867836,12.037267684936523,2.3969364166259766,-0.6664212942123413,-1.7724255000000002,-0.17134771,209.60686,-62.635937,8.924466,JOG
56494083014656.0,1.3374279737472534,0.19357514381408691,11.884353637695312,2.3756654262542725,-0.6371037364006042,-1.9327776,-0.31245756,209.97247,-62.348534,9.330365,JOG
56494091403264.0,1.3424279689788818,0.14164167642593384,11.70964241027832,2.3507821559906006,-0.6084101796150208,-1.9984456,-0.44348818,210.39116,-62.06719200000001,9.720129,JOG
56494099791872.0,1.3474282026290894,0.09208323061466217,11.514898300170898,2.3221278190612793,-0.5805248022079468,-1.9520199,-0.5510005,210.90483,-62.09121700000001,9.865248,JOG
56494108180480.0,1.3524281978607178,0.04402552545070648,11.301941871643066,2.289577007293701,-0.5535765886306763,-1.8915442,-0.6404922,211.4453,-62.110573,9.988206,JOG
56494116569088.0,1.357427954673767,-0.0027219492476433516,11.072802543640137,2.2534549236297607,-0.5276228785514832,-1.7644843,-0.68203104,211.93567,-62.11668,10.028579,JOG
56494124957696.0,1.3624277114868164,-0.048243582248687744,10.829390525817871,2.2141263484954834,-0.50263512134552,-1.6404786,-0.74097955,212.42296,-62.12710600000001,10.034148,JOG
56494133346304.0,1.3674272298812866,-0.09260675311088562,10.57348346710205,2.1721765995025635,-0.4785146117210388,-1.5366315000000002,-0.7672467,212.87025,-62.13828,9.998091,JOG
56494141734912.0,1.3724265098571777,-0.1358736902475357,10.306709289550781,2.128187417984009,-0.4550863802433014,-1.4605788,-0.75747293,213.29308,-62.15752,9.943531,JOG
56494150123520.0,1.3774256706237793,-0.17802539467811584,10.030460357666016,2.083155632019043,-0.4321291446685791,-1.4523321000000002,-0.7296785,213.70473,-62.18366999999999,9.88018,JOG
56494158512128.0,1.3824248313903809,-0.21903249621391296,9.74599838256836,2.03806471824646,-0.40944498777389526,-1.4929546,-0.70005155,214.10558,-62.22049300000001,9.815752,JOG
56494166900736.0,1.3874245882034302,-0.2589204013347626,9.454477310180664,1.9939985275268555,-0.3868999481201172,-1.5961909,-0.67347896,214.50803,-62.2539,9.756765,JOG
56494175289344.0,1.39242422580719,-0.2977328598499298,9.156993865966797,1.9519301652908325,-0.3643632233142853,-1.724778,-0.6365215999999999,214.92055,-62.30196,9.715548,JOG
56494183677952.0,1.3974238634109497,-0.3353041708469391,8.854723930358887,1.912697672843933,-0.341743528842926,-1.8756617,-0.59864795,215.34082,-62.311604,9.685073,JOG
56494192066560.0,1.4024235010147095,-0.3714256286621094,8.548791885375977,1.8770277500152588,-0.3190356492996216,-2.0525072,-0.5439755000000001,215.7926,-62.32274,9.687244,JOG
56494200455168.0,1.4074229001998901,-0.405729204416275,8.241035461425781,1.8446046113967896,-0.2963062822818756,-2.2244658,-0.4886922,216.24866,-62.27694,9.701153,JOG
56494208843776.0,1.41242253780365,-0.4378136992454529,7.933396816253662,1.8148242235183716,-0.27369508147239685,-2.3857343,-0.41050145,216.73587,-62.21971,9.755721,JOG
56494217232384.0,1.4174220561981201,-0.4674660563468933,7.628413200378418,1.7861721515655518,-0.251481294631958,-2.5192082,-0.28588495,217.22656,-62.07961,9.857222,JOG
56494225620992.0,1.4224214553833008,-0.4945513606071472,7.328810691833496,1.7567667961120605,-0.23017601668834686,-2.6367998,-0.12217305,217.73692000000003,-61.89213,10.008032,JOG
56494234009600.0,1.427423119544983,-0.5202092528343201,7.037973880767822,1.725149393081665,-0.21028074622154236,-2.7198775,0.043676864,218.28381,-61.70340699999999,10.240205,JOG
56494242398208.0,1.432424545288086,-0.5455243587493896,6.758148670196533,1.690640926361084,-0.19206395745277405,-2.7324002,0.19028452,218.82031,-61.46706999999999,10.516856,JOG
56494250786816.0,1.4374256134033203,-0.570967972278595,6.492691993713379,1.652677297592163,-0.17588989436626434,-2.6313020000000003,0.31215215,219.39676,-61.305874,10.868318,JOG
56494259175424.0,1.4424264430999756,-0.596590518951416,6.245083808898926,1.6108813285827637,-0.1624366194009781,-2.468201,0.43218717,219.9388,-61.06126999999999,11.251655,JOG
56494263369728.0,1.4474272727966309,-0.6215791702270508,6.017970085144043,1.56611168384552,-0.15233448147773743,-2.3796256,0.659429,220.40273,-60.828133,11.660935,JOG
56494267564032.0,1.4524277448654175,-0.6447737216949463,5.813347816467285,1.5197622776031494,-0.14562883973121643,-2.3988678,0.8857546000000001,220.8326,-60.552883,12.093052,JOG
56494271758336.0,1.457427978515625,-0.6654067635536194,5.633506774902344,1.4732598066329956,-0.14221017062664032,-2.4914138,0.95905846,221.37807,-60.45769,12.460831,JOG
56494280146944.0,1.462428092956543,-0.6829814314842224,5.480809211730957,1.428000807762146,-0.14192675054073334,-2.658791,1.0012082,221.92325,-60.31304,12.887562,JOG
56494284341248.0,1.4674279689788818,-0.6995025873184204,5.358242034912109,1.3845195770263672,-0.14457815885543823,-2.9162707,0.93187493,222.54924,-60.188633,13.374528,JOG
56494288535552.0,1.4724276065826416,-0.7188667058944702,5.269296169281006,1.3426963090896606,-0.14923995733261108,-3.2656856,0.62125,223.2719,-60.143887,13.837331,JOG
56494292729856.0,1.4774270057678223,-0.7429632544517517,5.216512680053711,1.3018285036087036,-0.1546337604522705,-3.7201693,-0.12461651,224.17221,-60.24695,14.203874,JOG
56494296924160.0,1.4824262857437134,-0.7679752111434937,5.200316429138184,1.2592636346817017,-0.1595223844051361,-4.1719040000000005,-1.0528263,225.22758,-60.483265,14.475844,JOG
56494305312768.0,1.4874253273010254,-0.7886070013046265,5.220020771026611,1.2121858596801758,-0.16273945569992065,-4.454735,-1.6481144,226.40536,-61.2147,14.228857,JOG
56494309507072.0,1.4924243688583374,-0.7971968054771423,5.273677825927734,1.1572990417480469,-0.16336838901042938,-4.1092906000000005,-1.5378532,227.54895,-62.032543,13.911411,JOG
56494313701376.0,1.4974262714385986,-0.7890223860740662,5.358987808227539,1.093942642211914,-0.16062714159488678,-3.6569448,-1.2681563,228.98024,-63.13160300000001,13.7372055,JOG
56494317895680.0,1.5024276971817017,-0.7641448974609375,5.472840785980225,1.0239373445510864,-0.1539865881204605,-3.4648278,-1.2473868,230.37918,-64.27911,13.503989,JOG
56494322089984.0,1.507429599761963,-0.7221044301986694,5.612326622009277,0.9491775631904602,-0.14327503740787506,-3.1771102000000004,-1.2544118,231.90654,-65.38207,13.871525,JOG
56494330478592.0,1.512431263923645,-0.663128137588501,5.771231174468994,0.8709601759910583,-0.12857919931411743,-2.7467556,-1.2406673,233.29843,-66.44765500000001,14.155837,JOG
56494334672896.0,1.5174325704574585,-0.5875749588012695,5.943885326385498,0.7905704379081726,-0.11015984416007996,-2.2797492000000004,-1.1297953,234.573,-67.31316,14.540269,JOG
56494338867200.0,1.5224334001541138,-0.4964491128921509,6.125240802764893,0.7096279263496399,-0.08826214075088501,-1.858252,-0.9502009,235.69385,-68.11487,14.859006,JOG
56494343061504.0,1.52743399143219,-0.390811949968338,6.3107218742370605,0.6296332478523254,-0.06298992037773132,-1.4376713,-0.72082096,236.63873,-68.66881,15.308972,JOG
56494347255808.0,1.5324344635009766,-0.27264663577079773,6.496257305145264,0.5522052049636841,-0.03446056321263313,-1.0506883,-0.5039638,237.4346,-69.13896,15.732999,JOG
56494355644416.0,1.5374345779418945,-0.14390631020069122,6.678413391113281,0.4788395166397095,-0.0028856901917606592,-0.7993172,-0.36041048,238.08917,-69.330505,16.303131,JOG
56494359838720.0,1.542434573173523,-0.007464380003511906,6.855546474456787,0.41137978434562683,0.03138979151844978,-0.6985244,-0.29504790000000003,238.65384,-69.45546999999999,16.858429,JOG
56494364033024.0,1.547434687614441,0.13397841155529022,7.026261329650879,0.3515167534351349,0.0679180920124054,-0.7706065,-0.35796702,239.13716,-69.355774,17.500292,JOG
56494368227328.0,1.5524345636367798,0.27697011828422546,7.1905517578125,0.3009493947029114,0.10616917163133621,-0.9080511999999998,-0.46853364,239.60533,-69.2262,18.109285,JOG
56494372421632.0,1.557434320449829,0.4184027910232544,7.348570346832275,0.2611931264400482,0.14576804637908936,-1.3457361,-0.7910705,240.11198,-69.09779,18.60332,JOG
56494380810240.0,1.5624340772628784,0.5566444396972656,7.502227783203125,0.2326439768075943,0.1862533688545227,-1.921782,-1.1221595,240.70038,-68.981544,19.047548000000006,JOG
56494385004544.0,1.56743586063385,0.6901324391365051,7.653689384460449,0.21565115451812744,0.22728459537029266,-2.6755898,-1.4388931,241.35512000000003,-69.09164399999999,19.191502,JOG
56494389198848.0,1.5724372863769531,0.8188697695732117,7.806418418884277,0.20821234583854675,0.2687961161136627,-2.837469,-1.4724906999999998,241.99341,-69.20573,19.310888,JOG
56494393393152.0,1.5774387121200562,0.9429128170013428,7.964186191558838,0.20818960666656494,0.3107607662677765,-2.9507847000000003,-1.4511104,242.8016,-69.50304399999999,19.2157,JOG
56494397587456.0,1.58243989944458,1.063073992729187,8.129117965698242,0.21204940974712372,0.3535640239715576,-2.7415633,-1.3118331,243.54045,-69.78166,19.135319,JOG
56494405976064.0,1.5874412059783936,1.1801451444625854,8.303182601928711,0.21652530133724213,0.3979211747646332,-2.2989914,-1.0961976999999998,244.26843,-70.1755,18.957159,JOG
56494410170368.0,1.592442274093628,1.29499351978302,8.487106323242188,0.21944788098335266,0.44475340843200684,-1.7189748,-0.7819075,244.87006,-70.50216999999998,18.835758,JOG
56494414364672.0,1.5974429845809937,1.4084230661392212,8.681560516357422,0.21882879734039307,0.49482816457748413,-1.0528263,-0.47891834,245.40536,-70.82949,18.73036,JOG
56494418558976.0,1.6024435758590698,1.5204704999923706,8.882366180419922,0.21605080366134644,0.5485082268714905,-0.2932153,-0.27763826,245.72034,-71.07103000000002,18.66831,JOG
56494422753280.0,1.6074440479278564,1.6311051845550537,9.085344314575195,0.21264348924160004,0.605714738368988,0.37201694,-0.22052236,245.8507,-71.23267,18.640396,JOG
56494426947584.0,1.6124440431594849,1.740739107131958,9.287184715270996,0.21192815899848938,0.6661475300788879,0.8408559999999999,-0.27885997,245.88733,-71.33256,18.633617,JOG
56494435336192.0,1.617443561553955,1.8498412370681763,9.484926223754883,0.2173270881175995,0.7292031049728394,1.026559,-0.35185838,245.80267,-71.36452,18.635101,JOG
56494439530496.0,1.622442603111267,1.9580230712890625,9.676012992858887,0.23118355870246887,0.7939609289169312,0.9776898,-0.3643811,245.61754,-108.7168,18.701645000000006,JOG
56494443724800.0,1.6274412870407104,2.0648820400238037,9.85816478729248,0.255540132522583,0.8593196868896484,0.743423,-0.32009340000000003,245.43402000000003,-108.82882,18.763424,JOG
56494447919104.0,1.6324396133422852,2.1690776348114014,10.028996467590332,0.29017284512519836,0.9240919351577759,0.42241332,-0.258396,245.24298,-109.06151,18.943407,JOG
56494452113408.0,1.6374375820159912,2.2693426609039307,10.186362266540527,0.3347172439098358,0.9871639609336853,0.10934488,-0.20189096,245.12376,-109.3028,19.126837,JOG
56494460502016.0,1.6424353122711182,2.363779306411743,10.32796573638916,0.38754889369010925,1.0476429462432861,-0.0983493,-0.1255328,245.06197000000003,-109.664635,19.461920000000006,JOG
56494464696320.0,1.6474329233169556,2.4506542682647705,10.451778411865234,0.4470897614955902,1.104838490486145,-0.14691310000000002,-0.09040806,245.03818,-110.00377,19.783995,JOG
56494468890624.0,1.6524302959442139,2.5283010005950928,10.556085586547852,0.5111666917800903,1.158610463142395,-0.18173242,-0.040927973,245.09167,-110.40172,20.179813,JOG
56494473084928.0,1.6574276685714722,2.5951836109161377,10.639327049255371,0.5777199864387512,1.2086764574050903,-0.18692477,-0.013439035,245.13155,-110.770676,20.5594,JOG
56494477279232.0,1.6624252796173096,2.6500582695007324,10.700775146484375,0.6442307233810425,1.2549777030944824,-0.13347405,-0.03390302,245.14597,-111.08008999999998,20.874592,JOG
56494485667840.0,1.667422890663147,2.6919116973876953,10.739981651306152,0.708411455154419,1.2975815534591675,0.004276057,-0.095294975,245.12027,-111.36718,21.173502,JOG
56494489862144.0,1.6724209785461426,2.7201344966888428,10.757955551147461,0.7683295011520386,1.3365987539291382,0.1518,-0.18295415,245.06274,-111.53025,21.335339,JOG
56494494056448.0,1.6774190664291382,2.7344000339508057,10.75600528717041,0.8224278688430786,1.3721240758895874,0.2593123,-0.24648413,244.96835,-111.67495,21.483751,JOG
56494498250752.0,1.6824171543121338,2.7347490787506104,10.735997200012207,0.87022465467453,1.404215931892395,0.36468655,-0.29535335,244.81906,-111.64463,21.43376,JOG
56494502445056.0,1.6874152421951294,2.721338987350464,10.699820518493652,0.9115403294563293,1.432879090309143,0.4654793,-0.32498032,244.6382,-111.59969,21.373999,JOG
56494506639360.0,1.6924134492874146,2.6946325302124023,10.649237632751465,0.9476178884506226,1.4580599069595337,0.5403103,-0.34116822,244.46454,-111.45006,21.191864,JOG
56494515027968.0,1.6974118947982788,2.655142307281494,10.5858736038208,0.9799209237098694,1.479704737663269,0.5824600000000001,-0.36560285,244.27055,-111.2867,20.999811,JOG
56494519222272.0,1.702410340309143,2.60416579246521,10.51094913482666,1.0105562210083008,1.4977779388427734,0.59620446,-0.4016439000000001,244.07574,-111.05752,20.738203,JOG
56494523416576.0,1.7074087858200073,2.5431621074676514,10.425495147705078,1.0417208671569824,1.5121876001358032,0.5186246,-0.4560109000000001,243.89618,-110.80908,20.461962,JOG
56494527610880.0,1.7124075889587402,2.4746577739715576,10.330439567565918,1.0743809938430786,1.5228469371795654,0.38820487,-0.5296202,243.6856,-110.48852,20.129814,JOG
56494531805184.0,1.7174063920974731,2.401275634765625,10.22665023803711,1.1090115308761597,1.529571771621704,0.19975294,-0.5748241999999999,243.51663,-110.148865,19.78586,JOG
56494540193792.0,1.722405195236206,2.3258371353149414,10.114770889282227,1.1450713872909546,1.5320467948913574,0.041233405,-0.56688297,243.3096,-109.80561000000002,19.476309,JOG
56494544388096.0,1.727403998374939,2.251267433166504,9.995260238647461,1.1811937093734741,1.5299346446990967,-0.06688975,-0.5329799,243.14339,-109.44631,19.158386,JOG
56494548582400.0,1.7324028015136719,2.1800167560577393,9.868559837341309,1.2165042161941528,1.5230085849761963,-0.110872045,-0.45142943,243.00787000000003,-109.26333,19.043686,JOG
56494552776704.0,1.7374016046524048,2.114142656326294,9.735092163085938,1.250481367111206,1.5111135244369507,-0.16310102,-0.35185838,242.89964,-109.09132,18.939425,JOG
56494556971008.0,1.7424004077911377,2.055222511291504,9.595479965209961,1.2829898595809937,1.4941309690475464,-0.2321288,-0.22052236,242.86339,-109.17963,19.089733,JOG
56494565359616.0,1.7473995685577393,2.004502296447754,9.45045280456543,1.3141450881958008,1.4720956087112427,-0.27458394,-0.05100725,242.82199,-109.30538,19.263998,JOG
56494569553920.0,1.7523987293243408,1.9624414443969727,9.300627708435059,1.3443775177001953,1.445108413696289,-0.28680122,0.03970624,242.78265,-109.371376,19.35499,JOG
56494573748224.0,1.7573977708816528,1.9290659427642822,9.146519660949707,1.3743109703063965,1.4135854244232178,-0.29810223,0.21777347,242.7544,-109.52005,19.517548,JOG
56494577942528.0,1.7623969316482544,1.903648018836975,8.988603591918945,1.4042314291000366,1.3777172565460205,-0.30940324,0.3744604,242.73639,-70.264465,19.734564,JOG
56494582136832.0,1.767396092414856,1.8850136995315552,8.827329635620117,1.4341996908187866,1.3377059698104858,-0.31734450000000003,0.47800204,242.71928,-69.99943,19.987694,JOG
56494590525440.0,1.7723952531814575,1.8717114925384521,8.663204193115234,1.4636828899383545,1.2937811613082886,-0.29016098,0.5222898,242.67458,-69.662056,20.296255,JOG
56494594719744.0,1.7773945331573486,1.8620785474777222,8.496770858764648,1.4916777610778809,1.2461482286453247,-0.22204952,0.50671273,242.61761,-69.29329,20.617174,JOG
56494598914048.0,1.7823938131332397,1.854620337486267,8.32862663269043,1.5165210962295532,1.1950703859329224,-0.12064589,0.47769663,242.53014,-68.91368,20.927038,JOG
56494603108352.0,1.7873950004577637,1.8478147983551025,8.159394264221191,1.5356788635253906,1.1407967805862427,-0.027794369,0.4184427,242.42278,-68.52478,21.222168,JOG
56494607302656.0,1.792396068572998,1.840970754623413,7.990257263183594,1.5471874475479126,1.0835424661636353,0.036651913,0.36193767,242.32312,-68.171104,21.46665,JOG
56494615691264.0,1.7973971366882324,1.8336281776428223,7.822813987731934,1.5486387014389038,1.0233577489852905,0.092240654,0.3109304,242.19681,-67.80861999999999,21.692276,JOG
56494619885568.0,1.8023979663848877,1.8253101110458374,7.658998489379883,1.5384334325790405,0.9602126479148865,0.16554448,0.25992316,242.11557,-67.48807,21.886307,JOG
56494624079872.0,1.8073985576629639,1.8154995441436768,7.501125812530518,1.5155977010726929,0.8940523266792297,0.32162055,0.21563543,241.99112,-67.16294,22.058096,JOG
56494628274176.0,1.81239914894104,1.8037419319152832,7.35187292098999,1.4795948266983032,0.8248544335365295,0.7098253999999999,0.18203785,241.89581,-66.89463,22.207397,JOG
56494632468480.0,1.817399501800537,1.7896546125411987,7.214174747467041,1.430328369140625,0.7526544332504272,1.3426818,0.17531833,241.67767,-66.617195,22.332829,JOG
56494636662784.0,1.8223998546600342,1.7732762098312378,7.091355800628662,1.369338035583496,0.6774023771286011,2.0735822,0.18906279,241.46179,-66.43196,22.374956,JOG
56494645051392.0,1.8274000883102417,1.7551311254501343,6.987215995788574,1.30007004737854,0.598823606967926,2.586098,0.21380283,241.12056,-66.21882,22.399368,JOG
56494649245696.0,1.8324000835418701,1.7360868453979492,6.905521392822266,1.225845456123352,0.5163986086845398,2.6731462,0.23884831,240.77307,-66.094025,22.327993,JOG
56494653440000.0,1.837399959564209,1.717569351196289,6.850541114807129,1.1501117944717407,0.4296640157699585,2.3823745,0.20158553,240.38908,-65.94164,22.237743,JOG
56494657634304.0,1.8423997163772583,1.7003010511398315,6.824793815612793,1.0740875005722046,0.33836254477500916,2.196366,0.08552113,239.8628,-65.81602,21.990429,JOG
56494661828608.0,1.8473994731903076,1.684106707572937,6.828770637512207,0.9960288405418396,0.24284301698207855,1.9538525,-0.07727446,239.4527,-65.66714,21.733,JOG
56494670217216.0,1.852399230003357,1.6681584119796753,6.862126350402832,0.9148804545402527,0.14385248720645905,1.831374,-0.18203785,238.97333,-65.50146,21.35849,JOG
56494674411520.0,1.8574012517929077,1.6502504348754883,6.923640727996826,0.830390989780426,0.042431239038705826,1.6762142,-0.49205196,238.61002,-65.38509,20.903267,JOG
56494678605824.0,1.8624029159545898,1.6287487745285034,7.011375427246094,0.7433283925056458,-0.06004687398672104,1.557401,-0.5833763000000001,238.37564,-65.33725,20.470858,JOG
56494682800128.0,1.8674042224884033,1.6011205911636353,7.123208999633789,0.6562596559524536,-0.162972092628479,1.2327261,-0.7272350999999999,238.27272,-65.32419,19.978024,JOG
56494686994432.0,1.8724051713943481,1.5649908781051636,7.257076740264893,0.5713465809822083,-0.26563096046447754,0.82894415,-0.77854776,238.231,-65.43963000000001,19.398304,JOG
56494695383040.0,1.8774060010910034,1.517810583114624,7.41073751449585,0.4900414049625397,-0.36745941638946533,0.3359759,-0.7733554,238.31076,-65.53990999999999,18.847876,JOG
56494699577344.0,1.88240647315979,1.4576478004455566,7.582089424133301,0.41340211033821106,-0.4680219292640686,-0.043982297,-0.6444628000000001,238.33224,-65.64924,18.150656,JOG
56494703771648.0,1.8874067068099976,1.3841990232467651,7.769040107727051,0.34126269817352295,-0.5670878887176514,-0.11056661,-0.36132678,238.3901,-65.68354000000001,17.539877,JOG
56494707965952.0,1.892406940460205,1.2975059747695923,7.969637870788574,0.27347469329833984,-0.6644973754882812,-0.014049901000000002,-0.0018325958,238.36868,-65.69905,16.810137,JOG
56494712160256.0,1.8974072933197021,1.1984494924545288,8.182001113891602,0.20992186665534973,-0.7599738240242004,0.10323623,0.32986724,238.33969,-65.62748,16.184572,JOG
56494720548864.0,1.9024075269699097,1.088110327720642,8.404399871826172,0.15047331154346466,-0.8529425859451294,0.25228736,0.5992588000000001,238.21506,-65.5178,15.565965,JOG
56494724743168.0,1.907407522201538,0.9687361121177673,8.63521671295166,0.09494151920080185,-0.9425687789916992,0.4813618,0.8323039000000001,238.01016,-65.35493000000001,15.0343,JOG
56494728937472.0,1.912407398223877,0.843250572681427,8.872974395751953,0.043266166001558304,-1.0278741121292114,0.8717046999999999,1.0317514,237.68365,-65.1874,14.51921,JOG
56494733131776.0,1.9174071550369263,0.7172682285308838,9.116312980651855,-0.004213818348944187,-1.1080288887023926,1.352761,1.2281445,237.24988,-65.022125,14.053525,JOG
56494737326080.0,1.9224066734313965,0.5958561301231384,9.363995552062988,-0.04720228537917137,-1.1825729608535767,1.806634,1.4321736,236.72162000000003,-64.85476,13.665935500000002,JOG
56494745714688.0,1.9274072647094727,0.48075947165489197,9.611817359924316,-0.0849892720580101,-1.2514108419418335,2.1303926,1.6270396,236.08241,-64.70708499999999,13.306146,JOG
56494749908992.0,1.9324077367782593,0.37277814745903015,9.856064796447754,-0.11706485599279404,-1.3146363496780396,2.2128594,1.7321084,235.37881,-64.583496,12.967291,JOG
56494754103296.0,1.9374078512191772,0.2727046310901642,10.09316349029541,-0.1429082602262497,-1.372489094734192,1.9956968,1.7024814,234.7948,-64.375084,12.934614,JOG
56494758297600.0,1.9424078464508057,0.18123872578144073,10.319899559020996,-0.16206039488315582,-1.4252640008926392,1.8432859,1.5891659,234.17244,-64.18375400000001,12.892221,JOG
56494762491904.0,1.947407841682434,0.09899503737688065,10.533390998840332,-0.17411890625953674,-1.4732764959335327,1.7015651000000005,1.5250251,233.6136,-63.996037,12.882794,JOG
56494766686208.0,1.952407717704773,0.02646646276116371,10.731175422668457,-0.17876985669136047,-1.5167429447174072,1.9651535,1.3762794,233.01189,-63.852615,12.79316,JOG
56494775074816.0,1.9574074745178223,-0.03508651629090309,10.911324501037598,-0.17470170557498932,-1.5557459592819214,2.3768766,0.9621128,232.45447,-63.76785699999999,12.621014,JOG
56494779269120.0,1.962407112121582,-0.08435504138469696,11.072185516357422,-0.16050708293914795,-1.5900853872299194,2.6606236,0.34055737,231.90547,-63.769398,12.341306,JOG
56494783463424.0,1.9674065113067627,-0.12104886025190353,11.21571159362793,-0.13591335713863373,-1.6194074153900146,2.6972754,-0.060170225999999986,231.28172,-63.506298,12.195019,JOG
56494787657728.0,1.9724057912826538,-0.14536020159721375,11.345402717590332,-0.10117894411087036,-1.6434962749481201,2.6145031000000003,-0.0693332,230.6501,-63.321026,11.9694195,JOG
56494791852032.0,1.977405071258545,-0.15790072083473206,11.464422225952148,-0.057410046458244324,-1.662320613861084,2.5240953,0.009162978,230.06224,-62.989655000000006,11.840248,JOG
56494800240640.0,1.9824042320251465,-0.15954366326332092,11.575589179992676,-0.006211417261511087,-1.6760001182556152,2.4630086,0.10048734,229.49869,-62.709103000000006,11.715573,JOG
56494804434944.0,1.9874032735824585,-0.1517161726951599,11.680752754211426,0.05136089026927948,-1.684586524963379,2.4767532,0.22143865,228.96881,-62.451904000000006,11.669959,JOG
56494808629248.0,1.9924023151397705,-0.13614526391029358,11.781108856201172,0.11461840569972992,-1.6881413459777832,2.4706445,0.3811799,228.45178,-62.217438,11.662212,JOG
56494812823552.0,1.9974021911621094,-0.115003801882267,11.876581192016602,0.18322959542274475,-1.6867115497589111,2.4034493,0.571159,227.96005,-62.084286,11.694584,JOG
56494817017856.0,2.0024020671844482,-0.09040491282939911,11.966490745544434,0.256990522146225,-1.680304765701294,2.3154848,0.75441855,227.46193,-61.97828000000001,11.7648325,JOG
56494825406464.0,2.007401704788208,-0.06421178579330444,12.049696922302246,0.33547019958496094,-1.6689194440841675,2.1355848,0.9193522,226.95856,-61.928947,11.834631,JOG
56494829600768.0,2.0124013423919678,-0.038087766617536545,12.12496566772461,0.41817420721054077,-1.6526230573654175,1.8939877,1.056186,226.4808,-61.90077,11.958801,JOG
56494833795072.0,2.0174009799957275,-0.013561748899519444,12.190387725830078,0.5041479468345642,-1.6315670013427734,1.6282613,1.1896601,225.96858,-61.877594,12.054717,JOG
56494837989376.0,2.022400379180908,0.007948318496346474,12.243644714355469,0.5921630859375,-1.6059623956680298,1.366811,1.3051136,225.51016,-61.87521,12.207666,JOG
56494842183680.0,2.027399778366089,0.025402449071407318,12.282190322875977,0.6812033653259277,-1.5761802196502686,1.138042,1.4004086000000002,225.03535,-61.85348000000001,12.336147,JOG
56494850572288.0,2.0323989391326904,0.03802892193198204,12.303570747375488,0.7704159617424011,-1.5427463054656982,0.9053023,1.4514158,224.62738,-61.83444,12.512688,JOG
56494854766592.0,2.037398099899292,0.045163121074438095,12.305429458618164,0.859387993812561,-1.5062767267227173,0.7892378999999999,1.4294246000000002,224.19415,-61.799797,12.645144,JOG
56494858960896.0,2.0423972606658936,0.046234309673309326,12.285536766052246,0.948033332824707,-1.4674468040466309,0.5006041,1.3939945,223.86795,-61.746834,12.8334,JOG
56494863155200.0,2.047396421432495,0.04062490165233612,12.241742134094238,1.0361073017120361,-1.4267938137054443,0.19242255,1.2574661,223.5435,-61.653244,12.968332,JOG
56494867349504.0,2.0523955821990967,0.027663670480251312,12.171977996826172,1.123181939125061,-1.3849815130233765,-0.09437868,1.0476339,223.30603,-61.53470600000001,13.103174,JOG
56494875738112.0,2.0573947429656982,0.00686335563659668,12.074728012084961,1.2077703475952148,-1.3427199125289917,-0.36132678,0.75716746,223.1272,-61.281437,13.211314000000002,JOG
56494879932416.0,2.0623939037323,-0.022108592092990875,11.948929786682129,1.287398338317871,-1.3008090257644653,-0.5235115,0.39370266,223.0307,-61.01949000000001,13.262965,JOG
56494884126720.0,2.0673928260803223,-0.05899221450090408,11.794069290161133,1.359203815460205,-1.260022759437561,-0.50671273,0.004886922,223.08025,-60.39357,13.410889,JOG
56494888321024.0,2.0723917484283447,-0.10301312059164047,11.609972953796387,1.4198408126831055,-1.2210698127746582,-0.22296582,-0.3924809,223.12227,-59.773964,13.42944,JOG
56494892515328.0,2.077390670776367,-0.1532062292098999,11.396657943725586,1.46647310256958,-1.184542179107666,0.1872302,-0.7476991,222.9938,-59.446724,13.107161,JOG
56494896709632.0,2.0823895931243896,-0.20726925134658813,11.154850959777832,1.4974675178527832,-1.1507863998413086,0.56291234,-1.0070114,222.84099,-59.09670600000001,12.66852,JOG
56494905098240.0,2.087388515472412,-0.26292183995246887,10.885965347290039,1.5120450258255005,-1.1199629306793213,0.72326446,-1.151481,222.73843,-58.870365,12.18439,JOG
56494909292544.0,2.0923874378204346,-0.31746402382850647,10.593561172485352,1.5116386413574219,-1.0919712781906128,0.6072,-1.1630874,222.62772,-58.618725,11.646865,JOG
56494913486848.0,2.097386598587036,-0.36849647760391235,10.281000137329102,1.4976308345794678,-1.066443681716919,0.28160888,-1.0051788,222.60423,-58.40221,11.250738,JOG
56494917681152.0,2.1023857593536377,-0.41406819224357605,9.952305793762207,1.4718115329742432,-1.0427755117416382,-0.15699236,-0.71837753,222.61896,-58.176163,10.909505,JOG
56494921875456.0,2.1073849201202393,-0.45253250002861023,9.61113166809082,1.4357699155807495,-1.020162582397461,-0.66706485,-0.4034765,222.7634,-57.965336,10.818321,JOG
56494930264064.0,2.112384080886841,-0.4834953248500824,9.260624885559082,1.3905178308486938,-0.9976401925086975,-1.176221,-0.10323623,222.97525,-57.784954000000006,10.857389,JOG
56494934458368.0,2.1173832416534424,-0.5066366195678711,8.903621673583984,1.3369901180267334,-0.9741568565368652,-1.6441438000000002,0.18387043,223.30745,-57.656525,11.163746000000002,JOG
56494938652672.0,2.122382402420044,-0.5227084159851074,8.543437957763672,1.2758150100708008,-0.9487027525901794,-2.0295997,0.40775254,223.71162,-57.593014,11.595942,JOG
56494942846976.0,2.1273815631866455,-0.5327315330505371,8.18329906463623,1.2075016498565674,-0.9204519987106323,-2.278833,0.593761,224.1642,-57.594364,12.143878,JOG
56494947041280.0,2.132380723953247,-0.5383065342903137,7.826505661010742,1.1328274011611938,-0.88885897397995,-2.3414464,0.75411314,224.68561,-57.68425799999999,12.851076,JOG
56494955429888.0,2.1373796463012695,-0.5410471558570862,7.476099967956543,1.0525847673416138,-0.853752076625824,-2.3109033,0.895223,225.23029,-57.814426,13.628767000000002,JOG
56494959624192.0,2.142378568649292,-0.5421333312988281,7.135725498199463,0.970752477645874,-0.8153908252716064,-2.1487186,0.9630291,225.78273,-58.03743000000001,14.404983499999998,JOG
56494963818496.0,2.1473779678344727,-0.5425469279289246,6.808980941772461,0.8920433521270752,-0.7739719748497009,-1.9071213,1.0735956,226.29457,-58.275906000000006,15.216876999999998,JOG
56494968012800.0,2.1523773670196533,-0.5428773760795593,6.497747898101807,0.8192031383514404,-0.7300162315368652,-1.6734653999999998,1.1548406999999998,226.77882,-58.547962,15.94523,JOG
56494972207104.0,2.157376766204834,-0.5435311794281006,6.203125476837158,0.7540777325630188,-0.684273362159729,-1.4932601,1.1731668,227.22406,-58.792522,16.66316,JOG
56494980595712.0,2.1623761653900146,-0.5449243783950806,5.926799774169922,0.6977654099464417,-0.6376789212226868,-1.3585643,1.1502593,227.34576,-58.446735,17.526659,JOG
56494984790016.0,2.1673755645751953,-0.5475046038627625,5.6713995933532715,0.65031898021698,-0.5913600921630859,-1.2528846000000002,1.1016954,227.4474,-58.06766,18.342274,JOG
56494988984320.0,2.172374725341797,-0.5518168807029724,5.439949035644531,0.6106406450271606,-0.5466316938400269,-1.1276573,1.0934488000000002,227.4924,-57.8693,18.79723,JOG
56494993178624.0,2.1773741245269775,-0.5584791302680969,5.235758304595947,0.5767228603363037,-0.5049243569374084,-0.9828822,1.1016954,227.50858,-57.58276,19.222221,JOG
56494997372928.0,2.182374954223633,-0.5675505995750427,5.062902927398682,0.5479510426521301,-0.46775636076927185,-0.82894415,1.14018,227.50911,-57.34528,19.475054,JOG
56495005761536.0,2.187375545501709,-0.578600287437439,4.924247741699219,0.5247567296028137,-0.43653368949890137,-0.6914994999999999,1.153619,227.47502000000003,-56.992203,19.702198000000006,JOG
56495009955840.0,2.192376136779785,-0.5902752876281738,4.822543621063232,0.5074911713600159,-0.4127294719219208,-0.53878313,1.1441506,227.52301,-56.759674,19.801132,JOG
56495014150144.0,2.1973767280578613,-0.6001535058021545,4.759637355804443,0.4962897002696991,-0.39796215295791626,-0.47952923,1.1863003,227.54861,-56.35442,19.907356,JOG
56495018344448.0,2.2023770809173584,-0.6058958768844604,4.735751152038574,0.4902407228946686,-0.3935377895832062,-0.5128214,1.2315043,227.60965,-55.95083,19.914248,JOG
56495022538752.0,2.2073774337768555,-0.6051064729690552,4.749526500701904,0.4872620403766632,-0.3988834023475647,0.02076942,1.2412782,227.49937000000003,-55.50028,19.840633,JOG
56495026733056.0,2.2123775482177734,-0.5952410697937012,4.799125671386719,0.48468589782714844,-0.4116811454296112,0.29352075,0.83016586,227.62762,-55.16696,19.797335,JOG
56495035121664.0,2.2173776626586914,-0.5734137296676636,4.882070064544678,0.47894588112831116,-0.4278919994831085,0.12705997,0.18051068,227.76361,-54.991974,19.690426,JOG
56495039315968.0,2.2223777770996094,-0.5389226078987122,4.994068622589111,0.4681447446346283,-0.44274553656578064,-0.07544186,-0.22296582,228.0534,-55.12855500000001,19.720009,JOG
56495043510272.0,2.2273778915405273,-0.4932413101196289,5.128856182098389,0.451996773481369,-0.4531784951686859,-0.116980694,-0.20891592,228.36328,-55.44830699999999,19.692379000000006,JOG
56495047704576.0,2.232377767562866,-0.4380718469619751,5.280559539794922,0.43117907643318176,-0.45856672525405884,-0.08704830000000001,-0.19608775,229.01451,-56.06540699999999,19.882626,JOG
56495051898880.0,2.237377643585205,-0.3760533630847931,5.443150997161865,0.4091275930404663,-0.4595145881175995,-0.1386664,-0.33292156,229.6802,-56.81408,20.027002,JOG
56495060287488.0,2.242377519607544,-0.3092113137245178,5.6114935874938965,0.38748911023139954,-0.45677846670150757,-0.36132678,-0.44593164,230.3498,-57.518288,20.240194,JOG
56495064481792.0,2.247377395629883,-0.23886029422283173,5.7813801765441895,0.3656688332557678,-0.451493501663208,-0.47861293,-0.6921103,231.01564,-58.191677,20.35445,JOG
56495068676096.0,2.2523791790008545,-0.16620729863643646,5.948608875274658,0.3430444896221161,-0.44433295726776123,-0.49449542,-1.035722,231.53278,-58.74196,20.329294,JOG
56495072870400.0,2.257380723953247,-0.0912659764289856,6.110033988952637,0.31909018754959106,-0.4346321225166321,-0.51893,-1.1212431,232.06934,-59.312572,20.314674,JOG
56495077064704.0,2.2623820304870605,-0.013977511785924435,6.262321949005127,0.293217271566391,-0.42223188281059265,-0.6346890000000001,-1.2675453,232.65317,-59.83650600000001,20.229443,JOG
56495085453312.0,2.267383098602295,0.06595152616500854,6.403285980224609,0.26515471935272217,-0.40653756260871887,-0.91813046,-1.2932017,233.27545,-60.439148,20.169746,JOG
56495089647616.0,2.27238392829895,0.14887654781341553,6.53131103515625,0.2347673922777176,-0.3869803845882416,-1.3057245000000002,-1.2458596000000002,233.95706,-61.076828000000006,20.108889,JOG
56495093841920.0,2.2773845195770264,0.2340492308139801,6.645995616912842,0.20169001817703247,-0.36308324337005615,-1.6728544,-1.2134838,234.72522,-61.65878000000001,20.188776,JOG
56495098036224.0,2.2823851108551025,0.3204325735569,6.747378826141357,0.16552457213401794,-0.3345792293548584,-1.9489655,-1.2122620000000002,235.56659,-62.27305,20.292706,JOG
56495102230528.0,2.2873857021331787,0.40658682584762573,6.8357744216918945,0.1263376623392105,-0.30141130089759827,-2.1022928,-1.2611313,236.47794,-62.763145,20.56949,JOG
56495110619136.0,2.292386293411255,0.49095651507377625,6.911611557006836,0.08440007269382477,-0.2637324929237366,-2.158187,-1.382999,237.43987,-63.27788,20.828058,JOG
56495114813440.0,2.29738712310791,0.5715476274490356,6.976053237915039,0.04064527526497841,-0.2219269573688507,-2.244319,-1.5696182,238.5036,-63.814262,21.066864,JOG
56495119007744.0,2.3023881912231445,0.6462491750717163,7.030750274658203,-0.003587789600715041,-0.1763489693403244,-2.370768,-1.7883080000000002,239.5999,-64.37501999999999,21.252962,JOG
56495123202048.0,2.3073890209198,0.7132108807563782,7.079643726348877,-0.047663114964962006,-0.12727299332618713,-2.402533,-1.9804251,240.67479,-65.06347,21.252508,JOG
56495127396352.0,2.312389850616455,0.7707540988922119,7.12787389755249,-0.09135057777166367,-0.07523341476917267,-2.3237314,-2.1084013,241.75119,-65.745476,21.19636,JOG
56495135784960.0,2.3173904418945312,0.8178949356079102,7.181512832641602,-0.13467510044574738,-0.021225040778517723,-2.1429152,-2.147802,242.7091,-66.592804,20.85858,JOG
56495139979264.0,2.322391986846924,0.8540194034576416,7.247527599334717,-0.17784002423286438,0.03369877487421036,-1.9199494,-2.0607538,243.61284,-67.40099000000001,20.504263,JOG
56495144173568.0,2.3273932933807373,0.8794765472412109,7.329080104827881,-0.22086675465106964,0.08889756351709366,-1.6618589,-1.8133535,244.39774,-68.36279,19.929586,JOG
56495148367872.0,2.3323943614959717,0.8950069546699524,7.4279069900512695,-0.2637008726596832,0.14444367587566376,-1.5372424,-1.4135422,245.12827,-69.227,19.41605,JOG
56495152562176.0,2.337395191192627,0.9025596380233765,7.544485092163086,-0.3057328760623932,0.2011140137910843,-1.3335188999999998,-1.1679744,245.73601,-70.238396,18.723969,JOG
56495156756480.0,2.342395782470703,0.9050013422966003,7.678335666656494,-0.3459279239177704,0.2592989504337311,-1.2226468,-0.63071835,246.29468,-71.012474,18.235003,JOG
56495165145088.0,2.3473963737487793,0.9059370756149292,7.828695774078369,-0.38341617584228516,0.32006576657295227,-1.1985176000000002,-0.15241088,246.80197,-71.790726,17.736187,JOG
56495169339392.0,2.3523967266082764,0.9100380539894104,7.99432897567749,-0.41755062341690063,0.384094774723053,-1.1655309,0.21013765,247.25305,-72.38651,17.363386,JOG
56495173533696.0,2.3573968410491943,0.9210470914840698,8.172346115112305,-0.4478512108325958,0.4515787661075592,-1.0595458,0.4279111,247.63712,-72.73765,17.169271,JOG
56495177728000.0,2.3623969554901123,0.9417001605033875,8.35763931274414,-0.4740237295627594,0.5222304463386536,-0.84788096,0.50854534,247.96927,-72.94923,17.040237,JOG
56495181922304.0,2.367396831512451,0.9734702706336975,8.545364379882812,-0.4937460422515869,0.5953652858734131,-0.63499445,0.49541172,248.2683,-107.16524,17.156907999999998,JOG
56495190310912.0,2.372396469116211,1.0164705514907837,8.730690956115723,-0.5020429491996765,0.6700191497802734,-0.5366451,0.44073927,248.52866,-107.352745,17.276684,JOG
56495194505216.0,2.3773961067199707,1.0703476667404175,8.90954875946045,-0.49562177062034607,0.7451856732368469,-0.57848936,0.41325033,248.77872,-107.82901,17.637543,JOG
56495198699520.0,2.3823955059051514,1.1333553791046143,9.079122543334961,-0.47531601786613464,0.8198773860931396,-0.6805039,0.36651915,249.00972,-108.30078,17.961779,JOG
56495202893824.0,2.387394666671753,1.203574538230896,9.236837387084961,-0.44269081950187683,0.8931523561477661,-0.6881397,0.28283059999999993,249.04166,-108.99102,18.586327,JOG
56495207088128.0,2.3923940658569336,1.278626799583435,9.38016128540039,-0.40062999725341797,0.9641349911689758,-0.52381694,0.15057829,249.04294,-109.61479,19.157999,JOG
56495215476736.0,2.3973934650421143,1.356337070465088,9.507241249084473,-0.35160985589027405,1.032070279121399,-0.28344148,-0.00580322,249.04205,-110.32568,19.858883,JOG
56495219671040.0,2.402393102645874,1.434687852859497,9.617094993591309,-0.29764464497566223,1.0964221954345703,-0.08216137400000001,-0.17592919,248.98825,-110.94627,20.483858,JOG
56495223865344.0,2.4073925018310547,1.511857271194458,9.709036827087402,-0.24044646322727203,1.1568375825881958,-0.0015271631,-0.3155119,248.9769,-111.55935,21.103632,JOG
56495228059648.0,2.4123919010162354,1.5859819650650024,9.783184051513672,-0.18099254369735718,1.2131065130233765,-0.0036651916,-0.41263947,248.9183,-112.094124,21.656328,JOG
56495232253952.0,2.417391300201416,1.6553943157196045,9.839773178100586,-0.1201835498213768,1.265097737312317,-0.07299839999999999,-0.48502702,248.88101,-112.532,22.100496,JOG
56495240642560.0,2.4223906993865967,1.7183890342712402,9.879422187805176,-0.05899842828512192,1.3127516508102417,-0.19211712,-0.5299255999999999,248.85379,-112.92319,22.50334,JOG
56495244836864.0,2.4273910522460938,1.7733033895492554,9.902681350708008,0.0016315300017595291,1.356086254119873,-0.2648101,-0.57787853,248.79607,-113.131485,22.708248,JOG
56495249031168.0,2.4323911666870117,1.8188090324401855,9.910744667053223,0.060878243297338486,1.3952288627624512,-0.27183503,-0.61422503,248.75162000000003,-113.319695,22.89724,JOG
56495253225472.0,2.4373936653137207,1.8533101081848145,9.904712677001953,0.1180354431271553,1.4304450750350952,-0.18661933,-0.6365215999999999,248.66957,-113.29703,22.850462,JOG
56495257419776.0,2.4423959255218506,1.8765347003936768,9.886106491088867,0.17343120276927948,1.4618191719055176,-0.14782938,-0.64996064,248.60275,-113.26193,22.797653,JOG
56495265808384.0,2.447399616241455,1.8877934217453003,9.856345176696777,0.22746975719928741,1.4895974397659302,-0.121256754,-0.6597345,248.51654,-113.085106,22.580725,JOG
56495270002688.0,2.4524028301239014,1.8873955011367798,9.816802978515625,0.28046247363090515,1.5138674974441528,-0.16829337,-0.6585127,248.44089,-112.90291,22.364586,JOG
56495274196992.0,2.4574055671691895,1.8755346536636353,9.768754959106445,0.3327334225177765,1.534816861152649,-0.29077184,-0.6771441,248.35022,-112.625305,22.051828,JOG
56495278391296.0,2.4624080657958984,1.8535908460617065,9.713004112243652,0.38393715023994446,1.5524988174438477,-0.39370266,-0.68752885,248.2683,-112.34447,21.742397,JOG
56495282585600.0,2.467410087585449,1.822927713394165,9.650264739990234,0.4337199330329895,1.5668362379074097,-0.4392121,-0.6649268,248.20654,-112.0635,21.437029000000006,JOG
56495286779904.0,2.472411870956421,1.7854712009429932,9.581114768981934,0.48196181654930115,1.5776841640472412,-0.4166101,-0.64812803,248.1265,-111.716606,21.077137,JOG
56495295168512.0,2.4774134159088135,1.7430906295776367,9.506080627441406,0.5286052823066711,1.5847848653793335,-0.39064834,-0.5925393,248.06078,-111.375336,20.735134,JOG
56495299362816.0,2.482414722442627,1.6975759267807007,9.424911499023438,0.573342502117157,1.587838888168335,-0.41630468,-0.52564955,248.01382,-111.04798,20.4141,JOG
56495303557120.0,2.4874155521392822,1.6505777835845947,9.337210655212402,0.6158363819122314,1.5866459608078003,-0.48197266,-0.4633413,247.97162000000003,-110.722206,20.108547,JOG
56495307751424.0,2.4924161434173584,1.6037216186523438,9.24272346496582,0.6559888124465942,1.581039309501648,-0.548557,-0.3933972,247.93626,-110.47024,19.895205,JOG
56495311945728.0,2.4974167346954346,1.5585118532180786,9.141251564025879,0.693767249584198,1.570842981338501,-0.61636305,-0.30268374,247.92123,-110.22818,19.705252,JOG
56495320334336.0,2.5024170875549316,1.5161330699920654,9.03310775756836,0.7293307781219482,1.5558750629425049,-0.6230826,-0.19792034,247.92308,-110.10774,19.647127,JOG
56495324528640.0,2.5074188709259033,1.4777806997299194,8.9186429977417,0.7628946900367737,1.5359947681427002,-0.5510005,-0.064751714,247.92053,-110.01191,19.623516,JOG
56495328722944.0,2.512420654296875,1.4437674283981323,8.798480033874512,0.794969379901886,1.5112148523330688,-0.43310347,0.05100725,247.85559,-110.18887,19.895489,JOG
56495332917248.0,2.5174219608306885,1.4142347574234009,8.673216819763184,0.8262151479721069,1.4816393852233887,-0.32253686,0.15577064,247.76888,-110.3934,20.189283,JOG
56495337111552.0,2.522423028945923,1.3889892101287842,8.543608665466309,0.8568612933158875,1.4474681615829468,-0.25259277,0.23273966,247.59384,-110.808495,20.690287,JOG
56495345500160.0,2.527423858642578,1.3677529096603394,8.410406112670898,0.8870052099227905,1.4089030027389526,-0.22235495,0.28405234,247.4011,-111.23308,21.178656,JOG
56495349694464.0,2.5324244499206543,1.3500821590423584,8.274526596069336,0.9157828688621521,1.3661231994628906,-0.20647246,0.29749137,247.24628,-111.46916,21.451164,JOG
56495353888768.0,2.5374248027801514,1.3355093002319336,8.13687515258789,0.942112147808075,1.3194680213928223,-0.17379116,0.32284227,247.07532,-111.73469,21.733582,JOG
56495358083072.0,2.5424249172210693,1.3235186338424683,7.998875141143799,0.9641790390014648,1.2689793109893799,-0.12492194,0.31215215,246.89507000000003,-68.015274,21.97909,JOG
56495362277376.0,2.5474250316619873,1.3136143684387207,7.862002372741699,0.9801109433174133,1.2146499156951904,-0.06994407,0.3100141,246.70078,-67.73873,22.226692,JOG
56495370665984.0,2.552424907684326,1.3052074909210205,7.727941036224365,0.9887309670448303,1.1564167737960815,0.003970624,0.28741209999999995,246.47928,-67.36695,22.545233,JOG
56495374860288.0,2.557424545288086,1.2976932525634766,7.598386764526367,0.9892287850379944,1.094157099723816,0.06963864,0.24556783,246.24405,-66.990234,22.839191,JOG
56495379054592.0,2.5624241828918457,1.2904492616653442,7.475709915161133,0.9805894494056702,1.0278044939041138,0.18661933,0.19700404,246.12991,-66.65718000000001,23.086254,JOG
56495383248896.0,2.5674235820770264,1.2828445434570312,7.362885475158691,0.9616329073905945,0.9573681950569153,0.56199604,0.16279559,245.91504,-66.316956,23.308784,JOG
56495387443200.0,2.572422742843628,1.27490234375,7.264013290405273,0.9327033758163452,0.8827918767929077,1.2538009,0.18997909,245.74191,-66.08936,23.409487,JOG
56495395831808.0,2.5774238109588623,1.2669843435287476,7.184184551239014,0.8948453068733215,0.8038190007209778,2.0555615,0.24801129,245.41771,-65.832886,23.491405,JOG
56495400026112.0,2.5824244022369385,1.2602081298828125,7.126842021942139,0.8504032492637634,0.7197750210762024,2.5213463,0.30879238,245.11873,-65.63892,23.493162,JOG
56495404220416.0,2.5874249935150146,1.2563525438308716,7.096066951751709,0.8026672005653381,0.6298442482948303,2.4333818,0.37384954,244.74403,-65.37947,23.500088,JOG
56495408414720.0,2.5924253463745117,1.2560688257217407,7.093507766723633,0.7515714168548584,0.5337633490562439,2.0173824,0.41538838,244.3378,-65.1664,23.402763,JOG
56495412609024.0,2.5974254608154297,1.2593027353286743,7.119302749633789,0.6949761509895325,0.4322914183139801,1.6310102,0.28680122,243.9601,-64.93464,23.274137,JOG
56495416803328.0,2.6024253368377686,1.2643406391143799,7.172471523284912,0.631658673286438,0.32715821266174316,1.461495,0.01160644,243.52872,-64.705124,23.049337,JOG
56495425191936.0,2.6074249744415283,1.2685850858688354,7.251366138458252,0.5610077381134033,0.2202843278646469,1.4052955,-0.2666427,243.19957,-64.485344,22.800652,JOG
56495429386240.0,2.612424612045288,1.2688932418823242,7.354254245758057,0.48405921459198,0.11327119916677475,1.248914,-0.3998113,243.14279,-64.39179,22.551874,JOG
56495433580544.0,2.6174240112304688,1.261126160621643,7.479178428649902,0.4044364094734192,0.0070851873606443405,0.915687,-0.4334089,243.16054,-64.35353,22.276312,JOG
56495437774848.0,2.6224231719970703,1.2411842346191406,7.624079704284668,0.3254249095916748,-0.09783846139907837,0.21288654,-0.40653083,243.37987,-64.49773,21.891558,JOG
56495441969152.0,2.627422332763672,1.2049953937530518,7.786839008331299,0.25002482533454895,-0.20135094225406647,-0.16737708,-0.31642818,243.58563,-64.62617,21.530653,JOG
56495450357760.0,2.6324212551116943,1.1500300168991089,7.9654316902160645,0.17962080240249634,-0.303570955991745,-0.61727935,-0.21319197,243.79503,-64.82415999999999,20.964205,JOG
56495454552064.0,2.637420177459717,1.0754295587539673,8.157903671264648,0.11371193081140518,-0.404461145401001,-0.68477994,0.03481932,243.98166,-64.934074,20.486038,JOG
56495458746368.0,2.64241886138916,0.9814568758010864,8.362417221069336,0.05263262987136841,-0.503874659538269,-0.59864795,0.28985557,243.9657,-65.084946,19.728266,JOG
56495462940672.0,2.647418975830078,0.8693714737892151,8.577244758605957,-0.0023378790356218815,-0.6014368534088135,-0.61544675,0.5534439,243.98659,-65.12616,19.087185,JOG
56495467134976.0,2.652418851852417,0.7416858673095703,8.800765991210938,-0.05085356533527374,-0.6965534687042236,-0.68386364,0.6218608,243.94804,-65.19135,18.356825,JOG
56495475523584.0,2.657418727874756,0.601971447467804,9.031482696533203,-0.09306514263153076,-0.7884421944618225,-0.59406644,0.7641924,243.84763,-65.164215,17.73955,JOG
56495479717888.0,2.6624183654785156,0.4553176164627075,9.268033981323242,-0.12952730059623718,-0.8762027025222778,-0.25992316,0.8900306999999998,243.60695,-65.11139,17.07239,JOG
56495483912192.0,2.6674177646636963,0.3090454638004303,9.509180068969727,-0.16136924922466278,-0.9590051770210266,0.29443705,1.0228939,243.27689,-65.04433,16.44697,JOG
56495488106496.0,2.672416925430298,0.1686071753501892,9.753580093383789,-0.18912462890148163,-1.0363558530807495,0.9126327,1.196685,242.87268,-64.9218,15.937173,JOG
56495492300800.0,2.6774160861968994,0.03578394651412964,9.999395370483398,-0.21187838912010193,-1.1081175804138184,1.4291192,1.3610078,242.33972000000003,-64.80889,15.437747,JOG
56495500689408.0,2.682415008544922,-0.08790122717618942,10.244997024536133,-0.22885744273662567,-1.1744650602340698,1.8197676,1.4825699,241.88611,-64.61513000000001,15.293763,JOG
56495504883712.0,2.6874139308929443,-0.20107439160346985,10.488909721374512,-0.2393631786108017,-1.235697865486145,2.0137172,1.5732834,241.3329,-64.42398,15.157642999999998,JOG
56495509078016.0,2.692412853240967,-0.30254143476486206,10.729819297790527,-0.24279257655143738,-1.2921448945999146,1.9679024,1.5738943,240.7384,-64.23871,15.017919,JOG
56495513272320.0,2.6974120140075684,-0.391207754611969,10.966533660888672,-0.23858870565891266,-1.3441718816757202,1.8081611,1.5109752,240.12314,-64.04956,14.87986,JOG
56495517466624.0,2.70241117477417,-0.4662690758705139,11.194952011108398,-0.22630959749221802,-1.3921277523040771,1.808772,1.4584408000000002,239.49515,-63.853928,14.745277,JOG
56495521660928.0,2.7074103355407715,-0.5270642042160034,11.40495777130127,-0.20548349618911743,-1.436317801475525,1.9752327,1.3035865,238.88766,-63.68503000000001,14.567248,JOG
56495530049536.0,2.712409496307373,-0.5730292201042175,11.589035987854004,-0.17572808265686035,-1.4767954349517822,2.1838431000000003,0.80878556,238.3205,-63.346043,14.531278,JOG
56495534243840.0,2.7174086570739746,-0.603700578212738,11.7484712600708,-0.13685102760791779,-1.513310432434082,2.2879958,0.16462818,237.77786,-63.086536,14.402296,JOG
56495538438144.0,2.722407817840576,-0.6189770698547363,11.884904861450195,-0.0889144167304039,-1.5454607009887695,2.2516494,-0.22968534,237.15881,-62.568233,14.404711,JOG
56495542632448.0,2.7274069786071777,-0.6206313967704773,12.002729415893555,-0.03340477496385574,-1.5728294849395752,2.2055290000000003,-0.22479841,236.55272,-62.145023,14.327181,JOG
56495546826752.0,2.7324061393737793,-0.6104235649108887,12.105902671813965,0.02831432782113552,-1.595503807067871,2.1090124,-0.14935656,236.03561,-61.605534,14.383716,JOG
56495555215360.0,2.737405300140381,-0.5908540487289429,12.1979398727417,0.09491325914859772,-1.61326003074646,2.0204368,-0.010995574,235.5271,-61.160824,14.450652,JOG
56495559409664.0,2.7424044609069824,-0.564353883266449,12.281744956970215,0.16536623239517212,-1.6258466243743896,1.9113973,0.14905111,235.09222000000003,-60.876484,14.460922,JOG
56495563603968.0,2.747403860092163,-0.5338962078094482,12.358437538146973,0.23967117071151733,-1.6329175233840942,1.8396207,0.355829,234.65244,-60.63731800000001,14.520599,JOG
56495567798272.0,2.7524032592773438,-0.5021004676818848,12.428918838500977,0.3177274167537689,-1.634202480316162,1.8185458,0.5311473000000001,234.22232,-60.565674,14.499588,JOG
56495571992576.0,2.7574026584625244,-0.47120389342308044,12.49298095703125,0.3987511992454529,-1.6295652389526367,1.6643023,0.6924158,233.82559,-60.531685,14.552293,JOG
56495580381184.0,2.762402057647705,-0.44320186972618103,12.550312042236328,0.4820341467857361,-1.6188724040985107,1.4999796,0.84757555,233.33923,-60.579308,14.497704999999998,JOG
56495584575488.0,2.7674026489257812,-0.4193616211414337,12.598836898803711,0.5670045018196106,-1.6019864082336426,1.3976597,0.99265605,232.86322,-60.67034,14.494701999999998,JOG
56495588769792.0,2.772402763366699,-0.4005928039550781,12.637097358703613,0.653159499168396,-1.5789427757263184,1.2486086,1.1139128,232.37236,-60.822075,14.439369,JOG
56495592964096.0,2.777402877807617,-0.38716572523117065,12.662861824035645,0.7397407293319702,-1.5500032901763916,1.0256428,1.201572,231.91988,-61.005013,14.43675,JOG
56495597158400.0,2.782402753829956,-0.3790755867958069,12.674036979675293,0.8259862065315247,-1.5155807733535767,0.79168135,1.260215,231.50385,-61.212376,14.479055,JOG
56495605547008.0,2.787402629852295,-0.3760690689086914,12.668227195739746,0.9119138717651367,-1.476272463798523,0.57818395,1.3014483,231.06976,-61.39336,14.495389,JOG
56495609741312.0,2.7924022674560547,-0.377804160118103,12.643143653869629,0.9978295564651489,-1.4327819347381592,0.31703907,1.2718215,230.71803,-61.58243,14.542946,JOG
56495613935616.0,2.7974026203155518,-0.3841659128665924,12.596312522888184,1.0843653678894043,-1.385890245437622,-0.0693332,1.1502593,230.43587,-61.72249,14.61732,JOG
56495618129920.0,2.802402973175049,-0.39506736397743225,12.525932312011719,1.1721129417419434,-1.3364053964614868,-0.47708577,0.94714653,230.24731,-61.859917,14.69404,JOG
56495622324224.0,2.807403087615967,-0.410652220249176,12.430680274963379,1.260762095451355,-1.2852122783660889,-0.8524625,0.6640105,230.1236,-61.85788,14.7914505,JOG
56495630712832.0,2.812403440475464,-0.4311264157295227,12.309440612792969,1.3497554063796997,-1.2332607507705688,-1.162782,0.33139440000000003,230.12346,-61.85119,14.8602495,JOG
56495634907136.0,2.817403554916382,-0.4566522538661957,12.161178588867188,1.4371509552001953,-1.1815125942230225,-1.3228287,-0.02443461,230.22914,-61.460503,15.087685,JOG
56495639101440.0,2.8224034309387207,-0.4873945713043213,11.984724998474121,1.5199230909347534,-1.1309975385665894,-1.3213016000000002,-0.42149702,230.40263,-61.06565,15.225054,JOG
56495643295744.0,2.8274033069610596,-0.5226237177848816,11.780067443847656,1.5949161052703857,-1.0826228857040405,-1.1890492,-0.6123924,230.46886,-60.6667,15.211279,JOG
56495647490048.0,2.8324055671691895,-0.5611799955368042,11.547323226928711,1.6585944890975952,-1.0367169380187988,-0.9071349,-0.9492846,230.55344,-60.30814,15.035094,JOG
56495651684352.0,2.837407350540161,-0.6015918254852295,11.288361549377441,1.709323763847351,-0.9938973784446716,-0.51893,-1.1985176000000002,230.57056,-60.04792,14.688615,JOG
56495660072960.0,2.8424088954925537,-0.6418611407279968,11.005175590515137,1.7454233169555664,-0.9545060396194458,-0.1826487,-1.3371841,230.55739,-59.786053,14.25165,JOG
56495664267264.0,2.8474109172821045,-0.6801192164421082,10.700790405273438,1.7667707204818726,-0.9186530113220215,-0.063224554,-1.3500122,230.63187,-59.595013,13.856562,JOG
56495668461568.0,2.8524129390716553,-0.7148107290267944,10.378705024719238,1.7742438316345215,-0.8861789107322693,-0.1685988,-1.2156218,230.67523,-59.361137,13.445145000000002,JOG
56495672655872.0,2.8574156761169434,-0.7443885803222656,10.042329788208008,1.7689682245254517,-0.8566502332687378,-0.4804455,-0.99082345,230.84941,-59.17816,13.211687,JOG
56495676850176.0,2.8624181747436523,-0.7676325440406799,9.694899559020996,1.7523918151855469,-0.829414963722229,-0.9098838,-0.68752885,231.04892,-58.972786,13.060669,JOG
56495685238784.0,2.8674209117889404,-0.7835838198661804,9.339322090148926,1.725690484046936,-0.8036870360374451,-1.3799446000000002,-0.3286455,231.37004,-58.79071999999999,13.14794,JOG
56495689433088.0,2.8724234104156494,-0.7918987274169922,8.978055000305176,1.6896343231201172,-0.7785539031028748,-1.8075503,0.015271631,231.74825,-58.62656,13.363731,JOG
56495693627392.0,2.877427101135254,-0.7930585145950317,8.615154266357422,1.6447583436965942,-0.7530883550643921,-2.1316142000000005,0.27855456,232.23294,-58.492565,13.8093,JOG
56495697821696.0,2.8824303150177,-0.7885398864746094,8.25570011138916,1.5915207862854004,-0.7264048457145691,-2.3197608,0.4700608,232.75594,-58.39697,14.369732999999998,JOG
56495702016000.0,2.8874330520629883,-0.7797577381134033,7.9046311378479,1.5302962064743042,-0.69775390625,-2.3582454,0.6087272,233.34616,-58.365,15.083368,JOG
56495710404608.0,2.8924379348754883,-0.7671586871147156,7.5657830238342285,1.463571310043335,-0.6667183637619019,-2.309376,0.7302894,233.9451,-58.360176,15.861204999999998,JOG
56495714598912.0,2.897442102432251,-0.7510254979133606,7.241330146789551,1.3934789896011353,-0.633105456829071,-2.1923954,0.87781334,234.52246,-58.380978000000006,16.682804,JOG
56495718793216.0,2.9024457931518555,-0.7317721247673035,6.933050632476807,1.3228081464767456,-0.5970525145530701,-2.0570886,1.0412198,235.16489,-58.58650600000001,17.466312,JOG
56495722987520.0,2.9074506759643555,-0.7098745703697205,6.6424479484558105,1.2546508312225342,-0.5589844584465027,-1.8982637,1.1753048,235.77222000000003,-58.77138000000001,18.260874,JOG
56495727181824.0,2.912454605102539,-0.685744047164917,6.370278358459473,1.1911070346832275,-0.5195958018302917,-1.7449366000000002,1.2730431999999998,236.22,-58.598755,19.292225,JOG
56495735570432.0,2.9174578189849854,-0.6597689390182495,6.1174845695495605,1.1344358921051025,-0.4797287881374359,-1.609019,1.3130548,236.64502,-58.38087,20.307209,JOG
56495739764736.0,2.9224603176116943,-0.6330165863037109,5.884676456451416,1.085651159286499,-0.4403573274612427,-1.5537357,1.3209959999999998,237.06705,-58.098705,21.31193,JOG
56495743959040.0,2.927462100982666,-0.6069132685661316,5.672255516052246,1.0450284481048584,-0.40200507640838623,-1.4886786,1.3206906,237.46881,-57.787994,22.289484,JOG
56495748153344.0,2.9324631690979004,-0.583157479763031,5.480923652648926,1.011635422706604,-0.36561641097068787,-1.4990633,1.2980887,237.65909,-57.45067,22.90793,JOG
56495752347648.0,2.9374635219573975,-0.5640596151351929,5.312008857727051,0.9824925661087036,-0.33208250999450684,-1.5372424,1.2935071000000002,237.83832,-57.076195,23.516306,JOG
56495756541952.0,2.9424633979797363,-0.5511167049407959,5.1668524742126465,0.9548101425170898,-0.30247411131858826,-1.5870278999999998,1.2660183,237.97708,-56.752003,23.901794,JOG
56495764930560.0,2.947462797164917,-0.5445414781570435,5.04693603515625,0.9259273409843445,-0.27791672945022583,-1.6572775000000002,1.1991285,238.13544,-56.362747,24.276001,JOG
56495769124864.0,2.9524617195129395,-0.5434836149215698,4.954367160797119,0.8946658372879028,-0.25921738147735596,-1.5176947,1.1569787,238.41772000000003,-56.22389,24.444365,JOG
56495773319168.0,2.957460403442383,-0.5442996025085449,4.893590450286865,0.8632519245147705,-0.2468511164188385,-0.6988298000000001,1.2049317,238.52045,-56.00261,24.543615,JOG
56495777513472.0,2.962458848953247,-0.5447942018508911,4.867528915405273,0.8346268534660339,-0.24192489683628082,1.0522153,1.3603969,238.54282,-55.901257,24.492943,JOG
56495781707776.0,2.9674570560455322,-0.5461122393608093,4.876114368438721,0.8143884539604187,-0.24659810960292816,2.44285,1.0644327,238.48444,-55.734318,24.279613,JOG
56495790096384.0,2.9724557399749756,-0.5483424663543701,4.91887092590332,0.8053855299949646,-0.26174572110176086,2.3011293,0.25228736,238.47914,-55.63083,23.981651,JOG
56495794290688.0,2.97745418548584,-0.5487855076789856,4.993791103363037,0.8031978011131287,-0.28400173783302307,1.3759739,-0.35796702,238.31299,-55.615807,23.600971,JOG
56495798484992.0,2.982452392578125,-0.5446262955665588,5.098873615264893,0.8041782379150391,-0.3069702982902527,0.7858781,-0.48288897,237.78523,-55.642376,22.84054,JOG
56495802679296.0,2.987450361251831,-0.5316989421844482,5.231509208679199,0.807039737701416,-0.3254280686378479,0.5317582,-0.42271876,237.49911,-55.859104,22.080193,JOG
56495806873600.0,2.992448091506958,-0.5070357322692871,5.388216972351074,0.8106521368026733,-0.3375421166419983,0.26236662,-0.22327125,237.70747000000003,-56.383743,21.681522,JOG
56495815262208.0,2.997445821762085,-0.4714242219924927,5.560877799987793,0.8141298890113831,-0.3435059189796448,-0.11789699,-0.034208454,237.98618,-57.10579300000001,21.355125,JOG
56495819456512.0,3.002443313598633,-0.42570003867149353,5.742427825927734,0.8167304992675781,-0.34471002221107483,-0.48075095,-0.03481932,238.50217,-57.79799300000001,21.364017,JOG
56495823650816.0,3.0074408054351807,-0.371163934469223,5.926939010620117,0.8179289102554321,-0.3430986702442169,-0.6728681,-0.2321288,239.04108,-58.42859,21.378555,JOG
56495827845120.0,3.0124382972717285,-0.3089700937271118,6.109256267547607,0.817175030708313,-0.34028881788253784,-0.8069529999999999,-0.45875978,239.63043,-58.8507,21.537827,JOG
56495832039424.0,3.0174357891082764,-0.23991738259792328,6.286082744598389,0.813428521156311,-0.33688294887542725,-0.86620694,-0.5861251999999999,240.24564,-59.22936600000001,21.66955,JOG
56495840428032.0,3.0224335193634033,-0.16480761766433716,6.454432487487793,0.805804967880249,-0.33235490322113037,-0.93951076,-0.63713247,240.87956,-59.49823000000001,21.857391,JOG
56495844622336.0,3.0274312496185303,-0.08513452112674713,6.611473083496094,0.7941023111343384,-0.32628485560417175,-1.1203268999999998,-0.70738196,241.56651,-59.752895,22.014597,JOG
56495848816640.0,3.0324299335479736,-0.002375106792896986,6.754570960998535,0.7781374454498291,-0.31752970814704895,-1.4227052,-0.8258898000000001,242.3549,-60.035282,22.271837,JOG
56495853010944.0,3.037428617477417,0.08133626729249954,6.88327693939209,0.7582513093948364,-0.30519843101501465,-1.7421877,-0.84971356,243.18845,-60.32796999999999,22.54285,JOG
56495857205248.0,3.0424277782440186,0.16391776502132416,6.997073173522949,0.7347450852394104,-0.2887679636478424,-2.051591,-0.91782504,244.10457,-60.62846800000001,22.854261,JOG
56495865593856.0,3.04742693901062,0.2431267648935318,7.095612049102783,0.7079455852508545,-0.26799115538597107,-2.2837198,-1.0451905,245.09305,-60.9911,23.1494,JOG
56495869788160.0,3.0524260997772217,0.31675636768341064,7.178569793701172,0.6781620979309082,-0.24285654723644257,-2.4599543,-1.2470814,246.16139,-61.408237,23.409193,JOG
56495873982464.0,3.057425022125244,0.3825390040874481,7.246272563934326,0.6460312008857727,-0.21348513662815094,-2.6111436,-1.5012014,247.26007,-61.95300699999999,23.509733,JOG
56495878176768.0,3.0624239444732666,0.4383718967437744,7.299249649047852,0.612245500087738,-0.18024113774299622,-2.7571404,-1.8060231,248.42056,-62.54879,23.536049,JOG
56495882371072.0,3.06742262840271,0.4823107421398163,7.339180946350098,0.5780689120292664,-0.14354439079761505,-2.9275717999999995,-2.115121,249.59412000000003,-63.31925,23.333906,JOG
56495890759680.0,3.072421073913574,0.5126198530197144,7.368103504180908,0.5449034571647644,-0.10382784903049469,-3.143207,-2.4294112,250.83205,-64.1499,23.039925,JOG
56495894953984.0,3.0774197578430176,0.5283288955688477,7.390851974487305,0.5131469368934631,-0.06140134856104851,-3.2614095,-2.6532931,252.01404,-65.15854,22.491796,JOG
56495899148288.0,3.082418441772461,0.5288605093955994,7.412811279296875,0.4828242063522339,-0.016558101400732994,-3.086702,-2.7403414,253.16325,-66.19549,21.873264,JOG
56495903342592.0,3.087416887283325,0.5145319700241089,7.440893650054932,0.45283785462379456,0.03006269782781601,-2.660929,-2.660929,254.14438,-67.337746,21.04487,JOG
56495907536896.0,3.0924153327941895,0.48596230149269104,7.482213497161865,0.421745628118515,0.07776080816984177,-2.2198844,-2.4425447,255.04916,-68.45186,20.214352,JOG
56495911731200.0,3.097414255142212,0.44588375091552734,7.5403828620910645,0.3890606164932251,0.126205712556839,-1.9391917,-2.110234,255.85068,-69.68195,19.235025,JOG
56495920119808.0,3.1024131774902344,0.39762240648269653,7.617340087890625,0.35469794273376465,0.17555277049541473,-1.9107865,-1.7333301,256.57336000000004,-70.82132,18.324354,JOG
56495924314112.0,3.107412099838257,0.3516134023666382,7.713937759399414,0.3179263472557068,0.2263411283493042,-2.082745,-1.3393221000000002,257.3495,-72.03426999999998,17.360623999999998,JOG
56495928508416.0,3.1124110221862793,0.32132911682128906,7.83051872253418,0.277726948261261,0.2792286276817322,-2.3038783,-0.90285885,258.10562000000004,-73.09212,16.528385,JOG
56495932702720.0,3.1174099445343018,0.3146418631076813,7.964175224304199,0.2336011528968811,0.33479630947113037,-2.3735168,-0.46792278,258.88785,-73.939545,15.878897,JOG
56495936897024.0,3.122408628463745,0.33545851707458496,8.109781265258789,0.1854124367237091,0.39311400055885315,-2.3451116,-0.25686884,259.68842,-74.65063,15.300099,JOG
56495945285632.0,3.1274075508117676,0.3841184079647064,8.262611389160156,0.13440139591693878,0.4545002281665802,-2.1368067,0.11026118,260.5877,-105.64959,15.649104,JOG
56495949479936.0,3.13240647315979,0.4591161608695984,8.418438911437988,0.08239134401082993,0.5189160108566284,-1.7815883999999995,0.40653083,261.40637000000004,-106.065674,16.00139,JOG
56495953674240.0,3.1374053955078125,0.5567800998687744,8.5744047164917,0.03176798298954964,0.5861251354217529,-1.3319917,0.5867361,262.22012,-107.200714,16.982231,JOG
56495957868544.0,3.142404317855835,0.67259281873703,8.72841739654541,-0.014937447383999825,0.6557050943374634,-0.93645644,0.6407976,262.92984,-108.370674,17.930305,JOG
56495962062848.0,3.1474034786224365,0.8023769855499268,8.878639221191406,-0.05557738617062569,0.727077841758728,-0.6252206,0.63041294,263.55742999999995,-109.928406,19.265768,JOG
56495970451456.0,3.152402877807617,0.9423030614852905,9.023451805114746,-0.08830974251031876,0.7996534705162048,-0.35185838,0.58276546,264.07227,-111.39786,20.497084,JOG
56495974645760.0,3.1574041843414307,1.088016152381897,9.161018371582031,-0.1114860400557518,0.8728554844856262,-0.07788532,0.5122104999999999,264.3836,-112.68144,21.573622,JOG
56495978840064.0,3.162405252456665,1.2359827756881714,9.290057182312012,-0.12425343692302704,0.9460024833679199,0.23151793,0.41386122,264.59317000000004,-113.86766,22.565765,JOG
56495983034368.0,3.1674060821533203,1.3819260597229004,9.409183502197266,-0.1255834400653839,1.0182487964630127,0.5002986,0.28405234,264.60638,-114.85873,23.4152,JOG
56495987228672.0,3.1724066734313965,1.5213719606399536,9.51714038848877,-0.11453105509281158,1.088712215423584,0.6346890000000001,0.13683382,264.5599,-115.75406,24.192245,JOG
56495995617280.0,3.1774072647094727,1.6506930589675903,9.61306095123291,-0.09114162623882294,1.1565181016921997,0.6056729000000001,-0.008857545999999999,264.35123,-116.397385,24.766594,JOG
56495999811584.0,3.1824076175689697,1.7669692039489746,9.696380615234375,-0.056091755628585815,1.2208741903305054,0.54641896,-0.15882497,264.10394,-116.94828,25.280302,JOG
56496004005888.0,3.187407970428467,1.8678933382034302,9.766742706298828,-0.010674978606402874,1.2810786962509155,0.45662177,-0.28802297,263.6996,-117.18033,25.50955,JOG
56496008200192.0,3.192408323287964,1.9515303373336792,9.823898315429688,0.04340767487883568,1.3367120027542114,0.35521814,-0.39400807,263.31296000000003,-117.34923,25.696093,JOG
56496012394496.0,3.19740891456604,2.0170493125915527,9.86795425415039,0.10400044173002243,1.3875361680984497,0.22968534,-0.4877759,262.88495,-117.29728,25.669746,JOG
56496020783104.0,3.202409505844116,2.064415693283081,9.899274826049805,0.16873614490032196,1.4334684610366821,0.08827003,-0.57940567,262.49084,-117.19736,25.609228,JOG
56496024977408.0,3.2074098587036133,2.0941197872161865,9.918463706970215,0.23581713438034058,1.4744548797607422,-0.04428773,-0.6612616,262.14178,-116.94324,25.37636,JOG
56496029171712.0,3.2124102115631104,2.107451915740967,9.92651081085205,0.3041943311691284,1.5105034112930298,-0.23976462,-0.72387534,261.85547,-116.655914,25.114836,JOG
56496033366016.0,3.2174103260040283,2.105908155441284,9.924384117126465,0.3728588819503784,1.5416866540908813,-0.37812558,-0.73761976,261.66846,-116.29936,24.745478,JOG
56496037560320.0,3.2224104404449463,2.0912163257598877,9.913034439086914,0.44080984592437744,1.5682514905929565,-0.68416905,-0.75533485,261.59247,-115.91692,24.341537,JOG
56496045948928.0,3.227412700653076,2.0649447441101074,9.893227577209473,0.5065906643867493,1.5903371572494507,-1.0207558,-0.7858781,261.59027000000003,-115.50293,23.897614,JOG
56496050143232.0,3.232414484024048,2.028459072113037,9.865682601928711,0.5690388679504395,1.6078345775604248,-1.0601566,-0.8026769,261.59058,-115.07333,23.453281,JOG
56496054337536.0,3.2374160289764404,1.9834535121917725,9.830690383911133,0.6273356676101685,1.6209594011306763,-1.0629056,-0.8426886,261.70688,-114.64749,22.98016,JOG
56496058531840.0,3.242417335510254,1.9319684505462646,9.788134574890137,0.6812725067138672,1.6297019720077515,-0.9877690999999998,-0.8567385000000001,261.8105,-114.19919,22.513277,JOG
56496062726144.0,3.2474186420440674,1.876128911972046,9.737617492675781,0.7310956120491028,1.6339620351791382,-0.93859446,-0.8374963,261.98114,-113.762375,22.030947,JOG
56496066920448.0,3.2524197101593018,1.8181073665618896,9.678506851196289,0.7775271534919739,1.633587121963501,-0.96761054,-0.799928,262.15072999999995,-113.30914,21.551525,JOG
