acc_x,acc_y,acc_z,gyro_x,gyro_y,gyro_z,label
0.0,0.0,0.0,0.0,-0.0021380284,-0.002443461,1
-0.10077281296253204,0.26981472969055176,-0.0126073295250535,-0.0002152467495761812,-0.02321288,-0.009468411,1
-0.3390512466430664,0.9158804416656494,-0.03952814266085625,-0.0011062226258218286,-0.045814894,-0.010995574,1
-0.6705129146575928,1.8174281120300293,-0.048775240778923035,-0.0018248253036290407,-0.055283304000000005,-0.007941248,1
-1.039918303489685,2.8308897018432617,-0.1268499195575714,-0.0027580400928854947,-0.064446285,-0.0015271631,1
-1.4124292135238647,3.831375122070313,-0.23667918145656586,-0.0016291099600493908,-0.054061573,-0.0021380284,1
-1.755138278007507,4.751829624176025,-0.3255895972251892,-0.003089665435254574,-0.051618114000000014,-0.009162978,1
-2.0551919937133794,5.558480262756348,-0.2926901876926422,-0.0064860754646360866,-0.04153884,-0.010690141499999998,1
-2.3040297031402592,6.244987487792969,-0.3283422291278839,-0.010686793364584446,-0.028099801,-0.0027488936,1
-2.509150981903076,6.824002265930176,-0.3987421691417694,-0.013244520872831345,-0.027183503,-0.004581489,1
-2.6838490962982178,7.301353931427003,-0.4711292684078217,-0.012438724748790264,-0.028710667,0.0027488936,1
-2.8254566192626958,7.677363872528076,-0.5547663569450378,-0.008087735623121263,-0.021991149,0.008857545999999999,1
-2.9467790126800537,7.977368354797362,-0.6289125680923462,-0.0035048385616391893,-0.0070249503,0.013439035,1
-3.052140474319458,8.224194526672362,-0.6796490550041199,-0.0009751421748660504,-0.011911872,-0.00030543262000000003,1
-3.1413848400115967,8.422573089599611,-0.7040638923645021,0.0006001649890094995,-0.010995574,-0.014049901000000002,1
-3.2044544219970703,8.581577301025389,-0.7072603106498718,-0.0011857463978230953,-0.004276057,-0.017715093,1
-3.2371788024902344,8.709007263183594,-0.6815312504768372,-0.0045807044953107825,-0.019547688,-0.016493361,1
-3.242018461227417,8.79833984375,-0.6348050236701965,-0.006372558418661356,-0.056505036,-0.015882496,1
-3.2431657314300537,8.885664939880371,-0.5849893093109131,-0.006214221008121967,-0.07422013,0.015577064,1
-3.253988981246948,8.953415870666504,-0.5229548215866089,-0.0015155724249780178,-0.05589417,0.021380283,1
-3.2578012943267822,8.994820594787598,-0.4568547606468201,0.005164706613868475,-0.0125227375,0.017715093,1
-3.240480661392212,9.019796371459961,-0.3873391151428223,0.0059098578058183185,0.0061086523,0.032375857,1
-3.210755586624145,9.034914016723633,-0.3295830190181732,-0.004867868032306433,-0.0143553335,0.01740966,1
-3.1907804012298584,9.068673133850098,-0.32103657722473145,-0.02722986973822117,0.009773844,-0.011911872,1
-3.18328070640564,9.172222137451172,-0.3776179254055023,-0.0580660030245781,0.10842858,-0.049480084,1
-3.175389051437378,9.298280715942383,-0.4787346422672272,-0.0925164595246315,0.2012801,-0.076358154,1
-3.118800640106201,9.370726585388184,-0.5981776714324951,-0.12123541533946992,0.19150625,-0.04917465,1
-3.030684471130371,9.383230209350586,-0.7214294672012329,-0.13266699016094208,0.04917465,-0.015882496,1
-2.9790844917297363,9.392614364624023,-0.8377835750579834,-0.12756475806236267,-0.03359759,0.0012217305,1
-2.980054378509521,9.420239448547363,-0.9336151480674744,-0.1107669547200203,-0.014660766,0.01160644,1
-3.021320581436157,9.459752082824707,-0.9557159543037416,-0.08296746015548706,0.030848695,0.018020526,1
-3.067896604537964,9.48701000213623,-0.8982467651367188,-0.053329281508922584,0.024740042,0.010079277,1
-3.0927355289459233,9.49492359161377,-0.7675783634185791,-0.0340176522731781,-0.015577064,-0.0012217305,6
-3.077509880065918,9.500954627990724,-0.5826060175895691,-0.03189664706587792,-0.034208454,-0.0030543262,6
-3.014481782913208,9.516993522644043,-0.3725222945213318,-0.04520932212471962,-0.10995574,0.009162978,6
-2.911826610565185,9.547988891601562,-0.17346355319023132,-0.07014890760183334,-0.16707164,0.06658431,6
-2.775136709213257,9.605402946472168,-0.026293516159057617,-0.10633613914251328,-0.16829337,0.14660765,6
-2.624897718429565,9.656906127929688,0.0878148078918457,-0.15129628777503967,-0.16218472,0.25167647,6
-2.5037195682525635,9.689943313598633,0.19998492300510406,-0.20395097136497495,-0.23854288,0.3484986,6
-2.421736717224121,9.692996978759766,0.38259589672088623,-0.26289573311805725,-0.410196,0.45448375,6
-2.321848154067993,9.698660850524902,0.666815459728241,-0.3331115245819092,-0.64751714,0.6026186,6
-2.117586374282837,9.86154079437256,0.8938320875167847,-0.4044308960437775,-0.8384125,0.8258898000000001,6
-1.803261399269104,10.330944061279297,0.9927398562431335,-0.4423210620880127,-0.8888089,1.1679744,6
-1.4433045387268066,11.110036849975586,1.141618728637695,-0.4057133197784424,-1.1453723999999998,1.5668694,6
-1.3565945625305176,11.80070686340332,1.4285928010940552,-0.35948848724365234,-1.1523973,1.7608191000000002,6
-1.5025856494903564,12.16285228729248,1.6085885763168335,-0.415860116481781,-0.4709771,1.7690657,6
-1.7403435707092283,12.153945922851562,1.6854252815246582,-0.5384725332260132,-0.07544186,1.6368134,6
-2.0991964340209956,11.719186782836914,1.6296257972717283,-0.6766109466552734,-0.41996986,1.4654657,6
-2.5234737396240234,10.908379554748537,1.3484265804290771,-0.7824016213417053,-0.30695978,1.0968086,6
-2.910322666168213,9.88296890258789,0.8781731128692627,-0.8269562721252441,0.16432275,0.61758476,6
-3.1725213527679443,8.856159210205078,0.4990160465240479,-0.7926523089408875,0.44165558,0.118202426,6
-3.227186679840088,8.047155380249022,0.3971444070339203,-0.7037060260772705,0.30848694,-0.2406809,6
-3.1113321781158447,7.52561616897583,0.4859953224658966,-0.5846936702728271,0.06780604,-0.4718934,6
-2.837985754013061,7.243758201599121,0.6136707067489624,-0.4484177529811859,-0.093767814,-0.5842925999999999,6
-2.472824811935425,7.120381832122803,0.7026776671409607,-0.2825668454170227,-0.12095132,-0.61758476,6
-2.1000044345855717,7.133304119110107,0.7796941995620728,-0.10757915675640106,-0.026267206,-0.6178902,6
-1.7774196863174438,7.256152629852295,0.8875538110733032,0.049118880182504654,0.14446963,-0.65057147,6
-1.5267889499664309,7.458516597747803,0.987896203994751,0.18047554790973666,0.28680122,-0.6759224,6
-1.2952696084976196,7.651988506317139,1.0546243190765379,0.26981696486473083,0.37110063,-0.66859204,6
-1.0784807205200195,7.770550727844237,1.094975233078003,0.3137980699539185,0.3203988,-0.6462954000000001,6
-0.9053216576576232,7.82939863204956,1.1038508415222168,0.3268537521362305,0.310625,-0.6200281999999999,6
-0.7831190228462219,7.847428798675537,1.073619723320007,0.31832793354988104,0.42271876,-0.5873469,6
-0.7396421432495117,7.8497376441955575,1.017481565475464,0.307869553565979,0.5665775,-0.5338961999999999,6
-0.7859411239624023,7.840025424957275,1.0181199312210083,0.3036167621612549,0.700357,-0.48197266,6
-0.8836535811424255,7.8320679664611825,1.121611475944519,0.29455748200416565,0.8023715,-0.43035457,6
-0.9885891079902648,7.844345092773437,1.3072694540023804,0.2672270834445953,0.72326446,-0.36957347,6
-1.0818953514099119,7.879201412200928,1.480232000350952,0.2298739850521088,0.6239988000000001,-0.19700404,6
-1.1941025257110596,7.928297996520996,1.572126030921936,0.19177396595478055,0.65057147,-0.023823744,6
-1.3728147745132446,7.958312511444093,1.6059556007385254,0.16518618166446686,0.64476824,0.15515977,6
-1.5908874273300169,7.96989107131958,1.6097394227981567,0.16532279551029205,0.62980205,0.19425514,6
-1.7827179431915283,7.948307514190674,1.6707754135131836,0.2019871175289154,0.6053675000000001,0.19242255,6
-1.8656197786331177,7.943527698516847,1.874197244644165,0.25949525833129883,0.23884831,0.27122417,6
-1.8557043075561523,8.23552131652832,2.1388344764709477,0.3416382372379303,-0.12095132,0.5018258,6
-1.8761655092239382,9.150468826293944,2.1478328704833984,0.4190768599510193,-0.042760565999999986,1.0476339,6
-2.071663856506348,10.58055305480957,1.97051739692688,0.4740135371685028,-0.3145956,1.3845261,6
-2.374751091003418,11.739333152770994,1.8895282745361328,0.4675230085849762,-0.9978484,0.5946773,6
-2.395773410797119,11.948288917541506,1.4751825332641602,0.2675099968910217,-0.6243043,0.56138515,6
-2.40816330909729,11.78017807006836,0.7162259221076965,0.005778930149972439,-0.72387534,0.47586402,6
-2.4892423152923584,11.919516563415527,0.15066330134868622,-0.06462779641151427,-0.5458081,0.24648413,6
-2.3867015838623047,12.873369216918945,-0.15513542294502258,0.008479529060423374,0.01038471,0.081855945,6
-1.7297186851501465,13.433626174926758,-0.4150853455066681,-0.067535400390625,0.8072583999999999,0.06414085,6
-1.2901151180267334,12.820917129516602,-0.9898112416267396,-0.2517267465591431,0.23915374,0.10842858,6
-1.3587586879730225,12.209407806396484,-1.8440293073654173,-0.2934389114379883,0.3191771,0.07696902,6
-1.5397121906280518,11.609888076782227,-2.560398578643799,-0.108145073056221,0.16676621,-0.007330383,6
-1.631531000137329,10.91162109375,-2.723511219024658,0.2362016886472702,-0.3643811,-0.063224554,6
-1.74873948097229,10.261592864990234,-2.1995327472686768,0.5165245532989502,-0.4098906,-0.17073683,6
-1.8543967008590696,9.783320426940918,-1.359358549118042,0.6368427276611328,-0.48716503,-0.226631,6
-1.8235520124435425,9.49903964996338,-0.6149927377700806,0.6561293601989746,-0.6389651,-0.30482176,6
-1.590445876121521,9.36080265045166,-0.011125408113002777,0.6507424116134644,-0.929126,-0.34513888,6
-1.2305846214294434,9.223881721496582,0.40501144528388977,0.6145299673080444,-0.9007208,-0.50671273,6
-0.8575790524482727,9.098418235778807,0.6897431015968323,0.5288046002387999,-0.46914452,-0.571159,6
-0.5164707303047179,9.092047691345217,0.9841740727424622,0.4048914015293121,-0.28130344,-0.47433686,6
-0.2524071931838989,9.180009841918944,1.308653473854065,0.2526739239692688,-0.44929138,-0.301462,6
-0.19551241397857666,9.281759262084961,1.4432883262634275,0.0394340418279171,-0.3036,-0.050396383,6
-0.36795440316200256,9.224413871765137,1.4157333374023438,-0.2121277153491974,-0.62796944,-0.11911872,6
-0.617551326751709,8.978927612304688,1.2633475065231323,-0.4079658091068268,-0.9443977,-0.24984388,6
-0.7729949951171875,8.626946449279785,1.036632776260376,-0.538223922252655,-1.1777482,-0.3640757,6
-0.6755130887031555,8.386884689331055,0.9079870581626892,-0.620735228061676,-1.169807,-0.41874814,6
-0.17898908257484436,8.388993263244629,0.9455042481422424,-0.6585764288902283,-1.3347405,-0.24495697,6
0.8838335275650024,8.73576545715332,1.4169323444366455,-0.6310913562774658,-2.528676700000001,0.42058071,6
2.324284791946411,9.76276397705078,2.25705623626709,-0.5695230960845947,-3.323107,1.9428569,6
2.9762969017028813,11.36522102355957,2.725951194763184,-0.7011319994926453,-0.72326446,2.769663,6
2.0639786720275883,12.892950057983398,2.334322214126587,-1.1071335077285769,1.6514741999999998,2.6041186,6
0.2835063338279724,13.788424491882324,1.471198320388794,-1.4991275072097778,1.3982705,1.8698585,6
-1.470379114151001,13.80007553100586,0.430974006652832,-1.6911545991897583,1.2986995,1.4905111999999998,6
-2.905267238616944,13.307502746582033,0.16166816651821134,-1.542431116104126,0.258396,1.0870347,6
-3.607731819152832,12.614827156066895,0.5991803407669067,-1.324872970581055,-0.19486602,0.7770206000000001,6
-3.6461091041564937,12.064126014709473,1.1441727876663208,-1.124886989593506,-0.68477994,0.61086524,6
-3.3238537311553955,11.50839900970459,1.4174466133117676,-0.9012460112571716,-1.0974194,0.4456262,6
-2.919050455093384,10.749439239501953,1.45631742477417,-0.6284152269363403,-1.0891727,0.037873644,6
-2.640141487121582,9.86032009124756,1.4127317667007446,-0.36548879742622375,-0.9783007,-0.26053402,6
-2.56976056098938,8.960699081420898,1.2673561573028564,-0.12992876768112185,-0.7651087,-0.49021935,6
-2.5210249423980717,8.106313705444336,1.0867898464202879,0.08768071979284286,-0.52320606,-0.73853606,6
-2.434821605682373,7.284891128540039,0.9353427290916444,0.2763747274875641,-0.14660765,-0.98929626,6
-2.3075146675109863,6.563741683959961,0.7714752554893494,0.4463476836681366,0.2012801,-1.2388347,6
-2.1074674129486084,5.9938178062438965,0.6302812695503235,0.5930632948875427,0.7507534,-1.3888022,6
-1.8609989881515503,5.553292274475098,0.5648043751716614,0.7481857538223267,0.9975429,-1.5005904,6
-1.5638031959533691,5.360443592071533,0.6534230709075928,0.8952193856239319,1.0149527,-1.4639386,6
-1.2209653854370115,5.505978584289551,0.8510343432426453,0.9890030026435852,0.82619524,-1.3213016000000002,6
-0.7859890460968018,6.115856647491455,0.9501590132713318,1.0033388137817385,0.5671884,-1.1065824,6
-0.2190290838479996,7.0543365478515625,0.8061766028404236,0.9592326879501344,1.0708468,-1.0485502,6
0.35416319966316223,8.028814315795897,0.6622889041900635,0.8771156072616577,1.5399913,-0.8436049000000001,6
0.7518513202667236,8.869338989257812,0.6797189712524414,0.8372209668159485,1.636508,-0.4156938,6
0.8735876679420471,9.561075210571287,0.8470106720924377,0.8593097925186157,1.4199562,0.13530666,6
0.5637648701667786,10.202131271362305,1.2457760572433472,0.927642822265625,0.40286562,0.68386364,6
-0.42642942070961,11.040260314941406,2.1173412799835205,1.0189465284347534,-0.91904676,0.82253003,6
-1.7853779792785645,11.874844551086426,2.9532566070556636,0.9541979432106018,-0.61758476,0.84207773,6
-2.258877754211426,12.138270378112793,3.1258339881896973,0.663091242313385,-1.1646146000000002,0.3323107,6
-1.9724681377410889,12.23570156097412,2.5299525260925293,0.29204830527305603,-1.2244794,0.5390885999999999,6
-1.7959223985671997,12.249878883361815,1.3891021013259888,0.02337999083101749,-0.62888575,0.5552765000000001,6
-1.7948092222213743,12.080039024353027,0.527454674243927,-0.17652317881584167,-0.893085,-0.06597344599999999,6
-1.5261268615722656,11.969749450683596,-0.047700654715299606,-0.25592565536499023,-0.32742378,-0.18295415,6
-0.9908703565597534,12.249197006225586,-0.5026594400405884,-0.22543050348758695,1.2669345,-0.13103059,6
-0.30096569657325745,12.440823554992676,-0.7211355566978455,-0.25574037432670593,1.7018706,-0.10048734,6
0.13226519525051114,12.31248950958252,-0.8192124962806702,-0.35045376420021057,1.1322386999999998,0.03390302,6
0.05189373716711998,11.989561080932615,-1.0959348678588867,-0.40911510586738586,0.77488256,-0.14477506,6
-0.3019401431083679,11.476225852966307,-1.4720247983932495,-0.3882224559783936,1.0112875,-0.21166481,6
-0.6324530243873596,10.759387016296387,-1.6063703298568726,-0.2832949161529541,0.8213083000000001,-0.18142697,6
-0.8889890909194946,10.017193794250488,-1.4408904314041138,-0.12886209785938266,-0.04153884,-0.24251351,6
-1.136158466339111,9.562381744384766,-1.1451709270477295,0.06763389706611632,-0.39675698,-0.24037547,6
-1.3042409420013428,9.373025894165039,-0.7657850980758667,0.28412190079689026,-0.21135938,-0.36957347,6
-1.182177186012268,9.266115188598633,-0.08884070068597794,0.4373524785041809,-0.1441642,-0.30482176,6
-0.9798417687416076,9.067127227783203,0.6340048909187317,0.4024114310741425,0.13897185,-0.1994475,6
-1.0072121620178225,8.735451698303223,1.2009798288345337,0.17487441003322599,0.1572978,-0.258396,6
-1.2793221473693848,8.387197494506836,1.5536681413650513,-0.06827749311923981,-0.9795224,-0.3295618,6
-1.6505894660949707,8.041082382202147,1.6416001319885254,-0.2092505395412445,-1.8567249,-0.33139440000000003,6
-1.9326704740524288,7.703272819519043,1.556000828742981,-0.2508234679698944,-2.3002130000000003,-0.2556471,6
-1.9478139877319336,7.407949924468994,1.4206558465957642,-0.26252442598342896,-2.13925,-0.3191771,6
-1.5590907335281372,7.321657657623291,1.335391402244568,-0.326006680727005,-1.7079792,-0.20341812,6
-0.6043252348899841,7.91777229309082,1.2448445558547974,-0.3687991499900818,-1.196685,0.77732605,6
0.8340288400650024,9.536519050598145,1.4762330055236816,-0.3005037307739258,-1.7440202,2.3127358,6
1.5430335998535156,11.33047866821289,1.8191773891448972,-0.4341031610965729,-0.505491,2.1676552000000004,6
1.2838484048843384,12.581432342529295,1.8816462755203247,-0.7602284550666809,0.98532563,2.0479257,6
0.3699149191379547,13.021977424621582,1.324313044548035,-1.0654772520065308,1.6991217,1.7238616999999998,6
-1.2449020147323608,13.342554092407227,0.6778527498245239,-1.1928563117980957,0.8793405000000001,1.0375546,6
-2.545698881149292,13.17457103729248,0.7368980646133423,-1.1249474287033079,0.26419923,0.7892378999999999,6
-2.861785411834717,12.549227714538574,1.2194141149520874,-0.9954912066459656,-0.5345071,0.6646214,6
-2.5525031089782715,11.85288906097412,1.5268722772598269,-0.7743593454360962,-1.1600331,0.6737844,6
-2.2434680461883545,11.025304794311523,1.5262044668197632,-0.4813756346702576,-1.1658363,0.32711834,6
-2.054379940032959,10.12667751312256,1.3771047592163086,-0.1854037195444107,-0.84665924,0.086132,6
-1.89873206615448,9.295976638793944,1.1420269012451172,0.04570544883608818,-0.5155702999999999,-0.16126843,6
-1.8167766332626345,8.460978507995605,0.9009658098220824,0.20169833302497864,-0.2648101,-0.38637227,6
-1.8404667377471924,7.610960483551025,0.6775246262550354,0.3072050809860229,0.074830994,-0.6536258,6
-1.915712833404541,6.779191017150879,0.4920023679733277,0.39897865056991577,0.39767328,-0.93126404,6
-1.984350085258484,5.9946022033691415,0.3738178014755249,0.5156363248825073,0.7296785,-1.1979067,6
-1.983515381813049,5.332952976226807,0.3641887903213501,0.6435980796813965,1.040609,-1.423316,6
-1.8570895195007324,4.796840190887451,0.4542379975318909,0.7810110449790955,1.1563678999999998,-1.5818355,6
-1.627192139625549,4.505939960479736,0.6655652523040771,0.9264779090881348,0.84238315,-1.6297885,6
-1.3614860773086548,4.762664794921875,0.9296565651893616,1.0389380455017092,0.7101309,-1.5311338,6
-1.0873626470565796,5.707550048828125,1.24130117893219,1.0529564619064329,1.2574661,-1.3249667,6
-0.6958264112472534,7.372509956359862,1.48071026802063,0.9586116075515748,1.6190983,-0.8164214,6
-0.18263863027095795,9.275941848754883,1.579144835472107,0.8290531039237976,1.072374,-0.10567969,6
0.27531442046165466,10.46039867401123,1.7397245168685913,0.7145975232124329,0.56779927,-0.036957346,6
0.638937771320343,10.917346954345703,2.079601764678955,0.666591465473175,-0.024129177,0.31703907,6
0.7796719670295715,11.244621276855467,2.3448679447174072,0.7262098789215088,0.071776666,1.1236867,6
0.42327257990837097,11.876132011413574,2.32112979888916,0.7045526504516602,0.4025602,1.6978999,6
-0.4030974507331848,12.220956802368164,2.1596441268920903,0.426068127155304,-0.4147775,1.2538009,6
-1.210058093070984,12.308032989501953,1.5659652948379517,0.06967456638813019,-0.23396139,1.0607675,6
-1.8506015539169312,12.823307037353516,0.8908392786979675,-0.08666542172431946,-0.17195857,0.6939429,6
-1.9272700548172,13.822507858276367,0.5435969233512878,-0.16451939940452576,-1.0082331,0.27366763,6
-1.446067214012146,14.240228652954102,0.11242716759443283,-0.3270273506641388,-0.2003638,0.26633725,6
-1.1310783624649048,13.813637733459473,-0.42266228795051575,-0.5455362200737001,0.5684100999999999,0.13561209,6
-1.1398035287857056,12.993833541870115,-0.9632490873336792,-0.6729099750518799,1.5082263,-0.04428773,6
-1.3054791688919067,12.125120162963867,-1.4021563529968262,-0.6809624433517456,1.5796975,-0.08857546,6
-1.4468953609466553,11.297656059265135,-1.6917240619659424,-0.6017845273017883,-0.23304509,-0.002443461,6
-1.579210638999939,10.571284294128418,-2.207618236541748,-0.32936012744903564,-1.9498819,-0.10293079,6
-1.9257220029830933,9.993645668029783,-2.500231504440308,0.012478161603212357,-1.2938126,-0.12583824,6
-2.398884057998657,9.697636604309082,-2.436201810836792,0.4203634858131409,-0.2929099,-0.6301074999999999,6
-2.438839673995972,9.720226287841797,-1.5458669662475586,0.9239941239356996,-0.62125,-0.8454375,6
-1.7244575023651123,9.817060470581056,0.15764908492565155,1.2379353046417236,-2.3652701,-0.72356987,6
-0.8845881223678589,9.750982284545898,1.1121137142181396,1.1355605125427246,-1.3848315,-0.6056729000000001,6
-0.3265669941902161,9.656316757202148,1.2805699110031128,0.8105589747428894,-0.16707164,-0.5488624,6
-0.13785989582538605,9.663302421569824,1.0580619573593142,0.4486014842987061,-0.08643743400000001,-0.5671884,6
-0.07002643495798111,9.811653137207033,0.6863501071929932,0.15819454193115234,0.42943826,-0.56505036,6
0.0033850709442049265,9.845497131347656,0.4409579038619995,-0.030934831127524376,0.3643811,-0.46975538,6
0.04202766343951225,9.675333976745604,0.3656385838985443,-0.1480378806591034,-0.024129177,-0.44104472,6
-0.0003739191452041268,9.324990272521973,0.35122913122177124,-0.2562573552131653,-0.376293,-0.5338961999999999,6
-0.033538028597831726,8.915051460266113,0.2628956437110901,-0.3641199767589569,-0.18295415,-0.6713409,6
0.06976697593927382,8.530941009521483,0.0953194797039032,-0.494649350643158,0.3277292,-0.79045963,6
0.469442218542099,8.362007141113281,0.031210314482450482,-0.6238887906074524,0.38759398,-0.5332854,6
1.7741714715957642,8.840972900390625,0.7657570838928223,-0.6067774891853333,-1.3701707,0.5009095,6
3.271960735321045,10.149815559387207,2.088449716567993,-0.3812161982059479,-4.550946,2.4736989,6
3.3518574237823486,11.75128936767578,2.4184064865112305,-0.4574482440948486,-0.23701571,2.7681358,6
2.034711599349976,13.15989875793457,1.7587646245956419,-0.9543125629425048,3.5188892,2.5525005000000003,6
0.110966295003891,13.800331115722654,0.9765329957008362,-1.4343656301498413,2.1694880000000003,1.920255,6
-1.77292799949646,13.619913101196287,0.1508643925189972,-1.7216904163360596,0.73823065,1.6487253000000002,6
-3.3104228973388667,12.856301307678224,-0.3388315439224243,-1.7262651920318604,0.6404922,1.2458596000000002,6
-4.3596954345703125,11.908215522766113,-0.20257309079170227,-1.5441200733184814,-0.46303585,0.62949663,6
-4.596045017242432,11.373164176940918,0.2473599910736084,-1.1967496871948242,-0.9550878,0.6960809,6
-4.062675952911377,11.171844482421877,0.718748927116394,-0.8154539465904236,-1.5659530000000002,0.82924956,6
-3.31878662109375,10.758618354797363,0.8961547017097473,-0.4325611591339111,-1.6429220000000002,0.35918877,6
-2.729137897491455,10.119175910949707,0.8945008516311646,-0.0737026259303093,-1.5659530000000002,-0.048563786,6
-2.390246629714966,9.382756233215332,0.7686451077461243,0.2163764238357544,-1.1771374,-0.46120325,6
-2.194247007369995,8.63034725189209,0.592754065990448,0.426735520362854,-0.6230826,-0.8008443000000001,6
-2.0425209999084477,7.899943828582764,0.5007326006889343,0.5620757937431335,-0.13255776,-1.0424415,6
-1.897850513458252,7.143325328826903,0.4648809731006622,0.6360933184623718,0.2415972,-1.2748758,6
-1.7772098779678345,6.375948429107666,0.4225203990936279,0.6866090893745422,0.52320606,-1.5531249,6
-1.5987334251403809,5.736292839050293,0.3497314453125,0.7333523631095886,0.77946407,-1.7259997,6
-1.3400284051895142,5.387269973754883,0.3170638382434845,0.7749359011650085,1.1597277,-1.7287487,6
-0.9567659497261048,5.5293002128601065,0.4224281311035156,0.7779771685600281,1.5537357,-1.5415184,6
-0.475881040096283,6.2581138610839835,0.73905348777771,0.7301473021507263,1.5931365,-1.2122620000000002,6
0.12095481902360915,7.609304428100586,0.9339508414268494,0.678142786026001,1.6844609,-0.6789767,6
0.7460852861404419,9.077929496765137,1.0527805089950562,0.6334402561187744,1.0711522,-0.3463606,6
1.191651701927185,9.974604606628418,1.2120161056518557,0.6287155747413635,0.48288897,-0.18997909,6
1.435271382331848,10.226725578308104,1.392912983894348,0.6458017826080322,0.18448131,0.25259277,6
1.417043924331665,10.435367584228516,1.6296709775924685,0.6853143572807312,-0.2706133,1.0616838,6
0.9535202980041504,11.183602333068848,1.8926998376846316,0.7703266739845276,-0.9126327,1.8161024,6
-0.08689223229885101,11.973467826843262,2.2950785160064697,0.8346882462501526,-1.670411,1.412015,6
-1.1629631519317627,11.512969017028807,1.9862130880355835,0.5722925066947937,-0.7504479000000001,0.70188415,6
-1.8290200233459477,10.768776893615724,1.2557785511016846,0.16008047759532928,0.01282817,0.4034765,6
-2.1305294036865234,11.44261646270752,0.43489724397659296,-0.05036421865224838,1.2040153999999998,-0.048258353,6
-1.4498025178909302,12.756477355957033,0.2773527503013611,-0.011400768533349035,-0.29901853,-0.41080686,6
-0.047705616801977165,13.428967475891113,0.1883644163608551,0.06654360890388489,0.03268129,-0.18509217,6
0.7824109792709351,12.948789596557615,0.09920226037502287,-0.08026980608701706,0.46883908,0.3378085,6
0.772842288017273,12.31678295135498,-0.11742013692855835,-0.2745416760444641,1.133155,0.13561209,6
0.323461651802063,11.891279220581055,-0.4461909532546997,-0.4389597475528717,1.6994271,-0.29046643,6
-0.13386240601539612,11.419927597045898,-0.7310338020324707,-0.5555797219276428,1.4627168,-0.19975294,6
-0.5548984408378601,10.769875526428224,-0.9447219371795654,-0.6211830377578735,0.36163223,-0.14630222,6
-0.9828636646270752,9.9769868850708,-1.1731746196746826,-0.5476981401443481,-0.5170974,-0.43463063,6
-1.366099238395691,9.158945083618164,-1.3996191024780271,-0.3454389274120331,-0.31673363,-0.6230826,6
-1.6590223312377932,8.519838333129883,-1.4851468801498413,-0.04575250297784805,0.17195857,-0.7367035,6
-1.780042290687561,8.267110824584961,-1.3654391765594482,0.2847009599208832,0.21135938,-0.88056225,6
-1.5890657901763916,8.432082176208496,-0.8543727993965149,0.5750147104263306,-1.0244209999999998,-0.8145888000000001,6
-1.0846794843673706,8.81913948059082,-0.0846748799085617,0.7183479070663452,-2.0937407,-0.61850107,6
-0.4292474985122681,9.15865993499756,0.454467236995697,0.673797070980072,-1.6902641,-0.30573806,6
-0.03977928683161736,8.987587928771973,0.728776216506958,0.4871475696563721,-1.0015136,0.03848451,6
-0.13863641023635864,8.573619842529299,0.8748629093170166,0.2553125023841858,-0.79717916,0.17745635,6
-0.5687634944915771,8.243091583251951,0.8420788645744324,0.04548979923129082,-0.9388999,0.08857546,6
-0.8958903551101685,8.054462432861326,0.8147669434547424,-0.14956985414028168,-0.9401216,-0.21991149,6
-0.7509918808937073,8.129000663757324,0.9112908244132996,-0.3515734374523163,-1.0891727,-0.12492194,6
0.14071716368198395,8.874813079833984,1.1719483137130735,-0.4944969415664673,-1.5772540000000002,0.786489,6
1.7636862993240356,10.440780639648438,1.5567156076431274,-0.4581571519374848,-2.278833,2.6978865,6
2.7898952960968018,12.079387664794922,1.71381413936615,-0.558516800403595,-0.68783426,3.1832187000000003,6
2.3862154483795166,13.457667350769045,1.2973603010177612,-0.8295055627822876,0.57879484,3.1398473,6
1.0197657346725464,14.147170066833494,0.4432019293308258,-1.0082889795303345,0.55924714,2.3759604,6
-0.5729058980941772,14.152960777282715,-0.2080970108509064,-1.0206104516983032,0.9468411,1.8374827,6
-1.9294934272766116,13.589459419250488,-0.2481563240289688,-0.9760956764221193,0.78984874,0.84665924,6
-2.482142686843872,12.733499526977539,0.006211875472217797,-0.8759249448776245,0.5491679,0.54000485,6
-2.365885972976685,11.92452335357666,0.32899266481399536,-0.7694042921066284,-0.1337795,0.4841107,6
-2.0630323886871342,11.173731803894043,0.4623949825763702,-0.5947093367576599,-0.24129178,0.025350908,6
-1.6631742715835571,10.539344787597656,0.5563347935676575,-0.35606124997138977,-0.5766568,-0.25442538,6
-1.4286251068115234,9.858747482299805,0.6220225095748901,-0.12337415665388107,-0.49510628,-0.5235115,6
-1.4624617099761963,9.144296646118164,0.6115487813949585,0.04474562406539917,-0.09132435,-0.7470882,6
-1.551340103149414,8.412373542785645,0.6096199154853821,0.14977124333381653,0.29901853,-0.91965765,6
-1.6084855794906616,7.727384090423584,0.6292635202407837,0.1968945264816284,0.5503895999999999,-1.1432343,6
-1.5831413269042969,7.156694412231445,0.6266011595726013,0.2355666309595108,0.75900006,-1.3445143999999998,6
-1.4569814205169678,6.696293354034424,0.6160000562667847,0.30336210131645197,0.754724,-1.4899003999999998,6
-1.214648962020874,6.369847774505615,0.5555660128593445,0.3934711813926697,0.6386596,-1.5357152,6
-0.8756292462348938,6.24160623550415,0.4598363935947418,0.48743590712547297,0.53786683,-1.4526376,6
-0.5050958395004272,6.438138484954834,0.3393908143043518,0.5778655409812927,0.59437186,-1.2788464,6
-0.09963278472423552,6.977660655975343,0.23792774975299835,0.6469519138336182,0.68875057,-1.1261301,6
0.2991223335266113,7.6966209411621085,0.2526528239250183,0.6824074387550354,0.6765333,-0.9593639000000002,6
0.6275351643562317,8.462318420410156,0.3720436096191406,0.7030428647994995,0.66828656,-0.79259765,6
0.8387122750282288,9.156700134277344,0.5187055468559265,0.7423060536384583,0.623388,-0.5439755000000001,6
0.9151971936225892,9.730995178222656,0.6935365200042725,0.8200553059577942,0.5345071,-0.12370021,6
0.8480497002601624,10.073358535766602,1.0176987648010254,0.9355714917182922,0.04550946,0.1337795,6
0.7239072918891907,10.13992977142334,1.4512175321578982,1.0198234319686892,-0.0143553335,0.26297748,6
0.5497550368309021,10.194390296936037,1.7847750186920166,1.0189217329025269,0.16157386,0.42760566,6
0.19978880882263186,10.529991149902344,2.0265974998474117,1.0047926902770996,-0.22388211,0.66737026,6
-0.2684899866580963,11.259773254394533,2.175079822540283,0.9234458804130554,-0.98654735,1.1129965,6
-0.7809054851531982,11.571226119995115,2.1086597442626958,0.7438836693763733,-1.5552629,0.77854776,6
-1.178632378578186,11.386591911315918,1.5777554512023926,0.4520666301250458,-0.3051272,0.8069529999999999,6
-1.6751354932785034,11.91077995300293,0.8079147934913635,0.10492251068353653,0.8002335,0.8194756999999999,6
-1.9688462018966677,13.058151245117188,0.1541094034910202,-0.20154641568660736,1.174083,-0.13194689,6
-1.5400834083557131,13.507718086242676,-0.194978266954422,-0.3648815453052521,0.9932669,-0.60903263,6
-0.8052747845649719,12.883095741271973,-0.4181402921676636,-0.5086296200752258,1.2431108,-0.14844026,6
-0.2377348393201828,11.99569606781006,-0.6669198274612427,-0.6937719583511353,1.0134255,-0.037873644,6
0.017128722742199898,11.55176830291748,-1.1452593803405762,-0.7977405190467834,0.18967366,0.06872234,6
0.03137020766735077,11.294947624206545,-1.8452268838882449,-0.6945244073867798,-1.2513573999999998,0.14080444,6
-0.02723415195941925,10.908227920532227,-2.5127437114715576,-0.4159544110298157,-1.2198979,0.31245756,6
-0.2655497193336487,10.273428916931152,-2.772573471069336,-0.1400458961725235,-0.7275404999999999,-0.0070249503,6
-0.6734016537666321,9.542494773864746,-2.6917388439178467,0.14222317934036255,-0.20219639,-0.37018433,6
-1.1288208961486816,8.942174911499023,-2.4210293292999268,0.46167907118797297,0.15485434,-0.58032197,6
-1.3594681024551392,8.634153366088867,-1.8108676671981807,0.8381486535072327,-0.31642818,-0.68630713,6
-1.0771279335021973,8.839393615722656,-0.3935795724391937,1.156409502029419,-2.410169,-0.31795537,6
-0.596778929233551,9.17819118499756,0.6216631531715393,1.08681321144104,-1.5464053,-0.058643065,6
-0.460825651884079,9.27358627319336,0.7248574495315552,0.7606177330017091,0.25137106,-0.19150625,6
-0.6565343141555786,9.232673645019533,0.5553682446479797,0.3659534752368927,0.7583892,-0.43127087,6
-0.9597747921943665,8.968973159790039,0.5035896301269531,0.04570092633366585,0.20677789,-0.50793445,6
-1.193589448928833,8.531281471252441,0.467341274023056,-0.1949605643749237,-0.5308419,-0.6432411,6
-1.2411530017852783,8.028507232666017,0.2651016116142273,-0.4480964243412018,-0.15118915,-0.95722586,6
-1.0084376335144043,7.732481002807617,0.04448795318603516,-0.7747785449028015,0.3998113,-1.067487,6
-0.484029471874237,7.8631224632263175,-0.06565290689468384,-1.1018011569976809,0.44348818,-0.8933904,6
0.3675297200679779,8.405037879943848,-0.1156224086880684,-1.3119628429412842,-0.058948494,-0.17837265,6
1.5854153633117676,9.33163070678711,-0.12179362028837205,-1.2896255254745483,-0.84207773,1.1753048,6
2.9818599224090576,10.657886505126953,0.134060338139534,-1.0104508399963381,-2.1261165,2.666427,6
4.102137565612793,12.10201358795166,0.7596989870071411,-0.6943053007125854,-3.5931094,3.2308662,6
3.954308271408081,13.294979095458984,1.4075250625610352,-0.5119495391845703,-1.0158689,3.1658092,6
2.4137744903564453,14.06702995300293,1.6354408264160156,-0.7285791039466858,2.8026497000000004,2.765387,6
0.4413421452045441,14.089810371398926,1.2705734968185425,-1.0780315399169922,1.366811,2.002111,6
-1.4863804578781128,13.594447135925293,0.4919174313545227,-1.193084716796875,0.8872818000000001,1.0888673,6
-2.8364033699035645,12.688838958740234,0.337539404630661,-1.047700047492981,0.12095132,0.40225476,6
-3.0974984169006348,11.904986381530762,0.6185174584388733,-0.8234068751335144,-0.36743546,0.32742378,6
-2.5833914279937744,11.49328899383545,0.9006223082542419,-0.5725947618484497,-0.8875871999999999,0.3680463,6
-1.753906488418579,11.325136184692385,1.0413225889205933,-0.3072107434272766,-0.768163,0.37568212,6
-1.1470849514007568,11.086761474609377,1.1645071506500244,-0.06413104385137558,-0.54092115,0.19792034,6
-0.9437503814697266,10.755138397216797,1.2180709838867188,0.10527333617210388,-0.051618114000000014,-0.01038471,6
-1.0050539970397951,10.309823989868164,1.1700092554092407,0.2118254154920578,0.30451632,-0.16768251,6
-1.2235431671142578,9.682838439941406,1.0657080411911009,0.2880192697048187,0.63407815,-0.38453966,6
-1.4499564170837402,8.9478178024292,1.0015091896057131,0.33578455448150635,0.6239988000000001,-0.5732970000000001,6
-1.5886871814727783,8.186898231506348,0.9562618136405944,0.3907319009304047,0.63346726,-0.77763146,6
-1.582663655281067,7.525245189666747,0.9283506870269777,0.4687051177024841,0.636827,-0.9419542,6
-1.4487354755401611,7.022303581237793,0.9493847489356996,0.5536379218101501,0.6398814,-1.1187996999999998,6
-1.2298883199691772,6.7058348655700675,1.0429444313049316,0.6056786775588989,0.77640975,-1.2342533000000002,6
-0.9650886058807372,6.620253562927246,1.1456345319747925,0.6086975932121277,1.1111639,-1.1685852,6
-0.6963872313499451,6.778724193572997,1.2495642900466921,0.5758844017982483,1.3567317,-1.1343768,6
-0.4110164940357208,7.139200210571289,1.3706421852111816,0.5150720477104187,1.3732251,-1.1502593,6
-0.006937088444828987,7.651711940765381,1.38158917427063,0.4451740980148315,1.461495,-1.0711522,6
0.5018762946128845,8.14448356628418,1.2510377168655396,0.3896795213222504,1.7699821,-0.83077675,6
0.9232217669487,8.506711959838867,1.1162375211715698,0.34934934973716736,1.8671097,-0.42485678,6
1.0265060663223269,8.758588790893555,1.1239449977874756,0.3332725763320923,1.4804319,0.04062254,6
0.8506823182106018,8.820382118225098,1.2299622297286987,0.3594810366630554,0.61575216,0.26542094,6
0.5742253065109253,8.719821929931639,1.2332926988601685,0.4172571003437042,0.015882496,0.37995818,6
0.4369129240512848,8.899446487426758,1.0271722078323364,0.5464926958084106,0.094989546,0.57940567,6
0.4212866127490997,9.787653923034668,0.7754456996917725,0.7238649725914001,0.3371976,0.91232723,6
0.206920862197876,11.262152671813965,0.6584372520446777,0.85369473695755,-0.6783658,1.1969905,6
-0.4134610295295715,12.337862968444824,0.4803972542285919,0.8037916421890259,-1.6209308999999998,0.52198434,6
-1.3226999044418335,12.760210037231445,0.004684701096266508,0.6563502550125122,-1.9804251,-0.8390234000000001,6
-2.4734463691711426,13.726232528686525,-0.9554216265678406,0.5586545467376709,1.0027353,-1.8551978,6
-3.6899547576904297,14.700493812561035,-1.705492615699768,0.7719082832336426,3.3402112,-1.201572,6
-4.132053852081299,14.267102241516113,-1.0268006324768066,1.119841456413269,0.59131753,-0.5128214,6
-3.6587650775909424,12.616669654846193,0.3992831408977509,0.8836525678634644,-2.1084013,-0.818254,6
-2.7258460521698,11.369622230529785,0.4047309458255768,0.18654170632362368,-1.7162258999999995,-0.26450464,6
-1.865679144859314,10.598759651184082,-0.668803334236145,-0.2141866236925125,-0.16157386,-0.23640485,6
-1.4000489711761477,10.198719024658203,-1.7732335329055786,-0.1541600227355957,0.39828414,0.008552114,6
-1.1826027631759644,9.825506210327148,-2.3964290618896484,0.0764140710234642,0.11056661,0.050396383,6
-1.085688829421997,9.427762031555176,-2.542330026626587,0.2538964152336121,-0.31856623,0.13255776,6
-1.1589473485946655,9.20494556427002,-2.42331337928772,0.3241026699542999,-0.6973026999999999,0.0070249503,6
-1.4227207899093628,9.306596755981444,-2.249514102935791,0.3797134160995483,-0.7281514,-0.12522738,6
-1.7598998546600342,9.489782333374023,-2.009982824325561,0.4872609376907349,-0.88361657,0.005497787,6
-2.128786325454712,9.469916343688963,-1.7629578113555908,0.5984218716621399,-0.977079,-0.09254608,6
-2.446706295013428,9.499869346618652,-1.5495275259017944,0.6027531027793884,-0.5546656,-0.29046643,6
-2.5524868965148926,9.716453552246094,-1.4634050130844116,0.4451526403427124,0.14721853,-0.44715336,6
-2.392672300338745,10.028016090393066,-1.4950600862503052,0.19468821585178372,0.80756384,-0.59712076,6
-2.0613863468170166,10.351595878601074,-1.5259363651275637,-0.039950516074895866,0.8188649,-0.61819565,6
-1.6931694746017456,10.595698356628418,-1.5361675024032593,-0.18493345379829407,0.4822781,-0.49205196,6
-1.4229896068572998,10.606947898864746,-1.5460728406906128,-0.2582902312278748,0.12858713,-0.30757064,6
-1.3325507640838623,10.4307279586792,-1.5498833656311035,-0.2788811028003693,-0.2415972,-0.20769419,6
-1.365435004234314,10.174705505371094,-1.5769953727722168,-0.25699928402900696,-0.57787853,-0.14294247,6
-1.447277307510376,9.87930965423584,-1.7948373556137085,-0.236793115735054,-0.35430184,-0.1133155,6
-1.5513365268707275,9.567132949829102,-2.19750452041626,-0.2864275574684143,0.25381452,-0.14660765,6
-1.6470154523849487,9.373523712158203,-2.4230976104736333,-0.3254193663597107,-0.014966198,-0.017104227,6
-1.7289168834686282,9.317584037780762,-2.478621006011963,-0.25526538491249084,-0.24953845,0.08582657,6
-1.8261871337890625,9.361526489257812,-2.4408981800079346,-0.1200559213757515,-0.08155051,0.14630222,6
-1.9721357822418213,9.47028636932373,-2.324994802474976,0.0017593636875972152,-0.025045475,0.15454891,6
-2.158752918243408,9.578768730163574,-2.1503610610961914,0.0866396576166153,-0.18509217,0.15149458,6
-2.337932825088501,9.596303939819336,-1.948788046836853,0.14371755719184875,-0.34483343,0.12889257,6
-2.4981069564819336,9.521095275878906,-1.7631895542144775,0.1916714608669281,-0.23915374,0.06811147,6
-2.6289942264556885,9.430031776428224,-1.5838264226913452,0.24672946333885196,-0.12370021,0.0027488936,6
-2.7081124782562256,9.37416172027588,-1.3722472190856934,0.2816306948661804,-0.16982053,-0.052839845,6
-2.720034599304199,9.37364101409912,-1.1681870222091677,0.2930643260478973,-0.15882497,-0.083383106,6
-2.649627447128296,9.432825088500977,-1.0103662014007568,0.2826339900493622,0.0030543262,-0.099571034,1
-2.4907116889953613,9.569550514221193,-0.8681557774543762,0.2377530038356781,0.09040806,-0.10293079,1
-2.2884371280670166,9.694893836975098,-0.7491844892501831,0.1484026163816452,-0.03970624,-0.08216137400000001,1
-2.0970408916473393,9.743534088134766,-0.6786094307899475,0.02015236578881741,-0.19883664,-0.06261369,1
-1.9662580490112305,9.736513137817383,-0.6963734030723572,-0.12190909683704375,-0.26908615,-0.044898596,1
-1.929105520248413,9.695021629333496,-0.8225602507591248,-0.2459760308265686,-0.39706242,-0.035124752999999995,1
-1.9747159481048584,9.609874725341797,-1.0710225105285645,-0.3116205632686615,-0.41874814,-0.0290161,1
-2.0603682994842534,9.507893562316896,-1.4017378091812134,-0.2982897162437439,-0.1160644,-0.0070249503,1
-2.1592793464660645,9.441421508789062,-1.6601712703704834,-0.2102397084236145,0.29901853,0.03176499,1
-2.252118825912476,9.433292388916016,-1.7111357450485232,-0.08911386877298355,0.37568212,0.040317107000000005,1
-2.343491077423096,9.469839096069336,-1.5653467178344729,0.02198018692433834,0.12308934,0.043982297,1
-2.4387030601501465,9.516133308410645,-1.348989725112915,0.09855981171131134,-0.19822577,0.025045475,1
-2.524632453918457,9.534734725952148,-1.1572576761245728,0.12539097666740415,-0.23609942,-0.04428773,1
-2.588451862335205,9.5217866897583,-1.020039439201355,0.10690829902887344,-0.06872234,-0.08124508,1
-2.6221306324005127,9.50947380065918,-0.8953067064285278,0.06251556426286697,-0.044898596,-0.112704635,1
-2.62302303314209,9.498692512512207,-0.7879289984703064,0.007527143228799105,-0.17501289,-0.116675265,1
-2.5905086994171143,9.495116233825684,-0.7236760258674622,-0.046167608350515366,-0.3381139,-0.11453723,1
-2.5366969108581543,9.512245178222656,-0.7477530837059021,-0.08508539199829103,-0.43310347,-0.10934488,1
-2.455500602722168,9.566445350646973,-0.8306657671928406,-0.09993478655815123,-0.41722095,-0.08674286,1
-2.345489263534546,9.627155303955078,-0.9093580842018129,-0.0930318832397461,-0.3594942,-0.05497787,1
-2.234059810638428,9.670490264892578,-0.9542924165725708,-0.0708141103386879,-0.31398472,-0.032375857,1
-2.1544966697692867,9.686784744262695,-0.9604313373565674,-0.047850728034973145,-0.25503623,-0.01863139,1
-2.1116204261779785,9.682042121887207,-0.9602012634277344,-0.032895661890506744,-0.14110987,-0.02687807,1
-2.082559585571289,9.669196128845217,-0.9495810270309448,-0.02851814776659012,-0.013439035,-0.030848695,1
-2.0531778335571294,9.663579940795898,-0.9259102940559388,-0.03111741319298744,0.010079277,-0.019547688,1
-2.0326399803161617,9.658805847167967,-0.9048632383346558,-0.0383283831179142,-0.050396383,-0.008857545999999999,1
-2.05173134803772,9.655767440795898,-0.9122647643089294,-0.044095613062381744,-0.083383106,0.0067195175,1
-2.105245590209961,9.650546073913574,-0.9424805045127868,-0.037244848906993866,-0.050396383,0.010995574,1
-2.1693150997161865,9.63879680633545,-0.9668011665344238,-0.01518396660685539,0.017104227,0.015882496,1
-2.226094007492065,9.622550010681152,-0.956725001335144,0.014013479463756084,0.05009095,0.004886922,1
-2.2674243450164795,9.610391616821287,-0.91493958234787,0.04011289402842522,0.0143553335,0.016493361,1
-2.2914843559265137,9.593256950378418,-0.8566762208938599,0.05343433097004889,-0.027183503,0.004276057,1
-2.312326669692993,9.579351425170898,-0.8092338442802429,0.045472823083400726,-0.008246681,-0.0067195175,1
-2.335524320602417,9.574474334716797,-0.7827741503715515,0.02439553290605545,0.0290161,-0.018020526,1
-2.363907814025879,9.566526412963867,-0.7770331501960754,-0.0008401991799473763,0.046731193,-0.040011674,1
-2.387056827545166,9.542288780212402,-0.7819103002548218,-0.02753431536257267,0.039095376,-0.049785517,1
-2.4038281440734863,9.5316743850708,-0.8102335929870605,-0.05321470648050308,0.018325957,-0.06169739,1
-2.4127914905548096,9.551023483276367,-0.8695439100265503,-0.07204914838075638,0.030848695,-0.062002823,1
-2.411059617996216,9.58148193359375,-0.9471167922019958,-0.07935392111539841,0.052839845,-0.054061573,1
-2.400988817214966,9.603582382202148,-1.020161509513855,-0.07742985337972641,0.07666359,-0.03176499,1
-2.389455556869507,9.605223655700684,-1.0708546638488772,-0.06831573694944383,0.08857546,-0.020158553,1
-2.372352600097656,9.605034828186037,-1.0965957641601562,-0.05979524925351142,0.10781772,-0.00580322,1
-2.3508615493774414,9.61438274383545,-1.1150710582733154,-0.0522446408867836,0.12980886,0.00580322,1
-2.3261828422546387,9.627298355102539,-1.1174706220626829,-0.04315239191055298,0.15271631,0.034208454,1
-2.296971321105957,9.62407398223877,-1.1082237958908079,-0.03451642766594887,0.12034045,0.061086524,1
-2.2728140354156494,9.61758804321289,-1.0894734859466553,-0.0277283638715744,0.105374254,0.07819075,1
-2.278525114059448,9.619770050048828,-1.0765804052352903,-0.021288536489009857,0.11484267,0.07360926,1
-2.3287570476531982,9.60621452331543,-1.0634040832519531,-0.018872808665037155,0.13805555,0.064446285,1
-2.402946949005127,9.567980766296387,-1.0499032735824585,-0.021033212542533875,0.13194689,0.04795292,1
-2.475987434387207,9.536303520202637,-1.0501458644866943,-0.023930873721838,0.12522738,0.02687807,1
-2.5317208766937256,9.518765449523926,-1.0553412437438965,-0.026232151314616203,0.14966199,0.003970624,1
-2.5620431900024414,9.50879192352295,-1.0514107942581177,-0.02624475210905075,0.15974127,-0.0070249503,1
-2.573551177978516,9.50661849975586,-1.0300021171569824,-0.024808606132864952,0.1441642,-0.01038471,1
-2.5761361122131348,9.516501426696776,-0.9919124841690063,-0.02444491907954216,0.15088372,-0.01282817,1
-2.560721635818481,9.532718658447266,-0.945373833179474,-0.027499444782733917,0.1337795,-0.010690141499999998,1
-2.524688959121704,9.552457809448242,-0.9041619896888732,-0.034111469984054565,0.1133155,-0.003970624,1
-2.487938404083252,9.573898315429688,-0.8752837777137756,-0.045749254524707794,0.08063421400000001,0.009162978,1
-2.4537532329559326,9.589354515075684,-0.8692320585250854,-0.056711733341217034,0.06414085,0.021991149,1
-2.430500030517578,9.589860916137695,-0.8861712813377379,-0.06437082588672638,0.06352998,0.03145956,1
-2.424056053161621,9.58482551574707,-0.9185225367546082,-0.06675530225038527,0.07819075,0.040011674,1
-2.4287638664245605,9.584978103637695,-0.9555463194847108,-0.0622515007853508,0.08643743400000001,0.04062254,1
-2.4369454383850098,9.580366134643556,-0.9748082160949708,-0.05278007313609123,0.092240654,0.040317107000000005,1
-2.4429173469543457,9.580167770385742,-0.9762778878211976,-0.042333390563726425,0.08643743400000001,0.039095376,1
-2.4495718479156494,9.579058647155762,-0.9562951922416688,-0.03279324620962143,0.07086037,0.03604105,1
-2.4550721645355225,9.577295303344727,-0.923434853553772,-0.02660431712865829,0.046120327,0.029321533,1
-2.458569049835205,9.576800346374512,-0.8859841227531433,-0.02528081089258194,0.017715093,0.03176499,1
-2.465642213821411,9.578943252563477,-0.8523730039596558,-0.027520101517438892,-0.018936822,0.03145956,1
-2.4799163341522217,9.570746421813963,-0.8385750651359558,-0.030597301200032238,-0.05100725,0.033292156,1
-2.496992826461792,9.564794540405273,-0.8354986310005188,-0.03394612669944763,-0.06719518,0.03390302,1
-2.509150981903076,9.564922332763672,-0.8367611169815063,-0.037191443145275116,-0.07727446,0.03268129,1
-2.5094106197357178,9.569814682006836,-0.8324905037879944,-0.03803268074989319,-0.08399397,0.023823744,1
-2.4936485290527344,9.572047233581543,-0.8207907676696777,-0.03921879455447197,-0.081855945,0.022602014,1
-2.4681224822998047,9.565451622009276,-0.8100445866584778,-0.04285011813044548,-0.10842858,0.009468411,1
-2.4382612705230717,9.565352439880373,-0.8080214858055115,-0.046889998018741615,-0.12950343,0.00580322,1
-2.3987362384796143,9.571243286132812,-0.8184269666671753,-0.05066605284810066,-0.12308934,0.009773844,1
-2.3647329807281494,9.582902908325195,-0.8278381228446959,-0.05048592761158943,-0.13041973,0.014660766,1
-2.32802152633667,9.589298248291016,-0.8238577246665955,-0.04531610384583473,-0.14477506,0.025350908,1
-2.2962136268615723,9.58741569519043,-0.8298152089118958,-0.0383995808660984,-0.13164146,0.019547688,1
-2.2718279361724854,9.597299575805664,-0.8421523571014404,-0.03107428178191185,-0.102319926,0.029321533,1
-2.261258125305176,9.607295989990234,-0.8474103212356567,-0.02144867554306984,-0.111177474,0.036651913,1
-2.2536606788635254,9.61484432220459,-0.8378002643585205,-0.011972830630838873,-0.1160644,0.039095376,1
-2.250431060791016,9.625282287597656,-0.8228380680084229,-0.004613287746906281,-0.10720685,0.04550946,1
-2.245391607284546,9.627706527709961,-0.8011056780815125,2.221969407401048e-05,-0.11362094,0.040317107000000005,1
-2.2395565509796143,9.627169609069824,-0.7792024016380309,0.0013022662606090307,-0.12797627,0.050396383,1
-2.237799406051636,9.627656936645508,-0.7571101784706116,0.0012315037893131375,-0.12308934,0.0421497,1
-2.24878478050232,9.627869606018066,-0.7434774041175842,-0.0009267075220122931,-0.1282817,0.03756821,1
-2.2702629566192627,9.626335144042967,-0.7405388951301575,-0.0012332500191405413,-0.11636983,0.029626964,1
-2.2916555404663086,9.617764472961426,-0.7326172590255737,-0.0035168782342225318,-0.10934488,0.010690141499999998,1
-2.2991514205932617,9.60969352722168,-0.7295377850532532,-0.0063381134532392025,-0.08735373,-0.007330383,1
-2.2968220710754395,9.607434272766113,-0.7303693890571594,-0.010488977655768394,-0.056505036,-0.0143553335,1
-2.2907979488372803,9.609160423278807,-0.7345419526100159,-0.014230833388864994,-0.03390302,-0.014049901000000002,1
-2.2718579769134517,9.615153312683104,-0.7350944876670837,-0.015958743169903755,-0.034208454,-0.014049901000000002,1
-2.2380518913269043,9.627421379089355,-0.7403388023376465,-0.017978757619857788,-0.04428773,-0.00580322,1
-2.2018277645111084,9.642568588256836,-0.7397674918174744,-0.01815120130777359,-0.040927973,-0.005192355,1
-2.1620619297027592,9.655136108398438,-0.7365341782569885,-0.0173677746206522,-0.030543262,0.010690141499999998,1
-2.127957820892334,9.669151306152344,-0.7326046228408813,-0.016905488446354866,-0.02076942,0.020463986,1
-2.097888708114624,9.67506504058838,-0.727913498878479,-0.01905895210802555,-0.002443461,0.023823744,1
-2.076730251312256,9.67398166656494,-0.7304173111915588,-0.021288206800818443,0.019242255,0.027794369,1
-2.072584867477417,9.672772407531738,-0.7313605546951294,-0.02329372614622116,0.036957346,0.02321288,1
-2.086747407913208,9.659553527832033,-0.7399129867553711,-0.02232233248651028,0.04917465,0.032375857,1
-2.112382173538208,9.643525123596193,-0.7507184147834778,-0.01812789030373096,0.081855945,0.026267206,1
-2.1380758285522456,9.636446952819824,-0.7563812136650085,-0.013433433137834072,0.10415252,0.013439035,1
-2.161394596099853,9.630391120910645,-0.756712794303894,-0.010069379583001137,0.110872045,0.007330383,1
-2.1735637187957764,9.636259078979492,-0.7368224263191223,-0.009204186499118805,0.11453723,0.007941248,1
-2.1790003776550293,9.645468711853027,-0.7171539068222046,-0.010495741851627828,0.129198,0.021991149,1
-2.1780037879943848,9.64869785308838,-0.694934606552124,-0.011729022487998007,0.116675265,0.025961773,1
-2.1774020195007324,9.650959968566896,-0.6819745898246765,-0.015508087351918219,0.10262536,0.03023783,1
-2.1856274604797363,9.652812004089355,-0.6829482913017273,-0.018780739977955815,0.08827003,0.039095376,1
-2.204306602478028,9.645268440246582,-0.689958930015564,-0.02286355569958687,0.05925392700000001,0.043676864,1
-2.2369792461395264,9.63088321685791,-0.7026043534278871,-0.0245098490267992,0.060170225999999986,0.032986723,1
-2.268012523651123,9.616150856018066,-0.7161188721656799,-0.023531712591648102,0.05681047,0.025350908,1
-2.298074960708618,9.613225936889648,-0.7265258431434631,-0.021856773644685745,0.059864793,0.021685716,1
-2.319380283355713,9.617387771606444,-0.7303990721702576,-0.020285313948988914,0.048563786,0.008552114,1
-2.329648494720459,9.618143081665039,-0.7249338626861572,-0.01899541541934013,0.01282817,0.007330383,1
-2.326537847518921,9.621824264526367,-0.7199931144714355,-0.01779543049633503,-0.0067195175,0.006414085,1
