acc_x,acc_y,acc_z,gyro_x,gyro_y,gyro_z,label
0.0,0.0,0.0,0.0,0.027183503,-0.032375857,1
0.008582128211855888,0.2881681323051453,0.013283414766192436,0.0007098061614669858,0.03268129,-0.04550946,1
0.028181713074445724,0.9754760265350342,0.04459085315465927,0.002035986864939332,0.04642576,-0.04062254,1
0.053898505866527564,1.9269306659698489,0.08732046186923981,0.002973249647766352,0.05009095,-0.04337143,1
0.08090681582689285,2.992812156677246,0.13441267609596252,0.002543042646721005,0.055588737,-0.038789943,1
0.105551078915596,4.052401542663573,0.1803540289402008,0.0022532627917826176,0.058948494,-0.03726278,1
0.12371359765529633,5.028043746948242,0.22189009189605716,0.002453086664900184,0.07696902,-0.033292156,1
0.13420560956001282,5.8831214904785165,0.2575404942035675,0.0021883740555495024,0.09682214,-0.030848695,1
0.13744337856769562,6.6088199615478525,0.28701043128967285,0.0015169618418440225,0.09560041,-0.0290161,1
0.13435234129428866,7.211732387542725,0.3106920123100281,0.0036318530328571796,0.087659165,-0.01863139,1
0.1259216070175171,7.705489635467528,0.32926759123802185,0.007238696794956922,0.07452556,-0.018325957,1
0.1130828931927681,8.105849266052246,0.34349653124809265,0.012959757819771768,0.07422013,-0.018020526,1
0.09668460488319396,8.428146362304688,0.35410985350608826,0.0194376353174448,0.09040806,-0.013744468,1
0.07740996778011322,8.686128616333008,0.36175212264060974,0.02674729935824871,0.08735373,-0.011911872,1
0.055777616798877716,8.891586303710938,0.3669667541980744,0.0349796786904335,0.07819075,-0.0021380284,1
0.0315103605389595,9.05471420288086,0.3699054419994354,0.04322030395269394,0.06963864,0.014660766,1
-0.0039595039561390885,9.186429977416992,0.3675052225589752,0.0522146038711071,0.054061573,0.030848695,1
-0.05078645050525665,9.29348850250244,0.35991451144218445,0.058397606015205376,-0.015577064,0.048563786,1
-0.10642685741186142,9.380661964416504,0.3482462465763092,0.06304380297660828,-0.07666359,0.05131268,1
-0.16935588419437408,9.4518461227417,0.3332360088825226,0.061512339860200875,-0.089491755,0.018325957,1
-0.2380746304988861,9.510167121887207,0.31556037068367004,0.055410221219062805,-0.15088372,-0.0143553335,1
-0.3117401003837585,9.558165550231934,0.29565155506134033,0.049349572509527206,-0.21013765,-0.031154128,1
-0.3888377547264099,9.597835540771484,0.2741160988807678,0.03828921541571617,-0.25961772,-0.05009095,1
-0.4689667224884033,9.630828857421877,0.2511889934539795,0.023398835211992264,-0.3707952000000001,-0.045814894,1
-0.5516455769538879,9.658465385437012,0.22710838913917544,0.006601457018405199,-0.5036584,-0.042455133,1
-0.6349247097969055,9.681780815124512,0.20264765620231628,-0.017389439046382904,-0.5662721,-0.04062254,1
-0.702176034450531,9.701600074768066,0.1843421906232834,-0.039223264902830124,-0.6020076999999999,-0.06963864,1
-0.7516983151435852,9.71860122680664,0.17287741601467133,-0.05689440295100213,-0.6432411,-0.06811147,1
-0.7869762182235718,9.73333740234375,0.16690972447395325,-0.07869529724121094,-0.72692966,-0.05467244,1
-0.8108186721801758,9.746253967285156,0.16535282135009766,-0.10814985632896423,-0.8491027,-0.028710667,1
-0.8254228830337524,9.757720947265623,0.1673765778541565,-0.14158061146736145,-0.9773844,-0.020158553,1
-0.8326448798179626,9.768014907836914,0.17224882543087006,-0.17889904975891113,-1.0500773,-0.036651913,1
-0.834011435508728,9.777347564697266,0.17935554683208466,-0.21684980392456052,-1.0647382,-0.032986723,1
-0.8305961489677429,9.785927772521973,0.18831361830234528,-0.2517494857311249,-1.1194105,-0.03268129,1
-0.8233842253684998,9.793892860412598,0.1987266540527344,-0.2819570302963257,-1.2257011,-0.01863139,1
-0.8130960464477539,9.801368713378906,0.2103276401758194,-0.3116898536682129,-1.3283265,-0.0143553335,6
-0.7961680293083191,9.819392204284668,0.2258274555206299,-0.3355432450771332,-1.4184291,-0.0033597588,6
-0.7710307836532593,9.881157875061037,0.25418761372566223,-0.35455119609832764,-1.4746287,0.024129177,6
-0.7656599283218384,9.96468448638916,0.3121528327465057,-0.3769541084766388,-1.4975362,0.054367006,6
-0.7602090835571289,10.04114055633545,0.3989940583705902,-0.4052121639251709,-1.5247196,0.08307768,6
-0.6529785394668579,10.037291526794434,0.5176149606704712,-0.4409087896347046,-1.8802432,0.16279559,6
-0.5216168761253357,10.037671089172363,0.5840853452682495,-0.4798934757709503,-2.0366247,0.15515977,6
-0.3858284950256348,10.04983615875244,0.6271344423294067,-0.5264312624931335,-1.9453003,0.09162979,6
-0.23689770698547366,10.039436340332033,0.7456641197204591,-0.599614143371582,-1.8741345,-0.019547688,6
-0.12318465858697893,9.992140769958496,1.0525168180465698,-0.7019265294075012,-1.8829921000000005,-0.1777618,6
-0.06740666925907135,9.997782707214355,1.4567614793777466,-0.8457161188125609,-1.840537,-0.46486846,6
-0.039036259055137634,10.156292915344238,1.8670486211776731,-1.038616180419922,-1.6588044999999998,-0.88056225,6
0.010686576366424559,10.443734169006348,2.213319540023804,-1.2711105346679688,-1.3964379999999998,-1.3683381,6
0.17615842819213867,10.708243370056152,2.4376749992370605,-1.4932042360305786,-1.5210545,-1.5213598999999998,6
0.4648892879486084,10.790996551513672,2.425734281539917,-1.6406999826431274,-1.7571539,-1.4327843999999998,6
0.5709169507026672,10.491843223571776,2.199939012527466,-1.678824782371521,-1.7540996,-1.5125023000000002,6
0.3384227156639099,9.914371490478516,1.9872428178787231,-1.6019539833068848,-1.6264287,-1.7968601000000002,6
-0.17901961505413055,9.38740348815918,2.003256320953369,-1.4461357593536377,-1.6502525,-2.3619106,6
-0.7791661620140076,9.254822731018066,2.387270212173462,-1.269262671470642,-1.7143933,-2.7311785,6
-1.0386663675308228,9.328431129455566,2.826740503311157,-1.1152578592300415,-1.9385809,-2.468812,6
-1.018474578857422,9.347139358520508,3.1189360618591313,-0.9852532148361206,-2.0409007,-2.1093178,6
-0.91615092754364,9.247163772583008,3.1453959941864014,-0.8484712839126587,-1.9969184,-1.9190332,6
-0.8825613260269165,9.027251243591307,3.0172059535980225,-0.6914307475090027,-1.6975945,-1.7638733,6
-0.9851562976837158,8.747998237609862,2.9232547283172607,-0.5271137356758118,-1.4019357,-1.6050483999999998,6
-1.1900317668914795,8.494621276855469,2.9634311199188232,-0.3755060434341431,-1.3319917,-1.539075,6
-1.4842883348464966,8.303900718688965,3.094475507736206,-0.23768602311611176,-1.4605788,-1.434617,6
-1.7520209550857544,8.161453247070312,3.153320789337158,-0.10471749305725098,-1.5720617,-1.3191634,6
-1.9322663545608518,8.043075561523438,3.16454553604126,0.027236459776759148,-1.6224581,-1.1814133999999998,6
-2.0593194961547847,7.9379024505615225,3.2264158725738525,0.1601530909538269,-1.6111571000000002,-1.1038336000000002,6
-2.185676097869873,7.851356029510497,3.3740234375,0.2784641981124878,-1.6847663,-1.0580186000000005,6
-2.3637864589691158,7.793533802032472,3.5097203254699707,0.3668937683105469,-1.7901406000000002,-0.9837985,6
-2.5761969089508057,7.755711555480957,3.523467540740967,0.443063884973526,-1.8035797,-0.92271197,6
-2.7432310581207275,7.753870964050293,3.4605181217193604,0.5211600661277771,-1.6820174,-0.86009824,6
-2.8297302722930913,7.835361957550049,3.435513734817505,0.5933402180671692,-1.6291776000000002,-0.79076505,6
-2.8444211483001713,7.991910934448242,3.4637699127197266,0.660934329032898,-1.7033978,-0.66859204,6
-2.8190991878509517,8.183238983154299,3.4991345405578613,0.7035309076309204,-1.7712038,-0.50854534,6
-2.80117416381836,8.355056762695312,3.443525791168213,0.7045003175735474,-1.885741,-0.41508293,6
-2.8135931491851807,8.399489402770996,3.2098827362060547,0.6737132072448729,-1.7702875,-0.44898596,6
-2.7300498485565186,8.252327919006348,2.820096254348755,0.6507140398025513,-1.4520267,-0.5448918,6
-2.419728755950928,7.856850147247314,2.426342487335205,0.6751373410224915,-1.1475104,-0.5555819000000001,6
-1.8869507312774656,7.2645158767700195,2.201366186141968,0.7339630722999573,-0.98807454,-0.35613444,6
-1.362564206123352,6.673890590667725,2.1937856674194336,0.8001556992530823,-1.022283,-0.10995574,6
-1.040317177772522,6.125361442565918,2.324587345123291,0.8418887853622437,-1.2403619,0.16646078,6
-0.9904955625534058,5.682089805603027,2.4237780570983887,0.8364354968070984,-1.4104879,0.3717115,6
-1.1558479070663452,5.4329118728637695,2.4084901809692383,0.808064341545105,-1.4740178999999998,0.47739118,6
-1.428936243057251,5.5034146308898935,2.2877840995788574,0.7844902276992798,-1.4217888,0.44623706,6
-1.7140450477600098,5.961436748504639,2.123955488204956,0.7647705674171448,-0.96883225,0.25503623,6
-1.8918013572692869,6.675764560699463,1.961540937423706,0.7481312751770021,-0.49480084,-0.24220806,6
-1.8151650428771973,7.282559394836426,1.8215214014053345,0.7743193507194519,-0.1957823,-0.6747006999999999,6
-1.448374629020691,7.455174446105957,1.874797224998474,0.8182570338249207,-0.15241088,-0.53969944,6
-0.9398293495178224,7.32444953918457,2.21954345703125,0.7963736653327942,-0.45662177,-0.3585779000000001,6
-0.3285796642303467,7.6905174255371085,3.0227959156036377,0.6503798961639404,-1.4669929,0.3652974,6
-0.16477824747562408,9.298977851867676,3.499696493148804,0.3432648479938507,0.032986723,0.4859433,6
0.05250253528356552,11.02682876586914,2.7068464756011963,0.15158019959926605,0.09040806,-0.3753767,6
0.21838650107383728,11.153228759765623,1.90682315826416,0.1273905783891678,0.94959,-0.68844515,6
0.04289320483803749,11.32458209991455,2.1583251953125,-0.012532733380794523,0.9202685,-0.32467487,6
-0.8158618807792664,12.304997444152832,2.1327595710754395,-0.2503422200679779,-0.4175264,-0.122783914,6
-1.1287935972213743,12.23544979095459,1.8361592292785645,-0.2587345540523529,-0.3930918,0.20952678,6
-1.3678393363952637,12.065945625305176,1.6508942842483518,-0.10488874465227127,0.39584067,0.18600847,6
-1.3982206583023071,12.01234531402588,1.6431925296783447,0.044227413833141334,0.8445212,0.10629055,6
-1.215346097946167,11.824758529663086,1.7325900793075562,0.1618165224790573,0.72326446,0.15241088,6
-1.1290329694747925,11.561735153198242,1.6537138223648071,0.26514494419097895,0.4831944,-0.092240654,6
-1.2016863822937012,11.157705307006836,1.4657829999923706,0.42331230640411377,0.57757306,-0.32192600000000005,6
-1.3643299341201782,10.672239303588867,1.371044397354126,0.5742647051811218,0.8500190000000001,-0.40011674,6
-1.378223896026611,10.290050506591797,1.4467419385910034,0.6313638091087341,0.8436049000000001,-0.17348573,6
-1.1936705112457275,9.94675064086914,1.6327956914901731,0.6006277203559875,0.5393939999999999,0.16676621,6
-0.9922456145286559,9.614566802978516,1.8235142230987549,0.5291587710380554,0.3726278,0.5372560000000001,6
-0.950035274028778,9.340082168579102,1.9641991853713991,0.4501629173755646,0.48502702,0.6310238,6
-1.0720585584640503,9.063687324523926,2.02409029006958,0.37047135829925537,0.60903263,0.61850107,6
-1.3256628513336182,8.801539421081543,2.0578031539916988,0.30708956718444824,0.6133086999999999,0.52870387,6
-1.7303532361984253,8.619544982910156,2.1526334285736084,0.2464175224304199,0.4428773,0.41263947,6
-2.1517353057861333,8.553632736206055,2.262779235839844,0.1979539543390274,0.26419923,0.34300083,6
-2.492478370666504,8.519482612609862,2.3266022205352783,0.15947093069553375,0.08277224,0.2864958,6
-2.7448084354400635,8.380214691162111,2.2867271900177,0.11054963618516922,-0.100792766,0.16890424,6
-2.857952117919922,8.088353157043457,2.1207778453826904,0.04474729299545288,-0.08460484,0.18081611,6
-2.872251272201538,7.6593918800354,1.9445662498474119,-0.028830740600824363,0.010079277,0.16768251,6
-2.7769582271575928,7.268412590026855,1.8454232215881348,-0.11079326272010803,0.098043874,0.19394971,6
-2.612091541290283,7.0680928230285645,1.8190888166427608,-0.19944119453430176,0.03726278,0.16523905,6
-2.453481435775757,6.9519758224487305,1.7886450290679932,-0.2802253067493439,-0.19211712,0.1957823,6
-2.3514509201049805,6.817924499511719,1.687243103981018,-0.34419262409210205,-0.18570304,0.2125811,6
-2.2898879051208496,6.8315982818603525,1.7162948846817017,-0.4085243344306946,-0.22235495,0.14477506,6
-2.229924440383911,7.470272541046143,1.912028789520264,-0.4901508688926697,-0.39278635,-0.03268129,6
-2.1764471530914307,8.790714263916017,2.06215238571167,-0.6227024793624878,-0.72143185,-0.43157628,6
-1.898561954498291,10.07278537750244,2.0069341659545903,-0.7900397777557373,-0.69913524,-0.6389651,6
-1.3210605382919312,11.071944236755373,2.05915641784668,-1.000462293624878,-0.24281894,-0.5717699,6
-0.878452718257904,12.001840591430664,2.5038774013519287,-1.2251778841018677,0.083383106,-0.6637050999999999,6
-0.7082452178001404,12.640403747558596,3.0400879383087163,-1.3837573528289795,0.052839845,-0.8848383,6
-0.5167853236198425,12.855356216430664,3.4423215389251713,-1.4273176193237305,-0.24404067,-0.7425067,6
-0.4618377089500427,12.631705284118652,3.7569286823272714,-1.4095866680145264,-0.54305923,-0.4111123,6
-0.6086745858192444,12.05860710144043,3.9041564464569087,-1.3570793867111206,-0.35216382,-0.121256754,6
-0.8195674419403076,11.273983001708984,3.914840459823608,-1.2620105743408203,0.008552114,0.0290161,6
-0.8886878490447998,10.47215175628662,3.7924726009368896,-1.1361163854599,0.12980886,-0.045814894,6
-0.7894861698150635,9.696237564086914,3.5206515789031982,-0.981083333492279,0.25503623,-0.12034045,6
-0.5682244300842285,8.984521865844727,3.2367806434631348,-0.7840645909309387,0.3998113,-0.15118915,6
-0.20518448948860168,8.329952239990233,3.0560107231140137,-0.5222408771514893,0.40775254,-0.018936822,6
0.09627023339271544,7.674191474914551,2.973039388656616,-0.21614691615104675,0.25137106,0.029626964,6
0.10681100189685823,6.976875305175781,2.941578149795532,0.10234587639570236,0.31490102,-0.015882496,6
-0.15527662634849548,6.3518309593200675,3.0247159004211426,0.3845711648464203,0.3576616,0.0842994,6
-0.5685697197914124,5.958183765411378,3.1635401248931885,0.5847887396812439,0.14660765,0.17989981,6
-1.0169082880020142,5.8071346282958975,3.2158696651458736,0.6968895196914673,0.08307768,0.24831672,6
-1.4323468208312988,5.9381651878356925,3.196873664855957,0.7624214887619019,0.10873401,0.22296582,6
-1.6794102191925049,6.36513614654541,3.2619705200195312,0.8274480700492859,0.08704830000000001,0.04886922,6
-1.5675222873687744,6.8613996505737305,3.460613250732422,0.8754720687866211,-0.099571034,-0.06872234,6
-1.1966476440429688,7.302974224090576,3.6632368564605713,0.8697671294212341,-0.2761111,0.07391469,6
-0.8114210963249207,7.59312105178833,3.726209163665772,0.8196834921836853,-0.25259277,0.27458394,6
-0.5493931770324707,7.6845011711120605,3.628800392150879,0.7723637223243713,0.045814894,0.34513888,6
-0.3918355703353882,7.608439922332764,3.4520926475524902,0.7239407300949097,0.45540005,0.30970868,6
-0.2442929148674011,7.430202960968018,3.3494040966033936,0.6583659052848816,0.68294734,0.22510384,6
-0.023372823372483253,7.615736961364746,3.5509629249572754,0.602538526058197,0.2883284,0.18112154,6
0.21150219440460205,8.979368209838867,3.74128794670105,0.4689820408821106,-0.33414328,0.33383787,6
0.34333866834640503,10.65623950958252,2.8814814090728764,0.3669831156730652,-0.23365596,0.43249258,6
-0.1208861917257309,10.979207992553713,1.7183394432067869,0.2879873812198639,0.4541782999999999,0.022602014,6
-0.8251445889472961,10.26315212249756,1.1776094436645508,0.2308371067047119,0.90377516,-0.05375614,6
-1.617279291152954,10.6129789352417,1.853126883506775,0.16603541374206546,0.88208944,-0.38026363,6
-2.674652576446533,11.922435760498047,2.2852041721343994,0.0015856839017942548,-0.19242255,-0.65026605,6
-2.683040142059326,12.102655410766602,1.9868208169937132,-0.012227116152644156,-0.441961,-0.09132435,6
-2.1610641479492188,11.250664710998537,1.6429550647735596,0.006309239659458399,0.37384954,0.441961,6
-2.057879447937012,10.600707054138184,1.4542860984802246,0.031265873461961746,1.3335188999999998,0.43157628,6
-2.0597174167633057,10.223505973815918,1.5026919841766355,0.1127808541059494,1.1649200000000002,0.25503623,6
-2.1923067569732666,10.209362030029297,1.5305306911468506,0.2557550370693207,0.61575216,-0.014660766,6
-2.414599657058716,10.186179161071776,1.402076244354248,0.4134926497936249,0.7819075,-0.07819075,6
-2.586531639099121,9.967324256896973,1.298505783081055,0.5415413975715637,0.732122,0.03848451,6
-2.577549934387207,9.637879371643066,1.2328944206237793,0.5814839601516724,0.5558874,0.22937989,6
-2.465510129928589,9.294272422790527,1.2751978635787964,0.5434114933013916,0.36254853,0.37873647,6
-2.2938952445983887,8.93313217163086,1.4411668777465818,0.4613744914531708,0.17195857,0.44623706,6
-2.135897397994995,8.697908401489258,1.6226106882095337,0.374589741230011,0.042455133,0.40744713,6
-2.0870566368103027,8.75733757019043,1.6944729089736938,0.297165721654892,0.1337795,0.28863382,6
-2.124999046325684,8.791397094726562,1.581018567085266,0.1928120255470276,0.10354166,0.17745635,6
-2.217891216278076,8.501767158508299,1.4214253425598145,0.04939113929867744,0.06719518,0.23609942,6
-2.318032503128052,7.958066940307617,1.360797643661499,-0.1032172217965126,0.1432479,0.2947425,6
-2.412981986999512,7.418429374694824,1.42019522190094,-0.2181800007820129,0.24129178,0.34330627,6
-2.527683019638061,7.340897083282472,1.5553561449050903,-0.27730587124824524,0.23823744,0.25717425,6
-2.6785037517547607,7.490589141845702,1.5924301147460938,-0.31306716799736023,0.11942416,0.13897185,6
-2.849185943603516,7.450398921966553,1.5234239101409912,-0.3379105031490326,-0.036957346,0.061086524,6
-3.03933048248291,7.241953372955322,1.4806795120239258,-0.35221067070961,-0.15057829,0.059864793,6
-3.261807680130005,7.019058704376222,1.5184632539749146,-0.3729591965675354,-0.30176744,0.060170225999999986,6
-3.3572797775268555,7.1316590309143075,1.6957004070281982,-0.4361104965209961,-0.65057147,0.06566802,6
-3.3021543025970463,8.028325080871582,2.0502972602844243,-0.5724501013755798,-0.979217,-0.3998113,6
-2.955007791519165,9.316269874572754,2.2946524620056152,-0.7657712697982788,-0.73792523,-0.8445212,6
-2.2539539337158203,10.43919277191162,2.3698861598968506,-0.992968201637268,-0.15515977,-1.0781771999999998,6
-1.494801044464111,11.23331069946289,2.3923592567443848,-1.2651183605194092,0.23884831,-1.1004738,6
-1.103266954421997,11.565096855163574,2.6196014881134038,-1.495266318321228,0.33292156,-1.20371,6
-1.0501091480255127,11.826494216918945,3.083073377609253,-1.6172456741333008,0.2574797,-1.3423764,6
-1.2048044204711914,12.097532272338867,3.571019172668457,-1.6036949157714844,0.032375857,-1.3591752,6
-1.563158392906189,12.065425872802734,4.1011877059936515,-1.5037999153137207,-0.2443461,-1.2614367,6
-2.0690643787384038,11.676612854003904,4.538522243499756,-1.3501548767089844,-0.3408628,-0.95356065,6
-2.5284593105316158,11.09947395324707,4.736809730529785,-1.1370564699172974,-0.46822822,-0.67103547,6
-2.8446896076202397,10.44381332397461,4.655177593231201,-0.898691713809967,-0.743423,-0.5589417,6
-2.900277137756348,9.782373428344727,4.336963176727295,-0.630418062210083,-0.7742717,-0.37934732,6
-2.5892443656921387,9.079841613769533,3.9757137298583984,-0.3509492874145508,-0.70921457,-0.12736541,6
-2.080894470214844,8.321232795715332,3.6556127071380615,-0.0596349909901619,-0.54519725,0.121256754,6
-1.552179932594299,7.568573474884032,3.385227918624878,0.23229314386844635,-0.33628133,0.37904188,6
-1.137339472770691,6.9115538597106925,3.1622705459594727,0.5017298460006714,-0.19456059,0.58001655,6
-0.916604220867157,6.440933227539063,2.972798109054565,0.721602201461792,-0.08368854,0.72387534,6
-0.8858136534690857,6.238306522369385,2.816199541091919,0.8721829056739807,-0.08032878,0.83199847,6
-0.9380280375480652,6.333191394805907,2.6999335289001465,0.9547664523124696,-0.15851954,0.91782504,6
-1.0209462642669678,6.685017108917236,2.628120422363281,0.9835469126701356,-0.14110987,0.8891144,6
-1.0648273229599001,7.182029724121094,2.6454145908355717,0.9807327389717102,-0.18051068,0.6068946,6
-0.9871531128883362,7.571176528930664,2.730781078338623,0.9649707078933716,-0.18997909,0.35735616,6
-0.8186776041984558,7.72258186340332,2.7940216064453125,0.9251570105552672,-0.013744468,0.301462,6
-0.6735389232635498,7.662827491760254,2.772634029388428,0.8607472777366638,0.20372356,0.17165314,6
-0.559548020362854,7.537032604217528,2.666402101516724,0.7926440238952637,0.3707952000000001,0.061391957,6
-0.4563800394535065,7.412108898162843,2.5778367519378658,0.7317452430725098,0.43157628,0.03176499,6
-0.31246045231819153,7.293415546417236,2.7195160388946533,0.6957212090492249,0.29077184,0.07238753,6
-0.10413584113121033,7.74012279510498,3.2518327236175537,0.6526978015899658,-0.267559,0.15913039999999998,6
-0.06343536823987961,9.33588695526123,3.3904242515563965,0.5531795024871826,-0.6218608,0.29871312,6
-0.360788494348526,11.01005744934082,2.6783664226531982,0.4966097474098206,-0.25167647,0.05925392700000001,6
-1.1228238344192505,11.517705917358398,1.7394012212753296,0.4267943799495697,0.089186326,-0.4370741,6
-1.5630639791488647,11.099286079406738,1.511493444442749,0.3576180934906006,0.1685988,-0.29657507,6
-1.9809160232543943,11.802034378051758,1.9432436227798464,0.24705727398395536,0.30024028,-0.1957823,6
-2.397068977355957,12.8273286819458,1.9927549362182615,0.10911831259727478,-0.4804455,-0.44135013,6
-2.288287401199341,12.617881774902346,1.811838269233704,0.08561042696237564,-0.36041048,-0.25228736,6
-2.2312824726104736,11.996225357055664,1.6584626436233518,0.07754870504140854,0.28344148,0.00580322,6
-2.2899115085601807,11.547094345092773,1.518362045288086,0.08155710995197296,0.7724390999999999,0.14355333,6
-2.3067338466644287,11.278820991516113,1.3943047523498535,0.1218504086136818,0.6261369000000001,0.301462,6
-2.286689043045044,11.04090404510498,1.231009006500244,0.2042208164930344,0.20922135,0.23671028,6
-2.2867584228515625,10.69180965423584,1.087849259376526,0.3138757348060608,0.23457226,0.17012598,6
-2.314777612686157,10.331926345825195,0.9926310777664183,0.4058774709701538,0.58123827,0.13622294,6
-2.246715784072876,10.033438682556152,0.986536979675293,0.4370141625404358,0.7425067,0.21227567,6
-2.0406858921051025,9.764566421508787,1.120267391204834,0.4117484390735626,0.6133086999999999,0.3378085,6
-1.782500982284546,9.48402214050293,1.3815051317214966,0.3347424268722534,0.312763,0.4801401,6
-1.7153226137161257,9.269208908081056,1.5135064125061035,0.2398613691329956,0.21319197,0.5036584,6
-1.8366658687591555,8.967039108276367,1.5289862155914309,0.15576879680156708,0.31612277,0.39064834,6
-2.0050339698791504,8.521581649780272,1.4897782802581787,0.0726616159081459,0.29565877,0.32070425,6
-2.1239497661590576,8.009904861450195,1.4196439981460571,0.0005339803174138068,0.24404067,0.33414328,6
-2.206628799438477,7.568446159362793,1.4174216985702517,-0.05682829767465593,0.25076020000000004,0.36010507,6
-2.3424792289733887,7.339097499847412,1.4824542999267578,-0.1089940220117569,0.2415972,0.29046643,6
-2.4999542236328125,7.306393623352051,1.5659116506576538,-0.15970318019390106,0.05681047,0.1441642,6
-2.6472463607788086,7.235611915588379,1.6845154762268066,-0.21804164350032806,-0.19730948,0.01863139,6
-2.7532939910888667,7.0595879554748535,1.7421445846557615,-0.2760593593120575,-0.27397305,-0.04520403,6
-2.7797417640686035,6.89297342300415,1.7773325443267822,-0.3311661779880524,-0.35277468,-0.028099801,6
-2.696707248687744,6.866778373718263,1.841442942619324,-0.3990463316440582,-0.59589905,0.05925392700000001,6
-2.5404036045074463,7.290103435516357,1.9684927463531492,-0.5125741958618164,-0.8784242,-0.05497787,6
-2.417046308517456,8.398062705993652,2.1368656158447266,-0.7027660608291626,-1.0622946000000002,-0.28893927,6
-2.209357500076294,9.75174045562744,2.238430976867676,-0.9461562633514404,-0.68691796,-0.68936145,6
-1.6310664415359497,10.880206108093262,2.31581974029541,-1.2339489459991455,-0.20891592,-0.64568454,6
-0.8972452282905579,11.814608573913574,2.5360803604125977,-1.542013168334961,0.10598512,-0.26358834,6
-0.6449419856071472,12.352569580078125,3.010706663131714,-1.7751110792160034,0.19853121,-0.36071593,6
-0.6962292194366455,12.600494384765625,3.443016767501831,-1.86935031414032,0.20372356,-0.63621616,6
-0.841332733631134,12.516098976135256,3.8960874080657963,-1.8241329193115237,0.089491755,-0.6542366999999999,6
-1.136690974235535,12.16593074798584,4.3121018409728995,-1.6893095970153809,0.009162978,-0.4560109000000001,6
-1.4960263967514038,11.5989351272583,4.619372844696045,-1.495760202407837,0.063224554,-0.23151793,6
-1.7525734901428225,10.84976291656494,4.708487987518311,-1.261431097984314,-0.13805555,-0.19792034,6
-1.8198745250701904,10.03904914855957,4.494527339935303,-0.9969834685325624,-0.27977628,-0.32375857,6
-1.6402074098587036,9.19958209991455,4.12835168838501,-0.6655606031417847,-0.20219639,-0.41325033,6
-1.2468281984329224,8.32896900177002,3.773851156234741,-0.2881966829299927,0.055588737,-0.29810223,6
-0.8800239562988281,7.503449440002441,3.5212650299072266,0.08870784938335419,0.37201694,-0.15454891,6
-0.6755515336990356,6.884984493255615,3.436619520187378,0.4176462888717651,0.4596761,0.11881329,6
-0.6805230975151062,6.605446815490723,3.5352263450622563,0.6406084895133972,0.28924468,0.40133846,6
-0.8680859208106995,6.676790237426758,3.663792371749878,0.7301018834114075,0.18661933,0.58276546,6
-1.0958751440048218,6.832498073577881,3.6626956462860103,0.7360357642173767,0.17715092,0.5366451,6
-1.233075499534607,6.872032642364503,3.5499699115753174,0.742414653301239,0.25625798,0.4364632000000001,6
-1.2928524017333984,6.80277681350708,3.4365842342376713,0.7634429931640625,0.20525073,0.30634892,6
-1.2876806259155271,6.816338062286378,3.3509638309478764,0.7814140319824219,0.23762658,0.2284636,6
-1.3044668436050415,7.075336933135986,3.311466932296753,0.7743840217590332,0.33964106,0.093462385,6
-1.3300496339797974,7.340759754180907,3.297835111618042,0.7570350766181946,0.22815818,-0.032070424,6
-1.3016890287399292,7.426319122314452,3.301611423492432,0.7447562217712402,0.09865474,-0.079107046,6
-1.2005192041397097,7.377186775207519,3.339369773864746,0.7182466387748718,0.045814894,-0.016798794,6
-1.0584567785263062,7.260232925415039,3.354752540588379,0.6743914484977722,0.042760565999999986,0.0842994,6
-0.9136308431625366,7.077422142028809,3.364123106002808,0.6326853632926941,0.17440203,0.20280726,6
-0.7294571995735168,7.198232650756836,3.657898426055908,0.6029127836227417,-0.03390302,0.36896262,6
-0.5649882555007935,8.415778160095215,3.773939371109009,0.58324134349823,-0.7837400999999999,0.35369098,6
-0.5976001024246216,9.991031646728516,3.197204113006592,0.5705217123031616,-0.5348125,0.2648101,6
-1.2302316427230835,10.90363597869873,2.3576102256774902,0.5114414691925049,-0.093462385,-0.34147367,6
-1.710876703262329,11.022130966186523,1.5556037425994873,0.44454070925712585,0.3277292,-0.41538838,6
-1.86897885799408,11.345534324645994,1.621775507926941,0.3506286442279816,0.41233405,-0.13316862,6
-2.3607208728790283,12.495375633239744,2.0617237091064453,0.187583401799202,-0.6954701,-0.15057829,6
-2.388984203338623,12.942683219909668,1.9534111022949217,0.106024868786335,-0.79198676,0.03390302,6
-2.030729055404663,12.22097873687744,1.4844412803649902,0.0740242451429367,-0.05589417,0.3472769,6
-1.7912834882736206,11.504140853881836,1.0940376520156858,0.11754195392131805,0.8170323,0.42302418,6
-1.6049597263336182,11.059263229370117,1.0589261054992676,0.20888522267341614,1.0543534,0.48563787,6
-1.657429337501526,10.892460823059082,1.1102758646011353,0.29705649614334106,0.9080511999999998,0.34422258,6
-1.8704502582550049,10.720240592956543,1.0773694515228271,0.3825496137142181,1.0207558,0.19181168,6
-2.082726001739502,10.427993774414062,1.0328137874603271,0.4614819884300232,1.1221595,0.14691310000000002,6
-2.19408917427063,10.071854591369627,1.0120958089828491,0.5009114146232605,0.9923506,0.22540927,6
-2.1621644496917725,9.673444747924805,1.1171221733093262,0.4873897135257721,0.71929383,0.4251622000000001,6
-2.0548758506774902,9.279614448547363,1.3083481788635254,0.4249545335769653,0.62125,0.61727935,6
-1.9733374118804927,8.967694282531738,1.4918279647827148,0.3399840295314789,0.59773165,0.65179324,6
-2.0302588939666752,8.844541549682617,1.6050885915756226,0.2644672691822052,0.56107974,0.47067168,6
-2.2411997318267822,8.881575584411621,1.6165003776550293,0.1915624737739563,0.659429,0.24709499,6
-2.4262049198150635,8.75853157043457,1.6715219020843506,0.07860200107097626,0.5723807,0.1563815,6
-2.472322940826416,8.398323059082031,1.7666500806808472,-0.07445693016052246,0.3717115,0.22540927,6
-2.4918642044067383,7.825544357299805,1.805449724197388,-0.2071317881345749,0.19608775,0.27702740000000003,6
-2.5629956722259517,7.288355350494385,1.8272926807403564,-0.3050839602947235,0.025350908,0.30543262,6
-2.715174436569214,6.930521965026856,1.8072670698165891,-0.3790058791637421,-0.14508049,0.19120082,6
-2.81642484664917,6.752832889556885,1.7442423105239868,-0.4385209679603577,-0.30940324,0.040011674,6
-2.8076012134552,6.670676231384277,1.6825461387634275,-0.5024022459983826,-0.35613444,-0.098043874,6
-2.701141595840454,6.606818675994872,1.6413682699203491,-0.5784532427787781,-0.41722095,-0.12614368,6
-2.4220571517944336,6.705312728881836,1.846699953079224,-0.7067456841468811,-0.7632760999999999,-0.089186326,6
-2.1142926216125493,7.633267402648926,2.380044460296631,-0.9336552619934082,-0.8029824000000001,-0.18448131,6
-1.914615273475647,9.23658561706543,2.7049405574798584,-1.2106378078460691,-0.3747658,-0.64812803,6
-1.4201886653900146,10.653185844421387,2.7838447093963623,-1.471638321876526,0.00030543262000000003,-0.87964594,6
-0.7577511072158813,11.611071586608887,2.977277994155884,-1.712921977043152,0.048563786,-0.6087272,6
-0.3987450897693634,12.279412269592285,3.3506054878234863,-1.8212499618530276,0.28985557,-0.5039638,6
-0.4444608390331268,12.632234573364258,3.853431940078736,-1.7780234813690186,0.0693332,-0.54367006,6
-0.7512655258178711,12.624164581298828,4.329938888549806,-1.6452113389968872,-0.36957347,-0.6059783000000001,6
-1.3242967128753662,12.177443504333494,4.4899773597717285,-1.4511575698852541,-0.41630468,-0.7806858,6
-1.7108116149902344,11.477752685546875,4.526782035827637,-1.2152767181396484,-0.17440203,-0.8445212,6
-1.7531408071517944,10.629754066467283,4.484879016876222,-0.9618348479270936,0.094989546,-0.81336707,6
-1.5155377388000488,9.875536918640137,4.340738773345946,-0.6991063952445984,0.004886922,-0.6209445,6
-1.127495288848877,9.177973747253418,4.060671806335448,-0.41364943981170654,-0.2302962,-0.38331795,6
-0.8018788695335388,8.45051097869873,3.7010712623596187,-0.07663976401090622,-0.16737708,-0.18509217,6
-0.7054995894432068,7.7291297912597665,3.406535625457764,0.2774302661418915,0.0711658,0.030848695,6
-0.7739413976669312,7.037586212158202,3.261803388595581,0.6009204983711243,0.16126843,0.29810223,6
-0.9037784337997437,6.496752262115479,3.25271987915039,0.8345059752464294,0.0421497,0.5164866,6
-1.0278667211532593,6.199861526489258,3.1881732940673833,0.96904057264328,-0.051618114000000014,0.6789767,6
-1.042021632194519,6.177515506744385,2.9640238285064697,1.0505251884460451,-0.003970624,0.7770206000000001,6
-1.0359408855438232,6.419270992279053,2.843959093093872,1.0897760391235352,-0.062002823,0.7296785,6
-1.096693754196167,6.985020160675049,2.9273951053619385,1.0920234918594358,-0.24862215,0.31856623,6
-1.0872013568878174,7.725924968719482,3.13569450378418,1.0696369409561155,-0.23518312,0.05222898,6
-1.0524356365203855,8.137651443481445,3.3165671825408936,0.9808663725852966,-0.03940081,-0.0290161,6
-1.0177161693572998,8.07186222076416,3.2948038578033447,0.8358244299888611,0.08368854,-0.009773844,6
-1.0006786584854126,7.697702884674072,3.0921742916107178,0.6913535594940186,0.010995574,0.006414085,6
-0.9165276885032654,7.2859458923339835,3.0238416194915767,0.5959585309028625,-0.13652839,-0.1142318,6
-0.7179922461509705,7.501145362854004,3.302403688430786,0.5405557155609131,-0.5766568,-0.25870144,6
-0.4706684350967407,9.010140419006348,3.152618408203125,0.4806292057037354,-0.8219192,-0.30940324,6
-0.6980622410774231,10.534725189208984,2.626791954040528,0.4340141713619232,-0.6081163,-0.58368176,6
-1.5411832332611084,11.2277250289917,2.057137012481689,0.38089287281036377,-0.05467244,-0.8747590000000001,6
-1.8811404705047607,11.389310836791992,1.8440382480621336,0.2688839435577393,-0.055283304000000005,-0.31429017,6
-2.066036462783813,11.923377990722654,2.1602046489715576,0.041470035910606384,-0.5183192,0.07971791,6
-1.8887785673141482,12.516105651855467,1.879189372062683,-0.09328193217515944,-0.70402217,0.30390546,6
-1.6995482444763184,12.416647911071776,1.50821053981781,-0.06872038543224335,-0.2782491,0.30207285,6
-1.8182238340377808,11.980916023254395,1.3528141975402832,0.002426028251647949,0.46853364,0.077579886,6
-2.0017423629760738,11.609798431396484,1.3566464185714722,0.09884750843048096,0.7648033000000001,0.08246681,6
-2.1578202247619633,11.218884468078613,1.4028784036636353,0.20665815472602844,0.42943826,0.089186326,6
-2.276973247528076,10.8436861038208,1.43391215801239,0.32218706607818604,0.17715092,0.12614368,6
-2.361613750457764,10.596212387084961,1.4443559646606443,0.4141476452350617,0.19272798,0.16737708,6
-2.333944082260132,10.390182495117188,1.4203833341598509,0.4710382521152496,0.23243423,0.25076020000000004,6
-2.1575939655303955,10.0538330078125,1.3593178987503052,0.480695515871048,0.21563543,0.34422258,6
-1.9563912153244016,9.668951988220217,1.3064457178115845,0.4360179305076599,0.226631,0.45051312,6
-1.7917470932006836,9.288921356201172,1.2928287982940674,0.35885128378868103,0.24098633,0.5140431,6
-1.6856067180633545,8.993980407714844,1.349486231803894,0.2735450565814972,0.2742785,0.48655418,6
-1.6787866353988647,8.880167961120605,1.4486392736434937,0.19364280998706815,0.2837469,0.3933972,6
-1.7613265514373782,8.798319816589355,1.4761070013046265,0.10885114967823027,0.2864958,0.310625,6
-1.8999929428100584,8.521307945251465,1.413646221160889,0.01496484875679016,0.19181168,0.33628133,6
-2.1007404327392583,8.007442474365233,1.342029094696045,-0.07374855875968933,0.12980886,0.29565877,6
-2.334413290023804,7.488667011260986,1.3527384996414185,-0.1582837551832199,0.19150625,0.18875736,6
-2.5344932079315186,7.165713310241699,1.447816014289856,-0.2492326498031616,0.12950343,0.102319926,6
-2.6766271591186523,7.053091526031494,1.5661112070083618,-0.3267340958118439,-0.037873644,0.050396383,6
-2.743624448776245,6.953354835510254,1.593517780303955,-0.3763186037540436,-0.27183503,0.09285152,6
-2.770129442214966,6.803196430206299,1.5618821382522583,-0.40516233444213867,-0.42546764,0.15363261,6
-2.7585220336914062,6.681870937347412,1.538649320602417,-0.4396795034408569,-0.5045747,0.14263703,6
-2.710243463516236,7.086817741394043,1.7470498085021973,-0.5033668875694275,-0.6133086999999999,0.0070249503,6
-2.7136685848236084,8.552970886230469,2.1035099029541016,-0.6101876497268677,-0.5311473000000001,-0.4654793,6
-2.335046529769897,9.97100830078125,2.2663469314575195,-0.7111241817474365,-0.30695978,-0.8524625,6
-1.562004804611206,10.889152526855467,2.4546899795532227,-0.8518902063369751,-0.04337143,-0.82986045,6
-0.8758715987205505,11.67413330078125,2.8166205883026123,-1.0213520526885986,0.21013765,-0.8023715,6
-0.6632695198059082,12.398153305053713,3.2965333461761475,-1.1356260776519775,0.22907446,-0.98349303,6
-0.7364457845687866,12.835623741149902,3.7287404537200928,-1.189786434173584,-0.1151481,-0.9254609,6
-0.8480821847915649,12.817065238952635,3.967230081558228,-1.188012719154358,-0.39370266,-0.63499445,6
-0.9953302145004272,12.410035133361815,4.065629482269287,-1.1050069332122805,-0.28191432,-0.28619036,6
-1.1204339265823364,11.875576972961426,4.0790138244628915,-0.9895474314689636,0.048258353,-0.093462385,6
-1.1277358531951904,11.255011558532717,3.9462268352508554,-0.8789266347885132,0.15760323,-0.07513642,6
-0.9943534731864928,10.518054008483887,3.670690298080444,-0.7628303766250609,0.09773844,-0.13194689,6
-0.703457236289978,9.704176902770996,3.359862804412842,-0.6093012094497681,0.2761111,-0.10781772,6
-0.34470656514167786,8.872594833374023,3.0917766094207764,-0.4116891920566559,0.35155296,0.02687807,6
-0.12774652242660522,8.135859489440918,2.8650329113006587,-0.19413860142230988,0.35918877,0.12889257,6
-0.16598549485206604,7.584370613098144,2.740527391433716,0.024324435740709305,0.26022860000000003,0.17562376,6
-0.3723307549953461,7.246798038482666,2.746046781539917,0.21874158084392548,0.09010262,0.25442538,6
-0.5730782151222229,7.093280792236327,2.7979326248168945,0.341251939535141,-0.0290161,0.32345316,6
-0.7039257884025574,7.076836585998535,2.808492422103882,0.3947167694568634,0.09285152,0.35277468,6
-0.7618939280509949,7.191058158874513,2.838258981704712,0.4152272939682007,0.2501493,0.34574974,6
-0.8019987940788269,7.479535102844237,2.922123432159424,0.4163187444210053,0.4361577999999999,0.27091873,6
-0.8609024882316589,7.823206901550293,2.9410240650177,0.4123350381851196,0.6102544,0.22510384,6
-0.9466701149940492,8.078726768493652,2.909611463546753,0.4134887754917145,0.64660084,0.17409660000000002,6
-1.0623637437820437,8.158809661865233,2.84203839302063,0.4287321269512177,0.6392705,0.087659165,6
-1.136647343635559,8.164051055908201,2.857551097869873,0.4563435018062592,0.50823987,0.06597344599999999,6
-1.0703763961791992,8.235542297363281,3.0189335346221924,0.4760686457157135,0.27947086,0.13072516,6
-0.8989125490188599,8.390291213989258,3.2136931419372563,0.4687483906745911,0.23548855,0.26267207,6
-0.7444353103637695,8.480358123779299,3.3830814361572266,0.4205746948719025,0.39492437,0.4428773,6
-0.6601036190986633,8.437629699707031,3.4928791522979736,0.3443756401538849,0.535118,0.6075055,6
-0.6571987271308899,8.299320220947267,3.405892133712769,0.2816268503665924,0.64568454,0.6954701,6
-0.6964396834373474,8.146467208862305,3.1217968463897705,0.2806372344493866,0.62888575,0.71868294,6
-0.7254857420921326,8.036172866821289,2.955336332321167,0.34090498089790344,0.4361577999999999,0.6982189999999999,6
-0.6710290312767029,7.98992919921875,3.0566217899322514,0.3879395425319672,0.47616947,0.73364913,6
-0.5929465889930725,7.869150161743164,3.1226155757904053,0.3826423585414887,0.7528914000000001,0.7583892,6
-0.4494384527206421,7.668843269348144,3.1611809730529785,0.3816569745540619,0.9963212,0.7669413,6
-0.6587682366371155,8.120003700256348,3.366762399673462,0.4191669225692749,0.8668178,0.45570546,6
-1.2759840488433838,9.701086044311523,3.1611559391021733,0.4324840307235718,1.4837917,-0.24770586,6
-2.062307119369507,11.17464542388916,2.8801002502441406,0.4268638491630554,1.1780536,-1.0934488000000002,6
-2.5481624603271484,11.870407104492188,2.765019416809082,0.4053874909877777,0.5748241999999999,-1.2657127,6
-2.4778270721435547,12.034280776977539,2.8255803585052486,0.3590328097343445,0.25167647,-0.74372846,6
-2.102170467376709,12.548830032348633,2.7725307941436768,0.27858632802963257,0.062308256,0.22540927,6
-1.5736240148544312,13.170269012451172,2.1572949886322017,0.1992217153310776,-0.089186326,0.44318274,6
-1.237062931060791,12.84229850769043,1.4531956911087036,0.18105033040046686,0.3820962,0.5329799,6
-1.3444032669067385,12.116133689880373,0.920161247253418,0.2259799987077713,0.9624182,0.29535335,6
-1.6444008350372314,11.558576583862305,0.5960713624954224,0.31337764859199524,1.3521502,0.036651913,6
-1.695127248764038,11.270278930664062,0.4599814116954804,0.3881101310253143,0.9642508,0.05772676700000001,6
-1.4450944662094116,11.06818389892578,0.28969553112983704,0.4543297588825226,0.72601336,0.20189096,6
-1.1315380334854126,10.815262794494627,0.01828174665570259,0.5086066126823425,1.1725558,0.22418754,6
-0.8570725917816162,10.47150707244873,-0.2202293425798416,0.5239251852035522,1.5201381,0.27305678,6
-0.7078360915184021,10.2140531539917,-0.3296782076358795,0.504224419593811,1.5711454,0.3359759,6
-0.7166925072669983,10.155660629272461,-0.4015509784221649,0.4601276218891144,1.5018122,0.34116822,6
-0.8275341987609863,10.174234390258787,-0.4979343712329865,0.4153848290443421,1.5607607,0.36285394,6
-0.9861270189285278,10.157094955444336,-0.5207916498184204,0.3714478313922882,1.2724323,0.34880406,6
-1.222848892211914,10.082836151123047,-0.4570274353027344,0.3241877555847168,1.1187996999999998,0.3408628,6
-1.4931186437606812,10.005741119384766,-0.4001049399375916,0.2784709930419922,1.0225884,0.32467487,6
-1.7356362342834473,9.946544647216797,-0.3624621629714966,0.2365729957818985,0.9954049,0.28313604,6
-1.8949925899505613,9.902728080749512,-0.3355798125267029,0.20056098699569705,0.9459248,0.12644911,6
-1.9775991439819336,9.826456069946287,-0.3390122652053833,0.17318743467330933,0.8579602,-0.027183503,6
-1.9991512298583984,9.77371597290039,-0.35560062527656555,0.14731210470199585,0.75991637,-0.13347405,6
-1.9410420656204224,9.824929237365724,-0.41683483123779297,0.11691325902938846,0.82772243,-0.09407325,1
-1.8010601997375488,9.8724365234375,-0.5209315419197083,0.08428184688091278,0.8396343000000001,-0.01740966,1
-1.644765853881836,9.88425350189209,-0.6269882321357727,0.05787109956145287,0.89461213,0.09773844,1
-1.510743260383606,9.87265682220459,-0.6951939463615417,0.03837717324495316,0.96791595,0.19425514,1
-1.4295413494110107,9.855302810668944,-0.7425723075866699,0.026212172582745552,1.0170907,0.27488935,1
-1.4215636253356934,9.81448459625244,-0.7769586443901062,0.02193192020058632,1.0082331,0.32711834,1
-1.4727479219436646,9.772294044494627,-0.7957146763801575,0.024248328059911728,1.0097603000000002,0.33169982,1
-1.5562230348587036,9.755324363708496,-0.7843968272209167,0.02916818112134933,1.0094548,0.3408628,1
-1.6286447048187256,9.7532320022583,-0.7455161213874817,0.03256149590015412,1.040609,0.32559118,1
-1.677320122718811,9.745165824890137,-0.678719699382782,0.03267781063914299,1.061073,0.2751948,1
-1.6941115856170654,9.719226837158203,-0.6144892573356628,0.028029613196849826,1.042747,0.18295415,1
-1.68133544921875,9.716937065124512,-0.6085070967674255,0.02516847103834152,1.0998629,0.17318029999999998,1
-1.6371283531188965,9.727523803710938,-0.598960816860199,0.026599781587719917,1.0986412,0.16615535,1
-1.5746315717697144,9.740823745727539,-0.5835519433021545,0.028415873646736145,1.0317514,0.2098322,1
-1.5455207824707031,9.761890411376953,-0.5980546474456787,0.028359878808259964,1.0060950000000002,0.28496864,1
-1.5693577527999878,9.774374961853027,-0.5968783497810364,0.02118968777358532,0.8943066999999999,0.3213151,1
-1.6148700714111328,9.818366050720217,-0.5789694786071777,0.010355642065405846,0.7629706999999999,0.33078352,1
-1.63092839717865,9.86207389831543,-0.5507560968399048,-0.007704321760684252,0.5702427,0.26175576,1
-1.575827956199646,9.876855850219727,-0.5259252786636353,-0.02970235049724579,0.43371433,0.22724187,1
-1.5102901458740234,9.86457061767578,-0.5307832956314087,-0.05377324670553208,0.33750305,0.1957823,1
-1.4613804817199707,9.81770133972168,-0.5645268559455872,-0.06900949031114577,0.31764993,0.13713925,1
-1.4244760274887085,9.753946304321287,-0.5906234383583069,-0.07817339152097702,0.38087448,0.07452556,1
-1.317359209060669,9.737229347229004,-0.5990804433822632,-0.0871032327413559,0.4175264,0.0720821,1
-1.0817598104476929,9.769444465637207,-0.6135556101799011,-0.09310751408338548,0.34788775,0.14049901,1
-0.8354812860488892,9.891432762145996,-0.650458037853241,-0.09805086255073547,0.33658674,0.25076020000000004,1
-0.6584916114807129,9.952484130859377,-0.6993305087089539,-0.10269534587860107,0.2941316,0.28619036,1
-0.5675791501998901,9.95251750946045,-0.6968554258346558,-0.10752985626459123,0.27885997,0.26083946,1
-0.5459678173065186,9.932832717895508,-0.6532784104347229,-0.11210104823112488,0.2742785,0.20922135,1
-0.5233412981033325,9.911476135253906,-0.6077834963798523,-0.1130291223526001,0.25625798,0.1600467,1
-0.4684767723083496,9.886547088623047,-0.5943416357040405,-0.10735481977462767,0.2929099,0.084910266,1
-0.375081479549408,9.86030387878418,-0.6255981922149658,-0.09641186147928238,0.3817908,0.008246681,1
-0.2671717703342438,9.821127891540527,-0.6816255450248718,-0.08644279837608337,0.5140431,-0.058948494,1
-0.16615618765354154,9.782082557678224,-0.7147002220153809,-0.08147270232439041,0.61361414,-0.10048734,1
-0.06309397518634796,9.760518074035645,-0.6861886978149414,-0.08400581777095795,0.63041294,-0.1020145,1
0.07326781749725343,9.801736831665039,-0.5759335160255432,-0.09150654822587967,0.5491679,-0.058643065,1
0.23922230303287506,9.890501022338867,-0.4683466553688049,-0.10348361730575563,0.39828414,0.034513887,1
0.3045271635055542,9.939730644226074,-0.437522828578949,-0.11731090396642685,0.376293,0.07238753,1
0.21472883224487305,9.939497947692873,-0.41336846351623535,-0.13543884456157684,0.45937067,0.02443461,1
0.0637914389371872,9.942465782165527,-0.3538489043712616,-0.1606203317642212,0.45265114,0.0027488936,1
-0.026804132387042046,9.96248722076416,-0.26990270614624023,-0.18537628650665286,0.35827246,0.03145956,1
-0.04769696667790413,9.984485626220703,-0.17540282011032104,-0.20165087282657626,0.2593123,0.06169739,1
-0.04877166822552681,9.966841697692873,-0.08130017668008804,-0.21390478312969208,0.20250183,0.07788532,1
-0.06805229187011719,9.897346496582033,0.011526258662343023,-0.2282882630825043,0.15485434,0.061086524,1
-0.09707225859165193,9.809932708740234,0.07348764687776567,-0.2379882037639618,0.12736541,0.030848695,1
-0.11472390592098235,9.734930038452148,0.10199578106403352,-0.23303668200969696,0.10476339,0.018936822,1
-0.12813861668109894,9.672067642211914,0.11114829778671263,-0.21347954869270325,0.06536258,-0.0012217305,1
-0.150761678814888,9.637580871582033,0.11678341776132585,-0.18765076994895932,0.049785517,-0.005192355,1
-0.1617051661014557,9.642813682556152,0.11178258806467056,-0.1668294370174408,0.049480084,-0.008857545999999999,1
-0.1499255895614624,9.674153327941896,0.08790278434753418,-0.15115785598754886,0.03145956,-0.0012217305,1
-0.11084337532520294,9.707171440124512,0.039236169308424,-0.138334259390831,0.03604105,0.02687807,1
-0.04810342937707901,9.726554870605467,-0.011411144398152828,-0.12372679263353348,0.05925392700000001,0.04153884,1
0.0013135044137015939,9.739038467407227,-0.04428455978631973,-0.10720141232013702,0.0983493,0.032986723,1
0.02613946236670017,9.7534761428833,-0.052652884274721146,-0.0916525050997734,0.13713925,0.028710667,1
0.02315912023186684,9.765609741210938,-0.033534921705722816,-0.08263083547353745,0.14294247,0.004886922,1
0.005459492094814777,9.782790184020996,-7.528404239565134e-05,-0.08048612624406815,0.13225232,-0.0125227375,1
-0.012899229303002356,9.806175231933594,0.011865328066051006,-0.07557902485132217,0.094989546,-0.03023783,1
-0.01563972793519497,9.84172821044922,-0.003888025647029281,-0.06804660707712172,0.08155051,-0.030848695,1
-0.00033317352063022554,9.871960639953613,-0.04509169235825538,-0.05939755216240882,0.09621128,-0.025045475,1
0.013813219033181669,9.883049964904783,-0.08795569837093352,-0.0514269657433033,0.1282817,-0.011301007,1
0.02188648656010628,9.882523536682127,-0.11937750130891801,-0.04506628587841988,0.14874569,-0.0027488936,1
0.02447759546339512,9.882135391235352,-0.13157720863819122,-0.03854789584875107,0.17073683,0.007330383,1
0.02654764801263809,9.887380599975586,-0.13651694357395172,-0.0332217738032341,0.17898351,0.01863139,1
0.027573512867093086,9.900254249572754,-0.14477300643920898,-0.02974583767354488,0.16126843,0.010690141499999998,1
0.02176850102841854,9.911653518676758,-0.15840204060077667,-0.029109269380569455,0.17928895,0.009162978,1
-0.002168824430555105,9.912785530090332,-0.16833825409412384,-0.030449375510215763,0.1957823,0.0009162979,1
-0.04654766991734505,9.907974243164062,-0.17369835078716278,-0.035417169332504266,0.22510384,-0.012217305,1
-0.09443371742963792,9.902563095092773,-0.14766830205917358,-0.03992761299014092,0.22999077,-0.022296581,1
-0.14785756170749664,9.89653778076172,-0.10018086433410643,-0.04572605714201927,0.20891592,-0.026267206,1
-0.19897876679897308,9.89188289642334,-0.05512597784399986,-0.05145195126533508,0.18387043,-0.024129177,1
-0.23986518383026126,9.883180618286133,-0.030656633898615837,-0.0557437427341938,0.1600467,-0.033292156,1
-0.2609391808509827,9.883435249328613,-0.003903663950040937,-0.056744150817394264,0.08093964,-0.06627888,1
-0.28786879777908325,9.904513359069824,0.004749535582959652,-0.053256284445524216,0.16707164,-0.04917465,1
-0.30957123637199396,9.905098915100098,0.014991369098424913,-0.051081079989671714,0.15607607,-0.03634648,1
-0.3362456560134888,9.903227806091307,0.037997830659151084,-0.04716973379254341,0.14202617,-0.033292156,1
-0.3583329916000366,9.907794952392578,0.06096383929252625,-0.044692397117614746,0.13530666,-0.02687807,1
-0.3721563518047333,9.913403511047363,0.07612870633602142,-0.04511161893606186,0.121256754,-0.014660766,1
-0.3829896748065949,9.918044090270996,0.09514550864696504,-0.04651473090052605,0.10720685,-0.01985312,1
-0.3962322771549225,9.923418998718262,0.1177976205945015,-0.0478547103703022,0.10751228,-0.04184427,1
-0.4125974178314209,9.927434921264648,0.13783830404281616,-0.052983183413743966,0.10629055,-0.04550946,1
-0.4398052096366882,9.922005653381348,0.14558084309101105,-0.0591052919626236,0.12156218,-0.05467244,1
-0.4705555140972138,9.907613754272461,0.13686637580394745,-0.0642509013414383,0.116980694,-0.06994407,1
-0.4965678453445434,9.889718055725098,0.13515989482402802,-0.06517566740512848,0.09896017,-0.06047566,1
-0.5203356742858887,9.873796463012695,0.13803720474243164,-0.06423698365688324,0.0720821,-0.05589417,1
-0.5512226819992065,9.86005687713623,0.1550540030002594,-0.06331722438335419,0.045814894,-0.038179077,1
-0.5852821469306946,9.839649200439453,0.16897647082805636,-0.060705438256263726,0.016798794,-0.030543262,1
-0.6219148635864258,9.811964988708496,0.1833607256412506,-0.053920339792966836,-0.0125227375,-0.022296581,1
-0.6553046703338623,9.788445472717283,0.1939343810081482,-0.044756472110748284,-0.03390302,-0.02321288,1
