acc_x,acc_y,acc_z,gyro_x,gyro_y,gyro_z,label
0.0,0.0,0.0,0.0,-0.084910266,0.005192355,1
-0.023960737511515614,0.2860426902770996,-0.0006004471215419471,-0.000727870617993176,-0.09590584,-0.009468411,1
-0.08435416221618652,0.9678590297698976,-0.0024522915482521053,-0.002466722391545773,-0.11484267,-0.009468411,1
-0.17103317379951474,1.908238768577576,-0.004910123534500599,-0.004393757320940495,-0.14660765,-0.01282817,1
-0.2641474008560181,2.96418833732605,-0.0101875402033329,-0.005998153705149889,-0.15149458,-0.011911872,1
-0.35255786776542664,4.0134801864624015,-0.014340244233608248,-0.005904604680836201,-0.16768251,-0.014660766,1
-0.4324561953544617,4.988260746002197,-0.012860759161412716,-0.005746226757764815,-0.17745635,-0.017104227,1
-0.5060054659843445,5.841933250427246,-0.008124594576656818,-0.005180153530091047,-0.17592919,-0.0030543262,1
-0.5752044320106506,6.569922924041747,-0.0116247721016407,-0.004807613324373961,-0.20189096,-0.01038471,1
-0.6311960816383362,7.168685436248778,-0.013372248969972134,-0.003389944555237889,-0.21288654,-0.0067195175,1
-0.6817101836204529,7.651893615722656,-0.017577961087226868,1.4273745136961224e-06,-0.21135938,0.003970624,1
-0.7385792136192322,8.038295745849611,-0.01891099289059639,0.007055307738482951,-0.22540927,-0.004276057,1
-0.806395411491394,8.337751388549805,-0.009992391802370548,0.013018280267715454,-0.28069258,-0.0018325958,1
-0.8675233125686646,8.567599296569824,0.006072621326893568,0.013307475484907629,-0.34972036,0.0030543262,1
-0.9240633249282836,8.76796817779541,0.0017200510483235119,0.011340160854160786,-0.43127087,0.0027488936,1
-0.985091507434845,8.948237419128418,-0.026759110391139984,0.00972934067249298,-0.5002986,0.038789943,1
-1.0509411096572876,9.124434471130373,-0.07454236596822739,0.01314848940819502,-0.5393939999999999,0.09315695,1
-1.104494333267212,9.272143363952637,-0.11516007035970688,0.016907531768083572,-0.4804455,0.1020145,1
-1.1214009523391724,9.393080711364746,-0.1521039754152298,0.008225778117775917,-0.462425,0.08460484,1
-1.0764441490173342,9.518210411071776,-0.20091818273067474,-0.008068333379924297,-0.45142943,0.08063421400000001,1
-1.0015389919281006,9.62979507446289,-0.22898001968860626,-0.021746329963207245,-0.4260785,0.08979719,1
-0.9106773138046264,9.73074436187744,-0.21637460589408875,-0.03099970147013664,-0.34513888,0.11178834,6
-0.8284363746643066,9.829468727111816,-0.17308589816093445,-0.043754298239946365,-0.23335053,0.10995574,6
-0.793685257434845,9.884989738464355,-0.09731785207986833,-0.06520423293113707,-0.16035213,0.08674286,6
-0.7606218457221985,9.90216827392578,-0.02470982261002064,-0.0927869752049446,-0.1386664,0.08704830000000001,6
-0.7479020953178406,9.880288124084473,0.03519678860902786,-0.12078921496868135,-0.15485434,0.07666359,6
-0.7671706676483154,9.846628189086914,0.05776303261518479,-0.14202532172203064,-0.14385876,0.08216137400000001,6
-0.801950216293335,9.82070541381836,0.0318550281226635,-0.14552274346351626,-0.12736541,0.071776666,6
-0.8376656174659729,9.812177658081056,-0.007757494691759349,-0.13663561642169952,-0.06872234,0.06750060599999999,6
-0.8480625748634338,9.83808708190918,0.00708831986412406,-0.12595097720623016,0.03145956,0.08155051,6
-0.790495753288269,9.926137924194336,0.083137646317482,-0.12664590775966644,0.10873401,0.105068825,6
-0.7038160562515259,10.036683082580566,0.1871842294931412,-0.14309833943843842,0.13072516,0.13469578,6
-0.6435095071792603,10.112190246582033,0.3029541075229645,-0.17266738414764404,0.07574729,0.13347405,6
-0.6185848712921143,10.163887977600098,0.4070577025413513,-0.20830224454402926,0.047647487,0.14752395,6
-0.6253341436386108,10.202070236206056,0.5120488405227661,-0.24706776440143585,0.06414085,0.12522738,6
-0.6527741551399231,10.249698638916016,0.6311591267585754,-0.2970486879348755,0.13530666,0.08857546,6
-0.6796148419380188,10.287769317626953,0.7892036437988281,-0.3659968376159668,0.12370021,0.013744468,6
-0.7013269662857056,10.31163215637207,0.9463493824005128,-0.46491354703903204,0.0888809,-0.074830994,6
-0.6995894908905029,10.28724479675293,1.0837334394454956,-0.5856486558914185,-0.012217305,-0.16829337,6
-0.6770026683807373,10.190446853637695,1.2266528606414795,-0.7188534736633301,-0.05497787,-0.28802297,6
-0.6333560347557068,9.990188598632812,1.510109305381775,-0.8418114185333252,-0.2574797,-0.60048056,6
-0.5921838283538818,9.90318489074707,1.8811461925506592,-0.9149211049079896,-0.4981606,-0.6383542,6
-0.6692487001419067,9.979693412780762,2.2143049240112305,-0.9664535522460938,-0.52626044,-0.5644395000000001,6
-0.8645759224891663,10.066866874694824,2.411059856414795,-0.9939258694648744,-0.39278635,-0.48808134,6
-1.0037410259246826,9.944011688232422,2.470571517944336,-0.968404233455658,-0.070554934,-0.2611449,6
-1.0992612838745115,9.625893592834473,2.4590084552764893,-0.9034345149993896,0.21410827,-0.14966199,6
-1.201299071311951,9.278318405151367,2.462947368621826,-0.807280421257019,0.3371976,-0.183565,6
-1.3158653974533079,8.939791679382324,2.5299925804138184,-0.6912635564804077,0.2733622000000001,-0.27152961,6
-1.4564034938812256,8.635843276977539,2.6800754070281982,-0.5688022375106812,0.08704830000000001,-0.4196644000000001,6
-1.5585414171218872,8.388565063476562,2.8945467472076416,-0.45951193571090704,-0.08582657,-0.41722095,6
-1.5852445363998413,8.178915977478027,3.102710723876953,-0.38090330362319946,-0.30298916,-0.32375857,6
-1.5550912618637085,7.9827117919921875,3.247397422790528,-0.3331286311149597,-0.42577308,-0.26267207,6
-1.4627368450164795,7.831242561340332,3.3284952640533447,-0.3068733215332031,-0.30176744,-0.16676621,6
-1.3510576486587524,7.7890777587890625,3.4005534648895264,-0.3014218807220459,-0.16768251,-0.09010262,6
-1.3129358291625977,7.862473964691162,3.401724100112915,-0.2967277467250824,-0.048258353,-0.112704635,6
-1.4312694072723389,7.949294567108153,3.3852612972259517,-0.2649216949939728,-0.06658431,-0.2434298,6
-1.596598505973816,7.99430513381958,3.4320125579833984,-0.21436607837677,-0.1142318,-0.36713,6
-1.718615174293518,7.936925411224365,3.482835531234741,-0.1726444661617279,-0.15302174,-0.45204028,6
-1.7717941999435425,7.802110195159912,3.502492666244507,-0.14102454483509064,-0.14844026,-0.47891834,6
-1.7353408336639404,7.619345664978027,3.509108543395996,-0.1146639883518219,-0.21044308,-0.4343252,6
-1.6173647642135618,7.406406879425049,3.4969725608825684,-0.09065233916044237,-0.3213151,-0.33353242,6
-1.4884858131408691,7.14195728302002,3.434980869293213,-0.06607289612293242,-0.4092797,-0.22632557,6
-1.3934744596481323,6.83225679397583,3.339618682861328,-0.043918509036302567,-0.3915646,-0.1328632,6
-1.3309569358825684,6.52957010269165,3.24033260345459,-0.0192317757755518,-0.27458394,-0.076358154,6
-1.2806074619293213,6.307751178741455,3.169776201248169,0.015350897796452044,-0.1600467,-0.069027774,6
-1.2287777662277222,6.265657424926758,3.1377274990081787,0.059303224086761475,-0.08124508,-0.04184427,6
-1.183464765548706,6.415652275085449,3.136915683746338,0.1000761017203331,-0.054061573,-0.038789943,6
-1.09747576713562,6.62807035446167,3.16227388381958,0.13468824326992035,-0.060170225999999986,0.016187929,6
-0.9444971680641174,6.758850574493407,3.1996634006500244,0.16163523495197296,-0.03604105,0.13805555,6
-0.7625442147254944,6.744265556335449,3.242659330368042,0.18066918849945068,0.09254608,0.23854288,6
-0.5618501305580139,6.682234764099121,3.323009967803955,0.18767231702804565,0.3109304,0.26358834,6
-0.33789849281311035,6.779768943786621,3.5596845149993896,0.16824224591255188,0.44684792,0.15332718,6
-0.108161099255085,7.640454292297362,4.087748050689696,0.09635046869516373,0.089186326,-0.01038471,6
-0.1484890729188919,9.451456069946287,3.816630601882935,-0.004295122344046831,0.24984388,0.055588737,6
-0.4980847835540772,10.921405792236328,2.8655469417572017,0.006309088319540024,0.61850107,-0.15577064,6
-1.2508710622787476,11.248519897460938,2.647469520568848,-0.02289875410497189,1.0729848,-0.627664,6
-2.7774343490600586,12.019286155700685,3.255157470703125,-0.2879127264022827,0.6038403,-0.9370673,6
-3.705947637557984,13.026060104370115,3.2350339889526367,-0.4474573731422424,-0.44623706,-0.25992316,6
-3.665557861328125,12.976686477661133,2.871328592300415,-0.3845717906951904,-1.1178834,0.32589662,6
-3.2294542789459233,12.379827499389648,2.370530366897583,-0.1711966097354889,-0.43768495,0.65209866,6
-2.7979512214660645,11.803458213806152,2.0022194385528564,0.061632353812456124,0.63438356,0.893085,6
-2.829834461212158,11.562901496887207,1.9124822616577148,0.2573705017566681,0.79198676,0.269697,6
-3.072831392288208,11.455078125,1.8480905294418333,0.4139658808708191,0.4831944,-0.24098633,6
-3.155332326889038,11.121708869934082,1.8193739652633667,0.5431782603263855,0.26908615,-0.4184427,6
-2.904049158096313,10.764009475708008,1.7611275911331177,0.6224123239517212,0.31703907,-0.16523905,6
-2.32085919380188,10.334205627441406,1.6104435920715332,0.6683914065361023,0.23915374,0.19730948,6
-1.7775202989578247,9.813075065612793,1.5184980630874634,0.6599040031433105,0.20372356,0.44501534,6
-1.530164122581482,9.37028694152832,1.5408387184143066,0.5989277362823486,0.4804455,0.49327368,6
-1.5646138191223145,9.028164863586426,1.6390109062194824,0.5021969676017761,0.5699373000000001,0.49510628,6
-1.823888063430786,8.729656219482424,1.7374720573425293,0.4076982438564301,0.48838675,0.40469822,6
-2.1390769481658936,8.527002334594728,1.76497483253479,0.3415593504905701,0.4111123,0.31703907,6
-2.4014503955841064,8.452831268310549,1.7705228328704834,0.2966615557670593,0.4370741,0.28771752,6
-2.641079902648926,8.413702964782715,1.8682303428649905,0.2402302324771881,0.4783075,0.31398472,6
-2.811081886291504,8.373128890991211,1.993059515953064,0.15779533982276914,0.30634892,0.39950588,6
-2.955998182296753,8.226813316345215,2.016997575759888,0.06887378543615341,0.10476339,0.3820962,6
-3.0707907676696777,7.989639759063722,1.9328787326812744,0.00961472187191248,-0.05955936,0.28863382,6
-3.17415714263916,7.7502121925354,1.825874209403992,-0.024701595306396484,-0.06872234,0.18906279,6
-3.2196025848388667,7.562551975250244,1.7155247926712036,-0.04740175604820252,-0.076052725,0.16401732,6
-3.1780569553375244,7.399081707000732,1.6230919361114502,-0.06487122923135757,-0.17959438,0.20433442,6
-3.0924313068389893,7.148717403411865,1.54490864276886,-0.07058966904878616,-0.4456262,0.26419923,6
-3.0023531913757324,6.957822799682617,1.52919340133667,-0.06821967661380768,-0.43310347,0.37965274,6
-3.004828453063965,6.895179271697997,1.5471007823944092,-0.06658568978309631,-0.40775254,0.4092797,6
-3.079118013381958,7.061830997467041,1.601229548454285,-0.07697540521621704,-0.8026769,0.3585779000000001,6
-3.09144139289856,7.578717231750487,1.7874629497528076,-0.14389191567897794,-1.25319,0.23090707,6
-2.9730565547943115,8.594766616821289,1.9837701320648196,-0.2867008149623871,-1.4834863,-0.08857546,6
-2.441736459732056,10.04767608642578,2.066607713699341,-0.5014111995697021,-1.1682798,-0.5510005,6
-1.471771478652954,11.38449478149414,2.0775978565216064,-0.7936054468154907,-0.38362336,-0.7458665,6
-0.3871116042137146,12.422170639038086,2.236547470092773,-1.136039972305298,0.453262,-0.6252206,6
0.30023056268692017,13.068113327026367,2.623595714569092,-1.4304953813552856,0.43249258,-0.48349985,6
0.535657525062561,13.364632606506348,3.048840045928955,-1.5926848649978638,0.85918194,-0.37110063,6
0.2839624881744385,13.435189247131348,3.557978868484497,-1.6624486446380615,0.72021013,-0.408058,6
-0.3836599290370941,13.14309310913086,3.981583833694458,-1.6466723680496216,0.30482176,-0.52381694,6
-1.0861910581588743,12.41976833343506,4.193800926208496,-1.5216414928436282,0.32375857,-0.54458636,6
-1.4643797874450684,11.501738548278807,4.2470741271972665,-1.306838870048523,0.19211712,-0.50426924,6
-1.5986851453781128,10.474095344543457,4.055152893066406,-1.0409693717956543,-0.39492437,-0.5421429,6
-1.5179954767227173,9.324243545532227,3.5677001476287837,-0.7091413140296936,-0.5879578000000001,-0.50640726,6
-1.2233787775039673,8.148597717285156,3.0634343624114986,-0.3336581587791443,-0.4633413,-0.43066,6
-0.769753098487854,7.023692607879639,2.766275644302368,0.02047462947666645,-0.18142697,-0.18906279,6
-0.3182390034198761,5.960969924926758,2.6184372901916504,0.32867544889450073,0.014966198,0.12858713,6
-0.06145074591040611,5.162747383117676,2.532965898513794,0.5686531662940979,0.106901415,0.44012842,6
-0.1667865365743637,4.905449867248535,2.4649412631988525,0.7179256081581116,0.06627888,0.4334089,6
-0.5030282735824585,5.20612096786499,2.35356879234314,0.7951346039772034,0.2846632,0.21991149,6
-0.8293294310569763,6.053053855895996,2.36334228515625,0.8552814722061157,0.37323865,-0.043066,6
-1.0980148315429688,7.116824150085449,2.505944967269897,0.8922743797302246,0.4529566,-0.28955013,6
-1.186356782913208,7.715676784515381,2.7162463665008545,0.8781739473342896,0.42332962,-0.2171626,6
-1.116476058959961,7.811278820037843,2.902515411376953,0.8014785647392273,0.16065755,-0.027488936,6
-0.9941245317459106,7.5637454986572275,2.8902082443237305,0.7031503915786743,0.1160644,0.035124752999999995,6
-0.9261818528175354,7.189040184020996,2.7315237522125244,0.6226857900619507,0.16493362,0.061391957,6
-0.9339565634727478,6.892580986022949,2.660510540008545,0.562003493309021,0.20158553,-0.06597344599999999,6
-0.9164003729820251,7.007496356964111,2.9758625030517583,0.503176212310791,-0.28955013,-0.17898351,6
-0.9045388102531432,8.51823902130127,3.11142635345459,0.4250141382217407,-0.45540005,0.04153884,6
-1.6389966011047363,10.26269817352295,2.93237042427063,0.34367164969444275,-0.64476824,-0.2947425,6
-2.4610698223114014,10.997069358825684,2.756894588470459,0.24228978157043454,-0.054367006,-0.70280045,6
-3.0415585041046143,11.703904151916506,3.0700371265411377,0.09210566431283952,-0.1001819,-0.36285394,6
-3.6775789260864262,12.55891227722168,3.0383524894714355,-0.12424321472644805,-1.0201449,-0.29352075,6
-3.5260746479034424,12.682953834533693,2.465139627456665,-0.13433465361595154,-1.073901,0.11178834,6
-3.0506606101989746,12.20753288269043,1.904125690460205,0.01834329031407833,-0.56077427,0.36865717,6
-2.7054293155670166,11.649900436401367,1.615628004074097,0.2044087201356888,0.25473082,0.44684792,6
-2.4797420501708984,11.341548919677734,1.6548721790313718,0.3726159036159515,0.55771995,0.42852196,6
-2.4299890995025635,11.236600875854492,1.757650375366211,0.5001209974288939,0.43890667,0.21380283,6
-2.4987502098083496,11.065889358520508,1.7075294256210327,0.6090579628944397,0.47433686,0.04153884,6
-2.5030710697174072,10.578062057495117,1.5487022399902344,0.6954070925712585,0.44806966,0.01985312,6
-2.309695243835449,9.9846773147583,1.329919934272766,0.73716801404953,0.5170974,0.24404067,6
-1.9767836332321167,9.41969394683838,1.169818639755249,0.7231871485710144,0.4792238,0.45173484,6
-1.6547591686248782,9.026580810546877,1.171899437904358,0.6549389362335205,0.5180137,0.535118,6
-1.4965560436248782,9.000894546508789,1.3567707538604736,0.5423361659049988,0.6426301999999999,0.51159966,6
-1.5926467180252075,9.100137710571287,1.5122717618942259,0.40635696053504944,0.6783658,0.46181414,6
-1.8224641084671018,8.989521980285645,1.588199019432068,0.26368924975395197,0.6435465,0.4288274,6
-2.0577516555786133,8.665922164916992,1.6796587705612185,0.1232401505112648,0.54336464,0.419359,6
-2.253615617752075,8.316429138183594,1.788241982460022,-0.017129896208643913,0.35277468,0.46211955,6
-2.399141788482666,7.9978389739990225,1.84010648727417,-0.1468082219362259,0.22021692,0.46028697,6
-2.4725341796875,7.6640892028808585,1.825121283531189,-0.2627340853214264,0.22174409,0.42119157,6
-2.4881720542907715,7.32776403427124,1.7497012615203855,-0.3526694774627685,0.19242255,0.3491095,6
-2.4737107753753658,7.0062193870544425,1.6837328672409058,-0.4168726801872253,0.11881329,0.28680122,6
-2.4662535190582275,6.727799892425537,1.6289790868759155,-0.4554197490215302,0.06841691,0.1863139,6
-2.447487592697144,6.54234504699707,1.5890792608261108,-0.4610800743103027,0.02076942,0.1386664,6
-2.4251484870910645,6.4553279876708975,1.5899420976638794,-0.4682647287845612,-0.09865474,0.09162979,6
-2.365123987197876,6.580662727355957,1.7023411989212036,-0.5293100476264954,-0.3933972,0.02321288,6
-2.287167549133301,7.290204524993896,1.9398059844970703,-0.6710913777351379,-0.5732970000000001,-0.13316862,6
-2.211583375930786,8.592286109924316,2.267467737197876,-0.9117209911346436,-0.33628133,-0.5390885999999999,6
-1.9636693000793457,10.227526664733887,2.610624074935913,-1.1673400402069092,0.11209377,-0.7098253999999999,6
-1.5437407493591309,11.603985786437988,3.1749079227447514,-1.4379626512527466,0.03604105,-0.61850107,6
-1.1639589071273804,12.71648120880127,3.805986642837525,-1.66950523853302,0.17195857,-0.48349985,6
-0.9451767206192015,13.419702529907227,4.399394035339356,-1.7270853519439695,-0.020463986,-0.4129449000000001,6
-1.0525555610656738,13.448959350585938,4.811506271362305,-1.6455607414245603,-0.23487769,-0.4343252,6
-1.5049455165863037,12.790512084960938,5.011781215667725,-1.4832746982574463,-0.09101892,-0.4166101,6
-2.0058250427246094,11.870450019836426,5.167963027954102,-1.2916890382766724,0.006414085,-0.33108896,6
-2.316777467727661,10.969018936157227,5.221016883850098,-1.1131585836410522,-0.016798794,-0.32528573,6
-2.325547695159912,10.069669723510742,4.9764909744262695,-0.9232633709907532,-0.3100141,-0.4373795,6
-2.049238920211792,9.144262313842773,4.447330951690674,-0.6622405648231506,-0.3005457,-0.5384777,6
-1.5032411813735962,8.199154853820799,3.879456043243408,-0.3230460286140442,-0.08796459400000001,-0.42088616,6
-0.8940814733505249,7.237391471862793,3.4622976779937744,0.03573349118232727,-0.0036651916,-0.21563543,6
-0.4826687276363373,6.344407558441162,3.2056696414947514,0.3734668791294098,-0.0067195175,0.12583824,6
-0.4160148799419403,5.627581596374512,3.0055854320526123,0.6574589610099792,-0.17654006,0.38331795,6
-0.6075867414474487,5.299296855926514,2.79792594909668,0.8723528385162354,-0.18295415,0.5748241999999999,6
-0.9807902574539183,5.48708963394165,2.6120693683624268,0.9925337433815002,0.06505715,0.54733527,6
-1.2400882244110107,6.071352005004883,2.575408458709717,1.05273175239563,0.3203988,0.40133846,6
-1.3193588256835938,6.879716873168945,2.7357332706451416,1.0537590980529783,0.4266894,0.19364429,6
-1.2014904022216797,7.52337646484375,2.9813671112060547,1.0135111808776855,0.12034045,0.027794369,6
-0.9130858778953552,7.83973503112793,3.1577057838439937,0.9334116578102112,-0.003970624,0.122783914,6
-0.613479495048523,7.902278423309326,3.1595618724823,0.8232368230819702,0.22082779,0.11942416,6
-0.4814991652965546,7.759096622467041,3.131648063659668,0.70804363489151,0.3726278,0.04062254,6
-0.440925270318985,7.481321811676025,3.1658415794372563,0.5790542364120483,0.2855795,-0.0033597588,6
-0.3607565462589264,7.1953163146972665,3.3076276779174805,0.439890056848526,0.087659165,-0.05497787,6
-0.2204294502735138,7.573180675506593,3.554362297058105,0.3007975518703461,-0.6927211999999999,-0.083383106,6
-0.12347577512264253,9.142857551574707,3.257497310638428,0.1574278026819229,-0.81489426,0.12156218,6
-0.5263427495956421,10.615418434143066,2.5838792324066158,0.04549342393875122,0.17470746,-0.042760565999999986,6
-1.4706612825393677,10.95249843597412,2.319495439529419,-0.079207643866539,0.73273283,-0.73853606,6
-2.163346529006958,11.198527336120604,2.7035512924194336,-0.236270472407341,0.43218717,-0.43585235,6
-3.155954599380493,12.244467735290527,3.0980799198150635,-0.3869113326072693,-0.5729916,-0.30818152,6
-3.4621386528015137,12.821837425231935,2.731807231903076,-0.3602389693260193,-0.960891,0.016493361,6
-3.0111098289489746,12.51821231842041,2.2056560516357417,-0.17707008123397827,-0.6105598000000001,0.45204028,6
-2.6034321784973145,11.978708267211914,1.9050453901290891,0.03996791690587997,0.3136793,0.5039638,6
-2.442988157272339,11.702548027038574,1.9680691957473757,0.20427390933036804,1.0115929,0.39614612,6
-2.577615976333618,11.628081321716307,2.139000654220581,0.3216221928596497,0.9257663,0.039095376,6
-2.681870460510254,11.292863845825195,2.2211813926696777,0.4387984871864319,0.6310238,-0.1160644,6
-2.656613111495972,10.729008674621582,2.220050573348999,0.5375242829322815,0.46273044,-0.06261369,6
-2.477020502090454,10.097042083740234,2.1179792881011963,0.5871230363845825,0.56321776,0.14966199,6
-2.2298405170440674,9.498186111450195,1.9805924892425537,0.5773950815200806,0.46303585,0.33353242,6
-2.0337965488433842,9.0328950881958,1.8951277732849119,0.5155797004699707,0.43799037,0.47586402,6
-1.992251753807068,8.72512149810791,1.9554908275604248,0.4085575640201569,0.46944994,0.5290093000000001,6
-2.0906848907470703,8.507809638977049,2.1373028755187993,0.2772170603275299,0.49174652,0.5222898,6
-2.2543978691101074,8.332659721374513,2.2995870113372803,0.14931635558605194,0.4334089,0.46395215,6
-2.4394102096557617,8.13789176940918,2.341350078582764,0.034053735435008996,0.13041973,0.39736784,6
-2.6491529941558842,7.899786949157715,2.2948694229125977,-0.07464921474456787,-0.06352998,0.27885997,6
-2.7798535823822017,7.532899379730225,2.262843132019043,-0.17048276960849762,-0.0720821,0.20708331,6
-2.8180432319641118,7.10528564453125,2.2616353034973145,-0.2596213519573212,-0.046731193,0.12614368,6
-2.8459546566009517,6.718399524688722,2.2555837631225586,-0.3413214385509491,-0.13500121,0.10598512,6
-2.845967054367065,6.443941116333008,2.220822811126709,-0.3841944634914398,-0.34391713,0.14844026,6
-2.813838005065918,6.2657084465026855,2.1507697105407715,-0.39713120460510254,-0.54305923,0.19150625,6
-2.7517430782318115,6.35856819152832,2.1431264877319336,-0.4224078357219696,-0.8155051,0.15210545,6
-2.6854846477508545,7.212637901306152,2.328708410263061,-0.493842750787735,-1.1023063999999998,0.046731193,6
-2.651012897491455,8.728099822998049,2.586442470550537,-0.6470409035682678,-1.003957,-0.33444872,6
-2.256676435470581,10.339614868164062,2.833280324935913,-0.8901879787445068,-0.7486154,-0.6637050999999999,6
-1.4656375646591189,11.594160079956055,3.1124684810638428,-1.19134783744812,-0.15515977,-0.63346726,6
-0.6946200132369995,12.488533973693848,3.4816064834594727,-1.4702374935150146,0.07086037,-0.47158796,6
-0.3763969540596008,13.067416191101074,3.9698085784912114,-1.6094198226928709,0.08704830000000001,-0.42455134,6
-0.5721576809883118,13.22953987121582,4.406829357147217,-1.6212646961212158,-0.13897185,-0.59223384,6
-0.9600940942764282,12.870902061462402,4.650521755218506,-1.5233919620513916,-0.12980886,-0.66431594,6
-1.3440707921981812,12.131128311157227,4.828968524932861,-1.3522422313690186,0.07238753,-0.52015173,6
-1.611979842185974,11.388162612915039,4.9909019470214835,-1.1632802486419678,0.22082779,-0.45998153,6
-1.7184935808181765,10.687753677368164,4.984051704406738,-0.9710021018981934,0.11209377,-0.5216789000000001,6
-1.5299352407455444,9.833015441894533,4.588582515716553,-0.7241674661636353,-0.30176744,-0.55863625,6
-1.2178025245666504,8.831071853637695,4.0745458602905265,-0.37187597155570973,-0.44318274,-0.51923543,6
-0.8909962177276611,7.8020453453063965,3.645649671554565,0.03729749470949173,-0.26511553,-0.30115658,6
-0.6950571537017822,6.87086820602417,3.3947963714599614,0.4129076600074768,0.10354166,-0.014660766,6
-0.6666029095649719,6.093303680419923,3.307414531707764,0.7037400603294373,0.28160888,0.23182335,6
-0.7699963450431824,5.596323490142822,3.27521014213562,0.8956986069679259,0.13775012,0.50640726,6
-1.002713322639465,5.479676723480225,3.1835863590240483,0.9889851808547974,0.07544186,0.60139686,6
-1.1978434324264526,5.6841301918029785,3.073122262954712,1.0357569456100464,0.27000242,0.50610185,6
-1.2062047719955444,6.2039732933044425,3.080980062484741,1.0599581003189087,0.3930918,0.3747658,6
-1.0105520486831665,6.910297870635986,3.212011814117432,1.0578444004058838,0.2574797,0.19792034,6
-0.6919292807579039,7.5360450744628915,3.3703362941741943,1.022472620010376,0.112399206,0.226631,6
-0.44107064604759216,7.836669921875,3.5070393085479736,0.9297053217887878,0.17012598,0.19853121,6
-0.34470051527023315,7.8438353538513175,3.554551601409912,0.7813194394111633,0.25809056,0.09407325,6
-0.32611778378486633,7.679898262023926,3.5361020565032963,0.612293004989624,0.24770586,0.010690141499999998,6
-0.32003772258758545,7.462911605834961,3.454341173171997,0.4556688964366913,0.31490102,-0.06169739,6
-0.2626405656337738,7.45115327835083,3.57468318939209,0.33984702825546265,0.19700404,-0.22021692,6
-0.24053391814231875,8.55245304107666,3.4664409160614014,0.22270065546035767,-0.54550266,-0.20952678,6
-0.6678351163864136,9.832889556884766,2.9145376682281494,0.1458713710308075,-0.20525073,-0.31887165,6
-1.643319606781006,10.302495956420898,2.674260139465332,0.04153311625123024,0.31337386,-0.6224717,6
-2.4686379432678223,10.798254013061523,2.8424532413482666,-0.10441622138023376,0.38728857,-0.52106804,6
-3.140395164489746,12.001683235168455,3.00850772857666,-0.2558988928794861,-0.63163465,-0.23945917,6
-3.0147576332092285,12.49848461151123,2.5511062145233154,-0.26738837361335754,-0.9615019,0.18997909,6
-2.531019687652588,12.102646827697756,2.0230762958526607,-0.16655217111110687,-0.54153204,0.42363504,6
-2.239720106124878,11.526488304138185,1.696028470993042,-0.02776419371366501,0.5439755000000001,0.34330627,6
-2.173491716384888,11.185608863830566,1.700761795043945,0.10824988037347794,1.1731668,0.13988814,6
-2.281691074371338,11.070661544799805,1.8522111177444456,0.21774040162563324,0.8906415000000001,-0.04062254,6
-2.485363483428955,10.913078308105467,1.9539046287536619,0.3378655016422272,0.5925393,-0.122478485,6
-2.5824949741363525,10.63450813293457,1.9788211584091189,0.4502037167549133,0.52656585,0.011911872,6
-2.5311098098754883,10.364481925964355,1.9083508253097532,0.5085479617118835,0.66737026,0.28008172,6
-2.394245386123657,9.945220947265623,1.8356608152389529,0.498989850282669,0.6114761,0.44135013,6
-2.2641096115112305,9.481622695922852,1.7912819385528564,0.4348263144493103,0.6414085,0.57848936,6
-2.237444400787353,9.083650588989258,1.848499774932861,0.3499297797679901,0.50946164,0.6020076999999999,6
-2.334144592285156,8.792946815490723,1.942771553993225,0.2708797752857208,0.40958515,0.5729916,6
-2.459944248199463,8.569458961486816,2.00230073928833,0.19996938109397888,0.33292156,0.48991394,6
-2.55984115600586,8.292457580566406,2.0401833057403564,0.13446013629436493,0.28099802,0.3894266,6
-2.6249680519104004,7.988358497619629,2.105655670166016,0.056169234216213226,0.25045475,0.32559118,6
-2.715982675552368,7.790475845336914,2.134566068649292,-0.029117105528712276,0.19639318,0.28741209999999995,6
-2.8330903053283687,7.5480217933654785,2.1144733428955083,-0.10617323964834212,0.12522738,0.28069258,6
-2.9247925281524663,7.24498176574707,2.0270121097564697,-0.1783510148525238,0.036957346,0.25778514,6
-2.959878206253052,6.902381420135497,1.9269390106201167,-0.22568571567535398,-0.040317107000000005,0.23426682,6
-2.9599156379699707,6.607787609100343,1.870408654212952,-0.24960680305957794,-0.15424347,0.19883664,6
-2.9558026790618896,6.478312969207764,1.8606252670288088,-0.2587467432022095,-0.26389378,0.16035213,6
-2.928347110748291,6.599742412567139,1.983947992324829,-0.28579041361808777,-0.37232238,0.11942416,6
-2.873730182647705,7.1292877197265625,2.2192986011505127,-0.363551676273346,-0.6395759,-0.0143553335,6
-2.836115598678589,8.152359962463379,2.5187838077545166,-0.5174874067306519,-0.79045963,-0.34788775,6
-2.6172308921813965,9.413620948791504,2.7500014305114746,-0.7484124302864075,-0.44073927,-0.6805039,6
-2.1474852561950684,10.559981346130373,2.9276063442230225,-0.9987441301345824,-0.06658431,-0.7791585999999999,6
-1.6227065324783323,11.5430326461792,3.241688966751098,-1.2445378303527832,0.14813483,-0.6918049,6
-1.3585292100906372,12.212594032287598,3.78052830696106,-1.4253467321395874,0.022296581,-0.53969944,6
-1.364004611968994,12.514395713806152,4.190356731414795,-1.4968793392181396,-0.18784106,-0.52503866,6
-1.499428629875183,12.328619003295898,4.391726493835448,-1.4440349340438845,-0.24923302,-0.54611355,6
-1.6447664499282837,11.761658668518065,4.489677429199219,-1.309471607208252,-0.014049901000000002,-0.4098906,6
-1.7717838287353516,11.155416488647461,4.565542697906494,-1.1431065797805786,0.16432275,-0.22235495,6
-1.8458312749862669,10.526180267333984,4.543110370635986,-0.9694513082504272,0.05772676700000001,-0.23884831,6
-1.7905491590499878,9.78272819519043,4.277254581451416,-0.7581836581230164,-0.15118915,-0.28527406,6
-1.5531432628631592,8.941864013671875,3.845694303512573,-0.4814261496067047,-0.0580322,-0.27855456,6
-1.1979928016662598,8.07871150970459,3.4397735595703125,-0.1593324989080429,0.17531833,-0.13622294,6
-0.8890533447265625,7.25770378112793,3.192920923233032,0.1493958979845047,0.3136793,-0.0067195175,6
-0.7305267453193665,6.5821309089660645,3.1064047813415527,0.42290133237838745,0.33750305,0.22510384,6
-0.7872365713119507,6.180844306945801,3.1329996585845947,0.6318036317825317,0.04550946,0.41263947,6
-1.0265669822692869,6.081306457519531,3.159622430801392,0.7601600289344788,-0.08246681,0.49205196,6
-1.2953813076019287,6.1141295433044425,3.073081016540528,0.8411701321601868,0.10170906,0.3726278,6
-1.405377984046936,6.2622127532958975,2.989741563796997,0.9072312116622924,0.21013765,0.19853121,6
-1.388176202774048,6.630891799926758,3.043105125427246,0.9551334977149964,0.16279559,0.0033597588,6
-1.2780721187591553,7.149477005004883,3.188314199447632,0.9627087116241456,0.08796459400000001,-0.009468411,6
-1.192768096923828,7.524116992950439,3.258826732635498,0.8999857902526855,0.15607607,0.0693332,6
-1.1665880680084229,7.59131383895874,3.221477508544922,0.7947168946266174,0.15332718,0.083383106,6
-1.1331127882003784,7.4316463470458975,3.167232751846313,0.6877257227897644,0.059864793,0.044898596,6
-1.0161726474761963,7.2316651344299325,3.178412914276123,0.5794371366500854,-0.011911872,0.005497787,6
-0.8544646501541138,7.4293036460876465,3.434678554534912,0.4768427312374115,-0.25717425,-0.13622294,6
-0.7693836092948914,8.673772811889647,3.6372439861297607,0.3324559032917023,-0.8365799999999999,-0.1853976,6
-0.8976592421531677,10.281575202941896,3.1525893211364746,0.22637413442134854,-0.63255095,-0.24648413,6
-1.4599124193191528,10.999682426452637,2.6490192413330083,0.1272820681333542,-0.4456262,-0.47342056,6
-2.0454726219177246,10.876387596130373,2.4159903526306152,0.012680626474320887,0.051618114000000014,-0.38026363,6
-2.666325807571411,11.253982543945312,2.802532196044922,-0.11012749373912813,-0.31031954,-0.35094208,6
-3.3891789913177486,12.327786445617676,2.9675450325012207,-0.19836610555648804,-0.8371908000000001,-0.14263703,6
-3.094124794006348,12.386256217956545,2.599698305130005,-0.13157165050506592,-0.85062987,0.31306845,6
-2.746899366378784,11.938154220581055,2.2863450050354004,-0.00381720345467329,-0.29718593,0.4822781,6
-2.592811584472656,11.582130432128904,2.168091297149658,0.1167091652750969,0.5647449000000001,0.35918877,6
-2.5868377685546875,11.42164134979248,2.192332983016968,0.2424933463335037,0.8072583999999999,0.16584991,6
-2.7065508365631104,11.262791633605955,2.200519323348999,0.36497989296913147,0.59681535,-0.04062254,6
-2.7744898796081543,10.86544418334961,2.1584792137146,0.4804631769657135,0.4392121,-0.036651913,6
-2.717950820922852,10.42398738861084,2.0122270584106445,0.5563951730728149,0.38148534,0.19761491,6
-2.5394949913024902,9.999956130981444,1.8225756883621216,0.5893517136573792,0.3585779000000001,0.37751472,6
-2.3083508014678955,9.631522178649902,1.7030667066574097,0.5825178027153015,0.36713,0.5381723,6
-2.145138502120972,9.337772369384766,1.6929206848144531,0.5309979915618896,0.4025602,0.6151413,6
-2.0992357730865483,9.111494064331056,1.7416651248931885,0.4490020573139191,0.44165558,0.5852089,6
-2.138030529022217,8.925802230834961,1.7731598615646362,0.3624417781829834,0.42149702,0.49357912,6
-2.189990997314453,8.718050003051758,1.7913028001785278,0.27483493089675903,0.34788775,0.45540005,6
-2.245929718017578,8.454038619995117,1.8278125524520876,0.17545191943645475,0.27550024,0.40133846,6
-2.3058969974517822,8.13190746307373,1.8776090145111084,0.06470001488924026,0.2049453,0.38362336,6
-2.3605101108551025,7.763859748840332,1.899738073348999,-0.03929102420806885,0.07819075,0.33292156,6
-2.450331687927246,7.336482524871826,1.9084199666976929,-0.13733279705047607,-0.014966198,0.23457226,6
-2.5747759342193604,6.979844093322754,1.8644434213638303,-0.2231774628162384,0.026572637000000003,0.10170906,6
-2.662295341491699,6.802088737487793,1.8476128578186035,-0.29337427020072937,-0.044898596,0.08246681,6
-2.7220780849456787,6.720162391662598,1.8033519983291624,-0.33966198563575745,-0.23182335,0.12644911,6
-2.7908880710601807,6.667156219482423,1.7234177589416504,-0.36439889669418335,-0.42058071,0.19303341,6
-2.9045815467834477,6.720798969268799,1.7070939540863037,-0.3858313262462616,-0.73823065,0.15302174,6
-2.938434600830078,7.35727596282959,1.971412181854248,-0.4585460722446442,-0.94714653,0.024129177,6
-2.947730541229248,8.860804557800293,2.409302234649658,-0.6234552264213562,-0.7623598,-0.4596761,6
-2.500214099884033,10.53565502166748,2.57222843170166,-0.8110467791557312,-0.37568212,-0.8744536,6
-1.5794402360916138,11.750890731811525,2.6987526416778564,-1.021156907081604,0.23762658,-0.8206975000000001,6
-0.7565248608589172,12.589607238769533,3.0293974876403813,-1.2663698196411133,0.37415496,-0.61483586,6
-0.3874284625053406,13.168700218200685,3.53678035736084,-1.4417505264282229,0.20433442,-0.55680364,6
-0.4977335333824158,13.409648895263672,3.951617002487183,-1.5307215452194214,-0.020158553,-0.5002986,6
-0.7226626873016357,13.169443130493164,4.180980205535889,-1.5405805110931396,-0.1563815,-0.36010507,6
-0.9126150608062744,12.519244194030762,4.3239455223083505,-1.4722065925598145,0.010995574,-0.15790866,6
-1.0726552009582522,11.764201164245605,4.448943138122559,-1.3383618593215942,0.30024028,-0.022907447,6
-1.0702896118164062,11.03692626953125,4.495378017425537,-1.1738101243972778,0.2751948,-0.076358154,6
-0.9176624417304992,10.281240463256836,4.29518985748291,-0.9677964448928832,-0.029626964,-0.16707164,6
-0.6702038049697876,9.508753776550293,3.918831586837769,-0.6923491358757019,0.0015271631,-0.25411993,6
-0.2907149195671081,8.703423500061035,3.5408949851989746,-0.37648269534111023,0.26939157,-0.16310102,6
0.03914949297904968,7.938639163970947,3.2386968135833736,-0.05296895653009415,0.56199604,0.024129177,6
0.11374369263648987,7.248920917510986,3.0572175979614262,0.23945462703704834,0.8747590000000001,0.2012801,6
-0.07578091323375702,6.7123656272888175,3.0440776348114014,0.4761917293071747,0.9810496,0.2968805,6
-0.4425833523273468,6.4341673851013175,3.1276323795318604,0.6291381120681763,0.9654725,0.38240165,6
-0.8712999224662781,6.414083003997803,3.1955740451812744,0.6986666321754456,0.86590147,0.35979962,6
-1.1470582485198977,6.606772422790527,3.1689777374267583,0.7358817458152771,1.0002918,0.34025195,6
-1.21659517288208,6.89677095413208,3.2242228984832764,0.7676514983177185,0.8017605999999999,0.34513888,6
-1.120805740356445,7.269209861755371,3.3345012664794917,0.7651578783988953,0.516792,0.4279111,6
-1.0212537050247192,7.681583881378174,3.373931884765625,0.7183294296264648,0.5131268,0.464563,6
-1.0251721143722534,7.928455352783202,3.265474796295166,0.6493441462516785,0.68386364,0.41996986,6
-1.0562423467636108,7.991697788238525,3.1720128059387207,0.5798999071121216,0.79504114,0.31581733,6
-1.0331301689147951,7.9676103591918945,3.1606478691101074,0.5016267299652101,0.84238315,0.16615535,6
-0.9175200462341307,7.926036357879639,3.1277222633361816,0.3992982804775238,1.0476339,0.12156218,6
-0.7772057056427002,7.827588558197021,3.0206992626190186,0.28437483310699463,1.3017538999999998,0.14874569,6
-0.6602888107299805,7.5665340423583975,2.9168620109558105,0.19520799815654755,1.3814718,0.25778514,6
-0.4764662683010101,7.081821918487549,2.9424114227294917,0.15813268721103668,0.9129381,0.45204028,6
-0.14770331978797913,6.894200801849365,3.2641398906707764,0.1289190798997879,-0.1441642,0.9166033,6
-0.0026184685993939642,8.049179077148438,3.227524757385254,0.1052149459719658,0.35185838,1.4581354,6
-0.7363631129264832,9.91948127746582,2.4200599193573,0.1165573075413704,1.3842206,0.31306845,6
-1.8709518909454343,10.914363861083984,1.838133454322815,0.05715454742312431,1.8020525,-0.99112886,6
-2.3446614742279053,11.154060363769533,1.7264252901077268,0.002168699400499463,1.4242324,-0.81336707,6
-2.7298429012298584,11.72633457183838,2.3030574321746826,-0.08354741334915161,0.6606508000000001,-0.47586402,6
-3.008739471435547,12.847811698913574,2.3651793003082275,-0.12266667932271955,0.035430185,0.24098633,6
-2.962086677551269,13.316839218139648,1.981036901473999,-0.0818910226225853,0.1695151,0.43004912,6
-2.777474880218506,12.890047073364258,1.545065999031067,-0.042839918285608285,1.0891727,0.5164866,6
-2.6267244815826416,12.356432914733887,1.230089545249939,0.027821864932775497,1.817935,0.47861293,6
-2.478893995285034,11.876887321472168,1.132127285003662,0.15011221170425415,1.5048665,0.43096542,6
-2.3703436851501465,11.349323272705078,1.047494411468506,0.2866005301475525,1.1065824,0.32009340000000003,6
-2.3238601684570312,10.75847339630127,0.8311784863471985,0.4053105413913727,1.1530081,0.18509217,6
-2.2939882278442383,10.357008934020996,0.6021414399147034,0.506403923034668,1.1615603,0.057421334,6
-2.239048957824707,10.129721641540527,0.4388553202152252,0.5639804005622864,1.1490375,0.09896017,6
-2.1338038444519043,9.867363929748537,0.404779464006424,0.5652166604995728,0.9419542,0.2648101,6
-2.0577726364135738,9.65239429473877,0.4780985713005066,0.5131298899650574,0.7974846,0.38973203,6
-2.0486600399017334,9.579517364501953,0.5182575583457947,0.4523122012615204,0.754724,0.41508293,6
-2.077291250228882,9.590341567993164,0.4758178889751434,0.4155356287956238,0.79901177,0.39736784,6
-2.111816644668579,9.573833465576172,0.4098778665065765,0.3863620460033417,0.88147855,0.42119157,6
-2.1991240978240967,9.595213890075684,0.3586180508136749,0.3527379035949707,0.8979719,0.43188173,6
-2.31061053276062,9.682849884033203,0.3678684532642365,0.300666868686676,0.8622363000000001,0.41783184,6
-2.439648389816284,9.728571891784668,0.41270965337753296,0.24316148459911344,0.7816021,0.32742378,6
-2.608738899230957,9.696091651916504,0.4287071824073792,0.19892825186252594,0.659429,0.1695151,6
-2.7389461994171143,9.675013542175293,0.4531586468219757,0.16470152139663696,0.53878313,0.0067195175,6
-2.718757152557373,9.738346099853516,0.4488524794578552,0.13851198554039,0.57848936,0.047647487,6
-2.5495622158050537,9.781258583068848,0.4064282178878784,0.11861225217580795,0.57940567,0.22204952,6
-2.363223075866699,9.774415969848633,0.3658276200294495,0.10016093403100967,0.46639562,0.31612277,6
-2.1440465450286865,9.764065742492676,0.3045427799224853,0.09101086109876633,0.44806966,0.4550946,6
-2.0088865756988525,9.72347927093506,0.2277861088514328,0.09133442491292952,0.5235115,0.46486846,6
-1.9650843143463133,9.573369026184082,0.19539356231689453,0.08772602677345276,0.49327368,0.3747658,6
-2.0038862228393555,9.49000358581543,0.13916179537773132,0.07879957556724547,0.46975538,0.23243423,6
-2.0144355297088623,9.418832778930664,0.060936596244573586,0.08473747968673706,0.2773328,0.19639318,6
-1.959247350692749,9.380141258239746,0.02768555283546448,0.1157325804233551,0.1423316,0.20280726,6
-1.842698335647583,9.405715942382812,0.05674851313233376,0.15233920514583588,0.05497787,0.18051068,6
-1.6846187114715576,9.481647491455078,0.049805182963609695,0.1750306338071823,0.064751714,0.18387043,6
-1.5272457599639893,9.624019622802734,-0.046100016683340066,0.17949894070625305,0.12736541,0.18967366,6
-1.3796809911727903,9.795171737670898,-0.15675823390483856,0.16547666490077972,0.19486602,0.204029,6
-1.255034565925598,9.943108558654783,-0.2277689427137375,0.13154391944408414,0.17867808,0.22785273,6
-1.2195934057235718,9.977490425109863,-0.284109890460968,0.09703684598207474,0.1337795,0.22876903,6
-1.264251947402954,9.902654647827148,-0.3422565758228302,0.06879524141550064,0.09407325,0.16615535,6
-1.3086763620376587,9.800024032592773,-0.39410170912742615,0.045616865158081055,0.100792766,0.108123146,6
-1.3016189336776731,9.759178161621094,-0.41573312878608704,0.025654083117842674,0.15668693,0.069027774,1
-1.2550541162490845,9.787928581237793,-0.4014186859130859,0.00742071308195591,0.21288654,0.071776666,1
-1.2037763595581057,9.844449996948242,-0.3651560842990875,-0.01568157039582729,0.19517145,0.07849618,1
-1.148986577987671,9.872201919555664,-0.3418415486812592,-0.04375773668289185,0.13561209,0.093462385,1
-1.1052902936935425,9.858948707580566,-0.33048033714294434,-0.0658065602183342,0.118202426,0.09101892,1
-1.0738809108734129,9.828065872192383,-0.328049898147583,-0.08112340420484543,0.118202426,0.08827003,1
-1.0495477914810178,9.804375648498537,-0.30383196473121643,-0.08870800584554672,0.108123146,0.08368854,1
-1.0252664089202879,9.796568870544434,-0.25895434617996216,-0.09085924178361893,0.08460484,0.09407325,1
-1.0051712989807131,9.79718017578125,-0.2256283164024353,-0.08954086899757385,0.070249505,0.1020145,1
-0.9869844913482666,9.79609489440918,-0.1997492015361786,-0.08622770011425017,0.060170225999999986,0.09315695,1
-0.9755008220672609,9.795357704162598,-0.19001127779483795,-0.08487717807292937,0.05131268,0.08246681,1
-0.9711194038391112,9.796835899353027,-0.18479180335998532,-0.0857299342751503,0.04337143,0.07360926,1
-0.9686440229415894,9.804885864257812,-0.18036359548568728,-0.08575678616762161,0.03023783,0.05589417,1
-0.9559269547462464,9.820772171020508,-0.17101097106933594,-0.08675959706306458,0.028099801,0.055588737,1
-0.9332255721092224,9.830544471740724,-0.1619395613670349,-0.08853516727685927,0.038179077,0.055588737,1
-0.9081504940986632,9.838773727416992,-0.1609344631433487,-0.0931083932518959,0.052534413,0.04917465,1
-0.886549174785614,9.845083236694336,-0.15549948811531067,-0.09799013286828996,0.05009095,0.04337143,1
-0.8703983426094055,9.843174934387207,-0.1430913507938385,-0.10133057832717897,0.036957346,0.030543262,1
-0.8614677786827087,9.844452857971193,-0.12508438527584076,-0.1025570034980774,0.0421497,0.025350908,1
-0.8556803464889526,9.847509384155273,-0.10444680601358414,-0.10273302346467973,0.04550946,0.01985312,1
-0.8482738733291626,9.850784301757812,-0.0785098522901535,-0.104475237429142,0.03359759,0.010995574,1
-0.8416469097137451,9.859344482421877,-0.04831276834011078,-0.10645782202482224,0.035124752999999995,-0.00580322,1
-0.8391627669334412,9.861387252807617,-0.019934829324483868,-0.10933582484722136,0.042455133,0.005192355,1
-0.8503647446632385,9.855104446411133,0.0040688314475119105,-0.11322230100631715,0.03359759,0.0030543262,1
-0.8650916814804077,9.837679862976074,0.023477457463741302,-0.11673728376626967,0.018936822,-0.0027488936,1
-0.8827724456787109,9.814300537109377,0.04690447822213173,-0.11658000200986862,-0.011301007,-0.010690141499999998,1
-0.9012408256530762,9.793623924255373,0.07784376293420793,-0.1119394153356552,-0.048563786,-0.008246681,1
-0.9099944829940796,9.782341957092283,0.09450139105319977,-0.10559149086475372,-0.064446285,-0.0070249503,1
-0.9007855653762816,9.77826976776123,0.1018574684858322,-0.0981430634856224,-0.083383106,0.0009162979,1
-0.8903390169143677,9.773350715637207,0.1157805472612381,-0.08970184624195099,-0.09712757,0.0061086523,1
-0.8818458318710327,9.772468566894533,0.13498671352863312,-0.0801270604133606,-0.122783914,0.010690141499999998,1
-0.8704630732536316,9.763824462890623,0.14724408090114596,-0.06972636282444,-0.13072516,-0.004581489,1
-0.8502076864242554,9.76120376586914,0.15129347145557406,-0.05907911062240601,-0.116980694,-0.0036651916,1
-0.8326085805892944,9.763504028320312,0.14807221293449402,-0.049029257148504264,-0.109650314,-0.010995574,1
-0.822005569934845,9.771471977233887,0.13593417406082153,-0.04094390198588371,-0.106595986,-0.018936822,1
-0.8089556097984314,9.784605026245117,0.12899437546730042,-0.03465258330106735,-0.12095132,-0.0076358155,1
-0.8043615221977234,9.7969970703125,0.11889949440956114,-0.030088974162936214,-0.15271631,-0.013133603,1
-0.8078725934028625,9.79677677154541,0.11381900310516355,-0.025425981730222702,-0.17440203,-0.0036651916,1
-0.8096643090248108,9.78587245941162,0.10494396090507507,-0.020827217027544972,-0.16035213,-0.004886922,1
-0.8058146238327026,9.78108024597168,0.09466251730918884,-0.01500160526484251,-0.15454891,-0.0067195175,1
-0.8024511933326721,9.783122062683104,0.07380417734384538,-0.008954250253736973,-0.14660765,-0.008246681,1
-0.7961933612823486,9.789461135864258,0.043904844671487815,-0.004557209089398384,-0.14569137,0.0070249503,1
-0.7930812835693359,9.795458793640137,0.0006230023573152722,0.0002535037929192185,-0.15057829,-0.00030543262000000003,1
-0.7992986440658569,9.794370651245117,-0.038106635212898254,0.004595594946295023,-0.13133603,0.014049901000000002,1
-0.8114397525787354,9.787598609924316,-0.07153019309043884,0.009064927697181702,-0.13591751,0.02443461,1
-0.8143065571784973,9.785737991333008,-0.10189275443553923,0.014574241824448109,-0.13439035,0.023823744,1
-0.8089704513549805,9.79391384124756,-0.12141212075948715,0.02064174599945545,-0.1151481,0.03176499,1
-0.7990376353263855,9.809551239013672,-0.14064371585845947,0.026522746309638023,-0.10262536,0.025350908,1
-0.7993495464324951,9.82855987548828,-0.14167483150959015,0.029758593067526817,-0.10445796,0.022907447,1
-0.8026578426361084,9.850900650024414,-0.12580129504203796,0.02976076118648052,-0.0711658,0.022296581,1
-0.8066719770431519,9.89235782623291,-0.11185401678085327,0.025003334507346157,-0.0580322,0.034208454,1
-0.8108615279197693,9.942157745361328,-0.1032356321811676,0.012547007761895657,-0.058337633,0.04184427,1
-0.8202318549156189,9.971620559692383,-0.1154518648982048,-0.003760644001886249,-0.021685716,0.02687807,1
-0.8362390995025635,9.978296279907227,-0.15573428571224213,-0.010380800813436508,0.0571159,0.0012217305,1
-0.8615826368331909,9.96646499633789,-0.1832440048456192,-0.01258968934416771,0.1255328,-0.03634648,1
-0.8993095755577087,9.936176300048828,-0.19357863068580627,-0.010269646532833576,0.1133155,-0.057421334,1
-0.9519173502922058,9.889044761657717,-0.16562983393669128,-0.0018564336933195589,0.05772676700000001,-0.06291912,1
-0.9800779223442078,9.839983940124512,-0.08140037208795547,-0.00038575098733417684,0.007330383,-0.046120327,1
-0.9857391119003296,9.809412002563477,0.006183540914207697,-0.0101313479244709,-0.029321533,-0.01160644,1
-1.0106971263885498,9.780332565307617,0.045465581119060516,-0.023271255195140842,-0.04734206,-0.011301007,1
-1.0270955562591553,9.76295566558838,0.060457561165094376,-0.029912745580077168,-0.053145275,-0.018325957,1
-1.0319169759750366,9.764731407165527,0.07529325038194656,-0.03151927888393402,-0.062308256,-0.0061086523,1
-1.0394117832183838,9.771778106689453,0.09654580801725388,-0.0344185084104538,-0.07788532,-0.0018325958,1
-1.0412917137145996,9.775938034057617,0.11523303389549255,-0.03445734828710556,-0.07513642,-0.018936822,1
-1.0356512069702148,9.779608726501463,0.12633460760116574,-0.032920129597187035,-0.07269296,-0.029321533,1
-1.0381076335906982,9.78360080718994,0.12243781983852385,-0.03276926279067993,-0.06627888,-0.035124752999999995,1
-1.045828104019165,9.795195579528807,0.12012821435928345,-0.03338988870382309,-0.06780604,-0.026267206,1
-1.049007773399353,9.80373764038086,0.11220436543226242,-0.03449849411845207,-0.076358154,-0.015271631,1
-1.0488485097885132,9.808669090270996,0.09717100113630296,-0.03633900731801987,-0.06291912,-0.016493361,1
-1.0497535467147827,9.805411338806152,0.08942870795726776,-0.03868226334452629,-0.05497787,-0.01740966,1
-1.048103928565979,9.796194076538086,0.08160042017698288,-0.037962570786476135,-0.061086524,-0.01863139,1
-1.043491005897522,9.782208442687988,0.06931539624929428,-0.036607775837183,-0.05009095,-0.018325957,1
-1.032755732536316,9.765536308288574,0.057331893593072884,-0.03201397880911827,-0.03145956,-0.013133603,1
-1.0373802185058594,9.756802558898926,0.04444032907485962,-0.026055440306663517,-0.025961773,-0.012217305,1
-1.0324884653091428,9.765260696411133,0.04048027470707893,-0.019227134063839912,-0.004581489,-0.0033597588,1
-1.0220290422439575,9.77186107635498,0.033837977796792984,-0.012119228951632977,-0.023518313,0.014660766,1
-1.0157541036605835,9.768807411193848,0.02202465757727623,-0.0054072788916528225,-0.04184427,0.03604105,1
-1.022425651550293,9.76193141937256,-0.002490662969648838,0.0010675613302737474,-0.039095376,0.03176499,1
-1.036079168319702,9.758193969726562,-0.034904219210147865,0.00859304703772068,-0.03390302,0.026267206,1
-1.0514726638793943,9.75546932220459,-0.059528492391109473,0.017382847145199776,-0.013744468,0.032375857,1
-1.0626851320266724,9.753531455993652,-0.0821438729763031,0.025980768725275997,0.0009162979,0.036651913,1
-1.0707025527954102,9.752053260803224,-0.09393051266670227,0.03093196079134941,-0.0027488936,0.030543262,1
-1.0736429691314695,9.754830360412598,-0.10281584411859512,0.034557785838842385,-0.003970624,0.03268129,1
-1.0798832178115845,9.770394325256348,-0.11274150758981705,0.03603217005729675,-0.0076358155,0.032070424,1
-1.0906167030334473,9.805584907531738,-0.12837804853916168,0.033788952976465225,0.008246681,0.039095376,1
-1.100294589996338,9.826595306396484,-0.14672835171222687,0.029304735362529755,0.008857545999999999,0.041233405,1
-1.108961582183838,9.83221435546875,-0.16122613847255707,0.024226954206824303,0.01282817,0.02687807,1
-1.1232515573501587,9.82587432861328,-0.1679839938879013,0.018852923065423962,0.015577064,0.0067195175,1
-1.141266107559204,9.818671226501463,-0.16309718787670135,0.011212822049856186,0.02107485,-0.011301007,1
-1.1498600244522097,9.814334869384766,-0.16055205464363098,0.005277083721011877,0.025961773,-0.01740966,1
-1.150851845741272,9.814494132995604,-0.15590250492095947,-0.002038626465946436,0.027794369,-0.025045475,1
-1.147489309310913,9.829702377319336,-0.14624573290348053,-0.010580967180430887,0.04337143,-0.009773844,1
