acc_x,acc_y,acc_z,gyro_x,gyro_y,gyro_z,label
0.0,0.0,0.0,0.0,-0.012217305,0.030543262,1
0.10449831187725067,0.26874351501464844,-0.024933913722634315,0.002596967620775104,0.00030543262000000003,0.028710667,1
0.35371410846710205,0.9098560214042664,-0.08439826965332031,0.00814484991133213,-0.009773844,0.024740042,1
0.6986720561981201,1.7975735664367676,-0.16670727729797366,0.014714717864990234,-0.0076358155,0.028405234,1
1.0850698947906494,2.792318105697632,-0.2589040994644165,0.021452827379107475,0.008857545999999999,0.019242255,1
1.4691787958145142,3.7816159725189213,-0.3505547642707825,0.02654080837965012,0.0143553335,0.019547688,1
1.8234946727752688,4.694668769836426,-0.4350965917110443,0.025246743112802502,0.029321533,0.017104227,1
2.1348955631256104,5.497644424438477,-0.5093986392021179,0.019284825772047043,0.02076942,0.02076942,1
2.4000868797302246,6.181995868682861,-0.5726748108863831,0.012185582891106606,0.033292156,0.021380283,1
2.6213345527648926,6.75349235534668,-0.6254658102989197,0.004505780525505543,0.04886922,0.032986723,1
2.8033783435821533,7.224311828613281,-0.6692962050437927,-0.0034052853006869555,0.04642576,0.026572637000000003,1
2.9505136013031006,7.605955600738525,-0.7108056545257568,-0.012098145671188831,0.04062254,0.02443461,1
3.0680730342864986,7.912167549133301,-0.7518867254257202,-0.02113470993936062,0.017104227,0.022602014,1
3.1612749099731445,8.156244277954103,-0.7925382256507874,-0.02798386849462986,-0.008246681,0.01160644,1
3.2346034049987797,8.349612236022951,-0.8327687978744507,-0.03222322463989258,-0.00061086525,0.00580322,1
3.2918009757995605,8.501819610595701,-0.8726460337638855,-0.035567354410886765,0.005192355,0.013133603,1
3.3359591960906982,8.620750427246094,-0.9122110605239868,-0.03671396896243096,-0.004276057,0.010079277,1
3.36960244178772,8.712843894958496,-0.9515036344528198,-0.038332726806402206,-0.0015271631,0.021685716,1
3.3947739601135254,8.783316612243652,-0.9905831217765808,-0.03834913671016693,0.004276057,0.025350908,1
3.41312313079834,8.836379051208496,-1.0295100212097168,-0.03328971937298775,-0.0021380284,0.0143553335,1
3.425530433654785,8.876214027404785,-1.0661951303482056,-0.027068434283137318,-0.033292156,0.02107485,1
3.4239251613616943,8.920427322387695,-1.059723138809204,-0.03463367372751236,-0.076358154,0.03268129,1
3.4075129032135014,8.973905563354492,-1.0027290582656858,-0.06033238023519516,-0.1572978,0.05497787,6
3.379450559616089,9.034534454345703,-0.9059872031211852,-0.08867422491312027,-0.19517145,0.064446285,6
3.3419108390808105,9.101045608520508,-0.7769093513488771,-0.120017908513546,-0.15485434,0.06383542,6
3.2964754104614262,9.172619819641113,-0.6208877563476562,-0.1544353812932968,-0.22937989,0.04734206,6
3.245133876800537,9.24774169921875,-0.4447168707847595,-0.1703040897846222,-0.23273966,0.016798794,6
3.1888961791992188,9.325892448425293,-0.25184160470962524,-0.17864595353603366,-0.14935656,0.013439035,6
3.128662586212158,9.4065523147583,-0.0453316867351532,-0.1828891634941101,-0.1282817,0.056199603,6
3.065091371536255,9.4893798828125,0.172569140791893,-0.18903471529483795,-0.026267206,0.036651913,6
3.000502109527588,9.573405265808104,0.39776381850242615,-0.2071476131677628,0.021685716,0.017715093,6
2.9659655094146733,9.653885841369627,0.609272301197052,-0.2428761869668961,0.07391469,0.037873644,6
2.9684858322143555,9.729555130004883,0.8014013767242432,-0.29900267720222473,0.21655174,0.056505036,6
3.0009536743164062,9.80142593383789,0.9780963063240052,-0.3759360015392304,0.23182335,0.07574729,6
3.057324886322021,9.870189666748047,1.1422810554504397,-0.4765436351299286,0.1853976,0.056505036,6
3.132938861846924,9.936471939086914,1.2964472770690918,-0.6159218549728394,0.20158553,0.002443461,6
3.2241528034210205,10.000813484191896,1.4426712989807131,-0.7851436734199524,0.21594086,-0.05100725,6
3.3276734352111816,10.063515663146973,1.5823500156402588,-0.9635462164878844,0.27916542,-0.051618114000000014,6
3.4415903091430664,10.125085830688477,1.7171467542648315,-1.126951813697815,0.57910025,-0.032070424,6
3.563037872314453,10.185447692871094,1.8474193811416624,-1.2530605792999268,0.6783658,0.010690141499999998,6
3.6904392242431636,10.244056701660156,1.9740502834320068,-1.3426470756530762,0.37018433,-0.03604105,6
3.794303178787232,10.246447563171387,2.0806872844696045,-1.4481396675109863,0.17440203,-0.24831672,6
3.865798234939575,10.17954921722412,2.1629889011383057,-1.5807538032531738,-0.12034045,-0.44593164,6
3.9110534191131587,10.055617332458496,2.225675106048584,-1.64976704120636,-0.32559118,-0.47128254,6
3.935335636138916,9.886475563049316,2.272634744644165,-1.6568081378936768,-0.37415496,-0.27000242,6
3.9425945281982417,9.680001258850098,2.3069117069244385,-1.5911483764648438,-0.21899518,-0.17348573,6
3.936402797698975,9.444828987121582,2.331063985824585,-1.45783269405365,-0.2134974,-0.18784106,6
3.919304847717285,9.186016082763672,2.347054958343506,-1.2900935411453247,-0.2144137,-0.29382620000000004,6
3.893336534500122,8.907580375671387,2.356459140777588,-1.109142541885376,-0.16065755,-0.37965274,6
3.8604605197906494,8.614639282226562,2.3606336116790767,-0.9327973127365112,-0.129198,-0.37140608,6
3.821474313735962,8.311592102050781,2.360996961593628,-0.7531677484512329,-0.04153884,-0.30634892,6
3.767800331115722,8.06154727935791,2.368997812271118,-0.5699264407157898,0.0571159,-0.2611449,6
3.6982131004333496,7.878845691680907,2.387526273727417,-0.3802574872970581,0.25778514,-0.20738874,6
3.6159262657165527,7.750182628631593,2.414473295211792,-0.17199262976646426,0.39675698,-0.13622294,6
3.5234060287475586,7.664947986602782,2.448197364807129,0.04155411943793297,0.42577308,-0.08399397,6
3.422647714614868,7.614611148834228,2.487373352050781,0.2289760857820511,0.36743546,0.010690141499999998,6
3.315271139144897,7.592308044433594,2.5309295654296875,0.3812986612319946,0.24037547,0.113926366,6
3.2026047706604004,7.592504024505615,2.5779917240142822,0.5190105438232422,0.2510656,0.06414085,6
3.085731506347656,7.610744953155518,2.627851247787476,0.6575426459312439,0.34330627,-0.021380283,6
2.9655544757843018,7.6434288024902335,2.679922819137573,0.7751098275184631,0.14019357,-0.018325957,6
2.845669984817505,7.692136764526367,2.7303125858306885,0.8376894593238831,-0.19700404,-0.12492194,6
2.7950186729431152,7.848137855529785,2.701348304748535,0.8301318287849426,-0.3368922,-0.2666427,6
2.824263334274292,8.121659278869629,2.581810712814331,0.7400482892990112,-0.34330627,-0.19120082,6
2.918767213821411,8.49187183380127,2.3880295753479004,0.611056923866272,-0.48472157,-0.06383542,6
3.0655529499053955,8.939459800720215,2.1348025798797607,0.4837109744548798,-0.44929138,-0.016187929,6
3.2550015449523926,9.450613975524902,1.8329063653945925,0.3794302046298981,-0.12003502,-0.08643743400000001,6
3.4777011871337886,10.010668754577637,1.4933186769485474,0.3122808635234833,-0.0076358155,-0.16065755,6
3.72749400138855,10.610818862915039,1.1229257583618164,0.30418118834495544,-0.043982297,-0.25870144,6
3.998975992202759,11.243016242980957,0.7278905510902405,0.34183216094970703,-0.5448918,-0.14446963,6
4.288101673126222,11.901429176330565,0.31275519728660583,0.2992027699947357,-1.5790867,0.105374254,6
4.588086128234863,12.573726654052734,-0.1130504459142685,0.1539219319820404,-0.8680395000000001,0.4111123,6
4.82653284072876,13.104715347290039,-0.4287093281745911,0.1116553246974945,0.089491755,0.09773844,6
4.987080097198486,13.460433959960938,-0.6078914403915405,0.07185613363981247,-0.21502456,0.011301007,6
5.084935188293457,13.675095558166506,-0.6771643757820129,0.09497086703777312,1.0341948,-0.45845437,6
5.132182598114014,13.77588176727295,-0.6575525403022766,0.17312157154083252,0.07391469,-0.01282817,6
5.139322280883789,13.786438941955565,-0.567848801612854,0.1761828362941742,1.2742649,-0.004886922,6
5.114113807678223,13.724217414855955,-0.4215274453163147,0.0811150074005127,0.21380283,-0.46181414,6
5.062560081481934,13.602710723876953,-0.2288619428873062,0.04246895015239716,-0.5705481,0.059864793,6
4.9903483390808105,13.434733390808105,-0.0001775321434251964,0.16902956366539,0.03268129,0.36651915,6
4.901366233825684,13.229025840759276,0.2578609585762024,0.421241819858551,0.8854492,0.22021692,6
4.7910356521606445,12.985869407653807,0.5378964543342589,0.6420848965644836,1.7403551,0.10476339,6
4.3088154792785645,12.425153732299805,0.7136892080307007,0.8452490568161011,0.7324274000000001,-0.1160644,6
3.160515785217285,11.54705047607422,0.6413375735282898,1.0039206743240356,0.10720685,-0.39492437,6
2.093330383300781,10.99187183380127,0.7329508066177368,1.075467228889465,-0.08460484,-0.42577308,6
1.970532774925232,10.583473205566406,1.325037717819214,1.0785579681396484,-0.33567044,0.08063421400000001,6
2.574435949325561,10.069708824157717,1.9847006797790527,0.957901120185852,0.12950343,0.5888741,6
2.777977466583252,9.723587036132812,2.423076868057251,0.7359811067581177,0.049785517,0.8213083000000001,6
2.417434930801392,9.443894386291504,2.5515477657318115,0.4788012206554413,-0.204029,0.6994406999999999,6
1.8135558366775515,9.03377628326416,2.6650843620300293,0.2676037847995758,-0.34788775,0.56046885,6
1.367548584938049,8.582311630249022,2.9286649227142334,0.05431303009390831,0.10476339,0.5552765000000001,6
1.2881969213485718,8.128500938415527,2.8180646896362305,-0.14748288691043854,0.61422503,0.56321776,6
1.513129949569702,7.8152008056640625,2.5023062229156494,-0.28038689494133,0.007941248,0.42363504,6
1.8038805723190308,7.804218292236327,2.537108898162842,-0.3645597994327545,-0.07727446,0.45814893,6
1.6571857929229736,7.879641056060791,2.311075448989868,-0.4926122128963471,1.2330315,0.19517145,6
1.1048504114151,8.02260684967041,2.0053067207336426,-0.6623011231422424,0.9425651,-0.049785517,6
0.8414546251296997,8.331502914428711,2.5620017051696777,-0.928729772567749,0.060170225999999986,0.33383787,6
1.0670856237411501,8.86642837524414,2.7699475288391118,-1.4618263244628906,-1.3622295,0.55833083,6
1.9073915481567385,9.856575012207033,2.427138328552246,-1.9916661977767944,-1.5735888,0.31856623,6
3.1341798305511475,10.905335426330566,2.3475286960601807,-2.3442275524139404,-0.48288897,0.17531833,6
4.0488457679748535,11.502359390258787,2.1505794525146484,-2.5191409587860107,-0.6805039,-0.2406809,6
4.440767288208008,11.565138816833494,2.078285217285156,-2.568024158477783,0.16554448,-0.43096542,6
4.290844917297363,11.510961532592773,2.3556363582611084,-2.498950242996216,-0.064751714,-0.5534439,6
4.109548091888429,11.459403038024902,2.7589826583862305,-2.4247150421142583,-0.5870415,-0.3359759,6
4.726058483123778,11.250651359558104,3.191943645477295,-2.3019399642944336,-0.4334089,-0.38331795,6
5.388939380645752,10.879465103149414,3.655641794204712,-2.052685499191284,-0.28893927,-0.61483586,6
5.505335330963135,10.30819320678711,3.88975977897644,-1.7192633152008057,-0.28099802,-0.7272350999999999,6
5.081502914428711,9.581799507141113,3.7231981754302983,-1.3433569669723509,-0.17806722,-0.81214535,6
4.548157691955566,8.73890495300293,3.3485255241394043,-0.9752191305160522,-0.2415972,-0.71593404,6
4.179079055786134,7.836206912994385,2.9915943145751958,-0.6457154154777527,-0.22082779,-0.62949663,6
3.9709901809692383,6.941405773162843,2.6040139198303223,-0.3022540211677551,0.17470746,-0.48441613,6
3.880399227142334,6.136885643005371,2.2413768768310547,0.07251472771167755,0.57879484,-0.28496864,6
3.7588520050048833,5.472104549407959,1.9765458106994631,0.4569298326969147,0.77549344,-0.08460484,6
3.567296504974365,4.878467559814453,1.830441236495972,0.8408674001693726,0.77488256,0.122783914,6
3.226033926010132,4.5549397468566895,1.8588967323303225,1.2129305601119995,0.5222898,0.44959682,6
2.8534221649169917,4.599716663360597,1.8838789463043213,1.545122742652893,0.28619036,0.5137377000000001,6
2.5568127632141118,5.085495948791504,1.8943802118301392,1.81495201587677,0.083383106,0.47128254,6
2.4073331356048584,6.0685553550720215,2.1071059703826904,1.946524262428284,-0.45998153,-0.043066,6
2.350599765777588,6.895028591156006,2.5452451705932617,1.9590744972229004,-0.8231409,-0.5674938,6
2.3828489780426025,7.166222095489503,3.0032382011413574,1.9181699752807615,-0.55924714,-0.6227771,6
2.456284284591675,7.300198554992676,3.244722843170166,1.7818040847778318,0.16126843,-0.657291,6
2.857684135437012,7.693163871765138,3.2411117553710938,1.5997785329818726,1.1279627,-0.62796944,6
4.388059139251709,8.855708122253418,3.8496298789978023,1.364249587059021,-0.8338310999999999,0.20586158,6
5.8365864753723145,9.787456512451172,2.8851652145385738,0.8628265261650085,2.0561724,1.3732251,6
5.470519065856934,9.88758659362793,0.6793560385704039,0.611362636089325,3.5308010000000003,0.4859433,6
4.0028581619262695,9.890113830566406,0.18529251217842105,0.5022681951522827,-0.9615019,-0.29749137,6
2.9915482997894287,9.703289031982422,0.308270275592804,0.5091540217399597,-0.28191432,-0.7770206000000001,6
3.881850004196167,10.754014015197754,1.8518388271331787,0.5229265093803406,-1.3081678999999995,0.59528816,6
4.29315996170044,11.959604263305664,2.8291707038879395,0.5158909559249878,1.6875153000000005,-0.17928895,6
2.9259624481201167,11.960973739624025,2.6165964603424072,0.34527838230133057,0.55955255,-0.45081854,6
2.44246506690979,11.426843643188475,1.85718834400177,0.23339208960533145,-0.45906523,-0.39614612,6
2.79967737197876,11.100655555725098,1.276787519454956,0.1988801807165146,-0.36041048,0.07238753,6
3.193426609039306,10.897526741027832,0.9895207285881042,0.2917237877845764,0.7968736999999999,0.12675454,6
3.5103609561920166,10.723185539245604,0.8539046645164491,0.459427684545517,1.6279559,0.08216137400000001,6
3.434935569763184,10.532108306884766,0.6296859383583069,0.6954047083854675,0.8555168,0.01863139,6
2.910890817642212,10.357815742492676,0.6597786545753479,0.8398765921592712,0.61666846,-0.054367006,6
2.312758445739746,10.219432830810547,1.1175206899642944,0.8853970766067505,0.39858958,-0.027488936,6
2.0866591930389404,9.878081321716307,1.7631688117980957,0.8479171991348267,-0.2406809,0.29565877,6
2.1206800937652592,9.455610275268556,2.372429847717285,0.7059067487716675,-0.6020076999999999,0.6606508000000001,6
2.0144333839416504,9.164533615112305,2.7398157119750977,0.4707904756069183,-0.6010914,0.86070913,6
1.6546058654785156,8.95216178894043,2.809349775314331,0.21441419422626493,-0.6249151,0.73273283,6
1.2203500270843506,8.651070594787598,2.6735732555389404,-0.0048450720496475705,-0.8552113000000001,0.56382865,6
0.8456882238388062,8.196483612060549,2.464292287826538,-0.20710530877113345,-0.8417723,0.46517387,6
0.7301397323608398,7.631228446960449,2.384648561477661,-0.3833153545856476,-0.50976706,0.44684792,6
0.9919338822364808,7.194279193878174,2.312997817993164,-0.5696842670440674,-0.5112942,0.5681046999999999,6
1.224047064781189,6.927591800689697,2.1042585372924805,-0.7085199356079102,-0.5290093000000001,0.4633413,6
1.4688760042190552,6.914396286010742,2.0310769081115723,-0.771061360836029,-0.17654006,0.35399640000000004,6
1.7096080780029297,7.050421714782715,2.1335723400115967,-0.8842611312866211,0.30390546,0.34605515,6
1.8234062194824217,7.200990676879883,2.510549068450928,-1.0635608434677124,0.6432411,0.41996986,6
1.8091709613800049,7.310488224029541,2.807522773742676,-1.3455407619476318,0.27214047,0.61911196,6
2.1417691707611084,7.791848182678223,2.9491300582885738,-1.7758316993713381,-0.8866709,0.52564955,6
2.864525556564331,9.016027450561523,2.94785213470459,-2.2260854244232178,-1.1453723999999998,0.24220806,6
3.5794141292572017,10.333531379699707,2.76205849647522,-2.4589316844940186,-0.03176499,-0.116675265,6
4.283571720123291,11.347127914428713,2.9110529422760014,-2.4634149074554443,-0.08277224,-0.5140431,6
4.6948065757751465,11.72431182861328,3.560258150100708,-2.3888261318206787,-0.25289822,-0.72418076,6
5.004157066345215,11.741086959838867,4.141000270843507,-2.265061616897583,-0.31856623,-0.7067711,6
5.617019176483153,11.603325843811035,4.602365970611572,-2.107831716537476,-0.12003502,-0.8753699,6
6.335691928863525,11.322033882141113,4.9395904541015625,-1.8553951978683472,-0.30848694,-1.1242975,6
6.594241619110107,10.766459465026855,4.954862594604492,-1.5424243211746216,-0.6630941999999999,-1.1362093999999998,6
6.148619174957275,10.020259857177734,4.632260799407959,-1.2360341548919678,-0.64812803,-0.6936375,6
5.275483131408691,9.1920747756958,4.054559230804443,-0.9726198315620422,-0.44929138,-0.39095375,6
4.560902118682861,8.323932647705076,3.4673075675964355,-0.7416725158691406,-0.54305923,-0.31764993,6
4.148362636566162,7.562245368957519,2.972083330154419,-0.5015025138854979,-0.52931476,-0.29901853,6
3.978779792785645,6.8376545906066895,2.537472486495972,-0.2261020243167877,-0.23518312,-0.17318029999999998,6
3.9705870151519775,6.098823547363281,2.1882364749908447,0.08641953766345978,0.004276057,-0.099571034,6
4.006022930145264,5.386520385742188,1.942741870880127,0.4137694239616394,0.21410827,0.03023783,6
3.9621901512146,4.825403213500977,1.7978957891464231,0.7358005046844482,0.49877146,0.10629055,6
3.7920093536376953,4.627676963806152,1.6881835460662842,1.0648951530456543,0.49632803,0.024740042,6
3.6565217971801762,4.873664379119873,1.5946879386901855,1.4285389184951782,0.4896085,-0.11789699,6
3.7207629680633545,5.492543697357178,1.6827080249786377,1.7351832389831543,0.6188064999999999,0.005497787,6
3.862172365188599,6.2007575035095215,2.086434125900269,1.8796535730361936,0.6291912,0.05131268,6
3.596731424331665,6.844682693481445,3.0645344257354736,1.848183035850525,-0.026572637000000003,-0.15118915,6
2.9865505695343018,7.29164457321167,3.9285504817962646,1.7158116102218628,-0.16554448,-0.15515977,6
2.3402817249298096,7.5170159339904785,4.2273898124694815,1.6106356382369995,0.58276546,-0.48655418,6
2.1272847652435303,7.547138690948486,3.859604835510254,1.5189354419708252,1.3429873,-0.7965683000000001,6
2.868776559829712,7.790727138519287,3.5335867404937744,1.4339169263839722,0.55741453,-0.52412236,6
4.5927157402038565,8.736050605773926,4.225422382354736,1.3104214668273926,-3.5097263,0.32009340000000003,6
5.850358486175537,9.669631958007812,3.897132396697998,0.9213507771492004,-1.0012082,1.3158038,6
5.027379512786865,9.823972702026367,2.0728204250335693,0.597100019454956,2.944065,0.38545597,6
3.4235897064208984,9.876601219177246,1.187402606010437,0.4841322004795074,0.6038403,-0.31245756,6
2.647501945495605,9.955642700195312,0.7810341119766235,0.45667964220047,-0.3811799,-0.3100141,6
3.1254699230194087,10.907814025878906,1.3250666856765747,0.4178416728973389,0.3115413,0.32314770000000004,6
3.6297645568847656,12.313218116760256,2.3143515586853027,0.3836021423339844,1.1346822,0.39736784,6
3.024226427078247,12.85313606262207,2.474387884140014,0.28137123584747314,0.88270026,-0.20616703,6
2.511630058288574,12.632203102111815,1.974648356437683,0.22768472135066986,0.59620446,-0.26328292,6
2.567826509475708,12.263541221618652,1.5252416133880615,0.2070814818143845,0.046731193,0.020463986,6
2.8473846912384038,11.921789169311525,1.1713353395462036,0.2948459386825561,0.8384125,0.094989546,6
3.08789587020874,11.557743072509766,1.1092102527618408,0.4293266832828522,1.1545353,0.15913039999999998,6
3.0757761001586914,11.275463104248047,1.1249943971633911,0.5773200392723083,0.96577793,0.119729586,6
2.7459661960601807,10.948979377746582,1.2146646976470947,0.700036883354187,0.75777835,0.029626964,6
2.2471163272857666,10.548383712768556,1.4414212703704834,0.7415577173233032,0.5204572000000001,0.0036651916,6
1.83212149143219,10.048168182373047,1.8370124101638796,0.7124163508415222,-0.09621128,0.10476339,6
1.8957799673080444,9.441843032836914,2.270770311355591,0.5973941087722778,-0.26206118,0.4633413,6
2.046893835067749,8.93111515045166,2.58081316947937,0.4154140055179596,-0.28588495,0.78038037,6
1.9812273979187007,8.555609703063965,2.7664806842803955,0.2298540025949478,-0.09621128,0.77854776,6
1.8392487764358518,8.186349868774414,2.7652597427368164,0.08130654692649841,0.09712757,0.6740898,6
1.6783308982849119,7.70724630355835,2.5709879398345947,-0.018807975575327877,0.08277224,0.56230146,6
1.5621898174285889,7.241409301757812,2.537134885787964,-0.11222562938928604,-0.20952678,0.5390885999999999,6
1.4908673763275146,6.9456419944763175,2.65155291557312,-0.21959464251995087,0.36560285,0.5882632,6
1.3531367778778076,6.776998519897461,2.6461331844329834,-0.2916790843009949,0.66523224,0.3866777,6
1.3690954446792605,6.808664321899414,2.6319265365600586,-0.37430182099342346,0.5513059,0.25961772,6
1.5075018405914309,6.973361015319824,2.7909996509552,-0.5320721864700317,0.4129449000000001,0.37751472,6
1.6027181148529053,7.10054874420166,3.1014978885650635,-0.8255724310874939,0.88697636,0.569021,6
1.732541561126709,7.280842304229736,3.203935384750366,-1.2141467332839966,0.7333437,0.59986967,6
2.519207715988159,7.96928071975708,3.4863495826721187,-1.7000446319580078,-0.5540548000000001,0.4373795,6
3.5124430656433105,9.36106014251709,3.516387939453125,-2.0859737396240234,-0.23151793,0.12339478,6
4.176112174987793,10.409225463867188,3.313857078552246,-2.224331855773926,0.17043139999999998,-0.24831672,6
4.385192394256592,10.952754020690918,3.408907175064087,-2.211639642715454,-0.59406644,-0.79259765,6
4.252167224884033,11.407840728759766,3.767156600952149,-2.1935069561004643,-0.5647449000000001,-0.89858276,6
4.629410266876222,11.82859992980957,4.402932643890381,-2.1491401195526123,-0.6072,-0.9975429,6
5.56967306137085,11.99368667602539,5.10724687576294,-2.053977727890014,-0.88514376,-1.1410962,6
6.253960132598878,11.68639850616455,5.5421295166015625,-1.827647686004639,-0.8677341000000001,-1.3958270000000002,6
6.135486125946045,11.062533378601074,5.432799339294434,-1.5077532529830933,-0.25320363,-1.3726143,6
5.386108875274658,10.36880111694336,4.8169212341308585,-1.172685146331787,-0.20525073,-1.2183707,6
4.833484649658203,9.53278636932373,4.299767017364502,-0.9018741250038148,-0.39736784,-0.9816604,6
4.577739715576172,8.64594841003418,3.935126543045044,-0.6558185219764711,-0.625526,-0.8173377,6
4.354492664337158,7.835121154785156,3.5294191837310787,-0.4149071872234345,-0.6392705,-0.6239988000000001,6
4.068095684051514,7.036021709442139,2.983734130859375,-0.168649822473526,-0.4343252,-0.3830125,6
3.773794889450073,6.27633810043335,2.447100877761841,0.06685376167297362,-0.21471913,-0.21227567,6
3.5006532669067383,5.570075988769531,2.0521192550659184,0.3141573369503021,-0.09560041,-0.17318029999999998,6
3.2917184829711914,4.902919292449951,1.7957201004028318,0.5971084833145142,-0.14202617,-0.13591751,6
3.170945167541504,4.292881965637207,1.5946742296218872,0.9420525431632996,-0.09132435,0.03176499,6
3.0307292938232417,3.916273593902588,1.46915864944458,1.3213016986846924,-0.30665436,0.25381452,6
2.684563636779785,4.20435094833374,1.4487627744674685,1.6361558437347412,-0.5561928,0.42821655,6
2.4447009563446045,5.157556056976318,1.5411821603775024,1.8356956243515012,-0.64721173,0.35124752,6
2.5391974449157715,6.458786487579347,1.7821637392044067,1.8672516345977783,-0.8762861999999999,-0.50762904,6
2.977658987045288,7.33858060836792,2.1989150047302246,1.856401443481445,-0.75808376,-0.61269784,6
3.3982436656951904,7.801953792572021,2.8285036087036133,1.8337384462356567,-0.6404922,-0.45234573,6
3.56030821800232,8.013834953308105,3.3450427055358887,1.6626664400100708,0.50976706,-0.5403103,6
3.660847187042236,8.142521858215332,3.4665567874908447,1.403527021408081,1.6307048000000002,-0.86070913,6
4.31592321395874,8.444303512573242,3.2118735313415527,1.2198700904846191,0.8500190000000001,-0.9095783000000002,6
5.823387145996094,9.349539756774902,2.8041460514068604,1.0468155145645142,-1.2681563,-0.16493362,6
6.845942974090576,10.017370223999023,1.7096823453903198,0.8803133368492126,0.21471913,0.8564331000000001,6
6.426268100738525,10.29475212097168,0.840362548828125,0.7177796959877014,1.4059063,0.79443026,6
5.226510047912598,10.698129653930664,0.5285422205924988,0.5143121480941772,1.1972959,0.7012733,6
3.881474256515503,11.074707984924316,0.4477773010730744,0.3796619176864624,0.5317582,0.33414328,6
2.748448371887207,10.93535041809082,0.01662095636129379,0.28444525599479675,0.5720753000000001,-0.6032294,6
2.985207319259644,11.549179077148438,0.3443081080913544,0.3803151547908783,0.50243664,-0.24251351,6
3.5445756912231445,12.758159637451172,1.1831260919570925,0.4775773584842682,1.6019941999999998,-0.055283304000000005,6
3.030344247817993,13.390600204467773,1.6262662410736084,0.5233937501907349,2.2785273,-0.5580254,6
2.533238172531128,13.140145301818848,1.4469724893569946,0.4878820180892944,0.7440339,-0.5164866,6
2.7470462322235107,12.384363174438475,1.0081778764724731,0.39704564213752747,-0.7263188,-0.051923547,6
3.0354809761047363,11.804359436035154,0.763783872127533,0.3285462558269501,-0.0711658,0.3472769,6
3.0491740703582764,11.512535095214846,0.7240622639656067,0.35409605503082275,1.4251486,0.25137106,6
2.9128201007843018,11.230325698852539,0.7769844532012941,0.4664710462093353,1.3762794,0.08216137400000001,6
2.716571092605591,10.85257053375244,0.922739565372467,0.5275304317474365,0.6649268,0.10140363,6
2.3381893634796143,10.334755897521973,1.1944551467895508,0.5141761302947998,-0.08827003,0.20616703,6
1.9574483633041384,9.683133125305176,1.541349172592163,0.44973158836364746,-0.12064589,0.3726278,6
1.7160801887512207,9.033852577209473,1.9369150400161743,0.3210417628288269,0.25411993,0.623388,6
1.5012683868408203,8.490633010864258,2.2524430751800537,0.14777536690235138,0.08979719,0.7089091,6
1.3091983795166016,8.102580070495605,2.4142720699310303,-0.048211757093667984,0.0018325958,0.59895337,6
1.2275234460830688,7.745110034942628,2.4734697341918945,-0.2116537243127823,-0.040011674,0.56016344,6
1.0020682811737058,7.362154483795166,2.4266977310180664,-0.3549260795116425,0.2519819,0.58368176,6
0.6122456192970276,7.084351539611816,2.432289123535156,-0.4950978755950928,0.04734206,0.46028697,6
0.4592616856098175,7.0456604957580575,2.4587743282318115,-0.6097471117973328,-0.106901415,0.36377025,6
0.555591881275177,7.225388050079347,2.52660608291626,-0.7550090551376343,-0.3484986,0.45356745,6
0.7598006725311279,7.570441722869872,2.8444128036499023,-0.9849669337272644,-0.59620446,0.5531385,6
0.9122439622879028,7.8995933532714835,3.142591953277588,-1.23209547996521,-0.16554448,0.5830709,6
1.1105767488479614,7.996371269226074,3.267300128936768,-1.4862987995147705,-0.57787853,0.71685034,6
1.746419072151184,8.358708381652832,3.3030972480773926,-1.839629054069519,-0.6948592,0.5479460999999999,6
2.6262567043304443,9.105080604553224,3.2460508346557617,-2.1695108413696294,-0.50854534,0.16187929,6
3.647423505783081,9.86224365234375,2.998543739318848,-2.303490400314331,0.39461896,-0.03145956,6
4.452737331390381,10.511112213134766,3.1531121730804443,-2.23785400390625,-0.21960606,-0.50793445,6
4.8717570304870605,11.121118545532227,3.574773073196411,-2.1276142597198486,-0.12858713,-0.818254,6
5.153429985046387,11.650060653686525,4.139981746673584,-2.0031085014343257,-0.14996742,-0.9056077,6
5.7680602073669425,11.956767082214355,4.669978618621826,-1.8306920528411863,-0.24617869,-1.1887437,6
6.314560890197754,11.801697731018065,5.1651611328125,-1.5641010999679563,-0.86284715,-1.425454,6
6.257491111755371,11.220654487609863,5.387913227081299,-1.2578409910202026,-1.074512,-1.3481796,6
5.758301734924316,10.467894554138184,5.1263089179992685,-0.957076907157898,-0.7696901999999999,-0.9950995,6
5.235291957855225,9.707191467285156,4.4885029792785645,-0.6882871985435486,-0.14630222,-0.6462954000000001,6
4.943408012390137,8.931008338928223,3.7642645835876474,-0.4377074539661408,0.16126843,-0.47708577,6
4.8527421951293945,8.15733528137207,3.2045490741729736,-0.17364969849586487,-0.024740042,-0.31490102,6
4.700828552246094,7.338786602020264,2.7634923458099365,0.0920376479625702,-0.15332718,-0.13072516,6
4.4808993339538565,6.56157112121582,2.372140884399414,0.3255091905593872,-0.25289822,0.008246681,6
4.24570894241333,5.8295044898986825,2.0146968364715576,0.5407302975654602,-0.26542094,0.13103059,6
3.9626832008361816,5.150604724884033,1.715343356132507,0.765783965587616,-0.09865474,0.20586158,6
3.617778778076172,4.675950527191162,1.5225603580474854,1.0203802585601809,-0.09437868,0.2501493,6
3.2120296955108643,4.543604850769043,1.442898154258728,1.2953435182571411,-0.39492437,0.24220806,6
2.8194561004638667,4.807353019714356,1.4211740493774414,1.556274652481079,-0.55680364,0.13805555,6
2.538081645965576,5.363971710205078,1.4966312646865845,1.7444510459899902,-0.6044512,-0.22021692,6
2.3869218826293945,6.122681140899657,1.8942811489105225,1.8063457012176516,-0.548557,-0.43768495,6
2.2880098819732666,6.70388650894165,2.896643877029419,1.7061909437179563,-0.72295904,-0.40683624,6
2.2764620780944824,6.805936336517334,3.3699498176574707,1.5250488519668581,0.2275473,-0.58001655,6
2.4814207553863525,6.605104923248291,2.913536548614502,1.3742084503173828,1.5812247,-0.72204274,6
3.2180814743041988,6.524184226989746,2.5218844413757324,1.1947338581085205,0.13408493,-0.49418998,6
4.730653762817383,7.504501342773437,2.8268790245056152,0.986954152584076,-3.8200457,0.41447207,6
5.546099662780762,9.09675121307373,1.6541317701339722,0.5906822085380554,0.66737026,1.1701124,6
4.838480949401856,9.611732482910156,0.3199126124382019,0.3846609890460968,2.8170052000000005,0.35277468,6
3.760931253433228,9.8623685836792,-0.09598319977521896,0.32967913150787354,0.16707164,-0.3594942,6
3.2744178771972656,10.11093044281006,0.0004958620411343873,0.2815651595592499,-0.08521569999999999,-0.2910773,6
3.4112322330474854,10.997428894042967,0.5097426176071167,0.2482708543539047,0.61208695,-0.016187929,6
4.08897876739502,12.357084274291992,1.4923844337463381,0.2358454912900925,2.1267273,-0.34483343,6
3.523430585861206,12.65323257446289,1.4900573492050169,0.20075775682926175,1.9058995,-0.50946164,6
3.2259089946746826,12.200495719909668,1.0856704711914062,0.1491246372461319,0.39492437,0.037873644,6
3.472310304641724,11.865045547485352,0.6941326856613159,0.07827755063772203,0.0125227375,0.40378192,6
3.7053375244140634,11.802061080932615,0.587865948677063,0.10791151225566864,1.2220358999999998,0.44929138,6
3.759666919708252,11.76215648651123,0.6819793581962585,0.2215954959392548,1.6566665,0.4166101,6
3.439284086227417,11.549174308776855,0.7282128334045409,0.3858025372028351,1.0433578,0.2098322,6
2.791241407394409,11.165260314941406,0.7984621524810791,0.5147485733032227,0.87995136,0.08521569999999999,6
2.219350099563598,10.734505653381348,0.9795678853988647,0.5790616869926453,0.569021,0.15302174,6
1.8588684797286987,10.200550079345703,1.1788995265960691,0.6088622212409973,0.29840767,0.30695978,6
1.647215723991394,9.550033569335938,1.3244823217391968,0.636509895324707,-0.1423316,0.37201694,6
1.4400657415390017,9.093337059020996,1.4818783998489382,0.6756859421730042,-0.35033122,0.3839288,6
1.25184428691864,8.876818656921387,1.7016103267669678,0.7146438360214233,-0.19914207,0.312763,6
1.0942670106887815,8.80863094329834,1.9448983669281008,0.7607672214508057,-0.14874569,0.14782938,6
0.9558449983596802,8.792409896850586,2.0925054550170903,0.7874409556388855,-0.35735616,0.03940081,6
0.8918365836143494,8.667158126831055,2.0927109718322754,0.7552408576011658,-0.13316862,0.15760323,6
0.9332142472267152,8.315180778503418,2.1776587963104252,0.6620569229125977,0.0067195175,0.33475417,6
1.0311707258224487,7.948640823364258,2.341621398925781,0.48876076936721796,0.09865474,0.56230146,6
1.0163275003433228,7.733885765075684,2.348105192184448,0.28250497579574585,0.1881465,0.52381694,6
0.9550443887710572,7.68612003326416,2.3118913173675537,0.06930223107337953,0.15668693,0.25350907,6
1.0872585773468018,7.791603088378906,2.5953526496887207,-0.147447869181633,-0.46517387,0.14110987,6
1.3396705389022827,8.018936157226562,3.300475597381592,-0.4391153156757355,-0.37782016,0.34483343,6
1.3031238317489624,8.104890823364258,3.23999547958374,-0.8520420789718628,1.5222762,0.37201694,6
1.4136368036270142,8.08006477355957,3.185664653778076,-1.2813985347747805,-0.16310102,0.8668178,6
2.08371901512146,8.252107620239258,3.200244903564453,-1.9350594282150269,-0.64904433,1.3115277,6
2.527462244033813,9.012377738952637,2.6246931552886963,-2.4283504486083984,-1.7131716,0.7800749,6
2.945204257965088,9.782763481140137,2.0913264751434326,-2.6494743824005127,-0.39278635,0.13164146,6
3.6122667789459233,10.409624099731444,2.0148859024047847,-2.582685232162476,0.70157874,-0.46273044,6
4.172133445739746,10.628929138183594,2.393399238586426,-2.335570335388184,-0.7528914000000001,-1.0231993,6
4.384268283843993,10.820318222045898,2.699188709259033,-2.1313934326171875,-0.93767816,-0.96791595,6
4.946410655975342,11.349312782287598,3.020944833755493,-1.9507906436920168,0.09621128,-1.1267409,6
5.877859115600586,11.878533363342285,3.657535076141357,-1.7220064401626587,0.038179077,-1.3457361,6
6.260798454284668,11.804346084594727,4.314941883087158,-1.412556290626526,-0.40530908,-1.5066991000000003,6
5.876925468444824,11.12369441986084,4.218733310699463,-1.107786774635315,0.22174409,-1.3072516,6
5.375792026519775,10.250595092773438,3.712924957275391,-0.8810438513755798,0.12003502,-0.7370089,6
4.9720540046691895,9.344037055969238,3.311264514923096,-0.7492280006408691,0.038789943,-0.4596761,6
4.81454610824585,8.592314720153809,3.135901927947998,-0.5857120156288147,0.04642576,-0.29565877,6
4.799672603607178,8.025651931762695,3.0838041305541988,-0.417188972234726,-0.33108896,-0.18600847,6
4.698694705963135,7.587998390197754,2.9920461177825928,-0.29285871982574463,-0.70646566,-0.1441642,6
4.388463020324707,7.178205966949463,2.7820849418640137,-0.1978401988744736,-0.86162543,-0.1133155,6
4.03839111328125,6.6992759704589835,2.4682164192199707,-0.0694456547498703,-0.57543504,-0.08582657,6
3.80601954460144,6.248652458190918,2.0725910663604736,0.12574532628059387,-0.009468411,0.033292156,6
3.6671128273010254,5.934560775756836,1.729448676109314,0.3852746784687042,0.5216789000000001,0.13988814,6
3.568732023239136,5.7171149253845215,1.4946976900100708,0.6673771142959595,0.78984874,0.24678956,6
3.523512125015259,5.569533824920653,1.3915045261383057,0.922188401222229,0.73914695,0.4184427,6
3.5335116386413574,5.513526439666748,1.4157162904739382,1.1441378593444824,0.46089783,0.5164866,6
3.578627347946167,5.6233744621276855,1.5318478345870972,1.3514820337295532,0.25320363,0.6621779000000001,6
3.5814597606658936,5.902958393096924,1.7354267835617063,1.5225807428359983,-0.19456059,0.63621616,6
3.456761121749878,6.521390914916992,2.0807509422302246,1.6303467750549316,-1.5888605,-0.13255776,6
3.324467420578003,7.2633304595947275,2.5175788402557373,1.6661312580108645,-1.9211712,-0.52870387,6
3.281776428222656,7.9035325050354,3.223517179489136,1.5999604463577268,-1.1551461,-0.47861293,6
3.301182746887207,8.284400939941406,4.000568389892578,1.401942491531372,1.0415252000000002,-0.5665775,6
3.408292055130005,8.308597564697267,4.312021732330321,1.2282392978668213,2.6511552000000003,-0.79351395,6
3.764960289001465,8.381904602050781,4.1212124824523935,1.0620126724243164,2.1508565,-0.7309003000000001,6
4.748027801513672,9.3926362991333,3.639916896820069,0.8610000014305115,0.79198676,0.008246681,6
5.518474102020264,10.098438262939453,3.2036125659942627,0.5062347054481506,-0.54183745,0.40775254,6
5.502639293670653,9.88567352294922,1.3956414461135864,0.06559538841247559,0.6719518,1.2443326,6
4.483497619628906,9.714884757995604,0.06488530337810516,-0.13204681873321533,-0.6982189999999999,0.47128254,6
3.878413677215576,10.85365390777588,0.6534404754638672,-0.02279846183955669,2.0803015,-0.14569137,6
4.257572650909424,12.311874389648438,2.118156909942627,0.14869342744350433,2.079996,-0.3042109000000001,6
3.76310658454895,12.792404174804688,2.711216688156128,-0.040441371500492096,1.6145169,-0.43188173,6
3.2142834663391118,12.04852294921875,1.9063354730606081,-0.13377319276332855,1.149343,-0.17898351,6
3.317600011825561,11.496488571166992,1.147608518600464,-0.13052165508270264,0.5488624,0.30970868,6
3.4996793270111084,11.285135269165039,0.7020694017410278,-0.10074514895677568,0.3594942,0.32436943,6
3.6819543838500977,10.965448379516602,0.5923579931259155,0.002243623835965991,1.3545936,0.49327368,6
3.5578646659851074,10.51640510559082,0.5787314772605896,0.17700105905532834,1.5332718,0.47739118,6
2.7908530235290527,10.27254581451416,0.4250486195087433,0.4344406425952912,0.77854776,0.050396383,6
1.9901907444000244,10.172771453857422,0.2882828712463379,0.6696575284004211,0.20525073,-0.24404067,6
1.6379311084747314,10.103912353515623,0.4665355682373047,0.8442462682723999,-0.53969944,-0.074830994,6
1.6783262491226196,9.969236373901367,0.688396155834198,0.9363065958023072,-0.17012598,0.11484267,6
1.7649495601654053,9.940181732177734,0.8366878628730774,1.023770451545715,0.13011430000000002,0.14110987,6
1.8201026916503904,9.99246883392334,0.9107047319412231,1.130480408668518,0.25259277,0.20708331,6
1.9323943853378296,9.93742847442627,0.9611624479293824,1.208145260810852,0.5006041,0.16493362,6
2.074748277664185,9.702374458312988,0.947256565093994,1.2848751544952393,0.93767816,0.1957823,6
2.1845121383666988,9.399715423583984,0.8261630535125732,1.388034462928772,1.8096883,0.267559,6
2.2461817264556885,9.210736274719238,0.7193668484687805,1.4576585292816162,1.7944167000000002,0.46670106,6
2.2329976558685303,9.370509147644043,0.462525486946106,1.3790556192398071,0.5589417,0.6872234,6
2.3683247566223145,9.880163192749023,-0.11207052320241928,1.1271524429321291,0.26175576,0.21685717,6
2.696353912353516,10.06153964996338,-0.3131455183029175,0.982869565486908,0.4166101,0.1328632,6
2.9476540088653564,9.817429542541504,-0.2149253487586975,0.8637765645980835,0.5149594,0.18295415,6
3.1726770401000977,9.553536415100098,-0.2716469466686249,0.7355913519859314,0.28038713,0.24617869,6
3.2702887058258057,9.545433044433594,-0.37418270111083984,0.6547054052352905,0.043676864,0.36132678,6
3.0581698417663574,9.643778800964355,-0.4079336225986481,0.565692126750946,0.39828414,0.20647246,6
2.9227938652038574,9.611723899841307,-0.4796046614646912,0.483422726392746,0.8897252,0.10262536,6
3.10499119758606,9.475147247314453,-0.5555030703544617,0.44693559408187866,0.82619524,0.14844026,6
3.39850115776062,9.354392051696776,-0.55836421251297,0.4239152371883392,0.6759224,0.24923302,6
3.484366178512573,9.308263778686523,-0.5455535650253296,0.4168185591697693,0.6750060999999999,0.3036,6
3.3247470855712886,9.345239639282227,-0.4317212998867035,0.4034101068973541,0.50976706,0.3323107,6
3.1036977767944336,9.41505527496338,-0.3712182641029358,0.3559125363826752,0.30176744,0.30207285,6
2.9427824020385738,9.48568344116211,-0.4200742542743683,0.2943415641784668,0.106595986,0.23518312,6
2.942405462265014,9.499682426452637,-0.5101248621940613,0.2378473281860352,-0.025961773,0.15088372,6
3.0388283729553223,9.484323501586914,-0.5547229647636414,0.18253621459007266,-0.06688975,0.087659165,1
3.2023911476135254,9.4563570022583,-0.5846918225288391,0.13558152318000793,0.09101892,0.10170906,1
3.365210771560669,9.423628807067873,-0.5826044082641602,0.10641004890203476,0.22327125,0.1386664,1
3.468588590621948,9.38354206085205,-0.5299965143203735,0.07848865538835527,0.21685717,0.124005646,1
3.5084722042083736,9.334330558776855,-0.4503662884235382,0.04996583238244057,0.2275473,0.09040806,1
3.5233845710754395,9.311359405517578,-0.3666130304336548,0.028133364394307137,0.35033122,0.04062254,1
3.561415672302246,9.29182243347168,-0.2549632787704468,0.013829370029270649,0.29535335,0.03573562,1
3.618189811706543,9.27514362335205,-0.15404272079467773,-0.003991281613707542,0.19639318,0.06566802,1
3.6392421722412114,9.266746520996094,-0.10327549278736116,-0.022043492645025253,0.2489276,0.08582657,1
3.615161418914795,9.246556282043457,-0.10030508786439896,-0.030876625329256058,0.1695151,0.08735373,1
3.559778213500977,9.22278881072998,-0.1259564906358719,-0.0277312844991684,0.090713486,0.0711658,1
3.5584230422973637,9.193882942199707,-0.21863600611686707,-0.015601511113345625,0.10720685,0.03970624,1
3.63863468170166,9.160168647766113,-0.31106993556022644,0.0013228473253548145,0.13744467,0.04734206,1
3.7812671661376953,9.13166332244873,-0.3566957414150238,0.017193105071783066,0.09254608,0.06352998,1
3.935214281082153,9.10757827758789,-0.3455876708030701,0.027538537979125977,0.1328632,0.08216137400000001,1
4.0249385833740225,9.109357833862305,-0.3496240973472595,0.03239954635500908,0.29565877,0.06414085,1
4.049920082092285,9.124410629272461,-0.37047818303108215,0.038593903183937066,0.3109304,0.05222898,1
4.045890808105469,9.126832008361816,-0.37784209847450256,0.04603392258286476,0.35430184,0.044593163,1
4.020601272583009,9.120767593383787,-0.3659491240978241,0.0605146624147892,0.41599923,0.029321533,1
3.999204874038696,9.129838943481444,-0.3398137092590332,0.07732564955949782,0.4654793,0.04062254,1
3.991022109985352,9.140262603759766,-0.2981893420219421,0.09094978868961334,0.4615087000000001,0.04550946,1
3.966151714324951,9.151172637939453,-0.264054536819458,0.10094919055700302,0.45753807,0.046120327,1
3.913793563842773,9.167913436889648,-0.2352505177259445,0.10702487826347352,0.41080686,0.038789943,1
3.8429474830627437,9.18797492980957,-0.20083492994308472,0.11015406250953674,0.3827071,0.024129177,1
3.7887911796569824,9.221120834350586,-0.1676430106163025,0.10973221808671953,0.40469822,0.01282817,1
3.783438920974731,9.242451667785645,-0.11724311858415605,0.10826744884252547,0.4269948,0.020463986,1
3.810735464096069,9.196709632873537,-0.05530370026826858,0.11873123049736024,0.44868052,0.0030543262,1
3.8074989318847656,9.215948104858398,-0.026119949296116832,0.1308610439300537,0.42730024,-0.0033597588,1
3.666379451751709,9.277653694152832,-0.0616963617503643,0.10121063143014908,0.098043874,0.002443461,1
3.523794412612915,9.259644508361816,-0.12141873687505722,0.07272007316350937,0.0290161,-0.038789943,1
3.484936237335205,9.19403839111328,-0.14206719398498535,0.06387866288423537,0.09743301,-0.013439035,1
3.495946168899536,9.19233226776123,-0.06857865303754808,0.07362982630729675,0.05375614,-0.028710667,1
3.499574422836304,9.25325870513916,0.06842853128910065,0.07276652753353119,-0.02321288,-0.0061086523,1
3.4769904613494877,9.306167602539062,0.12507718801498413,0.04836716875433922,0.022602014,0.0012217305,1
3.4694812297821045,9.2959566116333,0.05957914143800736,0.024222606793046,-0.04550946,-0.002443461,1
3.4830501079559326,9.226318359375,-0.035071048885583885,0.017634445801377296,-0.10262536,0.0021380284,1
3.4719717502593994,9.216590881347656,-0.02880072593688965,0.02131990157067776,-0.096516706,-0.049785517,1
3.47387957572937,9.268111228942873,0.05332894995808602,0.02327974140644073,-0.12950343,-0.059864793,1
3.4921855926513667,9.31779956817627,0.08326014876365663,0.013696987181901932,-0.13988814,-0.04184427,1
3.5235915184021,9.31523609161377,0.018123535439372063,-0.003259745892137289,-0.13011430000000002,-0.01038471,1
3.5731792449951167,9.284461975097656,-0.06609423458576202,-0.015267982147634031,-0.10751228,-0.0076358155,1
3.598845958709717,9.274181365966797,-0.09269990772008896,-0.02006958425045013,-0.099571034,-0.01160644,1
3.5743815898895264,9.267752647399902,-0.07893269509077072,-0.024530353024601936,-0.12308934,-0.030848695,1
3.5339643955230717,9.251911163330078,-0.08118802309036255,-0.03011488914489746,-0.14966199,-0.031154128,1
3.5276999473571777,9.226984024047852,-0.14305022358894348,-0.0329124741256237,-0.12644911,-0.03145956,1
3.548823595046997,9.222880363464355,-0.20287354290485385,-0.028672289103269574,-0.09712757,-0.018936822,1
3.577257871627808,9.233083724975586,-0.2153456658124924,-0.021911201998591427,-0.090713486,0.0027488936,1
3.598083972930908,9.239510536193848,-0.20189586281776428,-0.018208086490631104,-0.12064589,-0.0009162979,1
3.59104061126709,9.237098693847656,-0.2313981652259827,-0.016115466132760048,-0.09315695,0.01038471,1
3.5784237384796143,9.23194980621338,-0.28255128860473633,-0.01075785793364048,-0.08552113,0.008552114,1
3.562401533126831,9.236855506896973,-0.3013298809528351,-0.0019282863941043613,-0.08643743400000001,0.008246681,1
3.5480356216430664,9.248246192932127,-0.3042516112327576,0.004511861596256495,-0.08155051,0.01863139,1
3.5297539234161377,9.260894775390623,-0.3009175956249237,0.007518736179918052,-0.07941248,0.015882496,1
3.5146217346191406,9.262962341308594,-0.3088720440864563,0.010452552698552608,-0.09254608,0.014660766,1
3.521047353744507,9.257051467895508,-0.3393171727657318,0.01442817226052284,-0.08521569999999999,0.0143553335,1
3.5451271533966064,9.259915351867676,-0.3699852228164673,0.017360873520374298,-0.07452556,0.026572637000000003,1
3.572593688964844,9.265609741210938,-0.3786842525005341,0.017856352031230927,-0.0580322,0.02687807,1
3.5920259952545166,9.2716064453125,-0.38180458545684814,0.016689816489815712,-0.03604105,0.022602014,1
3.603295803070069,9.270337104797363,-0.3934228420257568,0.015972979366779327,-0.018325957,0.013439035,1
3.613806962966919,9.2659330368042,-0.4144279658794403,0.015653993934392933,-0.010690141499999998,0.010995574,1
3.6281719207763667,9.261149406433104,-0.42101985216140747,0.015754392370581627,0.010995574,0.00030543262000000003,1
3.6421048641204834,9.2549467086792,-0.4287528097629547,0.01786963641643524,0.035124752999999995,-0.004886922,1
3.655086278915405,9.248801231384276,-0.4324173033237457,0.01958056353032589,0.03023783,0.01038471,1
3.6593313217163086,9.249920845031738,-0.42714539170265203,0.020004967227578163,0.02321288,0.0015271631,1
3.6478211879730233,9.251446723937988,-0.4239082336425781,0.018912473693490032,0.053450707,0.024129177,1
3.665051937103272,9.233210563659668,-0.4298536777496338,0.021754903718829155,0.07880162,-0.0061086523,1
3.706317901611328,9.221016883850098,-0.43870678544044495,0.03066617250442505,0.063224554,-0.009162978,1
3.733777284622192,9.224108695983887,-0.42567893862724304,0.0362989567220211,0.036651913,-0.020158553,1
3.725746393203736,9.226959228515623,-0.4239424467086792,0.03407857194542885,0.020463986,0.004886922,1
3.6785891056060787,9.231999397277832,-0.4187898337841034,0.025869973003864292,-0.025961773,0.014660766,1
3.6173603534698486,9.244047164916992,-0.4101112186908722,0.016627660021185875,-0.021685716,0.0070249503,1
3.5659403800964355,9.254430770874023,-0.38747307658195496,0.0118272602558136,-0.00030543262000000003,-0.003970624,1
3.547160148620605,9.25368881225586,-0.38128525018692017,0.008375502191483973,-0.020463986,-0.014966198,1
3.5418970584869385,9.237826347351074,-0.3877497911453247,0.0057881367392838,-0.04153884,-0.0070249503,1
3.537189722061157,9.235883712768556,-0.4062341749668121,0.004499543923884629,-0.01038471,-0.004886922,1
3.549235343933105,9.250974655151367,-0.4144868850708008,0.007124033290892839,0.010995574,-0.0070249503,1
3.5521564483642583,9.276079177856444,-0.40127357840538025,0.006281051319092512,-0.026572637000000003,0.008552114,1
3.521779775619507,9.29507541656494,-0.3925422430038452,-0.0010197190567851069,-0.04062254,0.014660766,1
3.481573820114136,9.291728019714355,-0.4051186144351959,-0.008068100549280643,0.002443461,0.0027488936,1
3.466578960418701,9.286325454711914,-0.4222721457481384,-0.011596483178436756,-0.017715093,-0.015271631,1
3.481273412704468,9.29421329498291,-0.4067069888114929,-0.015927860513329506,-0.07238753,-0.016187929,1
3.49581241607666,9.29854679107666,-0.3998852074146271,-0.02001523971557617,-0.030543262,-0.0012217305,1
3.503574848175049,9.282167434692383,-0.4073697328567505,-0.0236203707754612,-0.015271631,0.0027488936,1
3.5144708156585693,9.262276649475098,-0.4177760481834412,-0.025794092565774918,-0.003970624,-0.00030543262000000003,1
3.5372126102447514,9.255742073059082,-0.4146547019481659,-0.025364171713590625,-0.014966198,-0.0015271631,1
3.5667121410369877,9.263298988342283,-0.4038664400577545,-0.023931153118610386,-0.017715093,0.0009162979,1
3.5664100646972656,9.274931907653807,-0.39816814661026,-0.020437518134713173,0.0076358155,0.017715093,1
3.523716449737549,9.283188819885254,-0.3903645873069763,-0.018550876528024673,0.022907447,0.020463986,1
3.469554901123047,9.28497314453125,-0.3785643577575684,-0.01958641782402992,0.011301007,0.013439035,1
3.4280669689178467,9.289631843566896,-0.3572543561458588,-0.021235408261418343,-0.029932396,0.014966198,1
3.4018447399139404,9.298062324523926,-0.3277219533920288,-0.025752466171979904,-0.06872234,0.0027488936,1
3.378877878189087,9.30990505218506,-0.3172541558742523,-0.030902657657861713,-0.050396383,0.01282817,1
3.3587441444396973,9.318520545959473,-0.2951365113258362,-0.035545364022254944,-0.087659165,0.01038471,1
3.351270198822021,9.307900428771973,-0.2866497933864593,-0.038838181644678116,-0.095294975,0.014049901000000002,1
3.356133222579956,9.29290008544922,-0.2786557078361511,-0.041451066732406616,-0.096516706,0.016798794,1
3.361649751663208,9.28998851776123,-0.2684321403503418,-0.04305871948599816,-0.11942416,0.018325957,1
3.389427661895752,9.291964530944824,-0.2714270055294037,-0.044349510222673416,-0.13011430000000002,0.009468411,1
3.4254131317138667,9.284242630004883,-0.2811763286590576,-0.047305911779403687,-0.13836098,0.018325957,1
3.462446689605713,9.272882461547852,-0.2982001006603241,-0.05228602513670921,-0.13225232,0.027183503,1
3.4946274757385254,9.2578125,-0.3157382309436798,-0.05686356872320175,-0.108123146,0.031154128,1
3.5212860107421875,9.235114097595217,-0.3387866318225861,-0.05464332178235054,-0.077579886,0.019547688,1
3.5507595539093018,9.216466903686523,-0.3511021137237549,-0.048006679862737656,-0.058948494,0.018020526,1
3.57814884185791,9.204263687133787,-0.36285045742988586,-0.03985520824790001,-0.044593163,0.017715093,1
3.604896783828736,9.190845489501953,-0.36710470914840704,-0.031231757253408432,-0.031154128,0.024129177,1
3.626198291778565,9.181955337524414,-0.36288657784461975,-0.023726871237158772,-0.014966198,0.040011674,1
3.632483720779419,9.187200546264648,-0.3542563319206238,-0.015271984040737154,-0.007941248,0.04642576,1
3.636668920516968,9.200234413146973,-0.3389333784580231,-0.008957033045589924,-0.014049901000000002,0.043676864,1
3.6419861316680913,9.222537994384766,-0.33120131492614746,-0.007050812244415283,-0.026267206,0.026267206,1
3.63047456741333,9.239980697631836,-0.3307617604732513,-0.00799611210823059,-0.051618114000000014,0.014660766,1
3.613075256347656,9.240504264831543,-0.3236355781555176,-0.00772178266197443,-0.055588737,0.013439035,1
