acc_x,acc_y,acc_z,gyro_x,gyro_y,gyro_z,label
0.0,0.0,0.0,0.0,0.05131268,-0.009468411,1
-0.06313919275999069,0.27908772230148315,0.0416141077876091,-0.000667176500428468,0.049785517,-0.010995574,1
-0.21282562613487244,0.9442315697669984,0.14162403345108032,-0.0019776904955506325,0.06658431,-0.01863139,1
-0.4185965955257416,1.8641959428787231,0.2812732458114624,-0.0048207733780145645,0.03726278,-0.034513887,1
-0.6472917795181274,2.8937783241271973,0.4392371773719788,-0.01013396866619587,0.0018325958,-0.054367006,1
-0.8725553154945374,3.9162230491638175,0.5980456471443176,-0.014896959066390991,-0.02321288,-0.0571159,1
-1.0800538063049316,4.857935428619385,0.7472453713417053,-0.01405890379101038,-0.027488936,-0.04917465,1
-1.265613675117493,5.683553218841553,0.8826091885566711,-0.0028051717672497034,-0.03970624,-0.03268129,1
-1.4269862174987793,6.384540557861327,1.0022917985916138,0.01120914239436388,-0.06169739,-0.010079277,1
-1.565039873123169,6.967210292816162,1.1066440343856812,0.018364151939749718,-0.04062254,0.020158553,1
-1.6821672916412354,7.444681644439697,1.197126030921936,0.019432613626122475,-0.035430185,0.032375857,1
-1.781296968460083,7.832120895385742,1.2756274938583374,0.01769966445863247,-0.006414085,0.028099801,1
-1.8652528524398804,8.144333839416504,1.343949794769287,0.013503793627023695,0.018020526,0.021991149,1
-1.9366859197616575,8.394554138183594,1.4038610458374023,0.010875930078327656,0.018020526,0.030543262,1
-1.997883915901184,8.594155311584473,1.4568923711776731,0.00972946174442768,0.0018325958,0.022602014,1
-2.0507235527038574,8.752693176269531,1.5042731761932373,0.007692231331020594,-0.021991149,0.009468411,1
-2.0983920097351074,8.879266738891602,1.546699285507202,0.0034777780529111624,-0.021991149,0.018936822,1
-2.1447641849517822,8.98233413696289,1.5844055414199831,0.002698768163099885,-0.0015271631,0.021991149,1
-2.1901252269744877,9.06650161743164,1.6182883977890017,0.008574457839131355,0.010079277,0.036957346,1
-2.2346553802490234,9.135457992553713,1.649086833000183,0.014214944094419481,0.020463986,0.030543262,1
-2.278538942337036,9.19218635559082,1.6774144172668457,0.018868442624807358,0.03176499,0.041233405,1
-2.32187557220459,9.2390775680542,1.703743577003479,0.025615211576223373,0.053145275,0.03726278,1
-2.364781856536865,9.27806568145752,1.7284706830978394,0.0376892015337944,0.049785517,0.05009095,6
-2.407344102859497,9.310704231262207,1.7519112825393677,0.04535457119345665,0.06658431,0.07147124,6
-2.449629783630371,9.338241577148438,1.7743183374404907,0.05444933846592903,0.12308934,0.09040806,6
-2.4917023181915283,9.36168098449707,1.7958987951278689,0.06810276955366135,0.14966199,0.0983493,6
-2.5462088584899902,9.386499404907227,1.83104944229126,0.07973399013280869,0.07299839999999999,0.073303826,6
-2.6083037853240967,9.424755096435547,1.872007250785828,0.08519525825977325,-0.007941248,0.01863139,6
-2.639120578765869,9.47268772125244,1.8242011070251465,0.091562420129776,-0.074830994,-0.044593163,6
-2.6101436614990234,9.51236057281494,1.6636402606964111,0.10001852363348007,-0.17867808,-0.095294975,6
-2.553924560546875,9.533674240112305,1.3791735172271729,0.1114273965358734,-0.2171626,-0.12156218,6
-2.5364177227020264,9.55299472808838,1.042735576629639,0.14011962711811066,-0.15363261,-0.17165314,6
-2.59342360496521,9.56002140045166,0.7464786767959595,0.1932201385498047,-0.026267206,-0.23518312,6
-2.738952875137329,9.526857376098633,0.5337179303169249,0.24578139185905454,0.043676864,-0.35460728,6
-2.9671926498413086,9.417381286621094,0.3978252708911896,0.29230996966362,-0.083383106,-0.5626069,6
-3.268102169036865,9.193350791931152,0.3183823227882385,0.34503597021102905,-0.34116822,-0.9221011,6
-3.6259386539459233,8.76244068145752,0.3111833333969116,0.4125476479530335,-0.53023106,-1.321607,6
-3.959535837173462,8.22199535369873,0.3637275397777557,0.4789638817310333,-0.72509706,-1.8075503,6
-4.280574321746826,7.9006266593933105,0.33066943287849426,0.5391400456428528,-0.84757555,-2.377793,6
-4.448656558990479,8.487075805664062,0.13624173402786255,0.6115965843200684,-0.46700647,-2.50638,6
-4.4705777168273935,9.840741157531738,-0.2129308134317398,0.7419639229774475,-0.16249016,-1.8225164,6
-4.461923599243164,10.735118865966797,-0.5041981935501099,1.0024303197860718,-0.79290307,-1.3622295,6
-4.384977340698241,10.706878662109377,-0.5797224044799805,1.1840541362762451,-1.2565498,-1.0812315,6
-4.269066333770752,10.311583518981934,-0.4874970614910126,1.1602959632873535,-1.9226984,-1.1108584,6
-4.194117069244385,9.97872543334961,-0.6293078064918518,1.0083028078079224,-1.6728544,-0.98837996,6
-4.217821121215819,9.757390975952148,-1.0446912050247192,0.8543980717658997,-0.04917465,-0.6310238,6
-4.4147372245788565,9.482202529907227,-1.2274818420410156,0.7443914413452148,1.2104294,-0.35918877,6
-4.751627445220947,9.05746364593506,-1.0139176845550537,0.6426923274993896,1.3026701,-0.376293,6
-5.004169940948486,8.585532188415527,-0.7198539972305298,0.5471574664115906,0.98349303,-0.204029,6
-4.990286827087402,8.193511009216309,-0.6509166955947876,0.4508699476718903,1.1316278999999998,0.023518313,6
-4.728532314300537,7.900434970855713,-0.7685800790786743,0.33496421575546265,1.4559973,0.17959438,6
-4.356163024902344,7.64895486831665,-0.8309287428855896,0.21153315901756287,1.2977833,0.33994650000000004,6
-3.9794864654541016,7.385899066925049,-0.7885220050811768,0.10634288936853407,0.7538077,0.52106804,6
-3.617949962615967,7.120301723480225,-0.7328551411628723,0.019307997077703483,0.27977628,0.68966687,6
-3.2895629405975337,6.897838115692139,-0.6672311425209045,-0.05121268332004547,-0.3203988,0.782213,6
-3.0379793643951416,6.745099067687987,-0.6209464073181152,-0.09106094390153883,-0.8888089,0.7315111,6
-2.9064812660217285,6.680197715759277,-0.6359798312187195,-0.09472694993019104,-1.3130548,0.57726765,6
-2.9380781650543213,6.676025867462157,-0.7759578227996826,-0.06667602062225343,-1.2434162,0.3652974,6
-3.1708154678344727,6.667962074279785,-1.06195330619812,-0.01396149955689907,-0.60048056,0.1826487,6
-3.633185386657715,6.610724925994872,-1.3614495992660522,0.044975869357585914,0.30451632,0.10170906,6
-4.233274459838866,6.514578342437744,-1.455119252204895,0.05847176164388656,0.90377516,0.1685988,6
-4.794336318969727,6.416849613189697,-1.246376395225525,0.007319114170968531,0.9966267,0.39064834,6
-5.168832302093506,6.348490715026856,-0.8968568444252014,-0.06819818913936615,0.7290677,0.51159966,6
-5.265974998474121,6.395657062530518,-0.6322736740112305,-0.15417200326919556,0.4370741,0.54092115,6
-5.1477932929992685,6.698076248168945,-0.6136173009872437,-0.25362393260002136,0.18753563,0.6392705,6
-4.941214084625244,7.3244261741638175,-0.8775878548622131,-0.3542777597904205,0.1826487,0.8246681,6
-4.764927387237549,8.111079216003418,-1.3249268531799316,-0.4565988481044769,0.30757064,0.8943066999999999,6
-4.674715995788574,8.791536331176758,-1.7588708400726318,-0.5618696212768555,-0.0888809,0.72601336,6
-4.687209129333496,9.088637351989746,-1.9631025791168213,-0.6343823075294495,-0.77457714,0.3930918,6
-4.711655139923097,9.31221866607666,-2.082895517349243,-0.6725747585296631,-0.95294976,0.17654006,6
-4.719034194946289,9.56745147705078,-2.069176435470581,-0.7038750648498535,-1.1288790000000002,0.102319926,6
-4.678415298461914,9.806455612182617,-1.951003670692444,-0.6932548880577087,-0.623388,0.17134771,6
-4.515139579772949,10.125234603881836,-1.6787139177322388,-0.6392885446548462,0.12461651,0.3631594,6
-4.3088932037353525,10.513136863708496,-1.2417325973510742,-0.5393025279045105,0.15974127,0.35063666,6
-4.089622974395752,10.510717391967773,-0.6976478695869446,-0.4484342038631439,0.8393288000000001,-0.07849618,6
-3.889482975006104,10.269003868103027,-0.06381797790527344,-0.4470883011817932,1.9740111,-0.18906279,6
-4.077249526977538,10.596826553344727,0.7014936208724976,-0.5014398097991943,2.7605,-0.08735373,6
-4.6837430000305185,11.262263298034668,1.6741496324539185,-0.5090305209159851,1.2092078000000002,-0.15607607,6
-5.179556369781494,11.325212478637695,2.450554370880127,-0.4211262762546539,-2.7214046,-0.29168814,6
-5.084746837615967,11.072467803955078,2.5240492820739746,-0.3116130530834198,-3.200323,0.20250183,6
-4.661959648132324,10.844221115112305,2.1604871749877934,-0.2899567782878876,-1.8515326,0.50976706,6
-4.146904468536377,10.600648880004883,1.6987124681472778,-0.3541128933429718,-0.32528573,0.59315014,6
-3.6031627655029297,10.302388191223145,1.325380563735962,-0.4198300838470459,0.45875978,0.60048056,6
-3.1739792823791504,9.969738006591797,1.1253174543380735,-0.3925517797470093,0.44623706,0.48166725,6
-2.9627180099487305,9.612068176269533,1.0516942739486694,-0.2677203416824341,-0.25809056,0.090713486,6
-2.8935465812683105,9.32487678527832,0.9232659935951232,-0.1828922778367996,-0.441961,0.12858713,6
-3.0489776134490967,9.042211532592773,0.69831782579422,-0.20267076790332794,-0.25411993,-0.03145956,6
-3.3907032012939453,8.71384334564209,0.4814082384109497,-0.20519842207431796,-0.5412266,-0.48716503,6
-3.7292571067810063,8.454599380493164,0.3053880333900452,-0.14516408741474152,-0.5381723,-0.67011917,6
-4.033975601196288,8.355310440063478,0.1804603785276413,-0.09477569162845613,-0.19486602,-0.5122104999999999,6
-4.295435428619385,8.241909027099611,0.09101389348506927,-0.06811478734016417,-0.25076020000000004,-0.2864958,6
-4.486305236816406,7.9726243019104,-0.014431800693273544,-0.02528114803135395,-0.3463606,-0.23426682,6
-4.547372341156006,7.705508232116699,-0.14827275276184082,0.030274111777544018,-0.22388211,-0.24281894,6
-4.413228511810303,7.582699775695801,-0.22859357297420504,0.08634743094444275,-0.10048734,-0.10323623,6
-4.13655948638916,7.559286117553711,-0.2034187763929367,0.13594955205917358,-0.12889257,0.02687807,6
-3.809100151062012,7.5073180198669425,-0.10324453562498093,0.1907049119472504,-0.30604348,0.038789943,6
-3.4779515266418457,7.456865310668945,0.04241922125220299,0.2628678381443024,-0.3277292,0.054061573,6
-3.229475259780884,7.5248661041259775,0.2228725552558899,0.3275173306465149,-0.16432275,0.008857545999999999,6
-3.2317795753479004,7.695632934570312,0.4359122216701508,0.3758126497268677,-0.1001819,-0.14935656,6
-3.619652986526489,7.833824157714844,0.6125286817550659,0.418489545583725,-0.14202617,-0.310625,6
-4.199781894683838,7.828660011291504,0.7595035433769226,0.4563018977642059,-0.42455134,-0.6221663000000001,6
-4.780653953552246,7.724704265594482,0.8458482027053833,0.5032594203948975,-0.8943066999999999,-0.7125743,6
-5.182721614837647,7.638256549835205,0.7457494735717773,0.5783221125602722,-0.9092729,-0.45234573,6
-5.501454830169678,7.654400825500487,0.4441093802452088,0.6861317753791809,-0.4560109000000001,-0.6713409,6
-5.86257791519165,7.939156532287598,0.043715931475162506,0.832403302192688,-0.089186326,-1.2534955,6
-6.198225975036621,8.54979419708252,-0.35587072372436523,0.998132586479187,0.39003745,-1.6267341,6
-6.335916042327881,9.406272888183594,-0.5857760310173035,1.1030685901641846,0.2012801,-1.6398678,6
-6.161823749542236,10.241022109985352,-0.661761999130249,1.1399160623550415,0.15454891,-1.4223998,6
-5.8170270919799805,10.739689826965332,-0.5779705643653871,1.1261155605316162,0.27855456,-1.4107933,6
-5.673558712005615,11.165416717529297,-0.31416285037994385,1.0968250036239624,-0.04428773,-1.6649131999999998,6
-6.050023555755615,11.803009033203125,0.02699681557714939,1.0271428823471072,-0.8356636999999999,-1.6997325,6
-6.62843656539917,12.136571884155273,0.010147533379495144,0.9067652821540833,-0.89736104,-1.2638801000000002,6
-6.824021816253662,11.97641658782959,-0.6607844829559326,0.7814845442771912,0.729984,-0.98807454,6
-6.6020827293396,11.677227973937988,-1.2352747917175293,0.6197939515113831,1.7629571,-0.67103547,6
-6.077898025512695,11.23641586303711,-1.1651405096054075,0.45307564735412603,1.2855659,-0.5564981999999999,6
-5.466431140899658,10.647366523742676,-1.0258145332336426,0.3149447441101074,0.97158116,-0.5635232,6
-4.818358898162842,9.960606575012207,-1.01836097240448,0.19869621098041532,1.0781771999999998,-0.42241332,6
-4.206705570220946,9.244742393493652,-1.02581787109375,0.09567059576511383,0.93676186,-0.1685988,6
-3.671751976013184,8.555937767028809,-0.979697287082672,0.005452618934214115,0.6133086999999999,0.13072516,6
-3.2342429161071777,7.94220495223999,-0.8993123173713684,-0.0805017501115799,0.30818152,0.42760566,6
-2.926133871078491,7.46324872970581,-0.8582815527915955,-0.16476085782051084,0.13500121,0.675617,6
-2.718469381332397,7.1273560523986825,-0.8909078240394592,-0.23548446595668796,0.105374254,0.86834496,6
-2.5571987628936768,6.901511192321777,-0.9253803491592408,-0.2939186990261078,0.032070424,1.0534371,6
-2.409846782684326,6.763120651245117,-0.8993443846702576,-0.34773680567741394,-0.16371189,1.2550226,6
-2.3109169006347656,6.675372123718263,-0.8618644475936891,-0.3913750946521759,-0.37812558,1.3949108,6
-2.364175081253052,6.607146263122559,-0.8675999641418457,-0.417531281709671,-0.46761733,1.4321736,6
-2.6709444522857666,6.556178569793701,-0.948323667049408,-0.4112383127212525,-0.37720928,1.3319917,6
-3.2139992713928223,6.553031921386719,-1.0791084766387942,-0.3688874244689941,-0.16035213,1.1710287,6
-3.880270957946777,6.607038497924805,-1.1613706350326538,-0.3369637131690979,-0.027183503,1.1557571000000002,6
-4.52618408203125,6.635875701904298,-1.1542443037033079,-0.3842165768146515,-0.05497787,1.2308935,6
-5.001134395599365,6.594013214111327,-1.2003231048583984,-0.4955437779426575,-0.19761491,1.2403619,6
-5.374229431152344,6.695329189300537,-1.4727010726928709,-0.5840288400650024,-0.018936822,1.0916162,6
-5.800050735473633,6.979820728302003,-1.9052363634109497,-0.614987313747406,0.72143185,0.7153232,6
-6.27960729598999,7.338233947753906,-2.2345874309539795,-0.6253403425216675,1.1902708999999998,0.2837469,6
-6.6025028228759775,7.660530567169189,-2.27604603767395,-0.6685053110122681,0.5320636,0.13652839,6
-6.63921594619751,7.994810104370117,-2.246304512023926,-0.7357629537582397,-0.39095375,0.0067195175,6
-6.374952793121338,8.545872688293457,-2.3416402339935303,-0.7910956740379333,-0.9254609,0.0290161,6
-5.9849510192871085,9.32878303527832,-2.461000919342041,-0.7934340238571167,-1.5332718,0.09682214,6
-5.660996913909912,10.045703887939453,-2.3449866771698,-0.7405125498771667,-1.0735956,0.14660765,6
-5.275686264038086,10.74694538116455,-1.932401657104492,-0.6280566453933716,-0.2773328,0.39858958,6
-4.793499946594238,11.153312683105467,-1.4121302366256714,-0.5047645568847656,0.17898351,0.29840767,6
-4.321826934814453,10.873297691345217,-0.9176042675971984,-0.42243751883506775,0.94714653,0.06750060599999999,6
-3.927884817123413,10.255278587341307,-0.4038092792034149,-0.3869459629058838,1.8597792,0.1966986,6
-3.9133179187774663,10.375605583190918,0.17193599045276642,-0.39680564403533936,3.5106425000000003,0.6133086999999999,6
-4.333539009094238,11.10139274597168,0.8623201847076416,-0.4686669707298279,3.559512,0.59773165,6
-4.64509391784668,11.007099151611328,1.6665928363800049,-0.5640845894813538,0.5662721,0.1863139,6
-4.552838325500488,10.487321853637695,1.969022274017334,-0.7117871642112732,-1.534188,0.073303826,6
-4.191389083862306,9.958044052124023,1.8466289043426516,-0.8250995874404907,-1.4245378,0.2098322,6
-3.726997375488281,9.590723037719727,1.5902442932128906,-0.8731074333190918,-1.0128145,0.3594942,6
-3.2624473571777344,9.53972625732422,1.262441873550415,-0.8358412384986877,-0.6792821,0.571159,6
-2.8471426963806152,9.692249298095703,0.8080725669860841,-0.6870258450508118,-0.677755,0.657291,6
-2.5167033672332764,9.618063926696776,0.4216293692588806,-0.509930431842804,-0.21502456,0.34147367,6
-2.2628309726715092,9.305231094360352,0.20037339627742767,-0.40260007977485657,0.28680122,-0.016187929,6
-2.2227933406829834,8.987998962402344,0.07620597630739212,-0.32253554463386536,0.44623706,-0.04642576,6
-2.4992296695709233,8.714058876037598,0.04347480833530426,-0.2273018956184387,-0.3359759,-0.33841935,6
-2.916985034942627,8.507668495178223,0.04584529623389244,-0.15607671439647675,-0.548557,-0.5204572000000001,6
-3.327672004699707,8.358516693115233,0.012874923646450044,-0.12194357812404633,-0.19364429,-0.627664,6
-3.7956981658935542,8.179573059082031,0.010165618732571602,-0.07405000180006027,-0.6792821,-0.8912524,6
-4.143814086914063,8.040529251098633,-0.034857548773288734,0.05552813410758972,-1.2183707,-0.5644395000000001,6
-4.103623390197754,7.8844642639160165,-0.3419292867183685,0.21357257664203644,-0.689056,-0.08674286,6
-3.7918877601623535,7.7360167503356925,-0.6262210607528687,0.3190992772579193,-0.24312437,0.025045475,6
-3.3454985618591313,7.704116344451903,-0.7520142793655396,0.39335837960243225,-0.06414085,0.24129178,6
-2.9374141693115234,7.7239341735839835,-0.7128182053565979,0.4560963213443756,0.029932396,0.40011674,6
-2.6862623691558842,7.7622013092041025,-0.4921750724315643,0.4878644049167633,0.121256754,0.32284227,6
-2.6877317428588867,7.832839012145996,-0.14306718111038208,0.4762083292007446,0.15913039999999998,-0.06352998,6
-3.0541841983795166,7.827870845794678,0.20683620870113373,0.4265088140964508,0.729984,-0.4831944,6
-3.7545287609100337,7.647047519683838,0.6203348636627197,0.3687911033630371,0.5308419,-0.84116143,6
-4.584505081176758,7.383209228515625,1.0619343519210815,0.4157631695270538,-0.98471475,-0.947452,6
-5.235260009765625,7.293557167053223,1.262704610824585,0.5410357713699341,-1.6423112000000002,-0.59498274,6
-5.8351173400878915,7.5263123512268075,1.1437157392501829,0.6535440683364868,-2.1355848,-1.0803152,6
-6.287480354309082,8.09418773651123,0.6392661929130554,0.7898657917976379,-2.1798725,-1.5140295,6
-6.3664960861206055,8.888591766357422,-0.3308826684951782,0.9538474082946776,-0.7156286000000001,-1.5372424,6
-6.094175815582275,9.737518310546877,-1.2100539207458496,1.0469069480895996,1.0836749,-1.3420709,6
-5.683488845825195,10.379578590393066,-1.3136799335479736,1.0805319547653198,1.6603317,-1.2968669,6
-5.595205783843994,11.12128448486328,-0.8574453592300415,1.1069798469543457,1.0983357,-1.5091426,6
-6.007392883300781,11.934617042541506,-0.10932918637990953,1.106019377708435,-0.6087272,-1.8551978,6
-6.601013660430907,12.135897636413574,0.3633174896240233,0.9857953190803528,-2.1316142000000005,-1.6129897,6
-6.920215129852295,11.788248062133787,-0.04612283036112785,0.8420333862304688,-1.7208074,-1.2822062,6
-6.736826419830322,11.4558687210083,-1.1656090021133425,0.7501831650733948,0.9407325,-0.8038987,6
-6.3194031715393075,11.154740333557127,-1.9307169914245603,0.6251838803291321,2.5130997,-0.5338961999999999,6
-5.886194705963135,10.814919471740724,-1.8164159059524536,0.4718717634677887,1.953547,-0.4382958,6
-5.414233207702637,10.394912719726562,-1.2667371034622192,0.3345458209514618,0.8228354999999999,-0.3436117,6
-4.842893600463867,9.870665550231934,-0.9184443354606628,0.2433895021677017,0.38881573,-0.20463985,6
-4.186361312866212,9.264843940734863,-0.8874546885490417,0.17123223841190338,0.6872234,0.048563786,6
-3.502121686935425,8.63599681854248,-0.9071779251098632,0.07689738273620605,0.68539083,0.38087448,6
-2.903254508972168,8.00723934173584,-0.800899088382721,-0.030978165566921238,0.36346483,0.6423248,6
-2.4903929233551025,7.447927474975586,-0.7140308022499084,-0.14320245385169986,0.13775012,0.96486163,6
-2.250038385391236,7.061173915863037,-0.7053503990173341,-0.24657663702964785,0.0421497,1.2916746,6
-2.1244447231292725,6.884607791900635,-0.7001402974128723,-0.324762761592865,-0.011911872,1.5323554,6
-2.1015186309814453,6.804311752319336,-0.7071174383163452,-0.3763951361179352,-0.04550946,1.5842791,6
-2.3820183277130127,6.7318620681762695,-0.7745819091796875,-0.4142243564128876,0.0070249503,1.3451253,6
-3.0193657875061035,6.596822261810303,-0.9735849499702454,-0.4282271564006805,0.25259277,0.8378017,6
-3.740710020065308,6.544546127319336,-1.1614953279495241,-0.4412412941455841,0.559858,0.58001655,6
-4.343385696411134,6.602756023406982,-1.1973865032196045,-0.533610999584198,0.58001655,0.72204274,6
-4.701079845428467,6.6982011795043945,-1.0861555337905884,-0.6846243143081665,0.17440203,0.7678576,6
-4.799742698669434,6.910144329071045,-1.0022709369659424,-0.8073224425315857,-0.42577308,0.77182823,6
-4.809662342071533,7.355242252349853,-1.2047632932662964,-0.8761491775512695,-0.46517387,0.80970186,6
-4.93438720703125,7.873319625854492,-1.7435941696166992,-0.8629101514816284,0.16340645,0.7538077,6
-5.186460494995117,8.192690849304201,-2.167905569076538,-0.7754529118537903,0.4841107,0.6020076999999999,6
-5.361586570739746,8.383734703063965,-2.2386934757232666,-0.7357891798019409,0.5235115,0.5564981999999999,6
-5.344336032867432,8.62982177734375,-2.0557045936584477,-0.7716273665428162,0.11148291,0.5375614000000001,6
-5.1381025314331055,9.0297269821167,-1.7873634099960327,-0.8264151811599731,-0.72326446,0.50732356,6
-4.88689661026001,9.59689998626709,-1.573683500289917,-0.8414173126220703,-1.4636332,0.43035457,6
-4.721116542816162,10.232916831970217,-1.4916754961013794,-0.8139402270317078,-1.0961976999999998,0.27397305,6
-4.482475757598877,10.906331062316896,-1.4699639081954956,-0.692830502986908,-0.977079,0.30573806,6
-4.186997413635254,11.212252616882324,-1.3434287309646606,-0.5079255700111389,-0.43249258,0.05467244,6
-3.881919860839844,10.919861793518066,-1.0700554847717283,-0.3763110637664795,0.59223384,-0.09254608,6
-3.5954906940460205,10.227577209472656,-0.6939681768417358,-0.3090159595012665,1.8713857,0.09743301,6
-3.8267507553100586,10.171406745910645,-0.0476720854640007,-0.2811943292617798,3.4639113,0.32711834,6
-4.608782768249512,11.07870101928711,0.8561630845069885,-0.3043920397758484,3.4733799,0.45448375,6
-5.284150123596191,11.555770874023438,1.8578193187713623,-0.36070379614830017,-0.95478237,0.108123146,6
-5.321939468383789,11.292763710021973,2.1941239833831787,-0.4788263738155365,-3.2366695,-0.11728613,6
-4.8506507873535165,10.77980899810791,1.950881600379944,-0.5467842817306519,-2.6994135,0.17715092,6
-4.221124172210693,10.21283721923828,1.5279974937438965,-0.5912050008773804,-1.4712689,0.441961,6
-3.6155195236206055,9.797871589660645,1.0725767612457275,-0.6133077144622803,-0.35399640000000004,0.5647449000000001,6
-3.161896228790283,9.684513092041016,0.6422256827354431,-0.5768665075302124,0.5729916,0.5934556,6
-2.935165405273437,9.612398147583008,0.34126347303390503,-0.4692085981369018,0.8005389,0.20555615,6
-2.843688488006592,9.354776382446287,0.20731854438781736,-0.3477204740047455,0.46303585,-0.008552114,6
-2.954107522964477,9.035058975219727,0.13636159896850586,-0.2579955458641052,-0.41386122,-0.20280726,6
-3.2254762649536133,8.713810920715332,0.0266418531537056,-0.18610748648643494,-1.1368201999999998,-0.39950588,6
-3.430795431137085,8.44993782043457,-0.19831028580665588,-0.11307033896446228,-0.95447695,-0.30848694,6
-3.558072328567505,8.218038558959961,-0.4719170928001404,-0.030721003189682964,-0.55833083,-0.32650748,6
-3.6581330299377437,7.96495771408081,-0.6759166717529297,0.08538932353258133,-0.6032294,-0.49266282,6
-3.590703010559082,7.798030376434326,-0.8107228279113771,0.22632996737957,-0.58276546,-0.3051272,6
-3.270215511322021,7.628683090209961,-0.8509495854377747,0.3644596040248871,-0.40408736,-0.039095376,6
-2.9491167068481445,7.458619117736816,-0.8265992403030396,0.4670937359333038,0.1432479,0.18417588,6
-2.837043285369873,7.407246589660644,-0.74665766954422,0.5139813423156738,0.8912524,0.17501289,6
-3.039092540740967,7.473278522491455,-0.5299696326255798,0.5337709784507751,1.278541,-0.15149458,6
-3.4838745594024663,7.479630947113037,-0.09344842284917833,0.5500296354293823,1.0244209999999998,-0.43310347,6
-4.117506027221681,7.197843551635742,0.4691941738128662,0.5512007474899292,0.30665436,-0.7687739,6
-4.759610652923584,6.702861785888673,0.9530173540115356,0.5625215172767639,-0.96883225,-0.9972375,6
-5.328042984008789,6.4282002449035645,1.1143935918807983,0.6464594006538391,-1.5885551000000002,-0.93767816,6
-6.0909671783447275,6.828136920928955,0.9785178899765016,0.8015217781066895,-1.4853188999999998,-1.6914859,6
-6.834146499633789,8.046852111816406,0.598021924495697,0.9947890043258668,-1.9773707,-2.1826215,6
-7.00471830368042,9.81210994720459,-0.2989377975463867,1.1400301456451416,-1.6526959,-1.8289305,6
-6.389538288116455,11.354628562927244,-1.4109756946563718,1.1749649047851562,1.0803152,-0.95203346,6
-5.4542670249938965,12.091672897338867,-1.6727077960968018,1.1806769371032717,1.7250835,-0.5369505,6
-4.789029121398926,12.250059127807615,-1.0942655801773071,1.189071536064148,-0.08307768,-1.1939361000000002,6
-4.730273723602295,12.293333053588867,-0.4819616973400116,1.1503539085388184,-1.8014416,-1.8438967,6
-5.610142707824707,12.224187850952148,-0.9409960508346558,1.0461711883544922,-0.24862215,-1.5112807,6
-6.118447303771973,11.903249740600586,-1.5995763540267944,0.9191285967826844,1.5864171,-0.70616025,6
-5.95960807800293,11.41358470916748,-1.8476624488830569,0.7491488456726074,1.8231273,-0.4361577999999999,6
-5.4811434745788565,10.805794715881348,-1.708295464515686,0.5630684494972229,1.4703526000000002,-0.39278635,6
-4.980484008789063,10.183087348937988,-1.4605733156204224,0.3858600854873657,1.282817,-0.36285394,6
-4.498779296875,9.664053916931152,-1.2365044355392456,0.2373277097940445,1.1349876,-0.17531833,6
-3.979757070541382,9.194616317749023,-1.0374641418457031,0.12060219794511795,0.6805039,0.058337633,6
-3.3852052688598637,8.65465259552002,-0.8786205649375916,0.014505425468087196,0.17379116,0.226631,6
-2.7847003936767583,8.053421974182129,-0.7897951602935791,-0.10866937041282654,-0.16890424,0.42730024,6
-2.3308947086334233,7.507425785064697,-0.7688873410224915,-0.2451242506504059,-0.3222314000000001,0.64996064,6
-2.0812127590179443,7.120261192321777,-0.8858479261398315,-0.3746393024921417,-0.21044308,0.9016371,6
-1.9805955886840818,6.905742645263673,-1.074039101600647,-0.4715495109558106,0.07971791,1.2205088,6
-2.029641628265381,6.832303524017334,-1.236363410949707,-0.5355894565582275,0.33017266,1.527774,6
-2.2724406719207764,6.806416988372803,-1.3228540420532229,-0.5856123566627502,0.48166725,1.6948457,6
-2.7345104217529297,6.751204490661621,-1.3904166221618652,-0.6178981065750122,0.5928446999999999,1.5784758,6
-3.3638608455657963,6.675526142120361,-1.4445753097534182,-0.6031618714332581,0.6075055,1.2125676,6
-4.017599582672118,6.639444828033447,-1.3939627408981323,-0.580594003200531,0.32742378,0.9071349,6
-4.555374622344972,6.7147088050842285,-1.278531551361084,-0.6366491913795471,-0.24190263,0.84849185,6
-4.926149845123291,6.9505348205566415,-1.358595609664917,-0.74820876121521,-0.5006041,0.8384125,6
-5.1755852699279785,7.321823596954347,-1.7973629236221311,-0.8082687854766846,-0.07452556,0.7840455,6
-5.398733615875244,7.677594184875487,-2.3509340286254883,-0.7940355539321899,0.6407976,0.57451874,6
-5.609084129333496,7.898902893066406,-2.6591732501983643,-0.7626597881317139,0.49327368,0.17654006,6
-5.7138285636901855,8.03775691986084,-2.670618772506714,-0.7426978349685669,-0.16126843,-0.01282817,6
-5.570382118225098,8.261587142944336,-2.5842442512512207,-0.762897789478302,-0.61208695,0.037873644,6
-5.219404220581055,8.980422019958496,-2.5344524383544917,-0.8150799870491028,-1.0100657,0.22113322,6
-5.078188896179199,9.78299045562744,-2.382251024246216,-0.8007163405418396,-1.2916746,0.00061086525,6
-4.892582416534424,10.559602737426758,-1.965251445770264,-0.6994553804397583,-0.95081174,-0.016493361,6
-4.532069683074951,11.320459365844727,-1.467071294784546,-0.584229588508606,-0.63591075,0.27030787,6
-4.092381000518799,11.488697052001953,-1.0499376058578491,-0.4874706864356994,-0.08368854,0.31123585,6
-3.6856279373168954,11.090021133422852,-0.670005738735199,-0.4313066005706787,0.91996306,0.2321288,6
-3.5501577854156494,11.064396858215332,-0.18705792725086207,-0.3873920738697052,2.223244,0.57696223,6
-3.8317945003509517,11.554330825805664,0.4806032776832581,-0.3584834039211273,3.329521,0.77671516,6
-4.292564868927002,11.667743682861328,1.2084906101226809,-0.4186748564243317,2.8588493,0.398895,6
-4.599392890930176,11.22110366821289,1.8730316162109373,-0.5318774580955505,0.7684685,0.1337795,6
-4.560539722442627,10.533147811889648,2.270970344543457,-0.6590093374252319,-1.4566082,0.14569137,6
-4.281210422515868,9.915671348571776,2.240862369537353,-0.7203453183174133,-1.9956968,0.12675454,6
-3.879669666290283,9.61851692199707,1.9973804950714111,-0.7107849717140198,-1.9376645,0.19181168,6
-3.3873682022094727,9.647804260253906,1.6693706512451172,-0.6485119462013245,-1.6392567999999998,0.4990769000000001,6
-2.8577020168304443,9.751592636108398,1.3120590448379517,-0.5477550625801086,-1.2366967,0.65576386,6
-2.3542122840881348,9.7455472946167,1.0206425189971924,-0.4330404698848725,-0.66737026,0.5873469,6
-2.07043194770813,9.582481384277344,0.7707192301750183,-0.33339980244636536,-0.14477506,0.2275473,6
-2.1488900184631348,9.381976127624512,0.4942733347415924,-0.2660753428936005,0.21838433,0.054367006,6
-2.4982585906982417,9.12147045135498,0.24206240475177765,-0.2284664064645767,0.33078352,-0.21471913,6
-2.938408613204956,8.825061798095703,0.05597762390971184,-0.19960646331310272,0.39064834,-0.45814893,6
-3.383620023727417,8.598221778869629,-0.041940074414014816,-0.1500372737646103,0.1881465,-0.65270954,6
-3.7783725261688232,8.446142196655272,-0.06708013266324997,-0.09088695049285887,-0.050701816,-0.6597345,6
-4.054579734802246,8.322294235229492,-0.08794902265071869,-0.034256156533956535,-0.43127087,-0.48166725,6
-4.120314121246338,8.273696899414062,-0.2154536098241806,0.04697847366333008,-0.61086524,-0.10323623,6
-3.940976858139038,8.271440505981445,-0.3931441307067871,0.1475791186094284,-0.66798115,-0.029932396,6
-3.643681764602661,8.192109107971191,-0.5278252363204956,0.2503102123737335,-0.6386596,-0.029626964,6
-3.333048820495605,7.949431896209718,-0.6209644079208374,0.35807016491889954,-0.49938235,-0.09987647,6
-3.115187883377075,7.620205879211426,-0.6682688593864441,0.4634569883346558,0.050701816,-0.15882497,6
-3.107692003250122,7.3312129974365225,-0.6194212436676025,0.5368511676788329,0.7031059000000001,-0.30665436,6
-3.3068110942840576,7.131728172302246,-0.3788779377937317,0.5889050364494324,0.74220127,-0.419359,6
-3.5807306766510014,7.155744552612305,0.05774679034948349,0.6032132506370544,0.4034765,-0.28405234,6
-3.8985772132873535,7.371634483337402,0.5301597714424133,0.5313448905944824,0.11453723,-0.18845193,6
-4.252742290496826,7.4527692794799805,0.912964165210724,0.4118216931819916,-0.59528816,-0.39064834,6
-4.565939903259277,7.260063648223878,1.0774507522583008,0.3607780039310455,-1.2431108,-0.63316184,6
-4.9381675720214835,7.247418403625487,0.8466103672981262,0.4096185863018036,-1.3414601000000002,-1.0726794,6
-5.427685260772705,7.808490753173827,0.3655774295330048,0.5646063685417175,-1.1068878,-1.7192802,6
-5.683715343475343,8.817684173583984,-0.35392966866493225,0.775712251663208,-0.6258314,-1.6475036,6
-5.565398693084717,9.897209167480467,-1.149996638298035,0.9360045790672302,0.43463063,-1.4272866000000002,6
-5.228192329406738,10.794815063476562,-1.5424998998641968,1.0283817052841189,1.3414601000000002,-1.393689,6
-4.886575222015381,11.417574882507324,-1.3470265865325928,1.1043246984481812,0.99082345,-1.5008959,6
-4.848068237304688,11.839728355407715,-0.7593282461166382,1.1598342657089231,-0.37812558,-1.8127426,6
-5.351044654846191,12.16359806060791,-0.2463787943124771,1.1337335109710691,-1.8457294,-1.9074267,6
-6.1196632385253915,12.209305763244627,-0.4686205089092255,1.0640381574630735,-1.7226400000000002,-1.8191566000000003,6
-6.542472362518311,12.074054718017578,-1.3865820169448853,0.9926949143409728,0.57757306,-1.4807373,6
-6.428226947784424,11.937270164489744,-1.9719359874725344,0.8441849350929259,1.6606371,-0.9850202,6
-6.014571189880371,11.657081604003904,-1.825568437576294,0.6582599282264711,1.1175779,-0.59589905,6
-5.493461608886719,11.125614166259766,-1.46290123462677,0.5248286128044128,0.46822822,-0.4465425,6
-5.061184883117676,10.426002502441406,-1.3349148035049438,0.42777276039123535,0.7495316,-0.38362336,6
-4.749195098876953,9.731245994567873,-1.3389724493026731,0.2943969666957855,0.9098838,-0.17959438,6
-4.400862693786621,9.0844144821167,-1.2372519969940186,0.1602373868227005,0.5174029,0.14446963,6
-3.976842164993286,8.41237735748291,-1.1858259439468384,0.03600261360406876,0.28955013,0.46700647,6
-3.5122921466827397,7.777069091796875,-1.1695226430892944,-0.09437363594770433,0.2321288,0.7831292,6
-3.0757715702056885,7.274219036102295,-1.1098816394805908,-0.23062756657600406,0.15913039999999998,1.0644327,6
-2.7629945278167725,6.905825138092041,-1.0305598974227903,-0.35713696479797363,0.13408493,1.239751,6
-2.570597648620605,6.683888912200928,-0.9327222108840942,-0.4604931473731994,0.086132,1.402852,6
-2.46643590927124,6.601653099060059,-0.8176724314689636,-0.5334339141845703,-0.07269296,1.604743,6
-2.4838387966156006,6.615808963775635,-0.7723044753074646,-0.578427255153656,-0.2919936,1.7110336,6
-2.746914863586426,6.616836071014403,-0.8337645530700684,-0.6072944402694702,-0.39278635,1.5775595,6
-3.3134775161743164,6.551315307617188,-0.9941893815994264,-0.620142936706543,-0.37293324,1.2986995,6
-4.1034531593322745,6.45283317565918,-1.231917142868042,-0.6342548131942749,-0.27000242,0.9428705,6
-4.933356285095215,6.4515929222106925,-1.522450566291809,-0.6769413352012634,0.10598512,0.92149025,6
-5.6365647315979,6.60064697265625,-1.9307825565338133,-0.7430868744850159,0.84329945,1.0467176,6
-6.027839660644531,6.862544536590576,-2.250819683074951,-0.7871511578559875,1.3316863,0.89675015,6
-6.171388149261475,7.1171555519104,-2.286926031112671,-0.8211265802383423,1.1921035,0.6575964,6
-6.098647117614746,7.370330333709718,-2.1773018836975098,-0.8554764389991759,0.5500841999999999,0.3378085,6
-5.835923671722412,7.679895877838135,-2.09283709526062,-0.8642287254333496,-0.24495697,0.025961773,6
-5.346657752990723,8.177261352539062,-2.08020281791687,-0.845961332321167,-1.1508701,-0.043982297,6
-4.777020454406738,8.861224174499512,-2.109902620315552,-0.8154132962226868,-1.6850718,0.18142697,6
-4.454441547393799,9.593656539916992,-2.0762884616851807,-0.7719640135765076,-1.5308284,0.29626966,6
-4.450908660888672,10.298223495483398,-1.8399617671966555,-0.6951414942741394,-0.6774496,0.3042109000000001,6
-4.480135917663574,11.076582908630373,-1.4352996349334717,-0.5703232288360596,-0.50610185,0.17073683,6
-4.3020291328430185,11.19528865814209,-1.037297606468201,-0.411043792963028,-0.2012801,-0.050701816,6
-4.018260955810547,10.642685890197754,-0.746845543384552,-0.2973562180995941,1.2791518,0.06047566,6
-4.0800085067749015,10.44143772125244,-0.5127539038658142,-0.2480470687150955,3.4263432000000003,0.25137106,6
-4.786720275878906,11.18508529663086,0.007310336921364069,-0.2510170340538025,4.264145,0.33353242,6
-5.549262046813965,11.683258056640625,1.0549548864364624,-0.3013002574443817,-0.13041973,0.21624629,6
-5.719118118286133,11.37356948852539,1.6979879140853882,-0.38701194524765015,-1.169807,0.023823744,6
-5.320550918579102,10.81684112548828,1.924502730369568,-0.43360671401023865,-1.2321151,0.22876903,6
-4.636504173278809,10.331538200378418,2.0946288108825684,-0.4785232841968536,-1.4159856000000002,0.52412236,6
-3.8933811187744136,10.069625854492188,2.1527116298675537,-0.5660905241966248,-1.2880094,0.7825184000000001,6
-3.2416410446166988,9.93958854675293,1.9745256900787356,-0.6884546279907227,-0.589485,0.79168135,6
-2.702571392059326,9.75910186767578,1.6419655084609983,-0.792794406414032,0.1142318,0.68600166,6
-2.3379621505737305,9.494171142578123,0.9648940563201904,-0.8025470972061157,0.11178834,0.46761733,6
-2.3965036869049072,9.284006118774414,0.20231951773166654,-0.6090732216835022,-0.21105394,0.07819075,6
-2.6674067974090576,9.14719295501709,-0.27456414699554443,-0.4178245365619659,0.050396383,-0.03176499,6
-2.8898608684539795,8.970795631408691,-0.4889221489429474,-0.34102609753608704,0.8384125,0.016798794,6
-3.0755131244659424,8.812506675720215,-0.5303589105606079,-0.3145227432250977,1.2696834,0.046120327,6
-3.3158452510833736,8.672795295715332,-0.4173356592655182,-0.2626786231994629,0.9315695,-0.07422013,6
-3.5792860984802246,8.461207389831543,-0.223924532532692,-0.17577587068080902,0.27275133,-0.33322698,6
-3.824469327926636,8.080171585083008,0.007165872491896153,-0.07347946614027022,-0.91446525,-0.72265357,6
-3.96708083152771,7.6397809982299805,0.13155867159366608,0.03114137053489685,-1.7849482,-0.7831292,6
-3.7559151649475098,7.5115418434143075,-0.12441302835941315,0.1643504947423935,-1.68385,-0.10995574,6
-3.3479762077331543,7.535508155822754,-0.4312109649181366,0.2941097915172577,-0.86834496,0.22082779,6
-3.0212104320526123,7.437362670898437,-0.5951352119445801,0.3748395144939423,-0.05100725,0.1881465,6
-2.8718924522399902,7.329982280731201,-0.5589252710342407,0.4242329597473145,0.68936145,-0.14049901,6
-3.0234925746917725,7.348733425140381,-0.3315068483352661,0.479212611913681,1.2278391000000002,-0.3943135,6
-3.529468536376953,7.468253135681152,0.09383070468902588,0.5435820817947388,0.98440933,-0.6591236,6
-4.269147396087647,7.510411739349365,0.6521837115287781,0.6098949313163757,-0.08674286,-0.8341365,6
-4.999411582946777,7.351894855499268,1.097034215927124,0.6435309648513794,-1.4474452,-0.88239485,6
-5.553598403930664,7.293075084686278,1.1584025621414185,0.6797547936439514,-2.6187794,-1.0115929,6
-5.879368305206299,7.762246608734131,0.6643800139427185,0.8195752501487732,-3.026532,-1.3249667,6
-5.825081825256348,8.71224308013916,-0.5127675533294678,1.0105042457580566,-0.92179567,-1.2125676,6
-5.525858879089356,9.687884330749512,-1.7103666067123413,1.1424968242645264,1.4636332,-1.2809844,6
-5.288286685943604,10.351069450378418,-2.0025522708892822,1.2350138425827026,1.890628,-1.7379116,6
-5.3112640380859375,11.034616470336914,-1.5113790035247805,1.2941497564315796,0.8689558000000001,-1.8298469,6
-5.8294734954833975,11.967880249023438,-0.6883788108825684,1.2927539348602295,-0.8332202,-1.8365663,6
-6.5966477394104,12.581911087036133,-0.030357260257005688,1.1729234457015991,-2.0778582,-1.543351,6
-7.032482147216798,12.571481704711914,-0.13112525641918182,1.0191857814788818,-1.6584991000000002,-1.4285084,6
-6.945263862609862,12.376602172851562,-1.119175910949707,0.893759548664093,1.0937542,-1.1276573,6
-6.3557682037353525,12.040279388427734,-1.6539362668991089,0.7321327924728394,2.667954,-0.6105598000000001,6
-5.600678443908691,11.46312141418457,-1.2718174457550049,0.5647862553596497,1.7140878000000002,-0.29077184,6
-4.826051235198975,10.71157455444336,-0.7037231922149658,0.4092545211315155,0.6365215999999999,-0.1872302,6
-4.095449447631837,9.961042404174805,-0.4880882203578949,0.26731616258621216,0.58001655,-0.10934488,6
-3.487504005432129,9.334916114807127,-0.4993196427822113,0.13590289652347565,0.97035944,0.10262536,6
-2.9607341289520264,8.793912887573242,-0.4387302100658417,0.00028359462157823145,0.8356636999999999,0.4269948,6
-2.483419418334961,8.246050834655763,-0.3361174762248993,-0.15920813381671906,0.49846604,0.71929383,6
-2.0697591304779053,7.697853088378906,-0.2805771231651306,-0.31914591789245605,0.26389378,1.0112875,6
-1.7320783138275146,7.243972301483153,-0.2875746488571167,-0.456425815820694,0.172264,1.3075571,6
-1.4647784233093262,6.898509502410889,-0.32164615392684937,-0.5695204138755798,0.03023783,1.6627752,6
-1.3195706605911257,6.687432289123535,-0.39322778582572937,-0.6510540246963501,0.042760565999999986,1.87444,6
-1.44382905960083,6.641436576843263,-0.5533004999160767,-0.6857176423072815,0.52839845,1.8307631,6
-1.9121595621109009,6.723903179168701,-0.8221392631530762,-0.6979720592498779,1.0855075,1.4370605,6
-2.670351505279541,6.8248209953308105,-1.161192774772644,-0.719135046005249,1.0995574,0.98990715,6
-3.601588726043701,6.936356544494629,-1.4656007289886477,-0.8100204467773438,0.6081163,0.73364913,6
-4.541096210479736,7.046257495880128,-1.7339028120040894,-0.9164410233497621,-0.09315695,0.7076874,6
-5.423689842224121,7.120146751403809,-2.0562791824340816,-0.9197102785110474,-0.28252518,0.52473325,6
-6.082761287689209,7.125561237335205,-2.526467084884644,-0.830173671245575,0.17195857,0.06169739,6
-6.346400737762451,7.227539539337157,-2.8156094551086426,-0.7604750990867615,0.4783075,-0.3576616,6
-6.0084595680236825,7.497940063476562,-2.6112215518951416,-0.7543600797653198,-0.19150625,-0.410196,6
-5.224310398101807,7.718412399291992,-2.2516391277313232,-0.7486857771873474,-0.8173377,-0.2660318,6
-4.460562229156494,8.122698783874513,-1.9780515432357788,-0.7177359461784363,-0.9944886,0.045814894,6
-4.000377178192139,9.016944885253906,-1.698031306266785,-0.6665830016136169,-0.93126404,0.37293324,6
-3.856554746627808,10.353346824645996,-1.3814131021499634,-0.600466251373291,-0.5674938,0.5222898,6
-3.814975023269653,11.815879821777346,-0.9940751194953918,-0.5658547878265381,-0.39767328,0.43401974,6
-3.6898906230926514,12.553865432739258,-0.597147524356842,-0.5141953229904175,-0.21319197,0.096516706,6
-3.428471088409424,12.381261825561525,-0.2787871360778809,-0.4415106475353241,0.56046885,-0.00030543262000000003,6
-3.339686870574951,12.048815727233887,-0.10455348342657088,-0.4077365100383759,2.1862867,0.02687807,6
-3.6079118251800537,12.096251487731935,0.23066771030426025,-0.39548006653785706,3.3872477999999995,0.14569137,6
-4.0499677658081055,12.188772201538086,0.9132737517356871,-0.37318605184555054,2.3252585,0.18448131,6
-4.332427024841309,11.860283851623535,1.6291217803955078,-0.3584319055080414,0.1863139,0.1994475,6
-4.2609920501708975,11.315051078796387,2.0893776416778564,-0.4008245468139648,-1.2183707,0.3555236,6
-4.000260829925537,10.94172191619873,2.291088104248047,-0.4271324276924133,-1.8839084,0.32650748,6
-3.662978649139404,10.71322250366211,2.292102336883545,-0.4116275608539581,-2.1084013,0.2443461,6
-3.2625882625579834,10.50282096862793,2.1291067600250244,-0.39929139614105225,-1.967597,0.24129178,6
-2.810539960861206,10.261116027832033,1.8397608995437624,-0.40809229016304016,-1.8851302,0.26083946,6
-2.3539159297943115,10.007356643676758,1.3601175546646118,-0.4113209843635559,-1.4465289,0.25411993,6
-2.200812578201294,9.864134788513184,0.72035813331604,-0.3390449285507202,-0.24220806,0.20799962,6
-2.3621981143951416,9.754368782043457,0.3603390455245972,-0.2191064804792404,0.6374379,0.15088372,6
-2.676546335220337,9.62664031982422,0.29840660095214844,-0.13258205354213715,0.40958515,0.1386664,6
-3.05093765258789,9.49459171295166,0.33495551347732544,-0.10695601999759674,0.43188173,0.1282817,6
-3.42522406578064,9.38591766357422,0.3846331536769867,-0.10493805259466173,0.8943066999999999,0.16187929,6
-3.78452205657959,9.321398735046387,0.4957693517208099,-0.10617391020059586,0.90133166,0.21899518,6
-4.0549535751342765,9.300863265991213,0.6747561693191528,-0.11401733756065367,0.44501534,0.34269542,6
-4.135676860809326,9.246910095214844,0.8477294445037842,-0.11298999935388565,0.014660766,0.24862215,6
-4.0128278732299805,9.21897029876709,1.0108338594436646,-0.09741971641778946,-0.33292156,0.28008172,6
-3.76596736907959,9.246969223022461,1.1683515310287476,-0.08725550025701523,-0.5522222,0.37965274,6
-3.490607738494873,9.289164543151855,1.304822564125061,-0.10601410269737244,-0.5833763000000001,0.3943135,6
-3.202695369720459,9.287355422973633,1.3889552354812622,-0.15566927194595334,-0.5180137,0.36132678,6
-2.906574249267578,9.26138401031494,1.394824743270874,-0.20528529584407806,-0.28588495,0.40194935,6
-2.6628248691558842,9.291474342346193,1.266674518585205,-0.23695482313632965,0.4166101,0.5393939999999999,6
-2.5635814666748047,9.336894035339355,1.0697003602981567,-0.267393559217453,1.2266175,0.55771995,6
-2.671574831008911,9.369827270507812,0.9838316440582277,-0.2940634489059448,1.3625348999999998,0.3943135,6
-2.90468692779541,9.367347717285156,1.1184557676315308,-0.2822041213512421,0.9068295,0.22418754,1
-3.0472207069396973,9.310670852661133,1.3362290859222412,-0.220965713262558,0.27397305,-0.0067195175,1
-3.0063791275024414,9.280967712402344,1.5318547487258911,-0.17232632637023926,-0.26511553,-0.12675454,1
-2.8130342960357666,9.331324577331543,1.621350884437561,-0.17481301724910736,-0.68569624,-0.064446285,1
-2.5226640701293945,9.436080932617188,1.517698049545288,-0.1985052227973938,-0.77824235,0.04642576,1
-2.2020022869110107,9.518670082092283,1.250752329826355,-0.1976154446601868,-0.19853121,0.17806722,1
-1.940395832061768,9.59439754486084,0.987756371498108,-0.14916333556175232,0.80878556,0.32406402,1
-1.8051767349243164,9.688369750976562,0.915485382080078,-0.08009257167577744,1.5961909,0.44898596,1
-1.818624496459961,9.715394973754883,1.0262559652328491,-0.04118693992495537,2.0732768,0.45081854,1
-1.9789304733276367,9.662907600402832,1.2574825286865234,-0.05819009616971016,2.0830505,0.4083634,1
-2.2404401302337646,9.565802574157717,1.5636416673660278,-0.1521783471107483,1.108415,0.28160888,1
-2.4860148429870605,9.464747428894043,1.8046816587448118,-0.2756878733634949,-0.21563543,-0.05131268,1
-2.514610767364502,9.458170890808104,1.7804923057556152,-0.3226933479309082,-1.0546589,-0.21655174,1
-2.275343418121338,9.564268112182617,1.405928373336792,-0.2555447220802307,-1.0158689,-0.14569137,1
-1.8965026140213013,9.69481372833252,0.9514272809028624,-0.1403067708015442,-0.48258355,0.004581489,1
-1.5454539060592651,9.750452041625977,0.8059687614440918,-0.0350063294172287,-0.21502456,0.09865474,1
-1.3637834787368774,9.738475799560547,0.8883013129234314,0.048976220190525055,-0.18051068,-0.0012217305,1
-1.324824571609497,9.713994026184082,1.0355230569839478,0.10543119162321092,0.061391957,0.14172074,1
-1.4099073410034182,9.654253959655762,1.2007874250411987,0.1255834996700287,0.3323107,0.18417588,1
-1.576029658317566,9.596835136413574,1.3849024772644043,0.10286850482225418,0.32314770000000004,0.16432275,1
-1.7544103860855105,9.58849048614502,1.531203031539917,0.04221603646874428,-0.03023783,0.16737708,1
-1.9065310955047607,9.594878196716307,1.5491106510162354,-0.019488651305437088,-0.33017266,0.09040806,1
-1.9739933013916016,9.600872993469238,1.416118621826172,-0.047389298677444465,-0.226631,0.04917465,1
-1.9632563591003416,9.62014102935791,1.2415103912353516,-0.04036926105618477,-0.009468411,0.04153884,1
-1.9126579761505127,9.646798133850098,1.1423553228378296,-0.02267228439450264,0.04886922,0.032986723,1
-1.883697748184204,9.6542387008667,1.1365916728973389,-0.0076163834892213345,-0.10293079,0.013744468,1
-1.894824504852295,9.648613929748537,1.140947341918945,-0.0034145661629736428,-0.24648413,-0.00061086525,1
-1.9405940771102903,9.632468223571776,1.1174414157867432,0.005192516837269068,-0.30909783,-0.052839845,1
-1.9998074769973757,9.60677719116211,1.0687670707702637,0.02608123049139976,-0.28405234,-0.07299839999999999,1
-2.068767070770264,9.586777687072754,1.0409080982208252,0.046805068850517266,-0.26542094,-0.089491755,1
-2.128315687179565,9.58375072479248,1.0390148162841797,0.059694770723581314,-0.20189096,-0.070249505,1
-2.1740179061889653,9.586472511291504,1.0444941520690918,0.057774700224399574,-0.022907447,-0.018325957,1
-2.2065677642822266,9.573803901672363,1.0527608394622805,0.04450349137187004,0.14813483,0.018936822,1
-2.229390859603882,9.546167373657227,1.0674872398376465,0.024291327223181725,0.24495697,0.041233405,1
-2.24008846282959,9.529341697692873,1.1004315614700315,0.004238309804350139,0.27000242,0.04153884,1
-2.225243091583252,9.520519256591797,1.1339107751846311,-0.012950604781508446,0.19883664,0.027488936,1
-2.17902946472168,9.5361909866333,1.1491975784301758,-0.02774021588265896,0.122478485,0.036957346,1
-2.1125330924987797,9.570294380187988,1.1262013912200928,-0.03930860757827759,0.13347405,0.044593163,1
-2.0558886528015137,9.59380340576172,1.0727399587631226,-0.04495702683925629,0.18845193,0.054061573,1
-2.0400073528289795,9.598055839538574,1.0230693817138672,-0.04652611538767815,0.2284636,0.05467244,1
-2.0575687885284424,9.586540222167967,1.0137016773223877,-0.03869056701660156,0.22235495,0.046120327,1
-2.0804612636566158,9.569759368896484,1.040124773979187,-0.0315692238509655,0.20738874,0.02565634,1
-2.0932457447051998,9.558194160461426,1.07862651348114,-0.03095795586705208,0.17501289,0.026267206,1
-2.076270580291748,9.560444831848145,1.1187227964401243,-0.03689223527908325,0.18112154,0.02565634,1
-2.0370981693267822,9.574808120727539,1.1522445678710938,-0.04761957749724388,0.183565,0.041233405,1
-1.977305889129639,9.58877944946289,1.1799700260162354,-0.0611906610429287,0.19517145,0.05497787,1
-1.91336989402771,9.601215362548828,1.1866692304611206,-0.07426833361387253,0.19211712,0.062308256,1
-1.8478033542633057,9.618090629577637,1.193437933921814,-0.08276597410440445,0.15057829,0.05955936,1
-1.7825082540512085,9.633563995361328,1.2007814645767212,-0.084553062915802,0.10262536,0.0580322,1
-1.725550413131714,9.646732330322266,1.1997225284576416,-0.07802911847829819,0.07544186,0.04795292,1
-1.6865663528442385,9.660601615905762,1.1983903646469116,-0.06851629912853241,0.029932396,0.032070424,1
-1.6587618589401243,9.661633491516113,1.206148386001587,-0.0560462586581707,-0.022907447,0.02321288,1
-1.645216703414917,9.657814979553224,1.2185454368591309,-0.041963350027799606,-0.056505036,0.015271631,1
-1.645656943321228,9.661111831665039,1.2297377586364746,-0.0291834119707346,-0.050701816,0.012217305,1
-1.6514410972595217,9.658007621765137,1.2363864183425903,-0.02119171991944313,-0.08063421400000001,0.0070249503,1
-1.6649580001831057,9.651769638061523,1.2342333793640137,-0.014218995347619057,-0.06811147,0.01863139,1
-1.6892001628875732,9.645520210266113,1.2342464923858645,-0.00843341089785099,-0.050396383,0.020463986,1
-1.717098593711853,9.645499229431152,1.2411653995513916,-0.004553209058940411,-0.07299839999999999,0.008246681,1
-1.7389391660690308,9.640581130981444,1.2436355352401731,-0.003100791713222861,-0.09621128,0.0021380284,1
