acc_x,acc_y,acc_z,gyro_x,gyro_y,gyro_z,label
0.0,0.0,0.0,0.0,0.7452555999999999,0.06505715,1
-0.04243362694978714,0.2881220877170563,0.011352382600307465,-0.03641318902373314,0.6640105,0.09315695,1
-0.14200334250926971,0.9755643606185912,0.0373040996491909,-0.10863153636455536,0.410196,0.074830994,1
-0.2865307629108429,1.923577070236206,0.07621459662914276,-0.13857854902744293,0.004581489,-0.01282817,1
-0.4559546411037445,2.9813787937164307,0.12302448600530624,-0.12476489692926407,0.025045475,-0.0018325958,1
-0.6262792348861694,4.0286054611206055,0.16808751225471494,-0.1103432923555374,0.021380283,-0.005192355,1
-0.7791625261306763,4.997757911682129,0.21504351496696472,-0.0967058390378952,0.014660766,0.01282817,1
-0.9101226329803468,5.849407196044923,0.2564261853694916,-0.08426118642091751,-0.004581489,0.0143553335,1
-1.0177983045578003,6.574538707733153,0.29360517859458923,-0.07252158224582672,-0.0061086523,0.01282817,1
-1.096414566040039,7.179234027862549,0.32615771889686584,-0.0618564710021019,0.009468411,0.01985312,1
-1.1557172536849976,7.679779529571532,0.3698999881744385,-0.04903553053736687,0.022602014,0.024129177,1
-1.2075605392456057,8.078221321105957,0.4285131692886353,-0.038531973958015435,0.0421497,0.02107485,1
-1.2486860752105713,8.397965431213379,0.4688025712966919,-0.029758043587207794,0.047647487,0.01740966,1
-1.2847706079483032,8.654807090759277,0.4902735352516174,-0.022779397666454315,0.05009095,0.0076358155,1
-1.3124779462814329,8.87566089630127,0.4961494505405426,-0.015992101281881332,0.03359759,-0.004581489,1
-1.332827925682068,9.060978889465332,0.4992693066596985,-0.010658123530447485,0.0012217305,-0.0012217305,1
-1.3585315942764282,9.211871147155762,0.4837303459644318,-0.008973539806902409,0.024740042,-0.005497787,1
-1.366183876991272,9.348712921142578,0.4558910429477692,-0.01116790436208248,0.055588737,0.0021380284,1
-1.3544824123382568,9.463305473327637,0.4566478133201599,-0.013983581215143205,0.047036625,0.005497787,15
-1.346460223197937,9.501361846923828,0.4240643978118897,-0.015378151088953018,0.07666359,0.002443461,15
-1.365669012069702,9.50575351715088,0.3988180458545685,-0.0145918233320117,0.17592919,0.0021380284,15
-1.3695993423461914,9.53392219543457,0.38998883962631226,-0.008748834952712059,0.21563543,0.0030543262,15
-1.3958770036697388,9.575528144836426,0.5041336417198181,-0.0015761626418679953,0.25778514,0.012217305,15
-1.399935960769653,9.66064453125,0.5654941201210022,-0.001009586500003934,0.25595254,0.0009162979,15
-1.4432893991470337,9.715001106262207,0.5931193828582764,-0.005500124301761389,0.26328292,0.0143553335,15
-1.4668564796447754,9.768190383911133,0.6007310748100281,-0.01603582128882408,0.23365596,0.032986723,15
-1.4866087436676023,9.779505729675293,0.5794510841369629,-0.029184104874730114,0.25961772,0.01740966,15
-1.4819402694702148,9.759879112243652,0.5533735752105713,-0.03916475921869278,0.19425514,0.00061086525,15
-1.4761084318161009,9.737245559692383,0.5411670207977295,-0.048896163702011115,0.17318029999999998,-0.0143553335,15
-1.514275312423706,9.709022521972656,0.5114982724189758,-0.05585866421461105,0.17165314,-0.018936822,15
-1.5472458600997925,9.700865745544434,0.4776567220687866,-0.05891752615571023,0.17928895,-0.03023783,15
-1.5579702854156494,9.719008445739746,0.4697052240371704,-0.05496705323457718,0.16096300000000002,-0.021380283,15
-1.5614241361618042,9.735063552856444,0.493027776479721,-0.051142875105142586,0.22204952,-0.009468411,15
-1.5793803930282593,9.754990577697754,0.5345398187637329,-0.053190842270851135,0.29535335,0.005192355,15
-1.6123250722885132,9.780348777770996,0.5905873775482178,-0.061498336493968964,0.31642818,0.01282817,15
-1.6497780084609983,9.792262077331543,0.6334167718887329,-0.0739150196313858,0.31673363,0.007330383,15
-1.6929358243942259,9.79478359222412,0.67017662525177,-0.08640649914741516,0.26878070000000004,0.004886922,15
-1.7517313957214355,9.785633087158203,0.6978294849395752,-0.10008391737937927,0.2406809,0.016187929,15
-1.8332828283309937,9.759181022644043,0.701282262802124,-0.11241193115711212,0.22479841,-0.009162978,15
-1.9067901372909544,9.747426986694336,0.6956956386566162,-0.12267062813043594,0.172264,-0.003970624,15
-1.9556787014007568,9.730951309204102,0.6777315139770508,-0.12934793531894684,0.1142318,0.021380283,15
-1.9835965633392332,9.716391563415527,0.6810308694839478,-0.13507777452468872,0.07880162,0.015577064,15
-1.9941469430923464,9.721434593200684,0.6927886009216309,-0.14294876158237454,0.05772676700000001,0.010690141499999998,15
-2.008443832397461,9.724096298217773,0.7078137397766113,-0.15937663614749908,0.055283304000000005,-0.0018325958,15
-2.015228509902954,9.737176895141602,0.7135550975799559,-0.1821182668209076,0.11636983,-0.030848695,15
-1.9840271472930908,9.763398170471193,0.6972669959068298,-0.21783654391765594,0.17318029999999998,-0.040011674,15
-1.8902781009674072,9.801085472106934,0.6745346188545227,-0.2625307142734528,0.21777347,-0.025350908,15
-1.7688509225845337,9.83750820159912,0.6536597609519958,-0.3180901408195496,0.2180789,0.0125227375,15
-1.6642472743988037,9.87838363647461,0.6540951728820801,-0.3858324587345123,0.14172074,0.05589417,15
-1.5506221055984497,9.93789291381836,0.7275058031082153,-0.4637592732906342,-0.050701816,0.118507855,15
-1.3904708623886108,10.036541938781738,0.8400318622589111,-0.5656598210334778,-0.29871312,0.25076020000000004,15
-1.2293155193328855,10.117902755737305,0.8409652113914491,-0.6991942524909973,-0.22174409,0.41325033,15
-1.089440941810608,10.158244132995604,0.7799844741821289,-0.8000922799110413,0.042455133,0.48808134,15
-0.9748874306678772,10.259437561035156,0.9644403457641602,-0.8749770522117615,0.25045475,0.52412236,15
-0.8643804788589478,10.496139526367188,1.4127689599990845,-0.9786243438720704,0.376293,0.63804877,15
-0.8189622759819031,10.807185173034668,1.9875199794769287,-1.130990505218506,0.24953845,0.7623598,15
-0.9119004011154176,11.040261268615724,2.4778239727020264,-1.2912739515304563,-0.22815818,0.90010995,15
-1.0487439632415771,11.105120658874512,2.8231890201568604,-1.4036197662353516,-0.6041456999999999,0.9868528,15
-1.0895781517028809,11.067441940307617,3.144813060760498,-1.4750685691833496,-0.768163,1.1450669,15
-1.0180200338363647,10.958832740783693,3.4510459899902344,-1.537806272506714,-0.8127562,1.3057245000000002,15
-0.9172798991203308,10.745684623718262,3.675710439682007,-1.59147846698761,-0.8927795000000001,1.319469,15
-0.7792821526527405,10.418556213378906,3.821329355239868,-1.6106538772583008,-1.0268645,1.2620476,15
-0.5290543437004089,10.055537223815918,3.9340250492095943,-1.6042439937591553,-1.215011,1.3069462,15
-0.16447226703166962,9.624164581298828,3.99896502494812,-1.5732164382934568,-1.0677924,1.2391402,15
0.22029660642147064,9.25676155090332,4.094872951507568,-1.5198701620101929,-0.7877107,1.1933253,15
0.5255264639854431,9.001452445983887,4.1878628730773935,-1.4336313009262085,-0.61758476,1.2641857,15
0.7414824366569519,8.683840751647951,4.3615970611572275,-1.32573664188385,-0.569021,1.4175128,15
1.001773238182068,8.143885612487793,4.543062686920166,-1.2206827402114868,-0.8017605999999999,1.3396275,15
1.21682870388031,7.9472389221191415,4.691079616546631,-1.1054277420043943,-0.8014551999999999,1.1759156000000002,15
1.3822871446609497,7.527177333831787,4.871915340423584,-0.9516971707344056,-0.7467828000000001,0.7067711,15
1.4508551359176636,7.18008279800415,4.903650283813477,-0.7947935461997986,-0.8555168,0.82344633,15
1.5999668836593628,6.983823776245117,4.622529029846191,-0.6272878050804138,-0.9056077,0.42271876,15
1.844583868980408,7.3331847190856925,3.201376676559448,-0.4823192656040192,-0.68233645,0.6469063,15
2.152111768722534,7.0585875511169425,2.942758798599243,-0.3538446724414825,-0.63529986,0.29626966,15
2.455267429351806,6.739156723022461,3.0911655426025386,-0.2559843957424164,-0.32711834,0.23182335,15
2.7430765628814697,6.5574378967285165,3.3903491497039795,-0.17264673113822934,-0.2779437,0.21655174,15
3.050445556640625,6.4973464012146,3.7049543857574463,-0.09850584715604782,-0.23854288,0.22204952,15
3.269211769104004,6.536004066467285,4.2465152740478525,-0.037315193563699715,-0.2733622000000001,0.23060162,15
3.5863804817199707,6.45771598815918,4.417375087738037,0.015636997297406197,-0.084910266,0.29901853,15
3.8897688388824463,6.3746581077575675,4.401798725128174,0.06101023405790329,0.1020145,0.2742785,15
4.1346096992492685,6.279261589050293,4.3668174743652335,0.12305775284767152,0.18967366,0.28405234,15
4.264096736907959,6.2110137939453125,4.3959712982177725,0.1828661859035492,0.24404067,0.25503623,15
4.320414543151856,6.190676689147949,4.50839900970459,0.2395248562097549,0.2565634,0.19700404,15
4.381661891937257,6.220553874969482,4.6427645683288565,0.2817185521125793,0.28527406,0.16371189,15
4.477276802062988,6.285820960998535,4.739338874816895,0.2993611693382263,0.29229903,0.13439035,15
4.528083324432373,6.325032711029053,4.803654670715332,0.30682942271232605,0.30909783,0.07788532,15
4.5474042892456055,6.342467784881593,4.889021396636963,0.30608755350112915,0.25992316,0.04886922,15
4.52448034286499,6.37294864654541,4.9117631912231445,0.3155815601348877,0.21197024,0.06688975,15
4.472836971282959,6.403958797454834,4.896637916564941,0.3320171535015106,-0.004581489,0.038179077,15
4.387826919555663,6.443646430969237,4.868088722229004,0.3397848308086395,-0.09040806,-0.032986723,15
4.386929512023927,6.496627330780028,4.805683612823486,0.3474428653717041,-0.24220806,-0.09193522,15
4.46457052230835,6.5552000999450675,4.777498245239258,0.36478638648986816,-0.22510384,-0.13897185,15
4.566271781921387,6.643052101135254,4.77579927444458,0.3706657588481903,-0.18325958,-0.15485434,15
4.639307022094727,6.740561008453369,4.719818115234375,0.3613144159317017,-0.20738874,-0.1563815,15
4.738656520843506,6.8407721519470215,4.616840839385986,0.3495888411998749,-0.25473082,-0.15515977,15
4.831849098205566,6.9566917419433585,4.483479499816895,0.34017136693000793,-0.20463985,-0.1872302,15
4.925040721893311,7.0469422340393075,4.362489700317384,0.3396556377410889,-0.16523905,-0.22418754,15
4.977989673614502,7.105559349060059,4.255300521850587,0.3514823913574219,-0.11759156,-0.20738874,15
4.954346179962158,7.130621910095215,4.219825744628906,0.37205830216407776,-0.3036,-0.22143865,15
4.89618730545044,7.212716579437256,4.279696464538573,0.3658962249755859,-0.50488013,-0.25503623,15
4.93888521194458,7.3568525314331055,4.3262128829956055,0.32532063126564026,-0.62888575,-0.2443461,15
5.0566725730896,7.434613704681396,4.113790035247804,0.26224231719970703,-0.32375857,-0.35369098,15
5.183758735656738,7.398484230041504,3.912418365478516,0.20590820908546448,0.20005837,-0.50243664,15
5.313694477081299,7.306577682495117,3.859594821929932,0.18055091798305511,0.45631635,-0.52564955,15
5.361034393310547,7.236417293548584,3.962788581848145,0.17291124165058136,0.183565,-0.66645396,15
5.252269744873047,7.16431999206543,4.043969631195068,0.17135009169578552,-0.024740042,-0.80573124,15
5.153581619262695,7.117351531982423,4.229955196380615,0.1697971671819687,-0.17989981,-0.86498517,15
5.0903401374816895,7.168755531311035,4.579553127288818,0.10552065819501877,-0.19425514,-0.8237518,15
4.750385761260986,7.364645957946777,4.766403675079347,-0.007908008992671967,-0.23884831,-0.88239485,15
4.436144828796387,7.846005916595459,4.672520637512207,-0.08704863488674164,-0.6640105,-0.70616025,15
4.487875938415527,8.422566413879395,4.622824668884277,-0.125508114695549,-1.0552697,-0.17898351,15
4.609610557556152,8.906501770019531,4.51887321472168,-0.20155169069767,-0.3109304,0.0421497,15
4.482877731323242,9.24860954284668,4.477848529815674,-0.284402996301651,-0.008552114,0.06688975,15
4.024290084838866,9.326374053955078,4.4021568298339835,-0.2992662787437439,-0.22296582,0.1151481,15
3.292552709579468,9.087969779968262,4.240798473358153,-0.2458343654870987,-0.39614612,0.11026118,15
2.5571696758270264,8.611340522766112,3.8967907428741455,-0.18765899538993835,-0.48380527,0.079107046,15
2.240309953689575,8.26032543182373,3.449577808380127,-0.17462943494319916,-0.26572640000000003,0.20097467,15
2.3050451278686523,8.207112312316895,3.049642324447632,-0.20955230295658112,0.31734450000000003,0.35979962,15
2.4326558113098145,8.362776756286621,2.82727313041687,-0.3022401332855225,0.9486737,0.45845437,15
2.342281579971313,8.516016006469728,2.7970194816589355,-0.4461361467838288,1.3026701,0.48288897,15
2.10444974899292,8.566168785095215,2.9179074764251713,-0.5866454839706421,1.2296717,0.58276546,15
1.7632858753204346,8.577412605285645,3.1447594165802,-0.6933774948120117,0.98624194,0.5635232,15
1.5097445249557495,8.673561096191406,3.3876967430114746,-0.7771914601325989,0.68203104,0.4792238,15
1.4038292169570925,8.8148193359375,3.5779571533203125,-0.824248194694519,0.49663344,0.26389378,15
1.444406270980835,8.951628684997559,3.711470603942871,-0.8468377590179443,0.4868596,0.081855945,15
1.6601431369781494,8.995919227600098,3.873366594314575,-0.8668782711029053,0.47952923,-0.046731193,15
1.9241597652435305,8.833133697509766,4.181103229522705,-0.8932497501373291,0.453262,-0.034513887,15
1.9548225402832031,8.50208854675293,4.591203212738037,-0.9420014023780824,0.42119157,-0.11148291,15
1.8512004613876345,8.121298789978027,4.954041004180908,-1.0236673355102541,0.07269296,-0.23273966,15
1.9022693634033203,7.768350124359131,5.123127460479736,-1.1215541362762451,0.116675265,-0.30451632,15
2.1407954692840576,7.474364757537843,5.2035231590271,-1.2267935276031494,0.38056904,-0.258396,15
2.3301901817321777,7.135505676269531,5.214831829071045,-1.3395720720291138,0.5897904,-0.2125811,15
2.284298896789551,6.771414756774902,5.217065811157227,-1.4268467426300049,0.9954049,-0.23304509,15
2.0689542293548584,6.421473979949951,5.280417919158936,-1.4869650602340698,1.1029171999999998,-0.23701571,15
1.7923235893249512,6.047935962677003,5.385868549346924,-1.5258469581604004,1.2629639,-0.31520647,15
1.5622918605804443,5.6019439697265625,5.595696926116943,-1.5630464553833008,1.6129897,-0.310625,15
1.2472325563430786,5.035356521606445,5.932730674743652,-1.6416858434677124,1.8054122,-0.4129449000000001,15
0.6934835314750671,4.426027774810791,6.505481719970702,-1.7389980554580688,1.5470163,-0.6017023,15
-0.08378855884075165,3.960469484329224,7.206387042999268,-1.8321208953857424,1.488984,-0.49296826,15
-0.512639045715332,3.6160247325897217,8.027928352355957,-1.8604797124862669,1.0415252000000002,-0.70616025,15
-0.4924002587795258,3.35091233253479,9.070740699768066,-1.795034885406494,0.8237518,-0.7302894,15
-0.2462356686592102,3.033811092376709,10.118139266967773,-1.67409348487854,0.80481493,-0.57818395,15
-0.08125487715005875,2.6490960121154785,10.800088882446287,-1.5242286920547483,1.207986,-0.4859433,15
-0.1237778291106224,2.304292917251587,11.044002532958984,-1.3190592527389526,1.3319917,-0.5143485,15
-0.2928410470485687,2.0675594806671143,11.079801559448242,-1.0638871192932131,1.2669345,-0.65576386,15
-0.4796187281608582,2.0243558883666988,11.041969299316406,-0.8080434799194336,1.2006557,-0.76144356,15
-0.6963611841201782,2.0795321464538574,10.935181617736816,-0.596150815486908,1.5253305,-0.60048056,15
-0.9445969462394714,2.2199785709381104,10.758963584899902,-0.4516565501689911,1.317331,-0.5403103,15
-1.2010717391967771,2.4103927612304688,10.493185997009276,-0.38306599855422974,0.8359690999999999,-0.52687126,15
-1.4266139268875122,2.634851455688477,10.039299964904783,-0.3801600337028504,0.5494733,-0.34972036,15
-1.6489197015762331,2.819907665252685,9.633898735046387,-0.4023626744747162,0.5879578000000001,-0.15027285,15
-1.8431578874588013,2.7696692943573,9.49565315246582,-0.41426828503608704,0.4111123,-0.079107046,15
-1.9040461778640747,2.6921637058258057,9.436971664428713,-0.4250604510307312,0.33505958,0.029626964,15
-1.871141076087952,2.6778042316436768,9.443801879882812,-0.424565851688385,0.23640485,0.109650314,15
-1.719404935836792,2.7351558208465576,9.536905288696287,-0.43887224793434143,0.204029,0.16310102,15
-1.5347274541854858,2.795157194137573,9.579373359680176,-0.4559621810913086,0.33322698,0.22449298,15
-1.387277126312256,2.7952711582183842,9.592211723327637,-0.4692100286483765,0.36163223,0.2782491,15
-1.2717057466506958,2.717250108718872,9.501543045043944,-0.4783613085746765,0.52106804,0.30268374,15
-1.2287360429763794,2.5907576084136963,9.38855266571045,-0.4725268185138702,0.5702427,0.3051272,15
-1.2303489446640017,2.3751659393310547,9.15473175048828,-0.4669807851314545,0.31184670000000003,0.040927973,15
-1.2254811525344849,2.2231884002685547,8.250221252441406,-0.5009697675704956,0.8222246,0.24556783,15
-1.524040937423706,2.0872504711151123,8.190383911132812,-0.5053691864013672,0.67347896,0.20616703,15
-1.8190793991088867,1.958403706550598,8.319491386413574,-0.5170933008193971,0.4783075,0.124005646,15
-2.0756711959838867,1.8929622173309328,8.404502868652344,-0.5561113953590393,0.41722095,0.31795537,15
-2.557668209075928,1.8454152345657349,8.4031982421875,-0.5720998048782349,0.4092797,0.27214047,15
-3.0109362602233887,1.7041754722595217,8.395791053771973,-0.5431809425354004,0.31673363,0.24587326,15
-3.2889623641967773,1.4488338232040403,8.387715339660645,-0.496271550655365,0.21044308,0.26328292,15
-3.444764852523804,1.1482009887695312,8.401983261108397,-0.44817882776260376,0.06597344599999999,0.23335053,15
-3.588860273361206,0.8670945167541504,8.485749244689941,-0.3945773243904114,-0.08552113,0.2724459,15
-3.711626052856445,0.7265602350234985,8.662336349487305,-0.3368634879589081,-0.21838433,0.13988814,15
-3.7740087509155273,0.7338352203369141,8.802136421203613,-0.269991397857666,-0.23609942,0.10598512,15
-3.6851727962493896,0.7617004513740541,8.900396347045898,-0.2047867327928543,-0.18906279,0.11301007,15
-3.581357717514038,0.7557225227355957,8.954324722290039,-0.14474758505821228,-0.19883664,0.10903945,15
-3.503533363342285,0.8034093379974365,8.973512649536133,-0.08473052829504013,-0.19425514,0.070249505,15
-3.422616004943848,0.9190024733543396,9.032955169677734,-0.03742462769150734,-0.183565,0.13194689,15
-3.422162771224976,1.0170204639434814,9.051447868347168,0.003165853675454855,-0.15271631,0.034208454,15
-3.317372560501098,1.0831118822097778,9.01565647125244,0.044243574142456055,-0.1337795,0.046731193,15
-3.105066299438477,1.1268852949142456,8.946564674377441,0.07523564249277115,-0.13530666,0.08368854,15
-2.9385733604431152,1.1973620653152466,8.92627239227295,0.09190867841243744,-0.119729586,0.06719518,15
-2.863234043121338,1.31407368183136,8.968862533569336,0.09045252948999404,-0.08460484,-0.049785517,15
-2.8146889209747314,1.413647174835205,9.015961647033693,0.07634025067090988,-0.070554934,-0.13011430000000002,15
-2.711676836013794,1.4719263315200806,9.014925003051758,0.05636893957853317,-0.016798794,-0.1695151,15
-2.545635223388672,1.4874870777130127,8.952488899230957,0.03654222935438156,0.028099801,-0.11209377,15
-2.4054491519927983,1.5012464523315432,8.890344619750977,0.02113589271903038,0.0012217305,-0.052534413,15
-2.4060773849487305,1.5360368490219116,8.884785652160645,0.008394922129809856,-0.00061086525,-0.036651913,15
-2.465853452682495,1.558084487915039,8.879358291625977,0.0037029874511063103,0.04184427,-0.05772676700000001,15
-2.501070261001587,1.5193033218383791,8.85909366607666,0.006368773058056831,0.08827003,-0.048258353,15
-2.512186288833618,1.4617156982421875,8.84200382232666,0.012072025798261166,0.11942416,-0.04428773,15
-2.518783569335937,1.4549585580825806,8.863588333129883,0.013284020125865936,0.081855945,-0.07696902,15
-2.548356533050537,1.5577421188354492,8.936039924621582,0.0022415793500840664,0.02443461,-0.17715092,15
-2.5868310928344727,1.7346429824829102,9.023837089538574,-0.0010925898095592856,0.0033597588,-0.19853121,15
-2.555032968521118,1.799776315689087,9.078594207763672,0.003655703272670507,0.103847094,-0.13897185,15
-2.4641921520233154,1.702853083610535,9.048700332641602,-0.0014678144361823795,0.12736541,-0.021685716,15
-2.382862091064453,1.5728248357772827,8.986062049865723,-0.013529176823794842,0.12858713,0.09193522,15
-2.3976073265075684,1.4758952856063845,8.950119972229004,-0.01684957928955555,0.09132435,0.10567969,15
-2.5222148895263667,1.403037667274475,8.965580940246582,-0.010361210443079472,0.09101892,0.08032878,15
-2.686329126358032,1.3465539216995241,9.026872634887695,-0.008396903052926064,0.07819075,0.0421497,15
-2.8201489448547363,1.3422319889068604,9.088801383972168,-0.017147425562143326,0.034208454,0.048258353,15
-2.9060332775115967,1.3934993743896484,9.108707427978516,-0.01937151327729225,0.013133603,0.061086524,15
-2.9584617614746094,1.4359892606735232,9.09695053100586,-0.01522543467581272,0.041233405,0.026572637000000003,15
-2.97173810005188,1.4271234273910522,9.053287506103516,-0.017529446631669998,0.08246681,0.010079277,15
-2.9581849575042725,1.417482614517212,9.02521800994873,-0.024678360670804974,0.02076942,0.00030543262000000003,8
-2.9612712860107417,1.4393792152404783,9.032426834106444,-0.02881211042404175,-0.05772676700000001,-0.009773844,8
-2.9935379028320312,1.4445194005966189,9.069777488708496,-0.03107274696230888,-0.08093964,-0.030848695,8
-3.013445377349853,1.4179531335830688,9.081388473510742,-0.03230155631899834,-0.007941248,-0.058643065,8
-2.9766845703125,1.3603410720825195,9.057868003845217,-0.029387276619672775,0.03604105,-0.07819075,8
-2.895434856414795,1.352252721786499,9.05784511566162,-0.023999296128749847,0.012217305,-0.047647487,8
-2.8061048984527592,1.3775112628936768,9.083667755126953,-0.02090129442512989,-0.00580322,-0.025350908,8
-2.75041937828064,1.3980252742767334,9.094524383544922,-0.02458716556429863,0.01863139,-0.016493361,8
-2.752675294876098,1.3890460729599,9.08897590637207,-0.02954020537436008,0.0290161,-0.02321288,8
-2.781635046005249,1.3590556383132937,9.089527130126953,-0.02959276549518108,0.03634648,-0.024740042,8
-2.8134162425994877,1.329699158668518,9.084080696105957,-0.024266891181468964,0.014966198,-0.013439035,8
-2.8391778469085693,1.3148535490036009,9.073249816894533,-0.016474619507789612,0.0125227375,-0.0076358155,8
-2.8613414764404297,1.3167012929916382,9.071446418762207,-0.0094095291569829,0.027488936,-0.004276057,8
-2.883962869644165,1.3229613304138184,9.087044715881348,-0.004040155094116926,0.015271631,-0.005497787,8
-2.9067203998565674,1.320245385169983,9.095608711242676,-0.0017877887003123762,0.007941248,0.005497787,8
-2.92549991607666,1.3051433563232422,9.094064712524414,0.00019192250329069796,0.006414085,0.007941248,8
-2.9477076530456543,1.2874337434768677,9.076845169067383,0.002375115174800157,0.00061086525,0.018936822,8
-2.967148303985596,1.2621885538101196,9.0645170211792,0.006444048602133989,-0.010690141499999998,0.011301007,8
-2.9769318103790283,1.2525006532669067,9.063385009765623,0.01175981666892767,-0.002443461,0.0030543262,8
-2.97778844833374,1.2597181797027588,9.064698219299316,0.01483083050698042,0.012217305,-0.0030543262,8
-2.9534969329833984,1.2819156646728516,9.071486473083496,0.016608763486146927,0.007330383,0.003970624,8
-2.9240381717681885,1.3030773401260376,9.073286056518556,0.0156995989382267,-0.00580322,0.005192355,8
-2.902402400970459,1.3209562301635742,9.052998542785645,0.016061021015048027,0.0015271631,0.0036651916,8
-2.88285756111145,1.3420912027359009,9.03193473815918,0.017304513603448868,-0.0012217305,0.005192355,8
-2.868476867675781,1.358243703842163,9.040186882019043,0.01840783655643463,0.0018325958,0.009162978,8
-2.864418029785156,1.3579683303833008,9.04190731048584,0.016485616564750668,-0.0036651916,0.004276057,8
-2.869520425796509,1.353886961936951,9.034689903259276,0.013179337605834007,-0.0009162979,0.0027488936,8
-2.8640122413635254,1.3458871841430664,9.026412963867188,0.010182566940784454,0.004886922,0.0027488936,8
-2.8539035320281982,1.344793438911438,9.026996612548828,0.007044080179184675,0.002443461,0.0030543262,8
-2.8496694564819336,1.3371347188949585,9.033032417297363,0.004094828851521015,0.0030543262,0.005192355,8
-2.8532497882843018,1.3216562271118164,9.031961441040039,0.000111981134978123,0.00061086525,-0.002443461,8
-2.8545310497283936,1.3120802640914917,9.034509658813477,-0.0009727102587930857,0.005192355,0.00580322,8
-2.8671758174896236,1.3069665431976318,9.04425811767578,-0.0004631557676475495,0.0015271631,0.00580322,8
-2.8939821720123287,1.305083155632019,9.050267219543457,0.0006639910861849785,0.0061086523,-0.007330383,8
-2.9194626808166504,1.3022857904434204,9.049649238586426,0.0008929112809710205,0.01038471,-0.00580322,8
-2.9332120418548584,1.3053147792816162,9.047489166259766,0.0017510586185380814,0.003970624,0.0012217305,8
-2.930449962615967,1.3100570440292358,9.049936294555664,0.002966156229376793,-0.009162978,0.0027488936,8
-2.9318835735321045,1.3045355081558228,9.04371738433838,0.002238179557025433,-0.004276057,0.0033597588,8
-2.929860591888428,1.3072905540466309,9.039917945861816,0.0031020662281662226,-0.0012217305,0.009773844,8
-2.920327425003052,1.3134765625,9.04336643218994,0.0036955613177269697,-0.00061086525,0.0033597588,8
-2.900475263595581,1.3168129920959473,9.048091888427734,0.003338259644806385,0.0143553335,-0.0033597588,8
-2.8869860172271733,1.3150562047958374,9.04491901397705,0.0018881281139329078,0.002443461,-0.0070249503,8
-2.8749568462371826,1.3059109449386597,9.039992332458496,0.001221390557475388,0.008246681,0.011301007,8
-2.873661994934082,1.2981133460998535,9.034671783447266,0.0015170947881415484,0.009162978,0.013439035,8
-2.8840639591217037,1.2999788522720337,9.031991004943848,0.0019671069458127017,-0.0070249503,0.0125227375,8
-2.8938207626342773,1.2998087406158447,9.022428512573242,0.000975360453594476,-0.014660766,0.006414085,8
-2.9000144004821777,1.3021119832992554,9.0212984085083,-0.00025514003937132657,-0.0018325958,0.0033597588,8
-2.9024100303649902,1.3057799339294434,9.02480697631836,0.0004636782396119088,-0.0067195175,0.002443461,8
-2.8971972465515137,1.3177967071533203,9.033417701721193,0.0012516473652794955,-0.014049901000000002,-0.003970624,8
-2.895944356918335,1.3271121978759766,9.039192199707033,0.002314700745046139,-0.01282817,-0.01160644,8
-2.8926496505737305,1.321811318397522,9.028478622436523,0.0037659399677068,-0.010995574,-0.015577064,8
-2.8987030982971187,1.309703707695007,9.020697593688963,0.006174176931381226,0.00030543262000000003,-0.009468411,8
-2.902855396270752,1.2965952157974243,9.028430938720703,0.00892637949436903,-0.0067195175,-0.00061086525,8
-2.901888370513916,1.2915940284729004,9.038341522216797,0.011282162740826608,0.010690141499999998,0.0009162979,8
-2.8963615894317627,1.2977031469345093,9.044657707214355,0.013770951889455318,-0.005497787,0.0018325958,8
-2.8917737007141118,1.2982467412948608,9.049054145812988,0.013515476137399672,-0.0009162979,0.008552114,8
-2.8911104202270512,1.298424243927002,9.036600112915039,0.012104496359825134,-0.0015271631,0.010995574,8
-2.8924410343170166,1.294562578201294,9.015541076660156,0.012191347777843477,0.0070249503,0.014660766,8
-2.892862558364868,1.2925444841384888,9.018681526184082,0.013385816477239132,-0.0021380284,-0.0021380284,8
-2.89931583404541,1.297549843788147,9.026458740234377,0.012459227815270424,-0.003970624,-0.0015271631,8
-2.903745174407959,1.3093502521514893,9.030861854553224,0.00930739939212799,0.0015271631,-0.0030543262,8
-2.8965978622436523,1.3149758577346802,9.03243350982666,0.0061035766266286364,-0.005192355,-0.0067195175,8
-2.8897030353546143,1.318265676498413,9.033285140991213,0.003367422614246607,-0.00030543262000000003,-0.0009162979,8
-2.8871984481811523,1.3196070194244385,9.036197662353516,0.0007057226030156016,-0.0061086523,-0.004276057,8
-2.88370943069458,1.3149131536483765,9.03251838684082,-0.002512536011636257,-0.002443461,-0.0030543262,8
-2.880944967269897,1.3151190280914309,9.02195644378662,-0.0032682237215340137,0.0076358155,-0.007330383,8
-2.873251676559448,1.3143115043640137,9.01901912689209,-0.003085342701524496,0.0143553335,-0.006414085,8
-2.8749620914459233,1.3109171390533447,9.026729583740234,-0.0018484838074073195,0.005497787,-0.0030543262,8
-2.8864820003509517,1.3067203760147097,9.030855178833008,-0.0011812192387878895,0.0061086523,-0.003970624,8
-2.8992223739624023,1.3049967288970947,9.035176277160645,-0.0008550688507966697,0.007330383,-0.0030543262,8
-2.9111542701721187,1.2924352884292605,9.022971153259276,-0.0007942741503939033,0.011301007,0.007941248,8
-2.9164578914642334,1.26999831199646,9.01691436767578,0.00048059248365461837,-0.0012217305,0.009468411,8
-2.9256486892700195,1.2494016885757446,9.02514362335205,0.002486586105078459,-0.010690141499999998,0.016493361,8
-2.936244487762451,1.2460370063781738,9.043614387512207,0.0038658762350678453,-0.0143553335,0.018020526,8
-2.9502227306365967,1.2479127645492554,9.05094051361084,0.0043664057739079,-0.018936822,0.006414085,8
-2.9509425163269043,1.255229353904724,9.034253120422363,0.004678310360759497,-0.010690141499999998,0.0030543262,8
-2.9471313953399663,1.2579079866409302,9.01583480834961,0.006091040559113026,0.00030543262000000003,0.0012217305,8
-2.9437026977539062,1.253894329071045,8.987014770507812,0.00963981170207262,-0.04062254,-0.024740042,8
-2.9285984039306636,1.2700916528701782,9.000248908996582,0.012201904319226742,-0.0030543262,-0.004581489,8
-2.907623767852783,1.2937849760055542,9.02249526977539,0.012501853518188,-0.012217305,0.002443461,8
-2.8867886066436768,1.307326078414917,9.032598495483398,0.010208473540842531,-0.007330383,0.008857545999999999,8
-2.8717849254608154,1.3180480003356934,9.028316497802734,0.008640430867671967,0.008857545999999999,0.013133603,8
-2.861993789672852,1.321599006652832,9.030587196350098,0.007022165693342686,0.0021380284,0.018936822,8
-2.860962390899658,1.319746017456055,9.044590950012207,0.006208902690559626,0.004276057,0.02321288,8
-2.8573992252349854,1.3146584033966064,9.045019149780273,0.0058269938454031936,-0.00061086525,0.015577064,8
-2.854008436203003,1.3132104873657229,9.048417091369627,0.005070640239864589,-0.0067195175,0.011301007,8
-2.8594229221343994,1.3079959154129028,9.04762077331543,0.005114736966788769,0.007941248,0.0030543262,8
-2.8720281124114986,1.3039640188217163,9.04393196105957,0.004047122783958912,0.005497787,-0.0036651916,8
-2.8793749809265137,1.302693009376526,9.046916007995604,0.0038053139578551054,-0.0036651916,-0.0027488936,8
-2.8818972110748287,1.2970055341720579,9.046045303344727,0.003557235235348344,-0.0036651916,0.008552114,8
-2.882710695266724,1.2916302680969238,9.044939994812012,0.004727555904537439,-0.0012217305,0.0067195175,8
-2.8804659843444824,1.2817552089691162,9.046232223510742,0.0063810059800744065,-0.0036651916,0.008246681,8
-2.881495237350464,1.2793936729431152,9.052454948425293,0.008488423191010952,-0.0067195175,0.01038471,8
-2.8853549957275386,1.2898752689361572,9.057519912719727,0.008856444619596004,0.0067195175,0.014660766,8
-2.8909120559692383,1.3049927949905396,9.04121208190918,0.006553153973072767,-0.0012217305,0.0036651916,8
