acc_x,acc_y,acc_z,gyro_x,gyro_y,gyro_z,label
0.0,0.0,0.0,0.0,0.3323107,0.05681047,1
0.09306159615516664,0.2726520895957947,0.02054979838430881,0.0017745146760717034,0.31612277,0.043066,1
0.31945642828941345,0.9220179915428162,0.07378807663917543,0.005564627703279257,0.32192600000000005,0.044898596,1
0.6468432545661926,1.8190113306045528,0.14687538146972656,0.009066305123269558,0.29260445,0.04184427,1
1.0313448905944824,2.822861671447754,0.2369782626628876,0.011888678185641766,0.20158553,0.04184427,1
1.4128861427307131,3.818637847900391,0.32080093026161194,0.014357891865074638,0.13561209,0.048258353,1
1.76619553565979,4.746172428131104,0.3642999231815338,0.015490259043872356,0.10262536,0.043066,1
2.0762097835540767,5.5684494972229,0.4017747640609741,0.01610424369573593,0.070554934,0.039095376,1
2.3053858280181885,6.265876293182372,0.3869628012180328,0.01644355058670044,0.070249505,0.03390302,1
2.461110591888428,6.850677013397218,0.497993677854538,0.016257377341389656,0.062002823,0.039095376,1
2.6048812866210938,7.347399234771728,0.40703901648521423,0.016929486766457558,0.049785517,0.039095376,1
2.6988492012023926,7.7506041526794425,0.42288222908973694,0.016978245228528976,0.04550946,0.025045475,1
2.764654874801636,8.069605827331543,0.4216914772987366,0.016973234713077545,0.028099801,0.018020526,1
2.815965414047241,8.326084136962889,0.3834975361824036,0.017353715375065804,0.010079277,0.010995574,1
2.861363410949707,8.543153762817383,0.3315367996692657,0.017509786412119862,0.009162978,0.0070249503,1
2.9068911075592037,8.725571632385254,0.2802474796772003,0.01732947677373886,0.036957346,0.014660766,1
2.9402260780334477,8.872843742370605,0.2496694773435593,0.01800253987312317,0.058948494,0.01160644,1
2.9650146961212163,8.984613418579102,0.2634403109550476,0.02049459144473076,0.1133155,0.016798794,1
2.979717254638672,9.073326110839844,0.302689790725708,0.021533546969294548,0.12644911,0.014660766,1
2.9933903217315674,9.13202667236328,0.3593587279319763,0.022657062858343124,0.07941248,0.01985312,1
2.9994525909423833,9.16452407836914,0.4298226535320282,0.02306180261075497,0.058337633,0.030543262,1
2.9948484897613525,9.189602851867676,0.5111353993415833,0.024397173896431926,0.0888809,0.046731193,1
2.978328227996826,9.214944839477539,0.5882234573364258,0.02769999019801617,0.14019357,0.06047566,1
2.950023651123047,9.236702919006348,0.6418712735176086,0.03447990119457245,0.24373524,0.1001819,1
2.905484437942505,9.256217002868652,0.6483815908432007,0.04736912250518799,0.33292156,0.14752395,15
2.829517364501953,9.329320907592773,0.6120574474334717,0.06903538107872009,0.4089743,0.1994475,15
2.719012260437012,9.479509353637695,0.5539647936820984,0.10393577069044113,0.4981606,0.23915374,15
2.589895248413086,9.677742004394533,0.4865312874317169,0.16280464828014374,0.6600399,0.24862215,15
2.4537835121154785,9.85537815093994,0.42222702503204346,0.23722951114177704,0.8347474,0.23396139,15
2.339055061340332,9.970864295959473,0.3472551107406616,0.3137981593608856,0.7492262,0.22052236,15
2.2753889560699463,10.006619453430176,0.27333879470825195,0.3895946145057678,0.4251622000000001,0.17959438,15
2.2697017192840576,9.976747512817383,0.2071532756090164,0.4625471532344818,0.13255776,0.16646078,15
2.3060238361358643,9.906865119934082,0.16506683826446533,0.5263957381248474,-0.10445796,0.17715092,15
2.3792686462402344,9.807719230651855,0.14963635802268982,0.5812394618988037,-0.32314770000000004,0.21930063,15
2.474536180496216,9.725665092468262,0.15159982442855835,0.6293414235115051,-0.57910025,0.2764165,15
2.564066171646118,9.741475105285645,0.1089317873120308,0.6805669665336609,-0.7672467,0.33505958,15
2.602949857711792,9.869892120361328,-0.026995820924639702,0.7454894185066223,-0.8371908000000001,0.37018433,15
2.5525953769683842,10.073509216308594,-0.2582264244556427,0.8376909494400024,-0.86926126,0.30695978,15
2.319910049438477,10.21275806427002,-0.6376436948776245,0.9588635563850404,-1.0088439,0.09621128,15
1.9943642616271973,10.213824272155762,-1.0291308164596558,1.0689911842346191,-1.2400563999999998,-0.15607607,15
1.920042991638184,10.112318992614746,-1.1215869188308716,0.9949165582656859,-1.131017,-0.5335908,15
2.1447222232818604,10.017244338989258,-1.0948474407196045,0.8543481230735779,-0.34788775,-0.795652,15
2.564013957977295,9.92714023590088,-1.1349247694015503,0.7563139796257019,-0.04153884,-0.9914343,15
2.8949370384216313,9.760299682617188,-1.194188356399536,0.6940520405769348,0.13622294,-1.208597,15
3.171214818954468,9.638834953308104,-1.0494136810302734,0.5513195395469666,-0.06352998,-1.2110404,15
3.565648317337036,9.527445793151855,-0.6432677507400513,0.304040402173996,-0.57879484,-1.0143417,15
3.952722549438477,9.244702339172363,-0.2303081601858139,0.035575587302446365,-0.86559606,-1.0100657,15
4.178130149841309,8.845626831054688,0.009814378805458546,-0.19807913899421686,-0.7165449,-0.8371908000000001,15
4.266051292419434,8.433951377868652,0.08613064140081406,-0.3977358937263489,-0.2648101,-0.64996064,15
4.2659196853637695,8.063873291015625,0.07387343794107437,-0.5665438175201416,0.19028452,-0.5137377000000001,15
4.169070243835448,7.89174222946167,0.01058281771838665,-0.716797411441803,0.42119157,-0.5204572000000001,15
4.029643535614014,8.053792953491211,-0.35377174615859985,-0.7956392168998718,0.3747658,-0.5317582,15
4.12288236618042,8.29947566986084,-0.707006573677063,-0.7774681448936462,0.45631635,-0.19730948,15
4.418262481689453,8.476813316345215,-0.5934051871299744,-0.7815800905227661,-0.23151793,-0.14874569,15
4.808190822601318,8.78170108795166,-0.4858278334140778,-0.7634974718093872,-0.22327125,0.02443461,15
5.221388339996338,9.126225471496582,-0.5352826118469238,-0.6706486344337463,0.36193767,0.17592919,15
5.4818220138549805,9.221074104309082,-0.6710944175720215,-0.44156378507614136,0.7984009,0.36560285,15
5.237791538238525,8.993016242980957,-0.7184010148048401,-0.14119789004325867,0.64599,0.49877146,15
4.4624972343444815,8.79692554473877,-0.8151745200157166,0.09459114074707033,1.1371256,1.1383473999999998,15
2.664874792098999,9.632826805114746,-1.769098877906799,0.3483417332172394,0.70280045,0.9798279,15
-0.3838485777378082,11.235868453979492,-3.15272855758667,0.6206640005111694,0.9288206,0.3381139,15
-2.1352710723876958,12.067811965942385,-2.775298357009888,0.5882878303527832,-2.173764,-0.68386364,15
-1.3568017482757568,10.893939018249512,-2.28104829788208,0.4378511607646942,0.4156938,-1.3008375,15
-0.04967042803764343,9.554624557495117,-1.832602620124817,0.5125693678855896,1.3457361,-1.0338894,15
0.3785621225833893,9.09857177734375,-1.5504604578018188,0.5282166004180908,0.49968776,-0.70249504,15
0.6383649110794067,9.664432525634766,-1.6778310537338257,0.4671013057231903,0.25045475,-0.54305923,15
0.9917097687721252,10.27399730682373,-1.6400959491729736,0.4086352586746216,0.06566802,-0.42332962,15
1.1454325914382937,10.330116271972656,-1.458617091178894,0.4045465588569641,0.14996742,-0.50854534,15
1.2749111652374268,9.954498291015623,-1.5095291137695312,0.4445287883281708,0.44104472,-0.39461896,15
1.4213588237762451,9.503412246704102,-1.8584359884262085,0.44859737157821655,0.25320363,-0.3268129,15
1.5276930332183838,9.151625633239746,-2.037334680557251,0.4411876499652863,0.17989981,-0.19853121,15
1.6288045644760132,8.970806121826172,-2.0282511711120605,0.4723249673843384,-0.21410827,-0.27305678,15
1.4792598485946655,8.867053985595703,-1.965868353843689,0.5116652846336365,-0.4896085,-0.35369098,15
0.9341262578964232,8.661228179931639,-1.9118303060531616,0.5317918658256531,-0.21655174,-0.3155119,15
0.35329484939575195,8.459670066833496,-1.9573122262954712,0.5469740629196167,0.1957823,-0.2406809,15
0.11996689438819885,8.451339721679688,-2.0816850662231445,0.5795342922210693,0.31673363,-0.1695151,15
0.17965969443321228,8.596295356750487,-2.1788375377655034,0.6185833811759949,0.20525073,-0.042455133,15
0.3889591693878174,8.743104934692383,-2.224599838256836,0.6533611416816711,-0.12003502,0.07727446,15
0.495337575674057,8.758467674255371,-2.2905914783477783,0.6933659315109253,-0.19517145,0.09865474,15
0.492429107427597,8.574100494384767,-2.4890427589416504,0.754978597164154,-0.63194007,-0.35002577,15
0.37512114644050604,8.444698333740233,-2.645066499710083,0.7996886372566223,-1.1728611999999998,-0.22999077,15
-0.13443367183208466,8.369222640991211,-2.595422744750977,0.8373984694480896,-1.2950343,-0.20066923,15
-0.8963947892189026,8.040316581726074,-2.5828630924224854,0.887100338935852,-0.61544675,-0.6377433000000001,15
-1.3364191055297852,7.892414093017577,-2.6542956829071045,0.9771239757537842,0.096516706,-0.6765333,15
-1.3961766958236694,7.915767192840576,-2.7425663471221924,1.0248985290527344,-0.21410827,-0.5039638,15
-1.2101385593414309,8.050379753112793,-2.8557605743408203,1.0517351627349854,0.043982297,-0.6200281999999999,15
-0.9739046692848206,7.983935356140138,-3.287308692932129,1.0921357870101929,-0.63591075,-0.9294315,15
-0.7792226076126099,7.971130847930907,-3.815480947494507,1.1144191026687622,-0.5381723,-0.6401868000000001,15
-0.6739739775657654,8.033440589904785,-4.269839286804198,1.1371173858642578,0.08735373,-0.59498274,15
-0.6722744703292847,8.154556274414062,-4.546186923980713,1.1848886013031006,0.30207285,-0.6398814,15
-0.4814511835575104,8.216085433959961,-4.9205355644226065,1.2369083166122437,-0.35735616,-0.33261612,15
-0.09422163665294647,8.141225814819336,-5.410674095153809,1.2505946159362793,-0.39920044,-0.22876903,15
0.11397389322519302,8.191919326782228,-5.830758571624756,1.2599935531616209,-0.7058548000000001,-0.24709499,15
0.15578639507293698,8.276906967163086,-6.2350592613220215,1.2503085136413574,-0.41874814,-0.28313604,15
0.13270542025566098,8.292948722839355,-6.551535606384277,1.2446330785751345,-0.33017266,-0.24129178,15
0.0729321613907814,8.254404067993164,-6.79676628112793,1.2403675317764282,-0.58032197,-0.28099802,15
0.1136329174041748,8.235197067260742,-6.960304260253906,1.2222771644592283,-0.6356053,-0.39950588,15
0.10080663859844208,8.228222846984862,-7.113893508911133,1.1945871114730835,-0.6310238,-0.61269784,15
-0.08491398394107819,8.147088050842285,-7.444554328918457,1.1693130731582642,-0.026572637000000003,-0.50732356,15
-0.5028181672096252,7.727212905883789,-7.826972961425781,1.1908942461013794,0.22266038,-0.63132924,15
-0.7178754210472107,7.099125385284424,-8.178391456604004,1.2037060260772705,-0.29077184,-0.086132,15
-0.5403901934623718,6.52463960647583,-8.53391170501709,1.2178069353103638,-0.39706242,-0.13805555,15
-0.5308392643928528,6.101661205291747,-8.820840835571289,1.2547303438186646,-0.16249016,-0.36651915,15
-0.8505070209503174,5.818991661071777,-8.965868949890137,1.303233027458191,-0.1151481,-0.32620203,15
-1.2630736827850342,5.463240146636963,-9.009550094604492,1.3488874435424805,0.013439035,-0.26022860000000003,15
-1.6257535219192505,4.880146503448486,-9.142274856567383,1.401325225830078,0.011301007,-0.2574797,15
-1.8468677997589111,4.445213794708252,-9.423738479614258,1.444476842880249,0.26297748,-0.35430184,15
-1.8506784439086916,4.361163139343262,-9.820796966552734,1.464764952659607,0.10262536,-0.40561453,15
-1.8836907148361208,4.423817157745361,-10.324066162109377,1.4609607458114624,0.04642576,-0.5332854,15
-2.12099289894104,4.46031379699707,-10.672262191772461,1.4481552839279177,-0.093462385,-0.47311515,15
-2.402522087097168,4.249332904815674,-10.74756908416748,1.4126765727996826,-0.20830505,-0.5360342,15
-2.62759017944336,3.841624021530152,-10.648439407348633,1.358329176902771,-0.1600467,-0.65087694,15
-2.729137659072876,3.3592753410339355,-10.557629585266113,1.2675597667694092,-0.38789943,-0.8051204000000001,15
-2.8021903038024902,2.8754913806915283,-10.451844215393066,1.1152143478393557,-0.5458081,-0.93828905,15
-2.8960490226745605,2.505126953125,-10.194133758544922,0.9637619256973268,-0.66156703,-0.98471475,15
-2.9797322750091557,2.210312604904175,-9.8786039352417,0.8313035368919373,-0.70463306,-1.1670581,15
-3.0115175247192383,2.0515506267547607,-9.701323509216307,0.6926624774932861,-0.7021896,-1.2476922,15
-2.996823787689209,2.0465233325958248,-9.635494232177734,0.5943593382835388,-0.7623598,-1.3607023,15
-2.982140302658081,2.1137380599975586,-9.638401985168457,0.528899610042572,-0.8381071,-1.3494014,15
-3.0385985374450684,2.1298067569732666,-9.696310997009276,0.5232030749320984,-0.8032878000000001,-1.2208142,15
-3.323360681533813,2.1058712005615234,-9.73267936706543,0.5842547416687012,-0.7883216,-1.0396926,15
-3.662848711013794,2.1898832321166988,-9.748231887817383,0.6889116168022156,-0.8735373,-1.0250319,15
-3.8550870418548575,2.181694746017456,-9.764447212219238,0.8979434370994568,0.754724,-1.0189233,15
-4.0852251052856445,2.032690048217773,-9.762385368347168,1.1475304365158079,0.15118915,-1.0146471,15
-4.41931676864624,1.6587200164794922,-9.69459056854248,1.351100206375122,-0.09132435,-0.6728681,15
-4.6622962951660165,1.1802080869674685,-9.658763885498047,1.4698123931884766,0.09315695,-0.5335908,15
-4.74489688873291,0.787523090839386,-9.5430326461792,1.5446892976760864,-0.73364913,-0.6429357,15
-4.690196514129639,0.5138452053070068,-9.497076034545898,1.5659831762313845,-0.94897914,-0.7629706999999999,15
-4.6728363037109375,0.23853038251399994,-9.527687072753906,1.547396540641785,-0.9211848,-0.8726209999999999,15
-4.762235641479492,-0.14822076261043549,-9.491769790649414,1.5352497100830078,-0.86590147,-0.8390234000000001,15
-4.805980205535889,-0.6085019111633301,-9.199210166931152,1.5395221710205078,-0.94959,-0.74067414,15
-4.984814643859863,-1.0523117780685425,-8.806702613830566,1.5228309631347656,-1.2205088,-0.91507614,15
-5.031953811645508,-1.4161652326583862,-8.57762622833252,1.4600602388381958,-1.5204436,-1.2852604,15
-4.915217399597168,-1.6870054006576538,-8.296760559082031,1.3388465642929075,-1.8442022,-1.4914275,15
-4.7414889335632315,-1.9259492158889768,-7.842959880828857,1.186542510986328,-1.9449949,-1.4929546,15
-4.580946922302246,-2.141420125961304,-7.488271236419678,1.0239930152893066,-1.8661933,-1.5534303,15
-4.473069667816162,-2.442850112915039,-7.304718494415282,0.8923491835594177,-1.2211196000000002,-1.5155567,15
-4.389806270599365,-2.9183568954467773,-7.082175731658936,0.8310820460319519,-0.6976081000000001,-1.235475,15
-4.251223564147948,-3.416506290435791,-6.743210315704347,0.7974029183387756,-0.68569624,-1.0577132,15
-4.104264259338379,-3.691516399383545,-6.4088897705078125,0.7708544731140137,-0.41813725,-0.9233228,15
-3.9965763092041016,-3.9590094089508057,-6.2691712379455575,0.7548372745513916,-0.3921755,-0.82924956,15
-3.7545261383056636,-4.327866077423097,-6.2228193283081055,0.7287593483924866,-0.06780604,-0.65148777,15
-3.5161724090576167,-4.6532020568847665,-5.947141647338867,0.6652660369873047,-0.08063421400000001,-0.51068336,15
-3.303769826889038,-5.0228538513183585,-5.530721187591553,0.580410361289978,-0.09193522,-0.16065755,15
-3.1154477596282963,-5.467024803161621,-5.153351306915283,0.4697501361370087,0.062002823,0.2049453,15
-2.976862668991089,-5.892703533172607,-4.747182369232178,0.3430667519569397,0.14905111,0.44898596,15
-2.937633991241455,-6.197041988372803,-4.305321216583252,0.19907796382904053,0.31673363,0.5879578000000001,15
-2.9658603668212886,-6.32289981842041,-3.871119499206543,0.025600079447031018,0.28069258,0.6041456999999999,15
-3.1142303943634038,-6.320901870727539,-3.602791309356689,-0.1776539981365204,0.12583824,0.6017023,15
-3.4665255546569824,-6.2433223724365225,-3.62689471244812,-0.4377188980579376,0.08307768,0.5946773,15
-4.0186405181884775,-6.08556604385376,-3.8750979900360103,-0.7510253190994263,0.09865474,0.4633413,15
-4.614867687225342,-5.787304878234862,-4.280720233917236,-1.0471705198287964,0.032986723,0.30207285,15
-5.146944999694824,-5.367891788482666,-4.884896755218506,-1.3017123937606812,0.18997909,0.27275133,15
-5.507609844207764,-4.910114765167236,-5.515680313110352,-1.5094947814941406,0.312763,0.31520647,15
-5.7162132263183585,-4.41584062576294,-6.1984291076660165,-1.6744719743728638,0.40225476,0.48258355,15
-5.7745361328125,-3.9150478839874263,-6.923369884490968,-1.7581013441085815,0.49877146,0.6093381,15
-5.704668998718263,-3.472487449645996,-7.66554594039917,-1.74952232837677,0.83260936,0.5143485,15
-5.611166000366211,-3.051278829574585,-8.223787307739258,-1.6522456407546997,0.79381937,0.44623706,15
-5.496424674987793,-2.6224091053009038,-8.59160041809082,-1.5320407152175903,0.6881397,0.44898596,15
-5.390230655670166,-2.3632752895355225,-8.840741157531738,-1.3795520067214966,0.57757306,0.33108896,15
-5.201298236846924,-2.065075159072876,-9.012505531311037,-1.1884324550628662,-0.069027774,0.11148291,15
-4.89457368850708,-1.6462163925170898,-9.615630149841307,-0.9560726284980774,0.2519819,0.19211712,15
-4.621527671813965,-1.1723922491073608,-10.028579711914062,-0.7152049541473389,0.25137106,0.20158553,15
-4.335307121276856,-0.8058244585990906,-10.092569351196287,-0.5770858526229858,0.02076942,0.043676864,15
-3.948432922363281,-0.6632299423217773,-10.140151977539062,-0.4045988619327545,-0.15760323,0.07513642,15
-3.779086828231812,-0.4782431125640869,-9.90467643737793,-0.2271205931901932,-0.16157386,0.06963864,15
-3.929407119750977,-0.16157667338848114,-9.362387657165527,-0.1376286894083023,-0.069027774,0.24251351,15
-4.273274421691895,0.02572518214583397,-8.84800910949707,-0.0600685216486454,0.115453534,0.3622431,15
-4.672449588775635,-0.015912408009171486,-8.409952163696289,0.003646661993116141,-0.039095376,0.33078352,15
-5.080278396606445,-0.3001197874546051,-8.25411319732666,0.04462219029664993,-0.030848695,0.36865717,15
-5.418751239776611,-0.692599892616272,-8.338576316833496,0.08289505541324615,0.10751228,0.35155296,15
-5.6885313987731925,-1.1097087860107422,-8.505454063415527,0.10170543938875197,0.14844026,0.30726522,15
-5.851896286010742,-1.5053802728652954,-8.675440788269043,0.10789605975151062,0.22296582,0.20830505,15
-5.889358997344972,-1.84900975227356,-8.730222702026367,0.10506252944469452,0.21563543,0.17134771,15
-5.78716516494751,-2.0406959056854252,-8.721088409423826,0.0896032527089119,0.35338554,0.25045475,15
-5.46275520324707,-2.16471529006958,-8.669187545776367,0.09212856739759444,0.15851954,0.18173242,15
-5.130777835845947,-2.224256992340088,-8.610241889953612,0.05493704602122307,-0.023518313,0.14905111,15
-4.907218456268311,-2.2109215259552,-8.627365112304688,0.003993862308561802,0.013439035,0.17012598,15
-4.807572841644287,-2.1012275218963623,-8.65245532989502,-0.03578997775912285,-0.26450464,0.21105394,15
-4.841501712799072,-1.9493391513824463,-8.732088088989258,-0.07371040433645247,0.016187929,0.3036,15
-4.891448497772217,-1.7489454746246338,-8.766656875610353,-0.06531111896038055,0.29046643,0.3032946,15
-4.821174144744873,-1.5150716304779053,-8.596857070922853,-0.060609664767980576,-0.57879484,0.1020145,15
-4.6605801582336435,-1.3465675115585327,-8.382205963134767,-0.12462346255779265,-1.1618657,-0.10048734,15
-4.548259258270264,-1.1118124723434448,-8.339695930480957,-0.2854125201702118,-1.1749994,-0.2919936,15
-4.60288667678833,-0.9486340880393982,-8.408601760864258,-0.31971800327301025,-0.12064589,-0.038179077,15
-4.706141471862793,-0.8790822625160217,-8.384910583496094,-0.2388119697570801,0.103847094,0.10476339,15
-4.750783920288086,-0.7787187099456787,-8.494559288024902,-0.11187179386615753,0.9755518,0.13622294,15
-4.800294399261475,-0.6953437924385071,-8.685097694396973,0.1443444937467575,1.8640553,0.12767084,15
-4.886387825012207,-0.7117602229118347,-8.813019752502441,0.4311041235923767,2.3194554,0.15332718,15
-4.967512607574463,-0.8646092414855957,-8.798247337341309,0.6571149826049805,2.368019,0.116675265,15
-5.056676864624023,-1.0446951389312744,-8.676595687866211,0.8204800486564636,1.8035797,0.01985312,15
-4.988391399383545,-1.387908935546875,-8.354691505432129,0.8462227582931519,0.7593055000000001,-0.0290161,15
-4.747076988220215,-1.8497470617294312,-8.204388618469237,0.7480547428131104,0.09010262,0.043676864,15
-4.499558925628662,-2.180854797363281,-8.266780853271483,0.5934178233146667,-0.19394971,0.116675265,15
-4.349446296691895,-2.3321762084960938,-8.367892265319824,0.4370131492614746,-0.26358834,0.10995574,15
-4.2415075302124015,-2.3680965900421143,-8.478222846984862,0.3016914129257202,-0.26358834,0.11178834,15
-4.1321120262146005,-2.3573338985443115,-8.602781295776367,0.1958053708076477,-0.25503623,0.10903945,15
-4.020368576049806,-2.330430269241333,-8.694463729858397,0.11309193819761275,-0.26358834,0.09468412,8
-3.941920518875122,-2.264664649963379,-8.743895530700684,0.0485653355717659,-0.21899518,0.07238753,8
-3.902353763580322,-2.166851043701172,-8.767115592956543,0.00970464013516903,-0.108123146,0.05375614,8
-3.889947891235352,-2.077109098434448,-8.773414611816406,-0.005297791212797165,-0.035430185,0.033292156,8
-3.8969821929931636,-2.0114271640777592,-8.774765968322754,-0.00924593582749367,-0.016493361,0.018020526,8
-3.914576530456543,-1.963183045387268,-8.77903938293457,-0.01338021457195282,-0.016187929,0.024129177,8
-3.9297940731048575,-1.9244576692581177,-8.775084495544434,-0.016907934099435806,-0.07360926,0.0290161,8
-3.9323701858520512,-1.918500661849976,-8.788949012756348,-0.02681962214410305,-0.15332718,0.046731193,8
-3.930027961730957,-1.9349633455276491,-8.81256103515625,-0.03756503015756607,-0.16218472,0.038179077,8
-3.935241222381592,-1.9633708000183103,-8.830056190490723,-0.045967690646648414,-0.12736541,0.035124752999999995,8
-3.938462734222412,-2.0024774074554443,-8.840923309326172,-0.05223161354660988,-0.13041973,0.028405234,8
-3.939343452453613,-2.0398073196411133,-8.840572357177734,-0.05722274631261825,-0.1282817,0.032375857,8
-3.9445390701293945,-2.0652966499328613,-8.834680557250977,-0.0634211078286171,-0.14844026,0.030848695,8
-3.9579496383666988,-2.091540575027466,-8.84415340423584,-0.0697760060429573,-0.081855945,0.029932396,8
-3.986304759979248,-2.0844259262084956,-8.840057373046875,-0.06905760616064073,-0.06169739,0.03359759,8
-4.022791385650635,-2.0556654930114746,-8.829756736755371,-0.06466393917798996,-0.047036625,0.030543262,8
-4.061102390289307,-2.0220596790313716,-8.822982788085938,-0.06001293286681175,-0.03940081,0.02076942,8
-4.0961432456970215,-1.9848812818527224,-8.817288398742676,-0.05585553869605064,-0.048563786,0.011911872,8
-4.110246658325194,-1.9417393207550049,-8.814702987670898,-0.05219914764165878,-0.029626964,0.0125227375,8
-4.109976291656493,-1.8957988023757932,-8.814522743225098,-0.04508746415376663,-0.0076358155,0.0067195175,8
-4.1071133613586435,-1.8664054870605469,-8.814370155334473,-0.035587046295404434,0.025350908,0.005497787,8
-4.090628147125243,-1.858275771141052,-8.81857681274414,-0.027479691430926326,0.042455133,-0.003970624,8
-4.076696872711182,-1.858561873435974,-8.824066162109375,-0.021542033180594444,0.027488936,-0.009773844,8
-4.085977077484132,-1.8692020177841189,-8.833322525024414,-0.01316937617957592,0.05925392700000001,-0.006414085,8
-4.114272594451903,-1.8856130838394165,-8.836606979370117,-0.00196429225616157,0.053145275,-0.012217305,8
-4.138503551483153,-1.9038332700729368,-8.831563949584961,0.002791737439110875,0.025961773,-0.016187929,8
-4.139468193054198,-1.9345252513885496,-8.823410987854004,0.0028323379810899496,0.004581489,-0.012217305,8
-4.125547409057616,-1.9635144472122192,-8.822060585021973,-0.0009825206361711023,-0.022907447,-0.006414085,8
-4.099706172943115,-1.9854736328125,-8.812786102294922,-0.00779480952769518,-0.030543262,0.009162978,8
-4.062389850616455,-2.0000433921813965,-8.811500549316406,-0.014385941438376904,-0.026267206,0.0067195175,8
-4.025627136230469,-1.992560625076294,-8.809955596923828,-0.01663094200193882,-0.043982297,-0.0018325958,8
-3.997902631759644,-1.9797784090042116,-8.812560081481934,-0.02016432210803032,-0.04520403,0.0070249503,8
-3.9804749488830566,-1.9667534828186035,-8.823325157165527,-0.022908341139554974,-0.03848451,0.015577064,8
-3.9780254364013667,-1.9512523412704468,-8.820917129516602,-0.02180568315088749,-0.013744468,0.019547688,8
-3.9947118759155273,-1.9290413856506348,-8.810808181762695,-0.019437164068222046,-0.0033597588,0.022602014,8
-4.022116184234618,-1.9205278158187864,-8.805882453918457,-0.017326019704341892,-0.027794369,0.030848695,8
-4.0637264251708975,-1.9169516563415527,-8.804110527038574,-0.01829681359231472,-0.044593163,0.039095376,8
-4.109462261199951,-1.913774847984314,-8.809525489807129,-0.022018540650606155,-0.03940081,0.034513887,8
-4.140625953674316,-1.9130392074584959,-8.810834884643555,-0.02381500788033009,-0.032375857,0.021380283,8
-4.1652255058288565,-1.9109727144241333,-8.809894561767578,-0.023129602894186974,-0.008246681,0.023518313,8
-4.183222770690918,-1.9089738130569456,-8.806281089782715,-0.0224514901638031,0.004581489,0.007941248,8
-4.187032222747804,-1.8983216285705569,-8.811515808105469,-0.020093634724617004,0.004276057,-0.007330383,8
-4.1838293075561515,-1.8835151195526123,-8.813881874084473,-0.019221900030970573,0.00580322,-0.01282817,8
-4.172224998474121,-1.8765738010406492,-8.814428329467773,-0.017154444009065628,0.0076358155,-0.018020526,8
-4.155351161956787,-1.8734596967697144,-8.815571784973145,-0.01370976213365793,0.0076358155,-0.021685716,8
-4.139311790466309,-1.8751126527786253,-8.813791275024414,-0.010971843264997005,0.01038471,-0.018325957,8
-4.115598201751709,-1.8807865381240845,-8.807042121887207,-0.009806016460061072,-0.005497787,-0.021380283,8
-4.0942111015319815,-1.8808977603912356,-8.795379638671875,-0.010913163423538208,-0.016798794,-0.0076358155,8
-4.0811100006103525,-1.8956046104431152,-8.794154167175293,-0.012624705210328102,-0.006414085,0.002443461,8
-4.072817325592041,-1.9063374996185305,-8.793654441833496,-0.014281054958701134,-0.00061086525,-0.0027488936,8
-4.072361469268799,-1.9138346910476685,-8.796234130859375,-0.01482322718948126,-0.0036651916,0.00580322,8
-4.076115608215332,-1.9104166030883791,-8.799477577209473,-0.015105188824236391,-0.01038471,0.013133603,8
-4.081549644470215,-1.9019391536712649,-8.807269096374512,-0.014583815820515156,-0.00580322,0.023518313,8
-4.088705062866212,-1.899902582168579,-8.815895080566406,-0.015284723602235315,-0.00030543262000000003,0.025045475,8
-4.0984177589416495,-1.897946834564209,-8.822827339172363,-0.01336365845054388,-0.006414085,0.028099801,8
-4.116443634033203,-1.8938004970550537,-8.824597358703613,-0.013337584212422373,-0.02321288,0.021685716,8
-4.130199909210205,-1.8808608055114744,-8.829010963439941,-0.013144908472895622,0.0018325958,0.021991149,8
-4.134446144104004,-1.87248170375824,-8.831010818481445,-0.010071833617985249,0.021991149,0.013133603,8
-4.1393489837646475,-1.875171899795532,-8.824756622314453,-0.005779851693660021,0.026267206,0.017104227,8
-4.147430419921875,-1.88072669506073,-8.824135780334473,-0.0038176805246621366,0.006414085,0.005497787,8
-4.1499924659728995,-1.881216287612915,-8.827381134033203,-0.004577208310365678,-0.004886922,-0.004886922,8
-4.146230220794679,-1.8881540298461916,-8.826618194580078,-0.004910717718303204,-0.0036651916,-0.009773844,8
-4.138406276702882,-1.888144969940185,-8.824037551879883,-0.006941866595298053,-0.004886922,-0.008246681,8
-4.1361045837402335,-1.8857660293579104,-8.826664924621582,-0.008266636170446873,-0.0030543262,-0.01282817,8
-4.140882015228272,-1.8879858255386357,-8.828645706176758,-0.011563283391296864,-0.014660766,-0.017715093,8
-4.141920566558838,-1.9002847671508791,-8.828904151916504,-0.012916448526084423,-0.013744468,-0.0070249503,8
-4.131100654602052,-1.9137537479400637,-8.824554443359375,-0.014211080968379974,-0.016798794,-0.005192355,8
-4.12037992477417,-1.918008804321289,-8.81563663482666,-0.013349222019314766,-0.014049901000000002,0.0033597588,8
-4.119005203247069,-1.912197947502136,-8.804707527160645,-0.014698944054543972,-0.024740042,0.005192355,8
-4.123424053192139,-1.901068925857544,-8.79913330078125,-0.017716918140649796,-0.023823744,0.018936822,8
-4.122701168060304,-1.8845229148864744,-8.796250343322754,-0.020627031102776527,-0.022907447,0.011911872,8
-4.115678310394287,-1.8764204978942869,-8.794716835021973,-0.02132253721356392,-0.006414085,0.014049901000000002,8
-4.107470512390137,-1.8753358125686648,-8.787424087524414,-0.019929239526391033,0.0018325958,0.004276057,8
-4.1107258796691895,-1.8716062307357788,-8.781219482421875,-0.017231352627277374,0.0033597588,0.006414085,8
-4.12041711807251,-1.8683379888534544,-8.783102989196777,-0.012745953164994715,0.027488936,0.004581489,8
-4.125749111175537,-1.8722060918807983,-8.784905433654785,-0.006744121666997671,0.030543262,-0.003970624,8
-4.128280162811278,-1.88665783405304,-8.778517723083496,0.0010660667903721333,0.015882496,-0.002443461,8
-4.1372270584106445,-1.905667304992676,-8.781972885131836,0.00255737011320889,0.004276057,-0.00580322,8
-4.157072067260741,-1.91610324382782,-8.797667503356934,6.734423368470743e-05,0.0061086523,-0.009162978,8
-4.171077251434326,-1.9056788682937624,-8.82038402557373,-0.005347839556634426,-0.011911872,-0.003970624,8
-4.17108964920044,-1.8897020816802976,-8.826778411865234,-0.012610381469130516,-0.01985312,-0.015271631,8
-4.164672374725342,-1.8830575942993164,-8.812527656555176,-0.017630048096179962,-0.02687807,-0.013439035,8
-4.1368932723999015,-1.8907101154327397,-8.798055648803711,-0.022398604080080986,-0.045814894,-0.008552114,8
