acc_x,acc_y,acc_z,gyro_x,gyro_y,gyro_z,label
0.0,0.0,0.0,0.0,-0.004886922,0.0067195175,1
0.049838818609714515,-0.280185341835022,-0.02556765824556351,-0.0013948235427960751,-0.010690141499999998,0.0061086523,1
0.16930796205997467,-0.9477837085723876,-0.09305673837661743,-0.004772205371409655,-0.013133603,0.009468411,1
0.33562064170837397,-1.8709094524383545,-0.196586936712265,-0.00907654594630003,-0.02076942,0.0021380284,1
0.5231274962425232,-2.9037153720855717,-0.32553553581237793,-0.01333213597536087,-0.026267206,0.0021380284,1
0.7109335660934448,-3.9289934635162354,-0.4687843024730682,-0.017296891659498215,-0.016493361,0.00580322,1
0.8856835365295409,-4.873235702514648,-0.6170655488967896,-0.021135410293936733,-0.015882496,0.006414085,1
1.0408873558044434,-5.70149040222168,-0.764692485332489,-0.024971036240458492,-0.016798794,-0.0009162979,1
1.1747288703918457,-6.40516996383667,-0.9082428812980652,-0.02845863811671734,-0.013744468,0.009162978,1
1.2881087064743042,-6.9905290603637695,-1.0463461875915527,-0.03189072012901306,-0.0143553335,0.002443461,1
1.383177638053894,-7.470679759979247,-1.1785372495651243,-0.03105934523046017,0.021685716,0.009162978,1
1.4625219106674194,-7.8607845306396475,-1.3051892518997192,-0.024402953684329987,0.04917465,0.008857545999999999,1
1.5286829471588137,-8.175606727600098,-1.426872968673706,-0.009108941070735456,0.08002335,-0.006414085,1
1.5839498043060305,-8.428406715393066,-1.544161081314087,0.012877826578915121,0.15241088,-0.01282817,1
1.6303173303604126,-8.630562782287598,-1.6578271389007568,0.0478479340672493,0.14660765,-0.040011674,1
1.6694419384002686,-8.791622161865233,-1.7683587074279783,0.09173651039600372,0.18173242,-0.043982297,1
1.7027074098587036,-8.919445991516113,-1.8763399124145508,0.13929471373558044,0.30757064,-0.036957346,1
1.7312455177307131,-9.020455360412598,-1.9822615385055544,0.18285809457302094,0.5213734999999999,-0.036957346,1
1.7559862136840818,-9.099852561950684,-2.0866384506225586,0.21765613555908206,0.68233645,-0.027794369,1
1.7806339263916016,-9.162046432495117,-2.189523696899414,0.24010442197322845,0.8249735,-0.05772676700000001,1
1.8441888093948364,-9.212398529052734,-2.2926063537597656,0.2612631618976593,0.9935723,-0.12461651,1
1.95003354549408,-9.25379753112793,-2.3962061405181885,0.2926270365715027,1.1792754,-0.20830505,1
2.0902669429779053,-9.288006782531738,-2.5003738403320312,0.3256948888301849,1.319469,-0.2764165,1
2.257132768630981,-9.316423416137695,-2.6046183109283447,0.35217615962028503,1.4697418,-0.34422258,1
2.445986270904541,-9.340195655822754,-2.70914888381958,0.3670151829719544,1.6994271,-0.40469822,1
2.6527698040008545,-9.360241889953613,-2.814009666442871,0.3691557049751282,2.0357084,-0.4370741,1
2.8732564449310303,-9.377283096313477,-2.918869972229004,0.3634617924690247,2.3090706,-0.38606682,1
3.10521936416626,-9.39191722869873,-3.0239074230194087,0.3350110054016113,2.669481,-0.16737708,1
3.3462302684783936,-9.40461540222168,-3.1290225982666016,0.2635093927383423,2.8136454,-0.32253686,1
3.5875911712646484,-9.412663459777832,-3.2238147258758545,0.18163152039051056,2.8185322,-0.623388,1
3.742866516113281,-9.37946891784668,-3.1836156845092773,0.12953603267669678,2.8527408,-0.8393288000000001,1
3.807061195373535,-9.303550720214844,-3.0026216506958012,0.0906241163611412,2.4199426,-1.063211,1
3.798094987869263,-9.193315505981444,-2.7085351943969727,0.10000772029161452,1.5619823999999998,-1.0833695,1
3.7303698062896733,-9.055521011352539,-2.3236279487609863,0.0742817148566246,0.71959925,-0.86345804,1
3.6147756576538086,-8.89504337310791,-1.8641220331192017,-0.02737552300095558,1.1288790000000002,-0.4877759,1
3.46221137046814,-8.717552185058594,-1.3483330011367798,-0.09580908715724944,1.46852,-0.102319926,1
3.2791757583618164,-8.525764465332031,-0.7854315042495728,-0.12526969611644745,1.7266107,0.103847094,1
3.071622610092163,-8.322457313537598,-0.1845850795507431,-0.1426442414522171,2.2656991,-0.009468411,1
2.8439426422119136,-8.109548568725586,0.44780296087265015,-0.21042479574680328,2.8023443,-0.20738874,1
2.606951713562012,-7.894309997558594,1.0902265310287476,-0.3559638261795044,2.2018638,-0.40225476,1
2.4406874179840092,-7.738228321075439,1.5692811012268066,-0.5004867911338806,1.784032,-0.59773165,1
2.3539209365844727,-7.647378444671631,1.8673058748245241,-0.5885605216026306,0.9263771,-0.8454375,1
2.3311150074005127,-7.609002113342285,2.0197253227233887,-0.5751761198043823,-0.24709499,-0.8063421,1
2.3596785068511963,-7.612770080566406,2.0551998615264893,-0.4868867099285126,-0.6200281999999999,-0.7153232,1
2.4296278953552246,-7.650482654571532,1.9965081214904783,-0.3823547661304474,0.40775254,-0.70371675,1
2.532830715179444,-7.715467929840088,1.8621591329574585,-0.2441387474536896,1.0491611,-0.62888575,1
2.6624228954315186,-7.802122592926025,1.6676334142684937,-0.19663353264331815,0.14355333,-0.4373795,1
2.813349485397339,-7.906285762786865,1.424516677856445,-0.30892428755760193,0.11453723,-0.21135938,1
2.9812107086181636,-8.024362564086914,1.142743706703186,-0.4059111773967743,0.5177083,-0.11209377,1
3.1624317169189453,-8.151127815246582,0.8321906924247742,-0.4921960234642029,0.9831876,-0.009468411,1
3.348974227905273,-8.252989768981934,0.5305317044258118,-0.5516805052757263,1.1615603,0.20280726,1
3.5383222103118896,-8.326574325561522,0.2444076687097549,-0.5808737277984619,1.5519031,0.32314770000000004,1
3.7300298213958736,-8.377422332763674,-0.029355034232139587,-0.6341971755027771,1.5070046,0.45540005,1
3.923481702804565,-8.410039901733397,-0.2930205762386322,-0.6823183298110962,1.4538593,0.7189884,1
4.118854999542236,-8.42790412902832,-0.5491526126861572,-0.7344468832015991,1.6551393,0.6835581999999999,1
4.31481409072876,-8.434117317199707,-0.7981709241867065,-0.8043844103813171,1.5351044,0.5381723,1
4.511687755584717,-8.430877685546875,-1.0419673919677734,-0.8488302230834961,1.2544118,0.60903263,1
4.7093610763549805,-8.420031547546388,-1.2816412448883057,-0.8849456310272217,0.6609562,0.5674938,1
4.908000946044922,-8.403008460998535,-1.5183632373809814,-0.8886258602142334,0.23854288,0.04428773,1
5.103316783905028,-8.381899833679201,-1.7483525276184082,-0.8518507480621338,1.0005972,-0.14721853,1
5.241899013519287,-8.369125366210938,-1.915952563285828,-0.7970497012138367,1.8353447,0.05375614,1
5.316564083099365,-8.366989135742188,-2.0141160488128658,-0.7992134094238281,2.6374106,0.35246924,1
5.340445518493652,-8.373272895812987,-2.057058811187744,-0.8097619414329529,2.5265386000000003,0.46700647,1
5.323296070098877,-8.386374473571777,-2.055407762527466,-0.8170976638793945,2.3017402,0.5222898,1
5.273050308227539,-8.404982566833496,-2.0177996158599854,-0.8782444000244141,2.0195205,0.7113526,1
5.196387767791748,-8.427975654602049,-1.951475977897644,-0.943813145160675,1.4633276000000002,0.53023106,15
5.098471164703369,-8.454498291015625,-1.862051010131836,-0.9545433521270752,1.174083,0.25320363,15
4.983410835266113,-8.48387336730957,-1.753999948501587,-0.9307594299316406,1.1917981000000002,0.14477506,15
4.854681015014648,-8.51551628112793,-1.6310880184173584,-0.913524568080902,1.4318681,0.16676621,15
4.714086055755615,-8.553000450134277,-1.495226263999939,-0.8899511098861694,2.6920831,0.37110063,15
4.533460140228272,-8.692082405090332,-1.3328008651733398,-0.8759487867355347,3.3194418,0.39370266,15
4.317347049713135,-8.984200477600098,-1.197948932647705,-0.8883151412010193,3.359148,0.32589662,15
3.8944323062896733,-9.30136013031006,-1.0894236564636228,-0.8828524351119995,2.805704,0.042760565999999986,15
3.1416044235229488,-9.474200248718262,-1.0289330482482908,-0.8514546751976013,2.434298,-0.031154128,15
2.207281351089477,-9.547107696533203,-0.8536020517349243,-0.8013630509376526,2.3631322,0.055588737,15
1.463131308555603,-9.569375991821287,-0.6070314645767212,-0.7566482424736023,2.2947154,0.16096300000000002,15
1.0454376935958862,-9.574759483337402,-0.2972184121608734,-0.7079064249992371,2.010663,0.15424347,15
0.8104844689369202,-9.588812828063963,0.05182310193777085,-0.6625277400016785,1.6352862,0.124311075,15
0.6405008435249329,-9.596306800842283,0.4274877607822418,-0.6249771118164062,1.2901474,0.112399206,15
0.4332561492919922,-9.580692291259766,0.7645986080169678,-0.6043372750282288,0.9999864,0.08002335,15
0.18827657401561734,-9.54145336151123,1.0208581686019895,-0.5959807634353638,0.7302894,0.07299839999999999,15
-0.11246343702077866,-9.497820854187012,1.316357970237732,-0.583626389503479,0.33169982,0.003970624,15
-0.3325095772743225,-9.511839866638184,1.6382976770401,-0.5580393075942993,0.3210097,-0.04642576,15
-0.30604469776153564,-9.647581100463867,1.8368691205978396,-0.5203965306282043,0.7104363,-0.0027488936,15
-0.10749974101781844,-9.853864669799805,1.7862221002578735,-0.4501502811908722,0.9975429,0.13530666,15
0.20473679900169373,-9.88815212249756,1.4653875827789309,-0.3350399136543274,1.1230757,0.15424347,15
0.6106234192848206,-9.849076271057127,0.8995714783668518,-0.14559206366539,1.1484267,0.18600847,15
1.0404182672500608,-10.046305656433104,0.15771609544754028,0.1168242171406746,1.6029103999999998,0.24251351,15
1.4158729314804075,-10.4569091796875,-0.41879379749298096,0.40855154395103455,2.2269092,0.3567453,15
1.7674466371536257,-11.182696342468262,-0.4955345094203949,0.7523511052131653,2.4281893,0.43585235,15
2.194891452789306,-11.91273307800293,0.09276140481233597,1.1582680940628052,1.2400563999999998,0.70616025,15
2.569341897964477,-12.51748752593994,0.3682184517383576,1.5559625625610352,0.06169739,0.7800749,15
2.792567491531372,-12.988011360168455,-0.06702026724815369,2.0202999114990234,0.80481493,1.0916162,15
2.8551013469696045,-13.131876945495605,0.3305721879005432,2.515950918197632,0.29993483,1.2605205,15
2.719853401184082,-13.279897689819336,1.1901345252990725,2.806291103363037,-1.1160508,1.176221,15
2.39246129989624,-13.4369478225708,1.4501603841781616,2.964003562927246,-1.3542882,1.1453723999999998,15
2.1647005081176762,-13.378125190734865,1.3412243127822876,3.1225085258483887,-1.9624046,1.1178834,15
2.191027402877808,-12.768991470336914,1.4455885887145996,3.4083502292633057,-2.9410107000000005,0.6438520000000001,15
2.389268398284912,-11.70062255859375,1.94124174118042,3.65352463722229,-2.1523838,0.36987892,15
2.4174184799194336,-10.62027645111084,2.4307398796081543,3.7840070724487305,-1.0955868,0.312763,15
2.243740558624268,-9.51222324371338,2.9642057418823238,3.858713388442993,-1.1288790000000002,0.021685716,15
2.1449744701385502,-8.898238182067871,3.57608962059021,3.873846530914306,-1.38025,0.26083946,15
1.9820876121521,-8.088094711303711,4.039012432098389,3.8021061420440674,-1.6316211,0.09468412,15
1.8885166645050049,-7.085159778594972,4.306062698364259,3.643069505691528,-1.8891008,0.029932396,15
1.8463881015777588,-5.979799747467041,4.465681076049805,3.403104543685913,-1.8570304,0.06597344599999999,15
1.8372348546981807,-4.899168014526367,4.595081806182861,3.0822227001190186,-1.5482379,0.24129178,15
1.8794312477111816,-3.8572518825531006,4.678351402282715,2.692268848419189,-1.2589933,0.40653083,15
1.990198254585266,-2.877098798751831,4.741007328033447,2.245448589324951,-1.0650436,0.5500841999999999,15
2.0983383655548096,-2.0491063594818115,4.786316871643066,1.7731993198394775,-1.0338894,0.6658430999999999,15
2.1844635009765625,-1.3499718904495241,4.8843183517456055,1.3009343147277832,-0.90316427,0.71776664,15
2.288576602935791,-0.7813195586204529,5.089284420013428,0.8349798917770386,-0.82527894,0.79320854,15
2.4026269912719727,-0.43839263916015625,5.330753803253174,0.3854139149188995,-0.68386364,0.8921687,15
2.533207416534424,-0.4280109107494354,5.518284797668457,-0.041101034730672836,-0.52748215,1.0968086,15
2.610919713973999,-0.7512690424919128,5.638131618499756,-0.4320259988307953,-0.46975538,1.3240504,15
2.6317174434661865,-1.3804062604904177,5.732494831085205,-0.7481996417045593,-0.63041294,1.4727961,15
2.5991642475128174,-2.2208330631256104,5.753518104553223,-0.9764115810394288,-0.7305948,1.5491543,15
2.5942699909210205,-3.0408005714416504,5.6857051849365225,-1.1226212978363037,-0.7901541999999999,1.5375478,15
2.709004163742065,-3.7076387405395512,5.571021556854248,-1.201413631439209,-0.99112886,1.4236214,15
3.0121138095855717,-4.147589683532715,5.455468654632568,-1.2373154163360596,-1.459968,1.3057245000000002,15
3.2914247512817383,-4.42602014541626,5.3090248107910165,-1.2352471351623535,-1.649947,1.0274754,15
3.3633742332458496,-4.7397727966308585,4.9989352226257315,-1.1430829763412476,-1.1481212,0.7476991,15
3.4905319213867188,-5.171050071716309,4.47576904296875,-0.9987265467643738,-0.43035457,0.59895337,15
3.9386839866638175,-5.6943182945251465,4.077874183654785,-0.8236204981803894,-0.5296202,0.5467244000000001,15
4.2908573150634775,-6.0897865295410165,3.8993170261383057,-0.6055893898010254,-0.27855456,0.6395759,15
4.134622097015382,-6.783473491668701,4.19547700881958,-0.3235629200935364,1.1304061,1.3106114,15
3.0145716667175293,-8.539631843566895,4.753089904785156,0.13792303204536438,3.07815,2.9379563,15
2.3615076541900635,-8.530980110168457,5.07445240020752,0.3929173350334168,-1.0219775,1.7767016,15
2.593193769454956,-7.440715312957764,5.47620153427124,0.6006625890731812,-1.5125023000000002,0.6783658,15
2.4089741706848145,-6.542391777038574,5.122507095336914,0.8588386178016663,0.8713993,1.1808025,15
2.1414320468902592,-6.5961432456970215,5.066198348999023,0.998126983642578,-0.077579886,1.0219775,15
1.9819884300231931,-7.103293895721436,5.262083053588867,1.1277462244033811,-0.15454891,1.0961976999999998,15
1.9790198802948,-7.425952434539795,5.6309919357299805,1.2533084154129028,-0.24953845,1.1933253,15
2.0997352600097656,-7.370409965515138,5.86074161529541,1.3351099491119385,-0.3203988,1.2180653,15
2.166625022888184,-7.1196961402893075,5.970371723175049,1.3869900703430176,-0.022907447,1.2269229,15
2.218782901763916,-6.8617095947265625,6.214035987854004,1.4408935308456419,0.1518,1.162782,15
2.2519643306732178,-6.714370250701903,6.534672737121582,1.4698333740234375,0.30787608,1.187522,15
2.2785913944244385,-6.571166515350343,6.825950145721436,1.4806044101715088,0.27122417,1.1820242,15
2.2982409000396733,-6.295501232147218,7.0129499435424805,1.4781839847564695,0.27916542,1.171945,15
2.3517274856567383,-5.983139991760254,7.220341205596924,1.4878002405166626,0.3827071,1.0986412,15
2.426506757736206,-5.682791233062744,7.504806518554687,1.5222691297531128,0.31826079999999995,0.9300423,15
2.3911235332489014,-5.403902530670166,7.704639911651611,1.5642799139022827,0.29168814,0.72326446,15
2.2574450969696045,-5.137141704559326,7.826840400695801,1.6270219087600708,0.22968534,0.5354234,15
2.049426794052124,-4.866276741027832,7.894881725311278,1.7159281969070437,0.11881329,0.30115658,15
1.897972583770752,-4.586002826690674,7.885774612426758,1.823609471321106,0.096516706,0.13194689,15
1.7901173830032349,-4.258913516998291,7.744735240936278,1.9323467016220093,0.23365596,-0.09987647,15
1.7364710569381714,-3.856636285781861,7.453188419342041,2.0356040000915527,0.5119051,-0.27977628,15
1.478251338005066,-3.349193572998047,7.026155948638916,2.126161813735962,0.9062186,-0.38912117,15
1.1323022842407229,-2.847548007965088,6.590468883514403,2.205646753311157,1.210735,-0.51159966,15
0.6877223253250122,-2.349516630172729,6.127840995788574,2.275158643722534,1.7641789,-0.72692966,15
-0.1808730959892273,-1.7118895053863523,6.046267986297607,2.347440242767334,2.0097466,-0.8573494,15
-1.2965043783187866,-0.8893204927444458,6.851286888122559,2.4376025199890137,1.2183707,-0.81061816,15
-2.34014105796814,0.19156408309936526,8.349599838256836,2.504810094833374,0.39767328,-0.76052725,15
-3.1025452613830566,1.4751325845718384,9.81212043762207,2.434723138809204,0.40378192,-0.8891144,15
-3.5499379634857178,2.8553967475891118,10.986599922180176,2.1859943866729736,0.7593055000000001,-0.5326744999999999,15
-3.852698564529419,3.956294298171997,11.646992683410645,1.790181279182434,0.92271197,0.08704830000000001,15
-4.173225402832031,4.501619815826416,11.523544311523438,1.3655794858932495,1.047023,0.44868052,15
-4.542558670043945,4.793875217437744,11.193639755249023,0.9673196077346802,1.0143417,0.77640975,15
-4.84695291519165,4.834518909454347,10.8457670211792,0.6430246829986572,0.79229224,0.8885035,15
-5.0507845878601065,4.686257362365723,10.415190696716307,0.369998037815094,0.55833083,0.71868294,15
-5.138482570648193,4.449050426483153,9.959357261657717,0.1637798696756363,0.40408736,0.5140431,15
-5.0098371505737305,4.145657539367677,9.588349342346193,0.033115752041339874,0.23579398,0.39064834,15
-4.628599643707275,3.807217359542847,9.334815979003906,-0.06565362960100174,0.13591751,0.27458394,15
-4.0910000801086435,3.4211599826812744,9.180571556091307,-0.16942548751831055,0.18387043,0.23762658,15
-3.5567193031311035,3.0231821537017822,9.196422576904297,-0.2674321234226227,0.13530666,0.17684549,15
-3.1555492877960205,2.634039640426636,9.33961296081543,-0.32585355639457697,0.1020145,0.113926366,15
-2.959649085998535,2.251164436340332,9.521442413330078,-0.3380010426044464,0.0888809,0.021685716,15
-2.934706926345825,1.8767334222793581,9.61839485168457,-0.30228039622306824,0.025350908,-0.014660766,15
-2.9635388851165767,1.6024513244628906,9.535896301269533,-0.25346824526786804,0.16126843,-0.004886922,15
-2.974206686019897,1.499626636505127,9.390273094177246,-0.2133401036262512,0.16157386,-0.010995574,15
-2.9638288021087646,1.5153402090072632,9.289717674255373,-0.1910777688026428,0.13255776,-0.029321533,15
-2.9403874874114986,1.5712443590164185,9.30160903930664,-0.17182134091854095,0.11056661,-0.03390302,15
-2.89139986038208,1.6588616371154783,9.330649375915527,-0.15556152164936066,0.13836098,-0.050701816,15
-2.801241636276245,1.753866195678711,9.30918788909912,-0.14507147669792175,0.16279559,-0.023823744,15
-2.6604902744293213,1.8358464241027832,9.29525089263916,-0.14735960960388186,0.34605515,-0.018020526,15
-2.507609367370605,1.821988701820373,9.308469772338867,-0.14930158853530884,0.4550946,-0.015882496,15
-2.430622100830078,1.6186569929122925,9.378396034240724,-0.14729022979736328,0.24984388,-0.03940081,15
-2.437053918838501,1.3453603982925415,9.40984058380127,-0.13834987580776215,0.32986724,0.07696902,15
-2.4800784587860107,1.06322181224823,9.398941040039062,-0.10940532386302948,0.4456262,0.18570304,15
-2.469132900238037,0.8373602628707886,9.305668830871582,-0.06750523298978807,0.5174029,0.25961772,15
-2.473088502883911,0.6130224466323853,9.323016166687012,-0.03442836180329323,0.5458081,0.32314770000000004,15
-2.4653754234313965,0.4308585524559021,9.544349670410156,0.03590909391641617,-0.04795292,0.45265114,15
-2.5512166023254395,0.5044219493865967,9.704719543457033,0.09368819743394853,-0.33200526,0.5549710999999999,15
-2.736319303512573,0.7768779397010803,9.745566368103027,0.09007137268781662,-0.27122417,0.548557,15
-2.9387323856353764,1.2067577838897705,9.615055084228516,0.03635185584425926,-0.06811147,0.5021312,15
-3.1148059368133545,1.6761704683303833,9.41522979736328,-0.019746154546737667,-0.02321288,0.27397305,15
-3.226867198944092,2.0856950283050537,9.190558433532717,-0.06667383760213852,0.060170225999999986,0.011911872,15
-3.2467963695526123,2.418853044509888,8.917021751403809,-0.09287111461162567,-0.045814894,-0.37140608,15
-3.1763479709625244,2.613919258117676,8.598527908325195,-0.0975085273385048,-0.0571159,-0.77579886,15
-3.0925235748291016,2.6539549827575684,8.24395751953125,-0.10178136825561523,0.1328632,-1.1191051,15
-2.959482431411743,2.519634962081909,7.981888771057129,-0.10420174896717073,0.08307768,-1.5216653,15
-2.694808959960937,2.206062793731689,7.834009647369385,-0.10966741293668747,-0.2284636,-2.2049181,15
-2.4976818561553955,1.8401297330856323,7.804396152496338,-0.1333746761083603,-0.21594086,-2.5445592,15
-2.3850550651550293,1.5765730142593384,7.8682861328125,-0.15662135183811188,-0.07269296,-2.6771169,15
-2.313991069793701,1.2158527374267578,8.109102249145508,-0.1601729542016983,-0.03848451,-2.7360654,15
-2.384116172790528,0.7719622254371643,8.467866897583008,-0.14738990366458893,-0.15088372,-2.5549438,15
-2.768419981002808,0.29556047916412354,8.96434211730957,-0.09172110259532927,0.258396,-1.7968601000000002,15
-3.2908000946044917,-0.268069326877594,9.659523963928224,0.05166300013661385,0.2932153,-0.91904676,15
-3.3928225040435787,-0.5011414289474487,10.165422439575195,0.2545177936553955,-0.34819320000000004,-0.9636399,15
-3.1586840152740483,-0.1775638908147812,9.960689544677734,0.38307762145996094,-0.39675698,-1.2757921,15
-2.835290908813477,0.2520304024219513,9.423395156860352,0.3679738640785217,0.11026118,-1.3246613,15
-2.6772711277008057,0.4824123084545136,9.345388412475586,0.2760220766067505,-0.0888809,-1.4040737,15
-2.756481170654297,0.4699555635452271,9.55093479156494,0.2368619292974472,-0.054061573,-1.3274102,15
-2.8764121532440186,0.2586875855922699,9.616745948791504,0.2527170479297638,-0.034513887,-1.2947289,15
-2.945051670074463,0.05034034699201584,9.484554290771484,0.26986411213874817,-0.25259277,-1.3701707,15
-3.0782506465911865,-0.06658823043107986,9.181924819946287,0.287161648273468,-0.27122417,-1.5198327,15
-3.245455026626587,-0.13114513456821442,8.755501747131348,0.2926971316337585,-0.22968534,-1.5525141000000002,15
-3.3249313831329346,-0.16841097176074982,8.403646469116211,0.2822859585285187,-0.04734206,-1.3909402,15
-3.301762819290161,-0.13554394245147705,8.20417594909668,0.26450589299201965,0.1160644,-1.0812315,15
-3.2281758785247803,0.009746027179062366,8.16007137298584,0.23965933918952945,0.31673363,-0.6976081000000001,15
-3.1324265003204346,0.2121865302324295,8.215035438537598,0.21402138471603396,0.48991394,-0.4437936,8
-3.0861380100250244,0.4532011151313782,8.300492286682129,0.19762584567070007,0.59650993,-0.21899518,8
-3.169626951217652,0.6760590076446533,8.38137149810791,0.1744583696126938,0.70432764,-0.011911872,8
-3.3929145336151123,0.8272890448570251,8.427156448364258,0.1272001415491104,0.77182823,0.17592919,8
-3.6214690208435063,0.92674320936203,8.549473762512207,0.059053733944892876,0.77396625,0.3631594,8
-3.833495140075684,0.9391105771064758,8.739239692687987,-0.005704793613404036,0.73273283,0.46120325,8
-4.080665588378906,0.8944788575172424,8.939669609069824,-0.0638771578669548,0.6640105,0.4746423,8
-4.356950759887694,0.8366382718086243,9.048903465270996,-0.1369265764951706,0.5531385,0.37904188,8
-4.652523994445801,0.7610980272293091,9.061579704284668,-0.21551060676574707,0.46853364,0.28710666,8
-4.936943531036377,0.6568607091903687,9.053574562072754,-0.27061358094215393,0.3894266,0.21044308,8
-5.169435501098633,0.5361472964286804,9.039164543151855,-0.2968049347400665,0.3115413,0.076358154,8
-5.316355228424072,0.4138520956039429,8.982000350952148,-0.3081280291080475,0.2947425,-0.062002823,8
-5.379684448242188,0.2901110351085663,8.922342300415039,-0.3058403730392456,0.29077184,-0.18692477,8
-5.39525318145752,0.1995179653167725,8.880741119384766,-0.2890288531780243,0.3463606,-0.30787608,8
-5.381937503814697,0.16101151704788208,8.83359432220459,-0.26491349935531616,0.43066,-0.40591997,8
-5.344747066497803,0.1386559009552002,8.816386222839355,-0.2435091733932495,0.42088616,-0.46303585,8
-5.299360752105713,0.12474365532398225,8.841288566589355,-0.2322938442230225,0.47891834,-0.45173484,8
-5.295777797698975,0.13002130389213562,8.87747573852539,-0.2351927608251572,0.63285637,-0.42210788,8
-5.324555397033691,0.1612619310617447,8.94028091430664,-0.2467985451221466,0.7812967,-0.3735441,8
-5.442139148712158,0.22145222127437592,9.022497177124023,-0.2695270776748657,0.75991637,-0.36468655,8
-5.667879581451416,0.3091987371444702,9.015480041503906,-0.2857796847820282,0.77640975,-0.3436117,8
-5.862898349761963,0.38009071350097656,8.847039222717285,-0.2430945783853531,0.8078693,-0.07727446,8
-5.961191654205322,0.3856591582298279,8.634263038635254,-0.1577681601047516,0.6411031,0.23518312,8
-6.06012773513794,0.26808497309684753,8.470927238464355,-0.06391529738903046,-0.06047566,0.29718593,8
-6.229221820831299,0.15888449549674988,8.280483245849611,0.021529858931899067,-0.6554584,0.18570304,8
-6.155334949493407,0.05217534676194191,7.890019416809082,0.09241284430027008,-0.70249504,0.20219639,8
-5.769759654998778,-0.06124018877744675,7.385935306549072,0.1332245022058487,-0.74372846,0.26389378,8
-5.156929016113281,-0.2509058117866516,6.96774959564209,0.1429312527179718,-0.625526,0.42271876,8
-4.330862522125243,-0.5174975991249084,6.3725032806396475,0.1197407692670822,-0.22540927,0.5103779,8
-3.4934728145599365,-0.9578297138214112,5.795888423919678,0.10743170231580734,-0.13652839,0.4700608,8
-2.905942678451538,-1.4033660888671875,5.548572063446045,0.14005984365940094,-0.4990769000000001,0.45723262,8
-2.6541337966918945,-1.7034722566604614,5.576933860778809,0.222464457154274,-0.7150178,0.49113566,8
-2.79775071144104,-1.802295207977295,5.960026264190674,0.3555234968662262,-0.9673051,0.4886922,8
-3.1977808475494385,-1.7286900281906128,6.754921913146973,0.5277957916259766,-1.169807,0.61819565,8
-3.652254819869995,-1.5464191436767578,7.633552074432372,0.6537062525749207,-0.7987063,0.6704246,8
-4.1279873847961435,-1.1989850997924805,8.400619506835938,0.698614239692688,-0.38331795,0.623388,8
-4.5642662048339835,-0.7387207150459291,9.02078914642334,0.6919348239898682,-0.20830505,0.5216789000000001,8
-4.900158405303955,-0.17486964166164398,9.408711433410645,0.6443007588386536,-0.102319926,0.44684792,8
-5.141632080078125,0.4458242654800415,9.522415161132812,0.570287823677063,0.025045475,0.35705075,8
-5.271628379821777,1.0883710384368896,9.475897789001463,0.4807769954204559,0.073303826,0.29932398,8
-5.272606372833252,1.673051118850708,9.388228416442873,0.3751158118247986,0.00580322,0.2275473,8
-5.168450355529785,2.1287596225738525,9.262702941894533,0.2494654804468155,-0.0021380284,0.122783914,8
-5.025015830993652,2.364369630813598,9.10307502746582,0.12448663264513014,-0.07971791,-0.021380283,8
-4.884863376617432,2.320969581604004,8.957209587097168,0.02201423980295658,-0.14263703,-0.16798794,8
-4.757727146148682,2.1358442306518555,8.816731452941895,-0.06311605870723724,-0.17562376,-0.2489276,8
-4.639735698699951,1.8704682588577268,8.692325592041017,-0.12860025465488434,-0.1151481,-0.3323107,8
-4.530943870544434,1.5711390972137451,8.603314399719237,-0.16968360543251038,-0.08460484,-0.4092797,8
-4.406064033508301,1.2808163166046145,8.561216354370117,-0.18624886870384216,-0.07391469,-0.46120325,8
-4.237376689910889,0.9765108823776244,8.61324405670166,-0.167048379778862,-0.31795537,-0.47647488,8
-4.041896343231201,0.677654504776001,8.677263259887695,-0.10623284429311752,-0.32711834,-0.41874814,8
-3.8216748237609854,0.4739527702331543,8.672069549560549,-0.03137437626719475,-0.087659165,-0.30543262,8
-3.5948085784912114,0.3946778178215027,8.589200019836426,0.020285647362470627,0.084910266,-0.24037547,8
-3.404210090637207,0.4241276383399963,8.498677253723145,0.03318370133638382,0.15485434,-0.2648101,8
-3.275029420852661,0.5246126055717468,8.477922439575195,0.010423875413835049,0.093462385,-0.26358834,8
-3.2502870559692383,0.6505842804908752,8.649944305419924,0.007364538963884115,-0.2764165,-0.20738874,8
-3.305058002471924,0.7661088109016418,8.853530883789062,0.047387447208166115,-0.14844026,-0.10476339,8
-3.4152965545654297,0.8851758241653442,8.95949649810791,0.07224423438310623,0.08827003,-0.04886922,8
-3.546787738800049,1.0463898181915283,8.947916984558105,0.06732925772666931,0.20922135,-0.038789943,8
-3.702910661697388,1.1999802589416504,8.91244125366211,0.042878352105617516,0.19517145,-0.009162978,8
-3.88096284866333,1.2681818008422852,8.882455825805664,0.007413697429001331,0.10781772,-0.02443461,8
-4.037073612213135,1.2530602216720579,8.840872764587402,-0.018650241196155548,0.100792766,-0.027183503,8
-4.1521692276000985,1.1943910121917725,8.768570899963379,-0.047328785061836236,0.124311075,-0.022296581,8
-4.2228851318359375,1.1169438362121582,8.669821739196777,-0.08048731088638306,0.084910266,0.0021380284,8
-4.255119323730469,1.0118495225906372,8.59673023223877,-0.09733668714761734,0.027794369,0.033292156,8
-4.253411769866943,0.8949540853500366,8.566897392272951,-0.09737300127744676,0.036651913,0.079107046,8
-4.2265233993530265,0.8019311428070068,8.556161880493164,-0.09383559226989746,0.035124752999999995,0.07666359,8
-4.184055805206299,0.7400334477424622,8.549003601074219,-0.09131839871406557,0.003970624,0.05589417,8
-4.130322456359863,0.7045288681983948,8.553579330444336,-0.08506352454423904,0.0076358155,0.05131268,8
-4.084207057952882,0.6913137435913086,8.576320648193361,-0.07584206014871597,0.00580322,0.046731193,8
-4.063231468200684,0.6976186037063599,8.600935935974121,-0.0650119036436081,0.0070249503,0.035430185,8
-4.073285102844238,0.7205789089202881,8.611196517944336,-0.05465146899223328,0.01740966,0.009468411,8
-4.118168830871582,0.7784913182258606,8.607993125915527,-0.04526577517390251,0.03145956,0.0009162979,8
-4.186406135559082,0.8247392773628235,8.572384834289549,-0.038874253630638116,0.058643065,-0.017104227,8
-4.2237820625305185,0.8151041269302368,8.50230884552002,-0.059324923902750015,-0.022296581,-0.03268129,8
-4.247732639312743,0.7935781478881836,8.520063400268555,-0.07369305193424225,-0.17592919,-0.032986723,8
