acc_x,acc_y,acc_z,gyro_x,gyro_y,gyro_z,label
0.0,0.0,0.0,0.0,-0.074830994,-0.003970624,1
0.13524088263511658,0.2583371698856354,0.00021290122822392726,-0.0016209742752835155,-0.06291912,-0.003970624,1
0.4573607444763184,0.874503493309021,-0.00048720743507146835,-0.004521414637565614,-0.018325957,0.005192355,1
0.902572214603424,1.7274861335754397,-0.003380967304110527,-0.007533825933933258,-0.0070249503,-0.0030543262,1
1.4004402160644531,2.6830649375915527,-0.00903928279876709,-0.009738851338624954,-0.018936822,0.005192355,1
1.8944005966186523,3.63313102722168,-0.017465494573116302,-0.012283548712730408,-0.018325957,0.0030543262,1
2.3490002155303955,4.509666442871094,-0.02829788066446781,-0.014664785005152225,-0.045814894,-0.0030543262,1
2.747429847717285,5.280205726623535,-0.041058924049139016,-0.017077317461371422,-0.026267206,-0.010079277,1
3.085588216781616,5.93657922744751,-0.055280756205320365,-0.01658323034644127,0.014966198,-0.009162978,1
3.3665370941162114,6.4843692779541025,-0.07058050483465195,-0.013869350776076315,0.02321288,-0.0067195175,1
3.596250295639038,6.936227321624756,-0.08352375775575638,-0.011667471379041672,0.017104227,-0.0067195175,1
3.780430555343628,7.3092079162597665,-0.0799776241183281,-0.010161537677049635,0.00580322,-0.011301007,1
3.9263627529144287,7.6165595054626465,-0.06107675284147264,-0.010903879068791866,-0.012217305,0.00061086525,1
4.040826320648193,7.869743824005128,-0.02977600134909153,-0.012308831326663494,-0.021685716,0.0015271631,1
4.129610538482666,8.078669548034668,0.0115683414041996,-0.012164226733148098,-0.018936822,-0.0009162979,1
4.197563648223877,8.251646041870117,0.06099533662199974,-0.011560864746570587,0.011301007,0.012217305,1
4.248649597167969,8.395571708679201,0.1170441210269928,-0.011161265894770622,0.031154128,0.016493361,1
4.286183834075929,8.515986442565918,0.17818495631217954,-0.012179909273982048,0.024740042,0.021685716,1
4.312792778015137,8.617472648620605,0.2434621751308441,-0.0148665402084589,0.04734206,0.03848451,1
4.330603122711182,8.7037353515625,0.3120999336242676,-0.016115827485919,0.077579886,0.05955936,1
4.3425045013427725,8.778985977172853,0.3765136003494263,-0.01306929159909487,0.08368854,0.064751714,1
4.35565185546875,8.85123348236084,0.4022095799446106,-0.0026781822089105844,0.04153884,0.089186326,1
4.370557785034181,8.921928405761719,0.3922639489173889,0.022806009277701374,-0.017104227,0.12308934,1
4.3868656158447275,8.991342544555664,0.35375240445137024,0.06800800561904907,-0.05955936,0.15454891,1
4.404332160949707,9.059823989868164,0.29206132888793945,0.1297682672739029,-0.20005837,0.14782938,1
4.422670364379883,9.1273832321167,0.21216389536857605,0.198084369301796,-0.41263947,0.1337795,1
4.441739559173584,9.194291114807127,0.1174248680472374,0.2763822078704834,-0.4605924,0.12644911,1
4.461410999298097,9.26071834564209,0.010659664869308472,0.36491793394088745,-0.39553526,0.07544186,15
4.481532573699951,9.326661109924316,-0.10552678257226944,0.4547008872032166,-0.50518554,0.009773844,15
4.502028942108153,9.392253875732422,-0.22937650978565216,0.5302138924598694,-0.92179567,-0.050396383,15
4.5180935859680185,9.447639465332033,-0.3402675688266754,0.5630804300308228,-1.0320568,-0.23640485,15
4.5095181465148935,9.450394630432127,-0.3548110127449036,0.5644394755363464,-1.3329079,-0.41691554,15
4.477731227874756,9.403770446777344,-0.2783912718296051,0.5481913685798645,-1.4401149,-0.35918877,15
4.428081512451172,9.319014549255373,-0.13167376816272736,0.4293968975543976,-0.258396,-0.41996986,15
4.3635849952697745,9.202649116516113,0.07327934354543686,0.3327312767505646,0.14874569,-0.4615087000000001,15
4.287297248840332,9.061158180236816,0.3245331943035126,0.3088456988334656,0.48563787,-0.19333886,15
4.201545238494873,8.899499893188477,0.612951934337616,0.2349860370159149,1.352761,-0.08521569999999999,15
4.108146190643311,8.721553802490233,0.9313818216323853,0.11031826585531236,2.1948388,-0.204029,15
4.008688449859618,8.53068733215332,1.2736223936080933,0.009568377397954464,3.397938,-0.34391713,15
3.904278993606568,8.329278945922853,1.6352897882461548,-0.18952666223049164,3.2210925,-0.59559363,15
3.813260555267334,8.138820648193361,1.98444938659668,-0.43676531314849854,1.3497068,-0.27275133,15
3.919814348220825,8.139904975891112,2.0806961059570312,-0.5406717658042908,-2.9428434,-0.7535023000000001,15
4.090183734893799,8.21467399597168,2.0683538913726807,-0.5302600264549255,0.8072583999999999,-0.4474588,15
4.311789989471436,8.348611831665039,1.9688119888305664,-0.17110346257686615,-1.0329732,-0.04550946,15
4.5748162269592285,8.530306816101074,1.7989460229873655,0.15852060914039612,-2.431549,0.3912592,15
4.8709330558776855,8.75020694732666,1.5727823972702026,0.17212557792663574,1.3304645,0.25870144,15
5.193483829498291,9.000667572021484,1.3015516996383667,0.5271409153938293,1.7705929,-0.462425,15
5.5377702713012695,9.276115417480467,0.9935884475708008,0.5330376625061035,-0.9932669,-1.106277,15
5.898336887359619,9.570606231689453,0.6573671698570251,0.1993490308523178,-1.8555032,-1.1710287,15
6.209728717803955,9.84251880645752,0.3206002712249756,-0.03172142431139946,-0.82986045,-0.7797695,15
6.332843780517577,10.005369186401367,0.037426922470331185,-0.15936745703220367,-0.84696466,-0.5036584,15
6.2971739768981925,10.076144218444824,-0.20033086836338046,-0.2532080113887787,-0.6365215999999999,-0.57940567,15
6.135590553283691,10.073684692382812,-0.4014825820922852,-0.2859775125980377,-0.28496864,-0.37934732,15
5.872119426727295,10.012065887451172,-0.5732866525650024,-0.25188353657722473,-0.22510384,-0.3203988,15
5.5268073081970215,9.902928352355957,-0.7215164303779602,-0.19667884707450867,-0.1863139,-0.19730948,15
5.115771770477295,9.755626678466797,-0.850808322429657,-0.1433715969324112,-0.31795537,-0.20463985,15
4.651639461517334,9.577534675598145,-0.964910924434662,-0.09872183203697203,-0.53878313,-0.30726522,15
4.145398616790772,9.374950408935547,-1.0667710304260254,-0.041786901652812965,-0.5561928,-0.28405234,15
3.604973554611206,9.152532577514648,-1.1588246822357178,0.038114916533231735,-0.5308419,-0.2565634,15
3.0767426490783687,8.94169807434082,-1.2290887832641602,0.13439895212650302,-0.5332854,-0.21930063,15
2.6370019912719727,8.794782638549805,-1.2542306184768677,0.2274055778980255,-0.54825157,-0.20280726,15
2.270605087280273,8.700844764709473,-1.2422646284103394,0.3066790699958801,-0.6056729000000001,-0.19333886,15
1.9631662368774412,8.649382591247559,-1.200596809387207,0.378323495388031,-0.7141015000000001,-0.2171626,15
1.7030494213104248,8.632108688354492,-1.1349787712097168,0.4542153775691986,-0.8622363000000001,-0.26542094,15
1.4809532165527344,8.642281532287598,-1.0501422882080078,0.5217470526695251,-1.0955868,-0.30085114,15
1.2894043922424316,8.674488067626951,-0.949883997440338,0.5743131041526794,-1.5436565,-0.42852196,15
1.1223797798156738,8.724421501159668,-0.8372042179107666,0.6311432123184204,-1.7993035,-0.37720928,15
0.9750357270240784,8.788628578186035,-0.7145001292228699,0.684166669845581,-1.7776178,-0.35155296,15
0.8435773849487305,8.86415958404541,-0.5839316844940186,0.7374579310417175,-1.7702875,-0.3145956,15
0.6682289242744446,8.967802047729492,-0.4555709958076477,0.7688118815422058,-1.7635679,-0.22540927,15
0.3300821781158447,9.16356086730957,-0.4685507714748383,0.7876311540603638,-1.385137,-0.18448131,15
-0.06888161599636078,9.353006362915039,-0.5857138633728027,0.8131434917449951,-1.0977248,-0.19486602,15
-0.3919427990913391,9.582846641540527,-0.8039130568504333,0.8457926511764526,-0.66859204,-0.10995574,15
-0.5562045574188232,9.839890480041504,-1.1102042198181152,0.9013760089874268,-0.21746802,-0.23640485,15
-0.3876685202121735,10.053553581237793,-1.5650434494018557,0.965998351573944,-0.3155119,-0.50732356,15
0.28282469511032104,10.1301908493042,-2.010090112686157,1.0097824335098269,-0.91965765,-0.5305365,15
1.177115797996521,10.032113075256348,-2.429800748825073,1.0161060094833374,-1.0506883,-0.5119051,15
1.9296340942382808,9.74152660369873,-2.8356895446777344,1.0080866813659668,-1.5479325000000002,-0.4447099,15
2.328315019607544,9.349172592163086,-3.2793085575103764,0.9566638469696044,-1.9859229,-0.5225952,15
2.450889110565185,9.123477935791016,-3.7838344573974614,0.888693630695343,-2.208278,-0.5021312,15
2.3085882663726807,9.00096607208252,-4.161963939666748,0.8350121378898621,-1.9504927,-0.57635134,15
1.9502110481262207,8.95416259765625,-4.4667015075683585,0.8326581716537476,-1.6536123,-0.453262,15
1.541802167892456,8.949396133422852,-4.756419658660889,0.8451043367385864,-1.4376713,-0.50915617,15
1.1563769578933716,8.858711242675781,-4.919219017028809,0.8373761177062988,-0.96944314,-0.7504479000000001,15
0.8413184285163879,8.699180603027344,-5.14954948425293,0.849707305431366,-0.6411031,-0.7672467,15
0.6236351728439331,8.402385711669924,-5.326948165893555,0.8570842146873474,-0.6585127,-0.6579019,15
0.4048338830471039,8.027735710144043,-5.507354736328125,0.8251504302024841,-0.62888575,-0.71959925,15
0.1403915286064148,7.782697200775146,-5.738473892211914,0.7939686775207521,-0.7715228,-0.63041294,15
-0.03279668092727661,7.72560977935791,-5.919402599334718,0.7481173872947693,-0.7825184000000001,-0.65057147,15
-0.21131886541843412,7.786562442779541,-5.97871732711792,0.7197546958923341,-0.91813046,-0.7449501999999999,15
-0.4781316518783569,7.866646289825439,-6.027743816375732,0.6650225520133972,-0.95203346,-0.79198676,15
-0.8448752164840698,7.820133686065674,-6.1071720123291025,0.6086790561676025,-0.4877759,-0.8909469999999999,15
-1.261690616607666,7.568175792694093,-6.222017288208008,0.586869478225708,-0.21197024,-0.87995136,15
-1.7335045337677002,7.200318336486816,-6.56494140625,0.5963601469993591,0.1423316,-0.79320854,15
-2.097222089767456,6.9441490173339835,-7.040272235870361,0.6693071126937866,0.09040806,-0.66920286,15
-2.0804030895233154,6.8134703636169425,-7.429051876068115,0.7325540781021118,-0.38973203,-0.5002986,15
-1.9103518724441528,6.641383171081543,-7.7652716636657715,0.7998226881027222,-0.20433442,-0.8582656999999999,15
-1.9819053411483765,6.410109996795653,-8.024330139160156,0.9106667637825012,0.028099801,-0.91721416,15
-2.2569940090179443,6.0850768089294425,-8.319278717041017,1.0227226018905642,-0.043982297,-0.999681,15
-2.532455921173096,5.6944947242736825,-8.660177230834961,1.1219319105148315,-0.30482176,-0.9822713,15
-2.8193759918212886,5.257903099060059,-8.928192138671875,1.2000837326049805,-0.47983465,-1.1972959,15
-3.220736026763916,5.100096225738525,-9.135042190551758,1.2705243825912476,-0.54733527,-1.41904,15
-3.8081247806549072,5.254850387573242,-9.325237274169922,1.3439188003540041,-0.67347896,-1.5189165,15
-4.710406303405762,5.517246723175049,-9.431453704833984,1.419321894645691,-0.5656611999999999,-1.5534303,15
-5.713011264801025,5.705934047698975,-9.381248474121094,1.4657962322235107,-0.3643811,-1.6050483999999998,15
-6.404034614562987,5.669541835784912,-9.262123107910156,1.4591981172561646,-0.37323865,-1.6798794,15
-6.6431989669799805,5.469193935394287,-9.105626106262207,1.352971434593201,-0.44623706,-1.8203784,15
-6.53062629699707,5.192010402679443,-8.928988456726074,1.2126078605651855,-0.4111123,-1.9825631,15
-6.424105644226074,4.933552265167236,-8.765281677246094,1.101067304611206,-0.50579643,-1.9242256,15
-6.4859657287597665,4.679764747619629,-8.642251014709473,1.0042942762374878,-0.6374379,-1.9013181,15
-6.672287940979004,4.449012279510498,-8.568774223327638,0.96251779794693,-0.72051555,-1.9297233,15
-6.78134822845459,4.282866954803467,-8.442248344421388,0.943300485610962,-1.1716396,-2.0024164,15
-6.600114822387695,3.99416446685791,-8.30901050567627,0.8816915154457092,-1.3927728,-2.1038198,15
-6.301379680633545,3.459632158279419,-8.297206878662111,0.8159863948822021,-1.5036448,-2.1545217,15
-6.140794277191162,2.712344169616699,-8.307504653930664,0.7458556294441223,-1.4856243,-2.0460932,15
-6.06882381439209,1.948354125022888,-8.305683135986326,0.6951454281806946,-1.2116512,-1.9694295,15
-6.089930534362793,1.2695318460464478,-8.216790199279785,0.6602058410644531,-1.0390818000000002,-2.019215,15
-6.1089959144592285,0.7557930946350098,-7.94655179977417,0.6027849912643433,-1.1859949,-2.0525072,15
-6.079035758972168,0.3952806293964386,-7.599282741546631,0.5223252773284912,-1.1640037,-2.048842,15
-5.9852614402771,0.07856770604848863,-7.2718567848205575,0.43145209550857533,-1.1624765,-1.861001,15
-5.95970630645752,-0.30527064204216003,-7.002836227416992,0.3397814929485321,-1.0607675,-1.7702875,15
-6.049677848815918,-0.6633621454238892,-6.737769603729247,0.26564526557922363,-0.7290677,-1.5283848,15
-6.172730922698975,-0.9303037524223328,-6.358842849731445,0.2577590346336365,-0.5372560000000001,-1.3909402,15
-6.232879161834718,-1.17058002948761,-6.00680685043335,0.26434326171875,-0.44226643,-1.2541064,15
-6.1441712379455575,-1.4211920499801636,-5.795449733734131,0.265725702047348,-0.45051312,-1.0778716999999998,15
-5.948421001434326,-1.7508559226989746,-5.697683334350586,0.2763185799121857,-0.464563,-0.9294315,15
-5.717332363128662,-2.10403060913086,-5.640379428863525,0.26792120933532715,-0.48563787,-0.7134906,15
-5.484055042266847,-2.4422450065612797,-5.498388290405273,0.2564252614974976,-0.3979787,-0.4605924,15
-5.30328369140625,-2.79400897026062,-5.3854026794433585,0.2380377203226089,-0.3979787,-0.26053402,15
-5.11264181137085,-3.212144374847412,-5.426379680633545,0.19030646979808807,-0.4550946,0.070249505,15
-4.9814772605896,-3.5268900394439697,-5.3949313163757315,0.1219843327999115,-0.17379116,0.29840767,15
-4.8536376953125,-3.7462637424468994,-5.2058844566345215,0.050824277102947235,-0.094989546,0.25625798,15
-5.017782688140869,-3.8567125797271733,-5.064194202423097,0.0019548132549971338,0.08216137400000001,0.34177909999999995,15
-5.3244805335998535,-3.981221199035645,-4.952719211578369,-0.04201455041766167,0.35399640000000004,0.68325275,15
-5.551109790802002,-4.0588650703430185,-4.718795776367188,-0.10060643404722214,0.59986967,0.8390234000000001,15
-5.781060218811035,-3.9561221599578857,-4.402188777923584,-0.15532441437244415,0.8213083000000001,0.7974846,15
-6.131613254547119,-3.717515707015991,-4.224249839782715,-0.23785974085330966,0.7275404999999999,0.84971356,15
-6.590320110321045,-3.4342761039733887,-4.281064033508302,-0.3669101893901825,0.68233645,0.95905846,15
-6.934797763824463,-3.231432676315308,-4.401944160461426,-0.5065246820449829,0.5177083,0.8008443000000001,15
-7.175914287567139,-2.962846517562866,-4.600686550140381,-0.6458551287651062,0.4364632000000001,0.54733527,15
-7.423784255981445,-2.540503740310669,-4.897997856140137,-0.80267333984375,0.23304509,0.58093286,15
-7.641720771789551,-2.044823408126831,-5.485766887664795,-0.9754979014396667,0.40653083,0.6383542,15
-7.678994178771973,-1.5375311374664309,-6.2389068603515625,-1.073078155517578,0.5589417,0.70646566,15
-7.574963092803955,-1.0796408653259275,-6.81354284286499,-1.071858525276184,0.85918194,0.73273283,15
-7.4885597229003915,-0.7139925360679626,-7.077911376953125,-0.9966810941696168,0.906524,0.6637050999999999,15
-7.442567825317383,-0.4674803912639618,-7.160703182220459,-0.9325841069221495,0.7483099,0.63041294,15
-7.452424049377441,-0.33163633942604065,-7.310345649719237,-0.85390704870224,0.7724390999999999,0.6563747,15
-7.4605064392089835,-0.2867827117443085,-7.478675842285156,-0.7253245115280151,0.88422745,0.68508536,15
-7.301071643829347,-0.04442742094397545,-7.729794025421143,-0.5521011352539062,0.8240572,0.6246096999999999,15
-6.827718734741211,0.6823760271072388,-8.608166694641112,-0.2694443464279175,0.1600467,0.5314528000000001,15
-6.69095516204834,0.9945046305656432,-8.894742965698242,0.15580809116363525,-0.34147367,0.22327125,15
-6.727600574493407,0.7430427074432373,-8.376245498657228,0.2361645847558975,-0.0421497,-0.003970624,15
-6.461516380310059,0.3849785625934601,-7.977841854095459,0.11305656284093855,-0.041233405,0.14630222,15
-6.157574653625487,0.33547040820121765,-7.896599769592285,0.05506421998143196,0.16615535,0.100792766,15
-6.147712707519531,0.4121866822242737,-7.794704914093018,0.11589871346950532,0.3387248,-0.015882496,15
-6.269992351531982,0.32847240567207336,-7.492244243621826,0.22279849648475647,0.109650314,0.33383787,15
-6.369503498077393,0.12536503374576569,-7.133108139038086,0.27097922563552856,-0.049785517,0.57726765,15
-6.450074195861816,-0.06221456080675125,-6.924211502075195,0.2699477970600128,-0.118202426,0.5412266,15
-6.585006713867188,-0.10620101541280746,-6.96308708190918,0.2458237409591675,-0.09682214,0.43127087,15
-6.767796516418457,-0.061825420707464225,-7.230481147766112,0.2182815968990326,0.1001819,0.3472769,15
-6.985741138458253,0.057145059108734124,-7.520543575286865,0.20863077044487,0.26878070000000004,0.3036,15
-7.163739204406737,0.1728149652481079,-7.5867857933044425,0.19240660965442655,0.19120082,0.19730948,15
-7.196646213531494,0.2117591053247452,-7.45565128326416,0.1658143401145935,-0.0009162979,0.11881329,15
-7.072445869445801,0.15277701616287231,-7.369617462158202,0.12374741584062575,-0.0842994,0.16676621,15
-6.8664512634277335,-0.018314668908715248,-7.383393287658691,0.06334763020277022,-0.23151793,0.19761491,15
-6.688526153564452,-0.14623352885246274,-7.44493818283081,-0.01278090849518776,-0.30207285,0.24404067,15
-6.5474300384521475,-0.1566769778728485,-7.514571666717528,-0.08110582083463669,-0.23182335,0.26358834,15
-6.4247918128967285,-0.13498735427856445,-7.547455310821532,-0.1227262318134308,-0.18784106,0.25076020000000004,15
-6.398877143859862,-0.03596489503979683,-7.51491641998291,-0.14179378747940066,-0.18967366,0.23487769,15
-6.473716735839844,0.1949279010295868,-7.411573886871338,-0.1519341766834259,-0.5729916,0.17134771,15
-6.599133014678955,0.5330947041511536,-7.3235716819763175,-0.17775920033454895,-0.44012842,-0.074830994,15
-6.5161070823669425,0.7315691709518433,-7.239162921905518,-0.2366343289613724,-0.7171558000000001,0.21746802,15
-6.454418659210205,0.7332135438919067,-7.218235492706299,-0.2431556582450867,-0.20769419,-0.13744467,15
-6.367142677307129,0.7239323854446411,-7.19166374206543,-0.1804436445236206,1.2473868,0.19914207,15
-6.204252243041992,0.679318904876709,-7.0592594146728525,0.05326546728610992,1.65911,0.16920967,15
-6.324263572692871,0.6962063908576965,-6.941191673278809,0.22427234053611755,0.43310347,-0.062002823,15
-6.669650077819824,0.7291035056114197,-7.139322280883789,0.2495776563882828,0.2098322,-0.07360926,15
-6.979473114013673,0.685599148273468,-7.412627696990968,0.21459053456783292,0.013744468,0.0067195175,15
-7.0190162658691415,0.5732331871986389,-7.533326148986816,0.14434312283992767,-0.21899518,0.09285152,15
-6.899555683135986,0.41830524802207947,-7.517076969146728,0.08785857260227202,-0.18875736,0.08155051,15
-6.743969917297362,0.2795633375644684,-7.423538208007812,0.05529220774769783,-0.040011674,0.07727446,15
-6.625392436981201,0.23415058851242065,-7.377900123596191,0.028938407078385357,0.112704635,0.081855945,15
-6.546462535858153,0.2594490051269531,-7.3890910148620605,0.010569282807409763,0.17256944,0.06597344599999999,15
-6.491860389709473,0.31182268261909485,-7.436664581298827,-0.0005193240940570831,0.12217305,0.051923547,15
-6.47859525680542,0.3885129988193512,-7.492886066436768,-0.007544646039605141,0.012217305,0.04337143,8
-6.523386955261231,0.4896243214607239,-7.537065029144287,-0.01123354397714138,0.00061086525,0.01985312,8
-6.568767547607423,0.5905731916427612,-7.555629253387451,-0.013153749518096449,0.0061086523,0.010690141499999998,8
-6.564542293548584,0.6379338502883911,-7.550761699676514,-0.00800284929573536,0.01038471,0.03390302,8
-6.479588985443115,0.5957897901535034,-7.524881839752197,-0.006128561682999134,-0.04337143,0.0036651916,8
-6.370719909667969,0.5242347121238708,-7.4990906715393075,-0.010125232860445976,-0.08827003,0.009162978,8
-6.280762672424316,0.462713360786438,-7.494143009185791,-0.01541624777019024,-0.08979719,0.016493361,8
-6.22869348526001,0.42125359177589417,-7.5028395652771,-0.022820843383669853,-0.054367006,0.028405234,8
-6.218327522277832,0.3900483250617981,-7.502719402313232,-0.025406820699572563,-0.04550946,0.047036625,8
-6.245600700378418,0.37234973907470703,-7.503794193267822,-0.02604001760482788,-0.054367006,0.074830994,8
-6.294837951660156,0.3740129172801971,-7.515688419342041,-0.02709294483065605,-0.06627888,0.074830994,8
-6.3548545837402335,0.39257946610450745,-7.533134937286378,-0.028322752565145493,-0.057421334,0.063224554,8
-6.4058027267456055,0.4159209430217743,-7.545288562774657,-0.028763037174940113,-0.070249505,0.05955936,8
-6.4381465911865225,0.4376676082611084,-7.530930042266847,-0.03218888491392136,-0.086132,0.04642576,8
-6.453377723693848,0.4605109393596649,-7.504606246948242,-0.034628964960575104,-0.08521569999999999,0.042760565999999986,8
-6.455822944641112,0.4836806952953338,-7.4740967750549325,-0.037882689386606216,-0.069027774,0.042760565999999986,8
-6.4497480392456055,0.5060974955558777,-7.450950622558594,-0.04114074632525444,-0.05467244,0.035124752999999995,8
-6.444253921508789,0.5400980710983276,-7.435645580291747,-0.04358203336596489,-0.050396383,0.036957346,8
-6.452755451202393,0.5720590353012085,-7.4372477531433105,-0.04280814155936241,-0.04062254,0.02443461,8
-6.474784851074219,0.6077027320861816,-7.444588661193848,-0.039507444947957986,-0.021991149,0.02076942,8
-6.4984517097473145,0.636293888092041,-7.437386035919189,-0.0359993502497673,-0.014049901000000002,0.013133603,8
-6.523177623748778,0.6450977921485901,-7.422210216522218,-0.031542107462883,-0.021685716,0.0076358155,8
-6.543760299682617,0.6399251222610474,-7.407244682312013,-0.025838259607553482,-0.005192355,0.01038471,8
-6.563100337982178,0.6275007128715515,-7.398127555847168,-0.01699397154152393,0.004276057,0.01740966,8
-6.5723838806152335,0.6180676221847534,-7.407109260559082,-0.00903939735144377,-0.0067195175,0.02687807,8
-6.577506065368652,0.6090406179428101,-7.416399002075195,-0.0030793696641922,0.008246681,0.021991149,8
-6.57311487197876,0.6038053035736084,-7.428453922271728,0.0011552226496860385,0.014660766,0.006414085,8
-6.563748359680176,0.5934358239173889,-7.442261219024657,0.0029883102979511023,0.020158553,-0.0012217305,8
-6.552535533905028,0.5844811797142029,-7.444887638092041,0.0018340403912588954,0.0070249503,-0.00061086525,8
-6.525980949401856,0.5762104988098145,-7.4345927238464355,-0.0011255377903580666,0.00030543262000000003,-0.018936822,8
-6.500972270965576,0.5736674070358276,-7.439830780029298,-0.0031348359771072865,-0.0009162979,-0.014660766,8
-6.471653938293457,0.5803470611572266,-7.437071800231934,-0.005626400001347065,0.002443461,-0.008552114,8
-6.443662643432617,0.5850351452827454,-7.433560848236084,-0.008242221549153328,-0.005192355,0.00030543262000000003,8
-6.43402624130249,0.5847443342208862,-7.43673038482666,-0.009799614548683168,-0.007330383,-0.009468411,8
-6.438830375671388,0.5802144408226013,-7.442025661468506,-0.010137906298041344,-0.006414085,-0.0067195175,8
-6.447516918182372,0.5750052332878113,-7.447122573852539,-0.008832281455397606,-0.014660766,-0.004581489,8
-6.4559383392333975,0.5663455724716187,-7.450438022613525,-0.007387611083686352,-0.013133603,0.014660766,8
-6.460057735443115,0.5594463348388672,-7.453478813171388,-0.006081623956561089,-0.011911872,0.0070249503,8
-6.4613847732543945,0.5561956167221069,-7.454893589019775,-0.005822763312608004,-0.013439035,0.009162978,8
-6.466694355010986,0.5552619695663452,-7.455655097961426,-0.008129596710205078,-0.014966198,0.016493361,8
-6.474607467651367,0.5577753186225891,-7.461556434631348,-0.009993323124945164,-0.023823744,0.018936822,8
-6.4846553802490225,0.5712680816650391,-7.458908081054687,-0.011762786656618118,-0.028099801,0.019547688,8
-6.490140438079834,0.585631787776947,-7.447426319122314,-0.012471335008740423,-0.02565634,0.010079277,8
-6.493156909942628,0.5934809446334839,-7.438508987426758,-0.0136917969211936,-0.013744468,0.010079277,8
-6.492677211761475,0.6009491086006165,-7.4304747581481925,-0.012892600148916245,-0.01160644,0.0067195175,8
-6.49506950378418,0.60783451795578,-7.427991390228271,-0.01248416304588318,-0.0036651916,0.005192355,8
-6.496021747589111,0.6111571192741394,-7.425824642181396,-0.01135370694100857,-0.0015271631,0.0067195175,8
-6.500415802001952,0.6127898693084717,-7.41461181640625,-0.009179756976664066,0.006414085,0.005497787,8
-6.507235050201416,0.610946536064148,-7.404462814331055,-0.007763631641864777,0.0021380284,0.004276057,8
-6.509324550628662,0.6102583408355713,-7.408626079559326,-0.006208753678947687,0.0070249503,-0.004886922,8
-6.505752086639403,0.6061253547668457,-7.412196159362793,-0.005100958049297333,0.0015271631,-0.0030543262,8
-6.503704071044923,0.5947716236114502,-7.4165101051330575,-0.004439859185367823,-0.0070249503,0.0033597588,8
-6.501901149749756,0.5898338556289673,-7.422669887542725,-0.004613618366420269,0.010690141499999998,0.011911872,8
-6.49083423614502,0.5885607004165649,-7.43211030960083,-0.004202448297291994,-0.004581489,0.0012217305,8
-6.478565692901611,0.5886499285697937,-7.435664653778076,-0.005968073848634957,-0.010995574,-0.0030543262,8
-6.46970796585083,0.5923288464546204,-7.437285900115968,-0.006730286870151758,-0.019547688,0.0030543262,8
-6.46175479888916,0.5961653590202332,-7.442893028259277,-0.007841011509299278,-0.01038471,0.008857545999999999,8
-6.456769943237305,0.5936492681503296,-7.438469409942628,-0.008676999248564243,-0.012217305,0.009162978,8
-6.454317569732666,0.5888659358024597,-7.429115295410156,-0.00829111784696579,-0.025045475,0.00030543262000000003,8
-6.457600116729736,0.5854464769363403,-7.415931701660156,-0.007982601411640644,-0.008857545999999999,0.0061086523,8
-6.457653522491455,0.5819469690322876,-7.410097122192383,-0.006103638093918562,-0.010690141499999998,0.010995574,8
-6.466156959533691,0.5816142559051514,-7.4141602516174325,-0.004747600760310888,-0.016798794,-0.0021380284,8
-6.4795594215393075,0.585946261882782,-7.4174437522888175,-0.005287337116897106,-0.0070249503,0.007941248,8
-6.4858646392822275,0.5889229774475098,-7.414711952209473,-0.005230553448200226,-0.0067195175,0.015882496,8
-6.4856672286987305,0.5899469256401062,-7.419708251953125,-0.005685587879270315,-0.015271631,0.014660766,8
-6.487940788269043,0.5944627523422241,-7.422620296478271,-0.0055300905369222155,-0.015882496,0.013439035,8
-6.4968743324279785,0.6007252335548401,-7.422476768493652,-0.006606284528970718,-0.01282817,0.01282817,8
-6.505019664764403,0.6072204113006592,-7.413963317871094,-0.009342635981738569,-0.023518313,0.007330383,8
-6.5023298263549805,0.6079692840576172,-7.407334327697754,-0.010576499626040459,-0.022907447,0.0015271631,8
-6.500944137573242,0.605013370513916,-7.406446933746338,-0.010382199659943579,-0.003970624,0.009162978,8
-6.5023460388183585,0.6046839952468872,-7.405991554260254,-0.01007982436567545,-0.01160644,0.00061086525,8
-6.50012731552124,0.6083676815032959,-7.412717342376709,-0.008183207362890244,0.005192355,0.008246681,8
-6.501225471496582,0.6121886372566223,-7.416232109069824,-0.007664657197892666,-0.0021380284,0.0012217305,8
-6.506131172180176,0.6140463352203369,-7.418398857116699,-0.006934595294296742,0.0009162979,-0.0009162979,8
-6.508255481719972,0.6144353151321411,-7.417506217956543,-0.006568334996700287,-0.00580322,-0.00061086525,8
-6.507021427154541,0.6168634295463562,-7.415602207183838,-0.006303279660642147,-0.011911872,-0.0067195175,8
-6.503674030303955,0.6148064136505127,-7.4188232421875,-0.006112608127295971,0.00030543262000000003,-0.002443461,8
-6.500927448272705,0.6118701100349426,-7.4266037940979,-0.0061083948239684105,0.0076358155,0.0033597588,8
-6.49420976638794,0.6083272695541382,-7.431668758392334,-0.006497786846011877,0.0076358155,0.003970624,8
-6.489078044891357,0.6031338572502136,-7.435791015625,-0.006910719908773899,-0.0021380284,0.005497787,8
-6.4926066398620605,0.6048913598060608,-7.431198596954347,-0.0066168163903057575,0.0009162979,-0.00030543262000000003,8
-6.4974403381347665,0.6063796877861023,-7.430763721466064,-0.008408772759139538,-0.015577064,0.0067195175,8
-6.498763561248778,0.6054831743240356,-7.426665782928468,-0.009666943922638891,-0.01740966,0.00061086525,8
-6.496017456054688,0.6057001948356628,-7.4166202545166025,-0.009970155544579027,-0.013133603,-0.005497787,8
-6.489203929901122,0.6050168871879578,-7.409862995147705,-0.010601448826491831,-0.0125227375,0.0012217305,8
-6.482522010803223,0.6072995662689209,-7.402595043182372,-0.010935154743492605,-0.007330383,-0.0061086523,8
-6.482776165008545,0.6105934381484985,-7.392343997955322,-0.010951483622193336,-0.005497787,0.006414085,8
-6.488381862640381,0.611555278301239,-7.392104148864746,-0.010889285244047642,-0.0070249503,0.0015271631,8
-6.501463890075684,0.6134039759635925,-7.39630126953125,-0.011471976526081562,-0.010079277,0.004886922,8
-6.507901191711426,0.6168592572212219,-7.4085164070129395,-0.01060726772993803,-0.0125227375,0.004581489,8
-6.513552665710449,0.6207732558250427,-7.418297290802003,-0.01048544608056545,-0.0015271631,0.01038471,8
-6.516758441925049,0.6235763430595398,-7.42108154296875,-0.00990960281342268,0.0009162979,0.00580322,8
-6.521385192871094,0.6226539611816406,-7.415583610534668,-0.009338912554085256,-0.003970624,0.007330383,8
-6.523068904876709,0.6258024573326111,-7.410327911376952,-0.008924750611186028,-0.00030543262000000003,0.0021380284,8
-6.51984977722168,0.6313886046409607,-7.407347202301025,-0.008161952719092369,-0.009773844,0.002443461,8
-6.513636112213135,0.6323559284210205,-7.405807971954347,-0.0074851461686193934,-0.0070249503,0.007330383,8
-6.5107741355896,0.6301276683807373,-7.401155471801758,-0.007646654732525349,-0.013439035,0.00030543262000000003,8
-6.510598182678223,0.6356649994850159,-7.4024176597595215,-0.0075075519271194935,-0.0021380284,0.0021380284,8
-6.507646560668945,0.6405892968177795,-7.4065208435058585,-0.007393512874841691,-0.0070249503,0.007941248,8
-6.500843524932861,0.633162260055542,-7.410885334014893,-0.008349686861038208,-0.004581489,-0.0033597588,8
