acc_x,acc_y,acc_z,gyro_x,gyro_y,gyro_z,label
0.0,0.0,0.0,0.0,-0.0021380284,0.016798794,1
-0.05053127184510231,0.2827455699443817,-0.027897616848349568,-0.0006764728459529579,-0.0076358155,0.008552114,1
-0.17198365926742554,0.9569966197013856,-0.09505767375230788,-0.0019152713939547534,-0.00580322,0.010995574,1
-0.3415993452072144,1.8901771306991575,-0.18902187049388885,-0.0035935651976615186,-0.008857545999999999,0.01282817,1
-0.5317237973213196,2.9352130889892583,-0.2956756353378296,-0.0057874368503689775,-0.0027488936,0.015271631,1
-0.7185092568397522,3.973616123199463,-0.4034678936004639,-0.008420966565608978,-0.014049901000000002,0.02321288,1
-0.8883818984031677,4.930991172790527,-0.5048391819000244,-0.009857344441115856,-0.011911872,0.019242255,1
-1.0351136922836304,5.771894454956055,-0.5959849357604979,-0.011018688790500164,-0.03176499,0.024740042,1
-1.1574251651763916,6.487484931945801,-0.6757224202156067,-0.013305042870342731,-0.025350908,0.017715093,1
-1.2567400932312012,7.083952903747559,-0.7444300651550293,-0.015394119545817375,-0.029321533,0.01740966,1
-1.3357471227645874,7.574429988861084,-0.8031933307647705,-0.015791378915309906,-0.026267206,0.026267206,1
-1.397442102432251,7.974162578582764,-0.8533787131309509,-0.017092304304242134,-0.022907447,0.024740042,1
-1.4447025060653689,8.298004150390625,-0.8963536024093628,-0.018774844706058502,-0.019242255,0.01740966,1
-1.4801136255264282,8.559306144714355,-0.9333468675613404,-0.020020563155412674,-0.019547688,0.010079277,1
-1.4945780038833618,8.768325805664062,-0.9575841426849364,-0.02021896280348301,-0.007941248,0.0027488936,1
-1.4871606826782229,8.935104370117188,-0.9745089411735536,-0.019089994952082637,0.03726278,0.014049901000000002,1
-1.471851110458374,9.066693305969238,-0.9848153591156006,-0.02112635411322117,0.08063421400000001,0.0076358155,1
-1.46332585811615,9.18582820892334,-0.9869359731674194,-0.026362324133515358,0.09682214,-0.013744468,1
-1.481407880783081,9.304201126098633,-0.9793028235435486,-0.031365718692541115,0.084910266,-0.024740042,1
-1.5153815746307373,9.403682708740234,-0.9636439085006714,-0.038440920412540436,0.048563786,-0.026267206,1
-1.5521340370178225,9.4701509475708,-0.942313313484192,-0.04756854474544525,0.023518313,-0.034208454,1
-1.5761228799819946,9.514212608337402,-0.9019954204559326,-0.06418370455503464,-0.025045475,-0.033292156,1
-1.5845994949340818,9.568719863891602,-0.8657657504081726,-0.082338847219944,-0.08155051,-0.020463986,1
-1.560843586921692,9.635408401489258,-0.8745151162147522,-0.09591907262802124,-0.093462385,0.028099801,1
-1.5173487663269043,9.673150062561037,-0.916782796382904,-0.10034217685461044,-0.055588737,0.03940081,1
-1.4793622493743896,9.695131301879883,-0.9410338401794434,-0.10479316860437393,-0.011911872,0.038789943,6
-1.4470534324645996,9.713418006896973,-0.9379435181617736,-0.11476167291402815,0.015882496,0.02076942,6
-1.416182279586792,9.735146522521973,-0.8961256146430969,-0.12825797498226166,-0.013133603,0.018020526,6
-1.376800537109375,9.762163162231444,-0.834417462348938,-0.14031769335269928,-0.02076942,0.02687807,6
-1.3457648754119873,9.795785903930664,-0.7678087949752808,-0.1495170146226883,-0.029626964,0.058337633,6
-1.3139408826828003,9.82066822052002,-0.6984528303146362,-0.16054767370224,-0.029626964,0.08582657,6
-1.268772840499878,9.838006973266602,-0.638907253742218,-0.1790442168712616,-0.006414085,0.109650314,6
-1.20347261428833,9.858246803283693,-0.5854778289794922,-0.20830191671848294,0.015882496,0.16676621,6
-1.1064914464950562,9.88211727142334,-0.5077698826789856,-0.24257850646972656,0.013133603,0.26847526,6
-0.9897435307502748,9.901093482971193,-0.3948146104812622,-0.2844512164592743,0.03176499,0.41325033,6
-0.8642532825469971,9.919228553771973,-0.21862517297267914,-0.3439568877220154,0.06841691,0.5635232,6
-0.7194053530693054,9.940110206604004,0.03387909010052681,-0.4311107695102692,0.098043874,0.7742717,6
-0.5548747181892395,9.996642112731934,0.28237274289131165,-0.5473663210868835,0.03634648,0.9605856,6
-0.462006151676178,10.137545585632324,0.457680344581604,-0.6792829632759094,0.16340645,1.0836749,6
-0.4597005248069763,10.393142700195312,0.6208661794662476,-0.8153828382492065,0.2648101,1.1468995000000002,6
-0.7002961039543152,10.60806655883789,0.7932887077331543,-0.957223117351532,0.1572978,0.81061816,6
-1.0280954837799072,10.626585006713867,0.7495570778846741,-1.0390959978103638,0.4999932,0.6554584,6
-1.0861245393753052,10.50843906402588,0.778884768486023,-1.043298602104187,0.12217305,0.5864305999999999,6
-0.943661093711853,10.258275032043457,0.9077484607696532,-0.9858303666114808,-0.08277224,0.52503866,6
-0.8017160296440125,9.89892578125,0.9604788422584534,-0.8827816843986511,-0.02565634,0.4184427,6
-0.6594502925872803,9.470973014831543,1.0162758827209473,-0.749447226524353,-0.07086037,0.28771752,6
-0.5285505056381226,9.1009521484375,1.0936334133148191,-0.607103168964386,-0.06658431,0.17684549,6
-0.4095011055469513,8.854588508605957,1.169277906417847,-0.4790099859237671,0.03848451,0.093767814,6
-0.30527400970458984,8.746678352355957,1.282521367073059,-0.3799453377723694,0.11942416,0.07574729,6
-0.21363109350204468,8.742500305175781,1.4466681480407717,-0.3115108013153076,0.094989546,0.09987647,6
-0.11166910827159883,8.802043914794922,1.6121829748153689,-0.2631916105747223,0.069027774,0.12858713,6
0.03844033926725388,8.839571952819824,1.7656452655792236,-0.22489725053310394,-0.08827003,0.10720685,6
0.2467799484729767,8.762535095214844,1.9068195819854736,-0.18576054275035855,-0.32314770000000004,0.024129177,6
0.4381954967975617,8.616741180419924,2.0085482597351074,-0.1538669764995575,-0.3933972,-0.053145275,6
0.5907981991767883,8.467215538024902,2.0702142715454097,-0.141713947057724,-0.27000242,-0.07788532,6
0.8052716851234436,8.391164779663086,2.1601529121398926,-0.13873909413814545,-0.30695978,-0.05131268,6
1.1008892059326172,8.382632255554201,2.2202906608581543,-0.1263890415430069,-0.35185838,0.14844026,6
1.3926302194595337,8.274943351745605,2.1704881191253658,-0.12038824707269667,-0.3576616,0.34238997,6
1.5535794496536257,8.011404037475586,2.032946825027466,-0.08802654594182968,-0.26572640000000003,0.3659083,6
1.5406795740127563,7.626962661743164,1.872269868850708,-0.024162065237760544,-0.28527406,0.17318029999999998,6
1.393030285835266,7.222958564758301,1.766240477561951,0.02538972906768322,-0.03634648,-0.055588737,6
1.1844435930252075,6.905263900756836,1.8042396306991575,0.02208702079951763,0.31826079999999995,-0.23182335,6
1.047653079032898,6.706982135772705,1.9297163486480715,0.007037230301648378,0.2919936,-0.3109304,6
0.8902804851531982,6.711268901824951,2.009884595870972,0.02627134881913662,0.14080444,-0.3472769,6
0.6255574822425842,6.97785234451294,2.080033540725708,0.06622666120529175,-0.05772676700000001,-0.3549127,6
0.35051289200782776,7.431049823760986,2.1426749229431152,0.10492851585149764,-0.10476339,-0.31490102,6
0.16064129769802096,7.882638931274414,2.236824750900269,0.1525191068649292,-0.14446963,-0.3191771,6
0.06391309946775436,8.239900588989258,2.405860185623169,0.20105846226215365,-0.17837265,-0.36468655,6
0.06725586205720901,8.597648620605469,2.634479522705078,0.23543338477611545,-0.2864958,-0.267559,6
0.035308632999658585,8.986947059631348,2.89575743675232,0.2510174512863159,-0.26358834,-0.017104227,6
-0.05708783864974976,9.430456161499023,3.2743237018585205,0.2381023168563843,-0.43127087,0.1328632,6
-0.09241124242544174,9.986989974975586,3.4797594547271733,0.2130292057991028,-0.4792238,0.23823744,6
-0.2044973373413086,10.435017585754396,3.018688201904297,0.2425307780504227,-0.16340645,0.04795292,6
-0.2891539931297302,10.915504455566406,2.3676798343658447,0.28205737471580505,0.3472769,0.06627888,6
0.02043130807578564,11.886083602905273,2.3630657196044917,0.23014216125011444,0.5946773,0.41874814,6
0.3817681968212128,13.024789810180664,2.4542641639709477,0.08042027056217194,0.13011430000000002,0.5158757,6
0.006378602236509322,13.070330619812012,2.0304765701293945,-0.13680805265903473,0.02107485,0.08032878,6
-0.4926797449588776,12.176342964172365,1.44389009475708,-0.2658730149269104,0.3454443,-0.073303826,6
-0.4507140517234802,11.330435752868652,0.9651053547859192,-0.23464490473270416,-0.72784597,-0.14996742,6
-0.25272464752197266,11.099586486816406,0.6094670295715332,-0.10430935025215148,-0.48563787,-0.23396139,6
0.1139110028743744,11.518668174743652,0.4642782509326935,0.01902020163834095,-0.38453966,-0.20097467,6
0.4791156947612762,11.850552558898926,0.3696554601192473,0.1177084669470787,-0.16890424,-0.07147124,6
0.5733839869499207,11.661048889160154,0.3437741696834564,0.19161906838417053,0.014966198,-0.18142697,6
0.5260581970214844,11.162225723266602,0.4568593800067902,0.2324155867099762,-0.017715093,-0.26297748,6
0.4852460324764252,10.642861366271973,0.6564748287200928,0.2658097445964813,-0.12003502,-0.22632557,6
0.4926944077014923,10.28761100769043,0.870758056640625,0.3012560307979584,-0.24495697,-0.18600847,6
0.5611922740936279,10.064550399780273,1.0547006130218506,0.3297463357448578,-0.36041048,-0.0842994,6
0.6694796681404114,9.82732391357422,1.197870850563049,0.3127657175064087,-0.2855795,0.004581489,6
0.8164300918579102,9.533638954162598,1.2890970706939695,0.25316932797431946,-0.11148291,0.03481932,6
0.997528076171875,9.161394119262695,1.290801763534546,0.1744161695241928,-0.071776666,-0.010079277,6
1.1783654689788818,8.798628807067871,1.2124428749084473,0.10617035627365112,-0.055588737,-0.032986723,6
1.3197550773620603,8.554162979125978,1.1237269639968872,0.05170797184109688,-0.030848695,0.026572637000000003,6
1.4140344858169556,8.457150459289549,1.1909881830215454,-0.0015427407342940571,0.05497787,0.16218472,6
1.4060068130493164,8.39356803894043,1.4199767112731934,-0.08421541005373001,0.2452624,0.121256754,6
1.388891339302063,8.330435752868652,1.5254693031311035,-0.15908929705619812,0.31490102,0.06261369,6
1.385001540184021,8.310172080993652,1.4261960983276367,-0.215044304728508,0.28160888,-0.051618114000000014,6
1.385968565940857,8.338594436645508,1.3300037384033203,-0.24158233404159546,0.08002335,-0.10140363,6
1.3179832696914673,8.327716827392576,1.2031348943710327,-0.23302501440048215,0.094989546,-0.0009162979,6
1.2235276699066162,8.161330223083496,1.0360648632049558,-0.19648845493793488,0.021991149,0.05100725,6
1.1576451063156128,7.934157371520996,0.8885287046432495,-0.12348295748233795,-0.18661933,0.02687807,6
1.1913161277770996,7.837376117706299,0.8070474863052368,-0.03002624213695526,-0.29840767,-0.009468411,6
1.376690149307251,8.047106742858888,0.9115344285964966,0.05311006307601929,-0.5375614000000001,0.08979719,6
1.6070555448532104,8.726949691772461,0.9950977563858032,0.07773786783218384,-0.17043139999999998,0.27000242,6
1.65765643119812,9.67901611328125,1.1215494871139526,0.024588864296674732,0.30757064,0.38698313,6
1.5785446166992188,10.447565078735352,1.381240725517273,-0.11065180599689484,-0.010995574,0.5290093000000001,6
1.427504301071167,11.015212059020996,1.8040307760238647,-0.3174157738685608,-0.1863139,0.7098253999999999,6
1.2181625366210938,11.616196632385256,2.211247205734253,-0.5891249179840088,0.005497787,0.9257663,6
0.8908976912498474,12.325541496276855,2.4751818180084233,-0.9094998836517334,0.49968776,1.0906999,6
0.5658347606658936,13.035632133483887,2.6696553230285645,-1.17708420753479,0.2919936,1.1166617,6
0.3950032889842987,13.30316925048828,2.6010305881500244,-1.3539690971374512,0.011301007,0.8897252,6
0.3554387390613556,12.984838485717773,2.4604084491729736,-1.447970986366272,-0.023823744,0.74128497,6
0.4952656328678131,12.56397533416748,2.5010037422180176,-1.4373399019241333,-0.1908954,0.729984,6
0.5972660779953003,12.293612480163574,2.585695505142212,-1.335451364517212,-0.13988814,0.7125743,6
0.5678536295890808,12.13669490814209,2.603093147277832,-1.1836203336715698,0.18295415,0.6230826,6
0.5160865783691406,11.75814151763916,2.3945345878601074,-1.0200790166854858,0.68477994,0.45081854,6
0.4513895511627197,11.03519344329834,2.0797278881073002,-0.8546375036239624,1.0216721,0.25473082,6
0.3320177495479584,9.976365089416504,1.878077268600464,-0.6929987072944641,1.1102476,-0.014660766,6
0.17186139523983002,8.795435905456543,1.865681529045105,-0.5208138227462769,0.61453044,-0.20463985,6
0.033853679895401,7.7087950706481925,1.9194879531860352,-0.31822168827056885,-0.016493361,-0.37110063,6
0.029209181666374207,6.888786792755128,1.979206919670105,-0.1113431304693222,-0.36713,-0.44440445,6
0.1272771954536438,6.33930253982544,2.0029120445251465,0.08405143022537231,-0.44990227,-0.52931476,6
0.2585478723049164,5.997953414916992,2.024441957473755,0.2612661123275757,-0.26725355,-0.61391956,6
0.3978922665119171,5.8690056800842285,2.0704374313354488,0.4033097624778748,-0.11575896,-0.6881397,6
0.5401948690414429,5.916653156280518,2.110687494277954,0.4997007548809052,-0.110872045,-0.7837400999999999,6
0.656303346157074,6.076508045196532,2.111892938613892,0.5648636221885681,-0.061391957,-0.8735373,6
0.7145501375198364,6.33216667175293,2.0643568038940434,0.6194181442260742,-0.031154128,-0.90224797,6
0.7365900874137878,6.6547484397888175,1.9818868637084959,0.6773355007171631,-0.09865474,-0.8051204000000001,6
0.7243353128433228,6.991728782653809,1.906586766242981,0.741007924079895,-0.15515977,-0.63407815,6
0.7169588804244995,7.234834671020508,1.9472761154174805,0.7969737648963928,-0.13927728,-0.5522222,6
0.7121950387954712,7.406904220581055,2.0710208415985107,0.8382539749145508,-0.007330383,-0.47678033,6
0.5733146071434021,7.640734672546388,2.4449775218963623,0.8557649254798889,0.17867808,-0.43463063,6
0.3651053607463837,8.35454273223877,3.10461688041687,0.8173004984855652,0.20280726,-0.28496864,6
0.25884371995925903,9.905990600585938,4.220418930053712,0.6795677542686462,0.26267207,0.15118915,6
0.5819436311721802,11.487478256225586,4.986506462097168,0.4598872065544128,-2.538756,0.552833,6
0.4348226487636566,11.98476791381836,4.451385974884033,0.3877735137939453,-1.5103643,0.5561928,6
0.12456755340099335,12.029850006103516,4.219013690948486,0.23259472846984866,0.4792238,0.46211955,6
0.742139995098114,12.542409896850586,3.8381364345550537,-0.0700911283493042,-0.41813725,0.68386364,6
1.1143884658813477,12.364986419677734,2.407232999801636,-0.28245148062705994,0.52198434,0.28130344,6
1.0215927362442017,11.537999153137207,1.2785463333129885,-0.29152581095695496,0.56046885,0.112704635,6
0.8729839324951172,10.884343147277832,0.5506882667541504,-0.18785879015922546,0.08735373,-0.036651913,6
0.8184019923210144,10.98646354675293,0.394225537776947,-0.017382787540555,-0.10293079,-0.005497787,6
0.9124173521995544,11.664834022521973,0.6141026020050049,0.1593015044927597,-0.26297748,0.30818152,6
0.8979545831680298,12.192326545715332,0.8027949333190918,0.2903917729854584,-0.28405234,0.24587326,6
0.5892987251281738,12.028735160827635,0.9210776090621948,0.36489775776863104,-0.09315695,-0.0027488936,6
0.2768802940845489,11.43958854675293,0.9882372617721558,0.3898889422416687,-0.15241088,-0.18753563,6
0.12521453201770782,10.759828567504883,0.9848611950874328,0.4082033932209015,-0.16340645,-0.2593123,6
0.1760847270488739,10.217792510986328,1.0165997743606567,0.4313285052776337,-0.31612277,-0.32070425,6
0.4602388441562653,9.904131889343262,1.167910933494568,0.4466216266155243,-0.45173484,-0.31031954,6
0.7973864078521729,9.70197582244873,1.260664463043213,0.4567894637584686,-0.3359759,-0.2125811,6
1.1341516971588137,9.522052764892578,1.3079491853713991,0.4594041109085083,-0.08643743400000001,-0.15149458,6
1.4555031061172483,9.310140609741213,1.3745137453079224,0.4504917860031128,0.06414085,-0.06780604,6
1.7042555809020996,9.01653003692627,1.4596863985061646,0.4246045649051666,0.19303341,-0.04153884,6
1.8631486892700195,8.705707550048826,1.5637857913970947,0.3700249493122101,0.17898351,-0.0033597588,6
1.9330797195434568,8.429903984069824,1.6750218868255615,0.2987269163131714,0.086132,-0.051923547,6
1.846324563026428,8.192482948303223,1.7976971864700315,0.21801804006099698,-0.09285152,-0.08002335,6
1.7314170598983765,8.052877426147461,1.909279465675354,0.13279803097248075,-0.2864958,-0.06047566,6
1.685051441192627,8.036319732666017,1.8709608316421509,0.017118880525231358,-0.24312437,-0.015882496,6
1.64428448677063,7.963972568511963,1.7481099367141724,-0.11738480627536775,-0.13652839,0.0076358155,6
1.5817840099334717,7.805041313171388,1.66743004322052,-0.2468165308237076,-0.1160644,-0.037873644,6
1.5831239223480225,7.778105735778809,1.5336123704910278,-0.3521166741847992,-0.2660318,-0.08796459400000001,6
1.6603672504425049,8.110283851623535,1.4436700344085691,-0.4581290483474731,-0.10048734,-0.053450707,6
1.7954775094985962,8.799544334411621,1.4253482818603516,-0.5312706828117371,-0.1020145,0.13775012,6
1.921499490737915,9.597168922424316,1.5216151475906372,-0.6439158320426941,-0.10720685,0.41355577,6
1.949049711227417,10.368666648864746,1.8208123445510864,-0.8519588112831116,0.29016098,0.6948592,6
1.8187330961227417,11.321211814880373,2.293947458267212,-1.0886416435241701,0.33261612,1.0369438,6
1.320172905921936,12.299235343933105,2.484183549880981,-1.3008415699005127,0.74281216,1.187522,6
0.6891197562217712,13.031557083129885,2.525303363800049,-1.4489514827728271,0.65179324,1.2556334999999998,6
0.2665523886680603,13.305535316467285,2.4821596145629883,-1.4724780321121216,0.2742785,1.1187996999999998,6
0.1921836882829666,13.019179344177244,2.4564149379730225,-1.4215559959411619,0.14446963,0.9401216,6
0.3448215126991272,12.432632446289062,2.540642499923706,-1.3277169466018677,-0.09865474,0.61666846,6
0.4876085221767426,11.896092414855955,2.6798267364501958,-1.206352949142456,-0.15393804,0.44593164,6
0.575034499168396,11.439623832702635,2.7598581314086914,-1.0286140441894531,-0.21655174,0.4831944,6
0.5562263131141663,10.918213844299316,2.727508068084717,-0.7987051010131836,-0.028099801,0.44532076,6
0.4087901413440704,10.200092315673828,2.622978687286377,-0.563925564289093,0.16798794,0.3387248,6
0.2426729053258896,9.34333038330078,2.5218334197998047,-0.3457923233509064,0.2669481,0.116675265,6
0.1711023449897766,8.442167282104492,2.4553444385528564,-0.14498451352119446,0.16798794,-0.11056661,6
0.2193768918514252,7.623058319091798,2.4124345779418945,0.04404787719249725,-0.043676864,-0.3286455,6
0.35414913296699524,7.017460823059082,2.378082513809204,0.198299303650856,-0.13408493,-0.5012149,6
0.5464348793029785,6.60927677154541,2.3656396865844727,0.3213281035423279,-0.22052236,-0.61086524,6
0.7338573932647705,6.346290111541747,2.3429205417633057,0.4376752376556397,-0.21288654,-0.7189884,6
0.8683462738990784,6.2417850494384775,2.311593770980835,0.5516668558120728,0.029932396,-0.81214535,6
0.975579559803009,6.274948596954347,2.3405511379241943,0.6375543475151062,0.32986724,-0.86834496,6
1.0590430498123171,6.396437168121338,2.404794216156006,0.6753725409507751,0.52534413,-0.88056225,6
1.1095664501190186,6.58743143081665,2.449277639389038,0.6986003518104553,0.5345071,-0.8741482,6
1.1600440740585327,6.830229759216309,2.5071642398834233,0.7302734255790709,0.31826079999999995,-0.8356636999999999,6
1.226717829704285,7.1253838539123535,2.6411004066467285,0.771007239818573,-0.11911872,-0.7360926,6
1.2406070232391355,7.503578662872314,2.8470280170440674,0.8008274435997009,-0.33139440000000003,-0.589485,6
1.0658262968063354,7.992922306060791,3.1885323524475098,0.8152452707290649,-0.33536503,-0.45173484,6
0.7179499864578247,8.832093238830566,3.795759916305542,0.7961010336875916,-0.4196644000000001,-0.26878070000000004,6
0.35941076278686523,10.039082527160645,4.1502904891967765,0.6758444309234619,-1.067487,-0.0842994,6
0.015317451208829881,10.924363136291504,3.7141616344451904,0.6292678713798523,-0.43157628,-0.11942416,6
0.16097897291183472,11.167545318603516,3.1913158893585205,0.609731912612915,-0.40530908,0.17715092,6
0.6899851560592651,11.234611511230467,2.61504340171814,0.5376763939857483,-0.010690141499999998,0.46700647,6
1.0413864850997925,11.956414222717285,2.348709344863892,0.41342824697494507,0.75594574,0.50823987,6
1.266807198524475,12.907755851745605,2.0888125896453857,0.2554793059825897,0.2855795,0.22999077,6
1.002044439315796,12.863691329956055,1.611411690711975,0.12573683261871338,0.22204952,0.007330383,6
0.4942933022975922,12.241732597351074,1.0454906225204468,0.06488784402608871,0.00580322,-0.21594086,6
0.2044755220413208,11.62749481201172,0.7255207300186157,0.0696229413151741,-0.43249258,-0.21868975,6
0.18679825961589813,11.37022590637207,0.6816407442092896,0.1181122288107872,-0.6065891999999999,-0.06963864,6
0.2875570356845856,11.256235122680664,0.6460216045379639,0.1984035074710846,-0.66431594,-0.036651913,6
0.4449089467525482,11.031457901000977,0.5396037101745605,0.29526206851005554,-0.61117065,-0.108123146,6
0.6749306321144104,10.64846420288086,0.4649193584918976,0.37619492411613453,-0.35002577,-0.15057829,6
1.0194680690765379,10.236824035644533,0.4990131855010986,0.42898857593536377,-0.22082779,-0.10140363,6
1.3719984292984009,9.898433685302734,0.6647717356681824,0.4532247483730316,-0.18448131,-0.030848695,6
1.6245509386062622,9.622482299804688,0.8886042833328247,0.4402012825012207,-0.07696902,0.0421497,6
1.7791416645050049,9.362838745117188,1.0811021327972412,0.4113692939281464,0.12217305,0.08063421400000001,6
1.8807715177536009,9.123655319213867,1.2284481525421145,0.3686684668064117,0.16462818,0.15210545,6
1.9274415969848635,8.88405704498291,1.3009850978851318,0.2998316586017609,0.25473082,0.18295415,6
1.8021124601364136,8.573696136474611,1.3453598022460938,0.20306290686130524,0.45998153,0.13622294,6
1.6784557104110718,8.27763557434082,1.3396164178848269,0.1142086386680603,0.21166481,0.11575896,6
1.6304173469543457,8.168715476989746,1.3080337047576904,0.037688713520765305,0.19242255,0.090713486,6
1.6309467554092407,8.26942253112793,1.44169819355011,-0.04427134618163109,-0.09132435,0.17501289,6
1.60637104511261,8.391021728515625,1.5587739944458008,-0.140826016664505,-0.19608775,0.17684549,6
1.52850604057312,8.437526702880861,1.5957998037338257,-0.2514326870441437,-0.002443461,0.06352998,6
1.5230261087417605,8.43955135345459,1.4022029638290403,-0.3366433382034302,0.08246681,-0.12767084,6
1.5576879978179932,8.53954029083252,1.2914726734161377,-0.4032427370548248,-0.0888809,-0.26450464,6
1.64707350730896,8.883431434631348,1.363762378692627,-0.4963169097900391,-0.28252518,-0.06994407,6
1.7319983243942259,9.480953216552734,1.7010999917984009,-0.6758922934532166,-0.4089743,0.27152961,6
1.7225898504257202,10.391182899475098,2.091362476348877,-0.9336016774177552,0.16462818,0.6337727,6
1.5700873136520386,11.574522018432615,2.4902358055114746,-1.2037594318389893,0.44135013,0.9816604,6
1.1604146957397459,12.511786460876465,2.6243252754211426,-1.4303492307662964,0.70616025,1.0506883,6
0.77238529920578,12.790069580078125,2.4541523456573486,-1.602210521697998,1.1572843000000002,0.9483683,6
0.7502295970916748,12.670673370361328,2.30432653427124,-1.6822754144668581,0.9767735,0.96944314,6
0.7815560102462769,12.57021713256836,2.4280781745910645,-1.6519896984100342,0.58368176,1.022283,6
0.6992220878601074,12.408817291259766,2.606182813644409,-1.5502291917800903,0.552833,0.8570439000000001,6
0.6225287318229675,12.076529502868652,2.765446901321411,-1.4043416976928709,0.31612277,0.6612616,6
0.6096539497375488,11.61945915222168,2.8576486110687256,-1.2123478651046753,0.24770586,0.6450737,6
0.5920477509498596,10.92819595336914,2.7990915775299072,-0.9781194925308228,0.37904188,0.56138515,6
0.5071796178817749,10.06158447265625,2.6901421546936035,-0.7273242473602295,0.5021312,0.3659083,6
0.39276179671287537,9.169744491577148,2.6224291324615483,-0.4798502922058106,0.45204028,0.15027285,6
0.28685542941093445,8.324155807495117,2.5660016536712646,-0.22960028052330014,0.2443461,-0.025350908,6
0.1696769893169403,7.550510883331299,2.5033249855041504,0.020946206524968147,0.09621128,-0.21930063,6
0.048126772046089165,6.875635623931885,2.5053298473358154,0.2541954815387726,-0.06383542,-0.44501534,6
0.005204579792916775,6.318045616149902,2.5495035648345947,0.4639080762863159,-0.33292156,-0.7122689,6
0.0445980429649353,5.922425746917725,2.55168080329895,0.6496592164039612,-0.35338554,-0.947452,6
0.1681959182024002,5.776936054229736,2.524470567703247,0.8053979873657227,-0.33414328,-1.067487,6
0.32768797874450684,5.976339340209961,2.4866602420806885,0.9182592034339904,-0.13591751,-1.097114,6
0.4633213877677918,6.350420475006104,2.4616193771362305,0.9764418601989746,0.17745635,-1.0024298,6
0.5855461359024048,6.849855422973633,2.510010242462158,1.0014224052429201,0.45234573,-0.7415904000000001,6
0.7623293995857239,7.372982501983643,2.6343934535980225,1.020350217819214,0.17928895,-0.47891834,6
0.9545423984527588,7.7887821197509775,2.801694393157959,1.0379661321640017,-0.41233405,-0.27855456,6
1.0963821411132812,8.033674240112305,2.9890289306640625,1.039554238319397,-0.65270954,-0.15821409,6
1.1869224309921265,8.048549652099611,3.2028717994689937,1.0222452878952026,-0.8402450999999999,-0.16920967,6
1.1073453426361084,8.057395935058594,3.3266055583953857,0.9832898378372192,-0.6740898,-0.269697,6
0.8514232039451599,8.793837547302246,3.4156854152679443,0.917949676513672,0.33658674,-0.0720821,6
0.7827181220054626,10.385653495788574,3.8555502891540527,0.7982535362243652,-0.86529064,0.20616703,6
0.8392888903617859,11.492243766784668,3.5414502620697017,0.7458710670471191,-0.8539896,0.42424592,6
0.5645890831947327,11.8119478225708,2.9386568069458012,0.6903212070465088,0.14630222,0.28160888,6
0.4992332458496094,12.230823516845705,2.75323224067688,0.4833509922027588,0.20189096,0.0720821,6
0.7355605363845825,12.90407657623291,2.389798402786255,0.18711699545383453,0.5164866,0.115453534,6
0.9416428804397584,12.85448169708252,1.7084600925445557,-0.03804961591959,0.3735441,0.03481932,6
0.8496491312980652,12.147046089172365,0.9073845744132996,-0.08960359543561935,-0.022907447,0.06261369,6
0.6001244783401489,11.601722717285154,0.27932336926460266,0.02667790837585926,-0.028099801,-0.01282817,6
0.5419957637786865,11.65358066558838,0.1537744104862213,0.1915462762117386,-0.07880162,0.016798794,6
0.6415570378303528,11.807212829589846,0.2606488168239593,0.35889920592308044,-0.5039638,0.09896017,6
0.6446388959884644,11.68752384185791,0.3977666199207306,0.4742479026317597,-0.4370741,0.01985312,6
0.5277705788612366,11.320916175842285,0.4931623041629791,0.506047248840332,-0.31642818,-0.1826487,6
0.4110897183418274,10.806532859802246,0.528935432434082,0.4754328429698944,-0.17073683,-0.31429017,6
0.3976328670978546,10.257649421691896,0.5522624254226685,0.4259634912014008,-0.19303341,-0.31978795,6
0.4993217289447784,9.810147285461426,0.6098138093948364,0.3958839774131775,-0.3463606,-0.20708331,6
0.6882196068763733,9.48811149597168,0.685576319694519,0.3845008611679077,-0.47647488,-0.026572637000000003,6
0.9158615469932556,9.19572925567627,0.7424643635749817,0.36817046999931335,-0.41447207,0.13652839,6
1.0880944728851318,8.846957206726074,0.8645337224006653,0.3403153121471405,-0.077579886,0.15821409,6
1.3676033020019531,8.566991806030272,1.0815383195877075,0.29374340176582336,-0.074830994,0.25992316,6
1.6553542613983154,8.400283813476562,1.2258220911026,0.2138231247663498,-0.06780604,0.269697,6
1.7912589311599731,8.23049259185791,1.3629080057144165,0.07484663277864456,-0.16584991,0.25473082,6
1.6793888807296753,8.003900527954103,1.5975099802017212,-0.07869964092969894,-0.20372356,0.27702740000000003,6
1.4873263835906982,7.816220760345459,1.453328251838684,-0.23355597257614136,0.08827003,0.1908954,6
1.409352421760559,7.734447002410889,1.0984599590301514,-0.34337887167930603,0.26358834,0.08582657,6
1.4106873273849487,7.769674777984619,0.8116506934165955,-0.3852047622203827,0.312763,-0.0070249503,6
1.5745539665222168,7.958263397216798,0.7803637981414795,-0.4306560158729553,0.03023783,0.02443461,6
1.8318082094192505,8.328400611877441,0.9481196403503418,-0.5376194715499878,-0.3726278,0.17134771,6
1.9701039791107176,8.986005783081055,1.1373512744903564,-0.6864158511161804,-0.2611449,0.3817908,6
2.0041654109954834,9.915953636169434,1.4817392826080322,-0.8535271883010864,-0.09254608,0.6640105,6
1.9620364904403689,10.898180961608887,1.8983168601989744,-1.0653083324432373,0.33017266,0.89461213,6
1.7398819923400881,11.729318618774414,2.2687933444976807,-1.2631921768188477,0.42088616,1.0818423,6
1.4073821306228638,12.439876556396484,2.367501974105835,-1.4094575643539429,0.57543504,1.171945,6
1.0503305196762085,13.067437171936035,2.300992727279663,-1.5087525844573977,0.7883216,1.349096,6
0.9708803296089172,13.347737312316895,2.301440715789795,-1.507799744606018,0.4447099,1.1792754,6
1.1617053747177124,12.89372730255127,2.365081787109375,-1.4416959285736084,0.3032946,0.8726209999999999,6
1.313085675239563,12.22806167602539,2.493713855743408,-1.3077130317687988,0.258396,0.59437186,6
1.3980178833007812,11.75137424468994,2.705097913742065,-1.1405285596847534,0.25259277,0.52106804,6
1.3441157341003418,11.27596378326416,2.7892935276031494,-0.9474061727523804,0.22449298,0.42730024,6
1.1455445289611816,10.691391944885254,2.705368995666504,-0.7321520447731018,0.3368922,0.30543262,6
0.9333778023719788,10.06564712524414,2.5105977058410645,-0.5057182312011719,0.6383542,0.20311269,6
0.7756916880607605,9.231968879699707,2.359654426574707,-0.27531635761260986,0.61727935,-0.06383542,6
0.639964759349823,8.192934989929201,2.278364658355713,-0.041579343378543854,0.34422258,-0.33108896,6
0.4877664148807526,7.135623455047607,2.254775285720825,0.1821619421243668,-0.011301007,-0.6383542,6
0.3685855567455292,6.188359260559082,2.241428852081299,0.3765178918838501,-0.43554693,-0.9642508,6
0.2954922318458557,5.415069580078125,2.1797990798950195,0.5460935831069946,-0.5537493,-1.1249083,6
0.3079071044921875,4.9746131896972665,2.0472898483276367,0.6843027472496033,-0.3222314000000001,-1.1997393,6
0.3294551372528076,4.946478366851807,1.9392919540405276,0.7789135575294495,0.070249505,-1.2950343,6
0.3709810674190521,5.293346881866455,1.9022037982940676,0.824123740196228,0.5354234,-1.3142766,6
0.5035088658332825,5.928235530853272,1.922537088394165,0.8517715930938721,0.72051555,-1.2464706,6
0.7922852635383606,6.8084821701049805,2.0121610164642334,0.8758969902992249,0.38881573,-0.9935723,6
1.0896152257919312,7.633130073547362,2.113370180130005,0.9322459697723388,-0.24587326,-0.6621779000000001,6
1.2732852697372437,8.135898590087889,2.294388055801392,0.9873898029327391,-0.4175264,-0.30390546,6
1.2163587808609009,8.417154312133789,2.700081586837769,1.0139951705932615,-0.5510005,-0.027794369,6
0.8303411602973938,8.989667892456055,3.2081048488616943,0.9833605885505676,-0.05955936,0.08582657,6
0.4563964903354645,10.09092903137207,3.8555710315704346,0.8391203284263611,-0.59437186,0.09987647,6
0.3738354742527008,11.156617164611816,3.5172023773193364,0.7859106659889221,-0.74006325,0.32314770000000004,6
0.310416579246521,11.770001411437988,2.85654878616333,0.7615966200828552,-0.35369098,0.36285394,6
0.4749639928340912,12.253308296203613,2.4028985500335693,0.6209770441055298,-0.5626069,0.33322698,6
0.4914485216140747,12.594204902648926,1.8507034778594968,0.4340517222881317,0.4343252,0.055283304000000005,6
0.4030390679836273,12.821784019470215,1.426990628242493,0.24101632833480835,0.41996986,0.034513887,6
0.4229751527309418,12.731003761291506,0.962647020816803,0.15800298750400546,-0.25289822,0.048258353,6
0.2974824905395508,12.367255210876465,0.4221037030220032,0.17790846526622772,-0.40561453,0.018020526,6
0.2250400185585022,12.13865852355957,0.06436120718717575,0.2784971296787262,-0.5329799,0.004886922,6
0.3712760806083679,11.915642738342285,-0.07672606408596039,0.3751592338085175,-0.65270954,0.014966198,6
0.4983568787574768,11.431633949279785,-0.12151462584733964,0.4376954138278961,-0.56138515,-0.05955936,6
0.5063968896865845,10.774239540100098,-0.07556264847517014,0.4450264871120453,-0.42271876,-0.10781772,6
0.4428633749485016,10.169243812561037,0.04295267537236214,0.4213990569114685,-0.04886922,-0.15057829,6
0.4573464095592499,9.79806900024414,0.1866901367902756,0.3903443515300751,-0.15332718,-0.17470746,6
0.552463710308075,9.602666854858398,0.3494356572628021,0.3476553559303284,-0.16401732,-0.12858713,6
0.68302321434021,9.37145709991455,0.559351921081543,0.2901716530323029,-0.27122417,-0.040011674,6
0.7573893666267395,8.920849800109863,0.7028351426124573,0.20915062725543976,-0.3475823,-0.013133603,6
0.7994926571846008,8.240478515625,0.7312368750572205,0.11704549938440326,-0.023823744,-0.03176499,6
1.0589464902877808,7.7238712310791025,0.8140842914581299,0.04354013502597809,0.19394971,0.105068825,6
1.531780242919922,7.680636405944824,0.8988049626350403,-0.023918090388178825,0.16340645,0.3747658,6
1.863341808319092,7.815606117248535,1.0232950448989868,-0.11268706619739532,0.06261369,0.29962940000000005,6
1.9184525012969968,7.7911438941955575,1.261906385421753,-0.21943731606006625,-0.29840767,0.21227567,6
1.7502228021621704,7.600662231445312,1.2837415933609009,-0.34392136335372925,0.14019357,0.18509217,6
1.7613967657089231,7.574004650115968,1.097439885139465,-0.425473302602768,0.41080686,0.13347405,6
1.9649302959442136,8.015251159667969,0.953457534313202,-0.4769487679004669,0.3277292,0.19211712,6
2.1079344749450684,8.720992088317871,1.032725214958191,-0.5567846298217773,0.15088372,0.4071417,6
2.0837626457214355,9.561270713806152,1.3003091812133791,-0.7154332995414734,0.40622538,0.6407976,6
1.989245176315308,10.514214515686037,1.6663405895233154,-0.9215283393859864,0.26511553,0.9092729,6
1.7049733400344849,11.537049293518065,2.1457083225250244,-1.1697499752044678,0.4868596,1.0558805,6
1.278504490852356,12.452153205871582,2.401677370071411,-1.3826045989990234,0.54733527,1.1221595,6
0.8999882936477661,13.130956649780273,2.421713590621948,-1.5569961071014404,0.5552765000000001,1.074512,6
0.7756848335266113,13.629103660583494,2.2782227993011475,-1.6338317394256592,0.7254025,1.1896601,6
0.8781766891479492,13.822592735290527,2.183861494064331,-1.6078437566757202,0.7602218000000001,1.0873401000000005,6
0.9431809782981871,13.471458435058596,2.2628817558288574,-1.505969762802124,0.51343226,0.72204274,6
0.903655469417572,12.90541172027588,2.383901357650757,-1.3686312437057495,0.5012149,0.47128254,6
0.8196740150451659,12.178030967712402,2.389458417892456,-1.1810762882232666,0.47891834,0.31978795,6
0.691669225692749,11.354744911193848,2.2525405883789062,-0.9483269453048706,0.56321776,0.22113322,6
0.4958498477935791,10.466772079467773,2.1266660690307617,-0.7055453658103943,0.636827,0.06169739,6
0.23624126613140106,9.55905818939209,2.040771961212158,-0.4552479386329651,0.571159,-0.17928895,6
-0.055456433445215225,8.680204391479492,2.031225681304932,-0.20810255408287048,0.31703907,-0.3903429,6
-0.2759658992290497,7.8477840423583975,2.074602603912353,0.00538074504584074,0.19639318,-0.5839871999999999,6
-0.2447868436574936,7.136579513549805,2.1131744384765625,0.19006609916687006,0.10476339,-0.7244862,6
-0.006001922301948071,6.593903541564941,2.0971767902374268,0.3629858493804932,0.106901415,-0.8524625,6
0.2523024380207062,6.254722595214844,2.0756776332855225,0.5213726758956909,-0.029321533,-0.86284715,6
0.434720903635025,6.144889831542969,2.035562753677368,0.6587406992912292,-0.007941248,-0.8371908000000001,6
0.4585975706577301,6.310609817504883,2.034918069839477,0.7539543509483337,0.32986724,-0.79412484,6
0.3964254558086395,6.700582027435303,2.130116701126098,0.8066985607147217,0.40286562,-0.7779369,6
0.4716137945652008,7.045734405517577,2.2532579898834233,0.8298985362052917,-0.116675265,-0.6951646,6
0.6937096118927002,7.1909852027893075,2.346579074859619,0.8331624269485474,-0.38148534,-0.5537493,6
0.952129364013672,7.339110851287843,2.5421085357666016,0.8229591846466064,-0.08368854,-0.36865717,6
1.1766194105148315,7.704397201538086,2.9677083492279053,0.8049564957618713,0.12583824,-0.2556471,6
1.2392674684524536,8.30264949798584,3.4055700302124023,0.7773690223693848,0.20830505,-0.183565,6
1.165114164352417,8.828383445739746,3.6545255184173584,0.758284330368042,-0.22296582,-0.053145275,6
0.861708402633667,9.104636192321776,3.647346019744873,0.7571707367897034,-0.53023106,0.00061086525,6
0.2402128726243973,9.579545021057127,3.505826234817505,0.7348728179931641,-0.15943582,-0.24465153,6
-0.34747353196144104,10.359230995178224,3.1456165313720703,0.7229599356651306,-0.43279803,-0.40622538,6
-0.5082346200942993,11.14536190032959,2.2958312034606934,0.7697809934616089,-0.03268129,0.14263703,6
-0.2421601563692093,12.1475248336792,1.8147097826004028,0.7492616176605225,0.6743952,0.72295904,6
0.2469006180763245,13.330072402954102,2.076832771301269,0.523884117603302,0.17928895,0.6365215999999999,6
0.3498760759830475,13.064828872680664,1.4073419570922852,0.3582063019275665,0.16279559,0.3191771,6
0.015276907943189144,11.924381256103516,0.2393830865621567,0.2888924777507782,0.6979135000000001,-0.058643065,6
-0.1144268438220024,11.186944961547852,-0.4699841439723969,0.35310789942741394,0.28221974,-0.25717425,6
-0.2890208959579468,11.1865873336792,-0.7254475355148315,0.4633576571941376,0.41874814,-0.24251351,6
-0.4853997528553009,11.351112365722654,-0.7551469206809998,0.5584484338760376,0.005497787,-0.22021692,6
-0.6647576689720154,11.288626670837402,-0.7242459654808044,0.634075939655304,-0.19730948,-0.17440203,6
-0.7790906429290771,10.956326484680176,-0.6280112266540527,0.6646912097930908,-0.22449298,-0.21166481,6
-0.7141314148902893,10.45826244354248,-0.5615716576576233,0.659038782119751,-0.2919936,-0.26419923,6
-0.5337700843811035,10.02711582183838,-0.4911387264728546,0.6385416984558105,-0.30695978,-0.27855456,6
-0.3498305082321167,9.822957038879396,-0.3458106815814972,0.6232353448867798,-0.39003745,-0.29657507,6
-0.15717852115631106,9.738076210021973,-0.2306973785161972,0.6137468814849854,-0.42424592,-0.30024028,6
0.06981180608272552,9.683878898620604,-0.18777255713939667,0.6067249178886414,-0.3378085,-0.29382620000000004,6
0.3152179419994354,9.689292907714844,-0.14242349565029144,0.5884858965873718,-0.26297748,-0.28893927,6
0.5086458325386047,9.759398460388184,-0.1015823781490326,0.5554959177970886,-0.19608775,-0.2556471,6
0.6022781133651733,9.91663646697998,-0.11111107468605043,0.5200061202049255,-0.15027285,-0.16157386,6
0.5713770389556885,10.055888175964355,-0.19298508763313293,0.484063446521759,-0.11575896,-0.09407325,6
0.4531022906303406,10.105914115905762,-0.3257948160171509,0.4427716135978699,-0.090713486,-0.055588737,6
0.329510360956192,10.095232009887695,-0.4410251975059509,0.3933533430099487,-0.102319926,-0.09560041,6
0.2620284259319305,10.082056999206543,-0.5705881118774414,0.3478530943393707,-0.13255776,-0.11362094,6
0.17785485088825226,10.020726203918457,-0.7609922289848328,0.31844362616539,0.06536258,-0.16707164,6
0.06290461868047714,9.87641429901123,-1.062184453010559,0.2976779639720917,0.33353242,-0.24129178,6
0.00994982197880745,9.761311531066896,-1.298435926437378,0.2904988825321197,0.24953845,-0.31520647,6
0.0055586094968020925,9.726297378540039,-1.5125092267990112,0.28490042686462397,0.35094208,-0.35185838,6
-0.03233829140663147,9.768807411193848,-1.7169458866119385,0.29050543904304504,0.38240165,-0.29229903,6
-0.22179968655109408,9.856021881103516,-1.81366503238678,0.3056027591228485,0.41783184,-0.24037547,6
-0.5381396412849426,9.908712387084961,-1.7867242097854614,0.31002023816108704,0.464563,-0.20616703,6
-0.8622615933418274,9.90133571624756,-1.63358473777771,0.2767993807792664,0.43004912,-0.21471913,6
-1.0664854049682615,9.85378646850586,-1.439494490623474,0.21324121952056885,0.18753563,-0.21135938,6
-1.149861216545105,9.802711486816406,-1.3036497831344604,0.14152751863002774,-0.047647487,-0.14966199,6
-1.134960055351257,9.780180931091307,-1.2577459812164309,0.0864168331027031,-0.17592919,-0.036651913,6
-1.0797412395477295,9.812079429626463,-1.273951292037964,0.05456243082880974,-0.18325958,0.045814894,6
-1.0244392156600952,9.858120918273926,-1.3266133069992063,0.0319061279296875,-0.17256944,0.06047566,6
-1.0129282474517822,9.87629508972168,-1.3742451667785645,0.007884182035923004,-0.1255328,0.002443461,6
-1.0475705862045288,9.900262832641602,-1.3946548700332642,-0.01784740574657917,-0.03940081,-0.07299839999999999,6
-1.0698894262313845,9.912758827209473,-1.3973824977874756,-0.039512548595666885,-0.035124752999999995,-0.09987647,1
-1.0438910722732544,9.901647567749023,-1.3914475440979004,-0.04820825159549713,-0.00580322,-0.06994407,1
-0.9813192486763,9.879556655883787,-1.335342526435852,-0.04117012023925781,-0.046120327,-0.02565634,1
-0.9414587020874025,9.845916748046877,-1.2847373485565186,-0.026249036192893985,-0.09621128,0.002443461,1
-0.9454489350318908,9.797618865966797,-1.2410072088241575,-0.013916569761931894,-0.14996742,0.021991149,1
-0.9810303449630736,9.782285690307617,-1.1873197555541992,-0.017000829800963402,-0.2049453,0.035430185,1
-1.0066717863082886,9.824468612670898,-1.1509751081466677,-0.034854408353567116,-0.22418754,0.03848451,1
-0.9909610748291016,9.883184432983398,-1.1015393733978271,-0.04985099658370018,-0.17867808,0.023823744,1
-0.9384713172912598,9.907183647155762,-1.076138257980347,-0.06403061002492905,-0.17104226,0.008246681,1
-0.8852956295013428,9.879362106323242,-1.1164336204528809,-0.07191775739192963,-0.11789699,-0.01740966,1
-0.8896390199661255,9.825308799743652,-1.154711127281189,-0.07080380618572235,-0.04520403,-0.034513887,1
-0.93383526802063,9.784153938293457,-1.1505919694900513,-0.06408703327178955,-0.02687807,-0.046731193,1
-0.98309588432312,9.749761581420898,-1.1198186874389648,-0.05689765885472298,-0.013133603,-0.039095376,1
-1.0344463586807249,9.72961139678955,-1.078501582145691,-0.05161600559949875,-0.025045475,-0.028099801,1
-1.0793722867965698,9.723767280578613,-1.0574913024902344,-0.05072478950023651,-0.02443461,-0.04520403,1
-1.109100341796875,9.735431671142578,-1.070118427276611,-0.05408300459384918,-0.063224554,-0.05100725,1
-1.1178126335144043,9.748048782348633,-1.0848944187164309,-0.0582958497107029,-0.071776666,-0.03268129,1
-1.119464635848999,9.76991081237793,-1.0910720825195312,-0.06315547972917558,-0.083383106,-0.00580322,1
-1.1456615924835205,9.788553237915039,-1.0777676105499268,-0.06100301072001457,-0.10140363,-0.017715093,1
-1.181746006011963,9.80296516418457,-1.0227925777435305,-0.0562482513487339,-0.13958271,-0.013744468,1
-1.1969044208526611,9.814257621765137,-0.946821630001068,-0.053916655480861664,-0.20647246,-0.0018325958,1
-1.176857352256775,9.8136625289917,-0.8764926195144653,-0.050233453512191766,-0.21533,0.012217305,1
-1.1143251657485962,9.810115814208984,-0.8132594227790833,-0.0502382256090641,-0.20005837,0.01985312,1
-1.024379014968872,9.823298454284668,-0.79169100522995,-0.0522296167910099,-0.16523905,0.06078109,1
-0.941341996192932,9.845741271972656,-0.7977811694145203,-0.05373898148536682,-0.1328632,0.1001819,1
-0.8904356956481934,9.853561401367188,-0.8118785619735718,-0.054507166147232056,-0.12308934,0.110872045,1
-0.87322598695755,9.845511436462402,-0.8231632709503174,-0.05622982606291771,-0.08979719,0.10445796,1
-0.8572591543197632,9.8335542678833,-0.8401370048522949,-0.0602891743183136,-0.0711658,0.09407325,1
-0.8366867303848267,9.824925422668457,-0.8592886924743652,-0.06554457545280458,-0.029626964,0.08368854,1
-0.8187143802642822,9.809102058410645,-0.8895649313926697,-0.06923265755176544,-0.0012217305,0.061391957,1
-0.8132628202438354,9.804464340209961,-0.9169633984565736,-0.07103659212589264,0.058643065,0.047647487,1
-0.7989234924316406,9.81427001953125,-0.9640574455261229,-0.07306472212076187,0.10293079,0.03634648,1
-0.786697268486023,9.814763069152832,-1.0205609798431396,-0.07269353419542313,0.16249016,0.030848695,1
-0.7914240956306458,9.795161247253418,-1.0653908252716064,-0.06952492892742157,0.22540927,0.0036651916,1
-0.8184595108032227,9.78392219543457,-1.0931811332702637,-0.0663258358836174,0.23701571,-0.004886922,1
-0.8573031425476074,9.78088665008545,-1.09131121635437,-0.06626694649457933,0.20891592,0.004581489,1
-0.9150025844573976,9.778976440429688,-1.0805912017822266,-0.06355151534080505,0.22785273,0.009468411,1
-0.975213348865509,9.772235870361328,-1.0657732486724854,-0.0597231388092041,0.23182335,0.008552114,1
-1.0255175828933716,9.766241073608398,-1.0603108406066897,-0.05851452425122261,0.24129178,0.009162978,1
-1.073206663131714,9.767169952392578,-1.0548844337463381,-0.06064486131072045,0.23457226,-0.0021380284,1
-1.1192837953567505,9.78023624420166,-1.065647840499878,-0.06228349357843399,0.2134974,-0.00030543262000000003,1
-1.156288504600525,9.797744750976562,-1.079182267189026,-0.06121815368533135,0.183565,-0.005192355,1
-1.1757177114486694,9.8116455078125,-1.0706161260604858,-0.0572664774954319,0.15210545,0.00061086525,1
-1.189728021621704,9.826400756835938,-1.0466574430465698,-0.05405256152153015,0.12003502,0.0076358155,1
-1.2171469926834106,9.832220077514648,-1.0199100971221924,-0.050998833030462265,0.040927973,-0.01160644,1
-1.255068302154541,9.80811882019043,-1.0104612112045288,-0.04706332460045815,-0.0070249503,-0.04550946,1
-1.257315993309021,9.766255378723145,-1.0113770961761477,-0.037416383624076836,-0.03023783,-0.046731193,1
-1.2002277374267578,9.745842933654783,-1.0125385522842407,-0.0253628809005022,-0.06597344599999999,-0.029321533,1
-1.1139801740646362,9.7529878616333,-1.0014019012451172,-0.013604730367660522,-0.061086524,-0.008246681,1
-1.0406818389892578,9.772822380065918,-0.9739241003990172,-0.005697485059499741,-0.034513887,0.010995574,1
-1.0024037361145022,9.799408912658693,-0.9428960680961608,-0.0006780771655030549,-0.01038471,0.016798794,1
-0.9698604345321656,9.81651782989502,-0.9121130108833312,-0.001448058639653027,-0.027183503,0.017104227,1
-0.9392589926719666,9.821746826171877,-0.9015932679176332,-0.0076829036697745315,-0.02107485,0.02076942,1
-0.9147133231163024,9.830307006835938,-0.901254415512085,-0.014190214686095716,-0.026267206,0.027488936,1
-0.8974189758300781,9.831298828125,-0.9111035466194152,-0.01849731057882309,-0.03726278,0.018325957,1
-0.8832982182502747,9.824661254882812,-0.9216225147247314,-0.02020200528204441,-0.010995574,0.01282817,1
-0.8564687371253967,9.811955451965332,-0.9253474473953248,-0.020904794335365292,0.002443461,0.012217305,1
-0.8314228057861328,9.801615715026855,-0.92390114068985,-0.02247181348502636,0.011911872,0.01740966,1
-0.8233241438865662,9.79883861541748,-0.92933189868927,-0.0203731507062912,0.05467244,0.008246681,1
-0.8287592530250549,9.794458389282227,-0.9346439242362976,-0.015834104269742966,0.06841691,-0.0015271631,1
-0.8370828032493591,9.78668212890625,-0.936043381690979,-0.013707203790545464,0.07452556,-0.0036651916,1
-0.8541917204856873,9.781920433044434,-0.9393799304962158,-0.014871534891426563,0.070249505,0.0012217305,1
-0.8766254186630249,9.78550910949707,-0.9284997582435608,-0.014457864686846731,0.056505036,0.0076358155,1
-0.8968309164047241,9.801323890686037,-0.9225656390190125,-0.014700867235660553,0.03176499,0.024740042,1
-0.927273154258728,9.804901123046877,-0.9446343183517456,-0.015544857829809187,0.051923547,0.011301007,1
-0.9508106112480164,9.795827865600586,-0.9568054080009459,-0.014635038562119009,0.0580322,-0.006414085,1
-0.9565240144729614,9.792929649353027,-0.9561640620231628,-0.014630088582634926,0.04520403,0.004276057,1
-0.9628711938858032,9.797768592834473,-0.9514144659042358,-0.014521424658596516,0.03359759,0.021380283,1
-0.9684739708900452,9.809104919433594,-0.942963480949402,-0.011667045764625072,0.020158553,0.025350908,1
-0.9730898141860962,9.80782985687256,-0.9405215978622437,-0.009498855099081991,0.02076942,0.018020526,1
-0.9765419363975524,9.802651405334473,-0.9414348602294922,-0.012454317882657051,0.03970624,0.01863139,1
-0.9703445434570312,9.797927856445312,-0.9438394904136658,-0.014974518679082394,0.044898596,0.010690141499999998,1
-0.9508317112922668,9.795538902282717,-0.9539513587951659,-0.013949622400105,0.047036625,-0.0009162979,1
-0.9286701083183287,9.800742149353027,-0.9847261905670166,-0.01084066554903984,0.057421334,0.012217305,1
-0.9204811453819276,9.800110816955566,-1.007755994796753,-0.005915125831961632,0.06780604,0.0067195175,1
-0.918559432029724,9.792654037475586,-1.0181431770324707,-0.002434074878692627,0.069027774,-0.0076358155,1
-0.917614221572876,9.793787956237793,-1.0279330015182495,-0.00032205201569013303,0.07727446,-0.013133603,1
-0.9109936356544496,9.798961639404297,-1.034516215324402,-0.0007575566414743662,0.07727446,-0.014660766,1
-0.9017621278762816,9.80642795562744,-1.0467705726623535,-0.0012233585584908724,0.07849618,0.0018325958,1
-0.8893072605133057,9.817472457885742,-1.0594886541366575,-0.0003941793693229556,0.064446285,0.00580322,1
-0.8830859661102295,9.816970825195312,-1.06867778301239,-0.0005554507370106876,0.045814894,0.008552114,1
-0.8896704912185669,9.806119918823242,-1.0720210075378418,-0.0015834604855626822,0.03145956,0.007330383,1
-0.8996101617813109,9.795855522155762,-1.0771709680557249,-0.004721005447208881,0.03268129,0.008552114,1
-0.9028815031051636,9.7916898727417,-1.0687633752822876,-0.006959103047847748,0.032986723,0.002443461,1
-0.899688720703125,9.79193878173828,-1.0604319572448728,-0.00937364622950554,0.029321533,0.004886922,1
-0.8913565874099731,9.789098739624023,-1.058074712753296,-0.011925602331757544,-0.007941248,0.0067195175,1
-0.8853911757469177,9.792205810546877,-1.0648643970489502,-0.013904156163334845,-0.011301007,0.008246681,1
-0.8834007978439331,9.795092582702637,-1.078830361366272,-0.017472650855779648,-0.027183503,0.020158553,1
-0.884553074836731,9.785073280334473,-1.0907717943191528,-0.01906561851501465,-0.043982297,0.019242255,1
-0.901849091053009,9.75373649597168,-1.064428210258484,-0.023597966879606247,-0.038179077,0.0021380284,1
-0.9318937063217164,9.747936248779297,-1.0493184328079224,-0.027243446558713916,-0.003970624,-0.009773844,1
-0.9547539353370668,9.758898735046387,-1.0419782400131226,-0.028664048761129383,-0.032070424,-0.005192355,1
