acc_x,acc_y,acc_z,gyro_x,gyro_y,gyro_z,label
0.0,0.0,0.0,0.0,-0.046731193,0.014049901000000002,1
-0.0033985415939241648,-0.28103968501091003,0.046158693730831146,-0.0002994285023305565,-0.043066,0.025045475,1
-0.01197385136038065,-0.9522271752357484,0.1557384878396988,-0.0010227339807897806,-0.018936822,0.022602014,1
-0.023782674223184586,-1.8798279762268064,0.30537140369415283,-0.0016817685682326555,-0.0018325958,0.020463986,1
-0.03662625700235367,-2.9159188270568848,0.4699090421199799,-0.003007230116054416,0.0125227375,0.030848695,1
-0.04895212128758431,-3.9424865245819087,0.6299389600753784,-0.004594662692397833,0.028710667,0.028099801,1
-0.059839002788066864,-4.8857269287109375,0.773692786693573,-0.003478416707366705,0.040317107000000005,0.025350908,1
-0.06889589875936508,-5.7108001708984375,0.8959441184997559,-0.0011218189029023053,0.024740042,0.025961773,1
-0.07608071714639664,-6.409390449523926,0.9958294034004213,0.0003776178928092122,0.01282817,0.03176499,1
-0.0815325677394867,-6.988062858581543,1.074823975563049,0.0006995990988798441,0.011911872,0.03268129,1
-0.08546636998653412,-7.460190773010254,1.135419845581055,0.0028540159109979872,0.01282817,0.0290161,1
-0.08812747895717621,-7.841292858123778,1.180478572845459,0.004814852029085159,-0.010690141499999998,0.03970624,1
-0.08967429399490356,-8.146418571472168,1.2127004861831665,0.006430758628994226,-0.004276057,0.034513887,1
-0.08937442302703857,-8.391098976135254,1.2365206480026243,0.00609958078712225,0.017104227,0.03940081,1
-0.08724743127822876,-8.587165832519531,1.2542284727096558,0.005229407921433449,0.047036625,0.03756821,1
-0.08365420252084732,-8.743780136108397,1.2669880390167236,0.006637877784669399,0.035430185,0.035430185,1
-0.07888203859329224,-8.868492126464844,1.2757513523101809,0.009569259360432623,0.010690141499999998,0.039095376,1
-0.07314591854810715,-8.967455863952637,1.2812800407409668,0.012554510496556759,0.0012217305,0.040317107000000005,1
-0.0666629895567894,-9.045700073242188,1.284226894378662,0.01540500018745661,-0.011911872,0.05009095,1
-0.05956415086984634,-9.107258796691896,1.2850841283798218,0.013487828895449638,-0.013133603,0.042760565999999986,1
-0.051973924040794366,-9.155403137207033,1.2842639684677124,0.007804928813129663,0.015577064,0.0290161,1
-0.04399063438177109,-9.192764282226562,1.2820969820022583,0.0012805662117898464,0.11056661,0.02687807,1
-0.03559765964746475,-9.222223281860352,1.282799243927002,-0.0006230986327864231,0.1282817,0.05009095,1
-0.021104548126459118,-9.260293006896973,1.3495140075683594,-0.0034269930329173803,0.07147124,0.07086037,1
0.006917819846421479,-9.306015014648438,1.491629123687744,-0.008892484940588474,-0.019242255,0.09865474,1
0.0428171381354332,-9.344932556152344,1.6540588140487669,-0.016333024948835373,-0.119729586,0.105068825,1
0.07072705775499344,-9.361791610717773,1.7498178482055664,-0.028334943577647213,-0.10140363,0.1151481,1
0.07582792639732361,-9.376750946044922,1.735651612281799,-0.03873811662197113,-0.039095376,0.12095132,1
0.08349527418613434,-9.346413612365724,1.6470801830291748,-0.03881406784057617,0.0033597588,0.15485434,1
0.13422003388404846,-9.237818717956543,1.5588737726211548,-0.02376757375895977,-0.06750060599999999,0.21013765,1
0.25089243054389954,-9.1333589553833,1.5138821601867676,0.004269761499017477,-0.28344148,0.26236662,1
0.4078082144260407,-9.154719352722168,1.4849796295166016,0.041429776698350906,-0.49296826,0.26328292,1
0.5815742611885071,-9.274896621704102,1.439350724220276,0.07948605716228485,-0.51893,0.24648413,1
0.7643640637397766,-9.420340538024902,1.3380340337753296,0.11280278861522675,-0.29626966,0.19181168,1
0.9567470550537108,-9.57735538482666,1.174692153930664,0.13667167723178866,-0.08796459400000001,0.18967366,1
1.1088179349899292,-9.75082778930664,0.9896148443222046,0.12938255071640015,0.045814894,0.17928895,1
1.2350744009017944,-9.915658950805664,0.8314909934997559,0.09854570776224136,-0.051923547,0.2284636,6
1.3548184633255005,-10.075417518615724,0.7153190374374391,0.036915797740221024,-0.2510656,0.29168814,6
1.4357224702835083,-10.221951484680176,0.5900585651397705,-0.06728377193212509,-0.3848451,0.27855456,6
1.392904281616211,-10.37231731414795,0.38669291138648987,-0.22445935010910034,-0.42180246,0.14019357,6
1.2184455394744873,-10.470528602600098,0.007628547493368387,-0.44605815410614014,-0.30909783,-0.03604105,6
1.0437700748443604,-10.421926498413086,-0.3722015619277954,-0.7145557999610901,-0.24129178,-0.060170225999999986,6
0.8353850841522217,-10.221814155578613,-0.6302353739738464,-1.0135629177093506,-0.094989546,-0.12889257,6
0.4609783589839935,-10.130369186401367,-0.8470732569694519,-1.329699993133545,0.61178154,-0.26022860000000003,6
-0.059664245694875724,-10.52259635925293,-1.084465265274048,-1.6312450170516968,1.0384709,-0.4364632000000001,6
-0.59491366147995,-11.127758026123047,-1.39240825176239,-1.8343085050582888,1.3820826000000002,-0.54825157,6
-0.8980884552001953,-11.598259925842285,-1.490934133529663,-1.903074026107788,1.6218473,-0.5308419,6
-0.9053328037261964,-11.784802436828613,-1.2040833234786987,-1.884599566459656,0.9831876,-0.54641896,6
-0.7838649749755859,-11.646524429321287,-1.0031269788742063,-1.910449862480164,0.14569137,-0.46700647,6
-0.5784837603569031,-11.36810302734375,-0.9471554756164552,-1.8860265016555784,-0.42577308,-0.44623706,6
-0.30059945583343506,-11.059223175048828,-0.850723147392273,-1.8035266399383545,-0.8353582,-0.59773165,6
-0.07195521146059036,-10.657383918762207,-0.8451292514801025,-1.6479606628417969,-0.8399397,-0.7443393,6
0.022441310808062557,-10.130109786987305,-0.9212051630020142,-1.4651010036468506,-0.8164214,-0.7583892,6
-0.06079528108239174,-9.598854064941406,-1.0159018039703371,-1.294762372970581,-0.9636399,-0.7293731,6
-0.19302548468112946,-9.100333213806152,-1.109909176826477,-1.1312713623046875,-1.0537425,-0.6908886,6
-0.2758758068084717,-8.590332984924316,-1.2013908624649048,-0.9565292000770568,-1.0146471,-0.6783658,6
-0.2538547217845917,-8.026750564575195,-1.2126684188842771,-0.7526335120201111,-1.0387764000000002,-0.636827,6
-0.14400672912597656,-7.343199253082275,-1.218552827835083,-0.5283263921737671,-0.9779953,-0.5681046999999999,6
-0.0577438659965992,-6.5904974937438965,-1.3159627914428709,-0.2873416543006897,-0.74036866,-0.40439278,6
-0.023660022765398026,-5.826035976409912,-1.5230748653411863,-0.048891179263591766,-0.24037547,-0.18020524,6
-0.013432368636131288,-5.122830867767334,-1.7893084287643433,0.18559952080249786,0.36957347,0.11178834,6
0.03702396899461746,-4.5892534255981445,-2.0456032752990723,0.4142580628395081,0.84482664,0.35979962,6
0.13029424846172333,-4.330432415008545,-2.1620092391967773,0.6328297257423401,0.8170323,0.51159966,6
0.27547991275787354,-4.375022888183594,-1.9889976978302,0.8186503052711487,0.28741209999999995,0.7076874,6
0.4375318884849548,-4.830261707305908,-1.5435680150985718,0.9150071740150452,-0.79229224,0.72295904,6
0.5264754891395569,-5.637644290924072,-1.175013780593872,0.9080411791801452,-1.7024814,0.34513888,6
0.5765529274940491,-6.171860218048097,-1.0825766324996948,0.8127278685569763,-1.9792033,0.116980694,6
0.4664933681488037,-6.526907444000244,-1.540127158164978,0.6402599215507507,-1.0436633,-0.30818152,6
0.2263433635234833,-6.926687240600586,-2.204994440078736,0.5770471096038818,-0.4437936,-0.26816985,6
0.10038813203573227,-7.948441505432129,-2.5302503108978267,0.4815365374088288,1.2999213,0.008246681,6
0.15752659738063812,-9.78107738494873,-2.476629734039306,0.041482310742139816,-0.12644911,-0.32406402,6
0.8611836433410645,-11.447479248046875,-3.4985063076019287,-0.2609206438064575,2.2214115000000003,-0.559858,6
1.2967818975448608,-11.84484577178955,-2.6251461505889893,-0.4781343042850494,-0.038179077,-0.18906279,6
1.377369999885559,-11.120851516723633,-1.6012736558914185,-0.5128755569458008,-0.8381071,0.22449298,6
1.5681227445602417,-10.35970401763916,-0.958684265613556,-0.40254861116409296,-1.1737776000000002,0.48380527,6
1.823749542236328,-10.325839042663574,-1.1731733083724976,-0.1654282957315445,-0.28863382,0.6939429,6
2.07791519165039,-10.919862747192383,-1.6888552904129028,0.10265262424945833,0.5164866,0.4978552,6
2.459742784500122,-11.618082046508787,-2.1395187377929688,0.20601777732372284,0.17806722,0.17073683,6
2.93274474143982,-12.225120544433596,-3.084031105041504,0.07324579358100891,0.7800749,-0.44409904,6
2.902979850769043,-12.370444297790527,-3.6774408817291264,-0.2806072533130646,0.87872964,-0.9660834,6
2.2123844623565674,-11.826736450195312,-3.8784761428833012,-0.7630987167358398,0.98746365,-0.75686204,6
1.0226765871047974,-10.7056884765625,-3.7742881774902335,-1.1654045581817627,1.5036448,-0.17195857,6
-0.3988286554813385,-9.307819366455078,-3.2196977138519287,-1.4787472486495972,2.0299053,-0.10445796,6
-1.497588276863098,-7.759225845336914,-2.131753206253052,-1.7429533004760742,0.8732319,-0.20005837,6
-1.9782522916793823,-6.123704433441162,-0.1934216320514679,-1.8771960735321045,-4.0176606,-0.08735373,6
-2.1816565990448002,-4.762961387634277,1.500029683113098,-1.7228029966354368,-6.2512894,-0.5824600000000001,6
-1.7127197980880735,-3.6973781585693364,-0.3646559119224548,-1.614079833030701,-0.1908954,-0.12767084,6
-0.919159471988678,-4.2805800437927255,-2.048737049102783,-1.35215163230896,1.6383406,0.16798794,6
-0.4063321948051453,-6.418776035308838,-2.7905099391937256,-0.946941375732422,2.6435194,1.0088439,6
-0.1783798485994339,-8.745028495788574,-3.2191486358642583,-0.3857430219650269,0.24587326,0.42943826,6
-0.3871341645717621,-10.25472354888916,-3.9843370914459233,0.2775284945964813,-0.54702985,-0.45540005,6
-0.4930327534675598,-10.14641571044922,-4.4670939445495605,0.8637443780899048,-1.2461652,-0.68325275,6
-0.1835055351257324,-9.275007247924805,-4.445756435394287,1.2653418779373171,-0.6365215999999999,-0.47555858,6
0.3394125998020172,-8.132437705993652,-3.9059255123138423,1.479094386100769,0.39950588,-0.14294247,6
0.7973678708076477,-6.577799320220947,-2.903956890106201,1.6629416942596436,-0.26847526,0.24312437,6
1.0127272605895996,-5.204220771789551,-1.702092528343201,1.7362148761749268,-1.9083431,0.2761111,6
1.0591447353363037,-4.3091535568237305,-1.1729005575180054,1.5997781753540041,-1.7104226000000002,0.044898596,6
0.9581273198127748,-3.611559391021729,-1.6487159729003906,1.3073991537094116,-1.3631458,-0.17562376,6
0.5259085893630981,-3.4374146461486816,-3.336308479309082,0.9586042761802672,-1.7748689999999998,-0.27458394,6
0.445776104927063,-4.036666393280028,-3.779908657073975,0.9345569610595704,0.21594086,-0.18387043,6
0.5414733290672302,-5.663538455963135,-1.9093225002288816,0.4773671627044678,-1.3307699,-0.095294975,6
-0.006489093415439129,-7.99752140045166,-3.480685949325561,0.39906778931617737,-1.0622946000000002,0.19425514,6
-0.4033161699771881,-9.957446098327637,-4.1693196296691895,-0.0833364725112915,2.021964,0.30298916,6
-0.8481206893920898,-10.499908447265623,-3.7006607055664062,-0.30453556776046753,4.4556513,0.14874569,6
-0.9763808846473694,-9.982647895812988,-2.618537425994873,-0.5748344659805298,2.8527408,-0.093462385,6
-0.4864267408847809,-9.55629825592041,-2.778938770294189,-0.922106683254242,2.1569653,-0.28527406,6
0.16454742848873138,-9.809417724609377,-3.162562847137451,-1.2772421836853027,2.5885415000000003,-0.4868596,6
0.5371180772781372,-10.032964706420898,-2.608441114425659,-1.654670000076294,1.1362093999999998,-0.31184670000000003,6
0.8548232316970825,-9.489615440368652,-1.6663222312927246,-1.9807291030883791,-0.36987892,0.34422258,6
1.0218284130096436,-8.544617652893066,-0.7704470157623291,-2.148925542831421,-2.0992384,0.20372356,6
0.9490280151367188,-7.572819709777832,-0.34943944215774536,-2.1344869136810303,-2.0161607,-0.20219639,6
0.7914347648620605,-6.913032054901122,-1.1634706258773804,-2.015160322189331,-0.2098322,-0.15485434,6
0.6088531017303467,-6.844255447387695,-2.488255023956299,-1.7576909065246582,0.9783007,0.58123827,6
0.2818179428577423,-8.083889007568361,-3.421544313430786,-1.366405963897705,1.4822645,0.82924956,6
-0.24895578622817996,-9.495548248291016,-4.27763032913208,-0.8638513684272766,1.0207558,0.54244834,6
-0.4395427405834198,-9.772181510925293,-4.678423881530762,-0.3072251379489899,0.91415983,0.410196,6
-0.2754777669906616,-9.199880599975586,-4.480219841003418,0.14823254942893982,0.39584067,0.3726278,6
0.09770738333463667,-8.24120044708252,-3.9504897594451904,0.5700756907463074,0.70432764,0.41813725,6
0.6305182576179504,-7.337535381317139,-3.03071403503418,0.9831627011299132,-0.54825157,0.20830505,6
1.356197714805603,-6.580676555633545,-2.3944954872131348,1.3948538303375244,-1.4321736,0.035124752999999995,6
2.1933352947235107,-6.089877128601074,-2.2498269081115723,1.7911566495895386,-1.9135354,-0.22204952,6
2.971831560134888,-5.571463108062744,-2.10133957862854,1.978859066963196,-2.003638,-0.23182335,6
3.1257021427154537,-4.917899131774902,-1.749294996261597,1.8491030931472776,-1.7333301,-0.22968534,6
2.625483989715576,-4.146393775939941,-2.1006431579589844,1.4308977127075195,-4.4608436,0.376293,6
1.7803257703781128,-4.0056681632995605,-2.151571750640869,1.4367871284484863,-2.1868975,0.14263703,6
1.1669025421142578,-4.87556266784668,-0.8693206906318665,0.993953824043274,-2.0958786,-0.054061573,6
0.3130139112472534,-6.964358329772949,-1.4598371982574463,0.8235180377960205,-1.1233811000000002,0.37965274,6
-0.306327223777771,-8.863763809204102,-2.8342301845550537,0.32091179490089417,3.1300735,-0.07147124,6
-0.8770735263824463,-9.056095123291016,-2.1589972972869877,0.07413461804389954,3.5714238,0.46273044,6
-0.9507960677146912,-8.641389846801758,-0.8033785820007324,-0.19609706103801727,0.84879726,0.3735441,6
-0.5642374157905579,-8.321603775024414,-0.8678153157234192,-0.3837558031082153,0.50823987,0.37843102,6
0.05801402777433395,-8.817658424377441,-1.5825254917144775,-0.6966279745101929,1.9062049,0.030543262,6
0.6080532670021057,-9.836033821105957,-2.3018567562103267,-1.192007541656494,1.42973,-0.528093,6
0.610069215297699,-10.568824768066406,-2.9961631298065186,-1.6891086101531982,2.1358902000000004,-0.53969944,6
0.21480238437652588,-10.283291816711426,-2.2721495628356934,-2.098907232284546,0.6178902,0.22907446,6
-0.051635362207889564,-9.35347843170166,-0.8046473264694214,-2.253157138824463,-2.2504275,0.07147124,6
0.10811998695135117,-8.437036514282228,-0.5650797486305237,-2.225087404251098,-2.4651468,-0.48563787,6
0.5763049721717834,-7.603590965270996,-1.6410115957260132,-2.1252894401550293,0.15882497,0.35338554,6
0.6079229116439819,-7.527694225311278,-2.5810670852661133,-1.85605788230896,0.86345804,0.9923506,6
0.2812422215938568,-8.277658462524414,-3.4394254684448238,-1.3511043787002563,0.50976706,0.5867361,6
-0.15362662076950073,-8.674168586730957,-4.072989940643311,-0.7314985394477844,0.729984,0.4792238,6
-0.5957279801368713,-8.556174278259277,-4.252884864807129,-0.14032191038131714,1.0439687,0.27397305,6
-0.950181782245636,-8.196659088134767,-4.309467315673828,0.4555757939815521,2.0060816000000004,0.19058995,6
-1.1501034498214722,-7.925220489501952,-3.875343799591065,1.1281265020370483,2.4306328,0.18906279,6
-1.0647343397140503,-7.672687530517577,-2.8366923332214355,1.805835247039795,1.0958921999999998,0.18936823,6
-0.5555700659751892,-7.136167049407959,-1.6520007848739624,2.3347454071044917,-1.6887369,0.22693644,6
0.3831641972064972,-6.273269176483153,-1.2008874416351318,2.5090203285217285,-2.5256224,0.4071417,6
1.4294791221618652,-5.313623428344727,-1.3110393285751345,2.460644483566284,-1.8823812,0.10598512,6
2.016456127166748,-4.58030366897583,-1.5215779542922974,2.215998411178589,-1.0021244,-0.18967366,6
2.1844220161437993,-4.063331604003906,-2.444838523864746,1.6123850345611572,-0.04184427,-0.73823065,6
1.973842978477478,-4.190544605255127,-4.112687110900879,1.1777245998382568,-1.6355917,0.24648413,6
1.6742373704910278,-5.561761379241943,-2.845414161682129,0.9731545448303224,-2.0754147,0.31795537,6
1.209040641784668,-7.72542142868042,-1.99516236782074,0.4185293912887573,-1.8997909,0.4596761,6
0.2966598868370056,-9.87183952331543,-3.49666166305542,0.06812883168458939,0.80909103,0.39950588,6
-0.6182311177253723,-10.66911506652832,-4.731062412261963,-0.2889432907104492,3.9040399,-0.1337795,6
-1.119990587234497,-10.531315803527832,-4.967446804046631,-0.6240906715393066,4.0986004000000005,-0.1685988,6
-0.915060579776764,-10.032306671142578,-4.107821464538573,-1.0064367055892944,2.9345965,-0.23548855,6
-0.2831281721591949,-9.860777854919434,-3.2184174060821533,-1.396855711936951,1.1368201999999998,-0.3210097,6
0.1348390430212021,-10.182656288146973,-3.169052600860596,-1.7790933847427368,1.6820174,-0.5161811,6
0.36052748560905457,-10.547364234924316,-2.3327603340148926,-2.1428694725036617,-2.1368067,-0.45234573,6
1.2958436012268066,-10.918143272399902,-1.3703153133392334,-2.3146648406982417,-3.4541376000000006,-0.80481493,6
1.8116793632507324,-10.188328742980957,-1.7328051328659058,-2.405918598175049,-1.7058412,0.40561453,6
1.4841365814208984,-9.219359397888184,-2.5508062839508057,-2.2980797290802,-0.8258898000000001,1.6093245,6
0.3391213417053223,-9.170019149780273,-3.353454113006592,-1.9613813161849976,-0.09010262,1.2211196000000002,6
-1.0343858003616333,-9.766152381896973,-4.1618428230285645,-1.4620563983917236,0.5516113,0.5207626000000001,6
-2.0054340362548833,-10.013508796691896,-4.832072734832764,-0.8921505212783813,1.7186694,0.1001819,6
-2.5006084442138667,-9.868093490600586,-5.072126388549805,-0.3234520852565765,2.1731532,-0.1600467,6
-2.514664888381958,-9.22818660736084,-4.7988600730896,0.2532484531402588,2.039679,-0.16982053,6
-1.935975432395935,-8.081682205200195,-4.141761302947998,0.8421464562416077,1.7192802,-0.0693332,6
-0.8939585685729979,-6.675532341003418,-3.159867286682129,1.3685150146484375,1.273654,0.1386664,6
0.21008315682411194,-5.2721290588378915,-2.0207662582397456,1.8037022352218628,-0.14905111,0.4896085,6
1.1251540184020996,-4.22465181350708,-1.0342894792556765,2.0787816047668457,-2.0124955,0.37507126,6
1.833235025405884,-3.4781525135040283,-0.8185058832168579,2.1823351383209233,-2.1560488,0.10140363,6
2.3997929096221924,-2.9398033618927,-1.70382559299469,1.9841961860656736,-0.52412236,-0.022296581,6
2.6111419200897217,-3.0858094692230225,-3.852503061294556,1.2996729612350464,-0.39370266,-0.38026363,6
2.2369306087493896,-3.711102724075317,-4.874306678771973,1.121288537979126,-0.005497787,0.08246681,6
1.6967533826828003,-5.060291767120361,-2.5191004276275635,0.9522336721420288,-0.9837985,-0.19700404,6
1.1501671075820925,-6.9496684074401855,-1.4603670835494995,0.5211150646209717,-2.035403,-0.19242255,6
0.3872419893741608,-9.167218208312988,-3.2781965732574463,0.3547305762767792,1.2174544,-0.06994407,6
0.11972252279520035,-10.562570571899414,-3.912763118743897,-0.0910372957587242,2.8096747000000004,-0.4266894,6
-0.26409414410591125,-10.392251014709473,-3.2236218452453613,-0.3408149480819702,3.680157700000001,-0.49174652,6
-0.2873949706554413,-9.370722770690918,-2.206139326095581,-0.6890649199485779,1.3054191000000002,0.02107485,6
0.4216906726360321,-8.811675071716309,-1.9510319232940676,-1.028060793876648,1.0567969,0.2406809,6
1.0467699766159058,-9.064481735229492,-2.0617520809173584,-1.272201657295227,0.4709771,-0.44990227,6
1.274206042289734,-9.93064022064209,-2.3090851306915283,-1.4361720085144043,-0.48838675,-0.4633413,6
1.4832559823989868,-11.352818489074707,-2.425966739654541,-1.6033056974411009,-0.33292156,-0.21899518,6
1.1962500810623171,-12.839090347290039,-2.491189956665039,-1.6959372758865356,-1.3460416000000002,-0.344528,6
0.061884786933660514,-14.118115425109865,-3.1726093292236333,-1.6638798713684082,-0.16707164,-0.5751295999999999,6
-0.9820032715797424,-14.463227272033693,-4.0959835052490225,-1.4398285150527954,0.6646214,-0.5467244000000001,6
-1.480176568031311,-13.689465522766113,-4.70541524887085,-1.1555699110031128,1.3973542,-0.087659165,6
-1.7208465337753296,-13.107516288757324,-4.844353675842285,-0.8317016363143921,2.2079725,0.0012217305,6
-1.7388598918914795,-12.658188819885256,-4.423163890838623,-0.4723909199237824,1.960572,0.04184427,6
-1.5429482460021973,-12.151448249816895,-3.829789400100708,-0.09411650896072388,1.366811,0.052534413,6
-1.279373288154602,-11.468859672546387,-3.2121181488037114,0.2956938445568085,0.7510588,0.030543262,6
-1.0449346303939822,-10.535120964050293,-2.5726842880249023,0.6599864363670349,-0.05772676700000001,0.124005646,6
-0.8689136505126953,-9.440052032470703,-1.86220383644104,0.9922674298286438,-0.8713993,0.35124752,6
-0.7282506823539734,-8.31904125213623,-1.2670302391052246,1.2414733171463013,-1.5079208999999998,0.6630941999999999,6
-0.5798731446266174,-7.252120494842528,-1.0465489625930786,1.4252440929412842,-1.543351,0.91446525,6
-0.4214679300785065,-6.348918437957764,-1.0673342943191528,1.5958354473114014,-1.0876455,0.9999864,6
-0.21463514864444733,-5.790768623352051,-0.9647412300109864,1.7342199087142944,-1.3322971,1.0622946000000002,6
0.02404865249991417,-5.829621315002441,-0.5901161432266235,1.8119761943817136,-3.0546317000000003,0.74006325,6
0.23839899897575376,-6.744476318359375,-0.9972682595252992,1.7132220268249512,-3.5298848,0.1853976,6
0.4942574203014374,-8.053122520446777,-2.4743635654449463,1.3290656805038452,-0.076358154,-0.27885997,6
0.6507091522216797,-9.231649398803713,-3.081947565078736,1.2397313117980957,1.4923438,-0.09621128,6
0.449199378490448,-10.727137565612793,-2.217773199081421,1.1568478345870972,0.89736104,0.5506949999999999,6
-0.13518314063549042,-12.116745948791506,-1.2908040285110474,0.889306366443634,-0.30390546,0.39828414,6
-0.7991573810577393,-12.289395332336426,-0.7538423538208008,0.6624603271484375,-1.2180653,0.3203988,6
-1.2006386518478394,-11.844886779785154,-0.6482480764389038,0.4896992743015289,-0.91965765,0.15943582,6
-1.1805258989334106,-11.139453887939453,-0.7853148579597473,0.3505704700946808,-0.29810223,0.11728613,6
-0.8620885610580444,-10.275800704956056,-0.8338491916656494,0.2861592769622803,-0.086132,0.27091873,6
-0.5093940496444702,-9.534117698669434,-0.5576393008232117,0.2790694236755371,-0.038179077,0.28680122,6
-0.1901775598526001,-9.136848449707033,-0.046564999967813485,0.3198053538799286,-0.4156938,0.23335053,6
0.10040409862995148,-9.055059432983398,0.36887070536613453,0.4015808403491974,-0.8677341000000001,0.17501289,6
0.3120615780353546,-9.133089065551758,0.486783504486084,0.4801948368549347,-0.8915578000000002,0.13652839,6
0.3760368525981903,-9.33373737335205,0.3372669816017151,0.5357174277305603,-0.5354234,0.051618114000000014,6
0.3449633717536926,-9.66367244720459,-0.08411550521850586,0.5923927426338196,0.13805555,-0.08582657,6
0.28304147720336914,-9.974446296691896,-0.4446630775928497,0.6297259330749512,0.4361577999999999,-0.13652839,6
0.0912088230252266,-10.047562599182127,-0.484559178352356,0.5702016353607178,0.28955013,-0.025961773,6
-0.19952932000160215,-9.963436126708984,-0.4276912808418274,0.4728787243366242,0.23060162,0.1432479,6
-0.4546411037445069,-9.810707092285156,-0.31814709305763245,0.3873875737190247,0.16523905,0.16982053,6
-0.5638141036033629,-9.701109886169434,-0.16499432921409607,0.32309800386428833,0.053145275,0.2910773,6
-0.5017772912979126,-9.688458442687988,0.03225569799542427,0.2688764035701752,-0.26206118,0.26633725,6
-0.2889274656772613,-9.72649383544922,0.17456500232219696,0.21098525822162628,-0.44806966,0.18875736,6
-0.014239082112908363,-9.816061019897461,0.21029479801654816,0.15817809104919436,-0.3707952000000001,0.07696902,6
0.21401746571063995,-9.870532989501953,0.15755313634872434,0.1286342591047287,0.027488936,-0.028405234,6
0.2706592082977295,-9.85632038116455,0.10590191930532457,0.1270662397146225,0.4999932,-0.058337633,6
0.13796931505203247,-9.802136421203613,0.13282549381256106,0.1338413804769516,0.711658,-0.009773844,6
-0.1335667371749878,-9.74506950378418,0.2351574599742889,0.13370481133461,0.752586,0.03940081,6
-0.4140795171260834,-9.699146270751953,0.3726816177368164,0.13608461618423462,0.60231316,0.05009095,6
-0.5567057132720947,-9.655346870422363,0.48218688368797297,0.15181957185268402,0.23487769,0.118202426,6
-0.5016687512397766,-9.667614936828613,0.4699003994464874,0.16288267076015472,0.1328632,0.122478485,1
-0.2716249227523804,-9.737642288208008,0.3367622792720795,0.15850107371807098,0.19120082,0.13591751,1
0.04825805500149727,-9.783525466918944,0.19258491694927216,0.13352809846401215,0.226631,0.100792766,1
0.37100714445114136,-9.796148300170898,0.12638646364212036,0.09628081321716307,0.16523905,0.06536258,1
0.6312048435211182,-9.811190605163574,0.18200020492076874,0.06845392286777496,0.129198,0.03573562,1
0.7665389180183411,-9.846789360046387,0.29822999238967896,0.05764025077223778,0.004276057,0.01740966,1
0.7704067230224609,-9.874029159545898,0.3826272487640381,0.04506843537092209,-0.076358154,0.028099801,1
0.691494345664978,-9.865564346313477,0.3831378519535065,0.027649695053696632,-0.13408493,0.024740042,1
0.5941125750541687,-9.842761993408203,0.36598166823387146,0.006909764837473631,-0.20830505,0.027488936,1
0.4993537664413452,-9.821555137634276,0.36346572637557983,-0.01433686073869467,-0.29504790000000003,0.029321533,1
0.4062775671482086,-9.79700756072998,0.34438180923461914,-0.030360005795955658,-0.29016098,0.02076942,1
0.3204142451286316,-9.761419296264648,0.3277123272418976,-0.04634880647063255,-0.2452624,0.027488936,1
0.24742791056633,-9.715073585510254,0.31872209906578064,-0.06398678570985794,-0.2049453,0.020158553,1
0.20117993652820587,-9.683757781982422,0.3287975788116455,-0.07708875834941864,-0.19486602,0.024129177,1
0.15544047951698306,-9.668718338012695,0.34972313046455383,-0.08063240349292755,-0.2846632,0.012217305,1
0.08836162835359572,-9.66535472869873,0.36087629199028015,-0.07797462493181229,-0.34116822,0.0070249503,1
0.00043109466787427664,-9.669207572937012,0.3704088926315308,-0.07883087545633316,-0.27458394,-0.00580322,1
-0.10663776099681854,-9.674215316772461,0.4113295674324036,-0.08261469751596451,-0.17745635,-0.01282817,1
-0.22125749289989471,-9.684776306152344,0.4573310315608978,-0.08357936143875122,-0.09407325,-0.013744468,1
-0.3456369042396545,-9.699901580810547,0.4593996703624725,-0.07661984860897064,0.004276057,-0.014966198,1
-0.4676124453544617,-9.719813346862793,0.4245449006557465,-0.06795848906040193,0.055588737,0.007330383,1
-0.5511939525604248,-9.70423698425293,0.3816141188144684,-0.06830359250307083,0.030543262,0.017715093,1
-0.5635707378387451,-9.666942596435547,0.35386046767234797,-0.0731288343667984,0.10934488,0.027183503,1
-0.5062018632888794,-9.630373001098633,0.35859403014183044,-0.0739857405424118,0.11575896,0.014966198,1
-0.4150244891643524,-9.619712829589844,0.3547210991382599,-0.06745380163192749,0.08735373,0.0009162979,1
-0.3269136846065521,-9.643813133239746,0.3299364745616913,-0.0555545873939991,0.06750060599999999,0.010079277,1
-0.24673756957054135,-9.656937599182127,0.3026196360588074,-0.045898113399744034,0.08124508,0.02076942,1
-0.16230641305446625,-9.63677978515625,0.2883182466030121,-0.04126427695155144,0.11911872,0.03634648,1
-0.08290430158376694,-9.616050720214844,0.2988525927066803,-0.03510390594601631,0.08246681,0.030543262,1
-0.025805169716477398,-9.626675605773926,0.3230397403240204,-0.023121174424886703,-0.017715093,0.023823744,1
0.0013900450430810454,-9.672674179077148,0.33125224709510803,-0.013116577640175821,-0.07086037,0.01282817,1
0.016550438478589058,-9.700608253479004,0.3014300763607025,-0.012805131264030932,0.010995574,0.0021380284,1
0.032915618270635605,-9.707500457763672,0.2804058492183685,-0.017241381108760834,0.07727446,-0.008246681,1
0.04796434938907623,-9.714853286743164,0.2847854793071747,-0.020802179351449013,0.03970624,-0.0067195175,1
0.05842052027583122,-9.736412048339844,0.28301259875297546,-0.01949554681777954,-0.033292156,0.004886922,1
0.07208436727523804,-9.758658409118652,0.2686058282852173,-0.022114362567663196,-0.06719518,0.013744468,1
0.08924388885498047,-9.760573387145996,0.24898816645145416,-0.030741240829229355,-0.017715093,0.0027488936,1
0.10050523281097412,-9.742493629455566,0.2610844075679779,-0.03632472828030586,-0.028099801,-0.0070249503,1
0.08885933458805084,-9.725589752197266,0.2891580760478973,-0.0360836535692215,-0.04550946,-0.012217305,1
0.0526331327855587,-9.709721565246582,0.2983222603797913,-0.03253655880689621,-0.04184427,-0.00580322,1
0.011405258439481258,-9.696949005126953,0.29696324467659,-0.029483612626791,-0.03726278,0.004276057,1
-0.0022643047850579023,-9.69385814666748,0.2934233844280243,-0.028034524992108345,-0.019242255,0.008552114,1
-0.001735677826218307,-9.698397636413574,0.2894502580165863,-0.02537055872380733,-0.0070249503,-0.0012217305,1
-0.007938471622765064,-9.70922565460205,0.2939470708370209,-0.023392328992486,-0.039095376,-0.0027488936,1
-0.03137309104204178,-9.71385669708252,0.2963917851448059,-0.024436108767986298,-0.04917465,0.008552114,1
-0.05478749796748161,-9.710824966430664,0.29550981521606445,-0.026770975440740585,-0.019242255,0.013133603,1
-0.07099062204360962,-9.706013679504396,0.2970585823059082,-0.025444583967328068,0.006414085,0.007330383,1
-0.07832908630371094,-9.699392318725586,0.300089567899704,-0.02396784350275993,0.034513887,0.014966198,1
-0.07235133647918701,-9.688583374023438,0.3050350248813629,-0.0216059647500515,0.03573562,0.024740042,1
-0.055523816496133804,-9.670875549316406,0.3149123191833496,-0.019245514646172523,-0.0009162979,0.016798794,1
-0.03330828621983528,-9.67518138885498,0.3221366107463837,-0.012743215076625349,0.0070249503,0.013744468,1
-0.01802842505276203,-9.691146850585938,0.32058584690093994,-0.004169399384409189,0.009773844,0.022602014,1
-0.001118658110499382,-9.699530601501463,0.29842451214790344,0.0035862608347088103,0.02443461,0.018325957,1
0.01966267451643944,-9.695149421691896,0.2757518291473389,0.006196157541126014,0.09468412,0.014049901000000002,1
0.04046303033828736,-9.680392265319824,0.27908390760421753,0.0068290336057543755,0.07391469,0.010995574,1
0.039865344762802124,-9.67784595489502,0.2972341775894165,0.011663362383842468,0.019242255,0.02321288,1
0.035160522907972336,-9.696186065673828,0.3192344307899475,0.016655562445521355,-0.040011674,0.028710667,1
0.035942666232585914,-9.711404800415039,0.3252366483211517,0.01330693531781435,-0.014049901000000002,0.032375857,1
0.040664367377758026,-9.71566677093506,0.3444715440273285,0.005175761412829161,0.048258353,0.016187929,1
0.03853846713900566,-9.71381664276123,0.37932825088500977,0.0019789680372923613,0.043982297,0.016493361,1
0.019469257444143292,-9.716083526611328,0.3992139995098114,0.0034096906892955303,0.028405234,0.008857545999999999,1
0.007540233433246611,-9.727869987487793,0.4022533297538757,0.0038766313809901476,0.02565634,0.0061086523,1
0.00942236091941595,-9.730145454406738,0.3966003358364105,0.0008397555211558938,0.05955936,0.023518313,1
0.017867574468255043,-9.711767196655273,0.4101543724536896,-0.003969905897974968,0.061391957,0.016798794,1
0.036722350865602486,-9.69970417022705,0.4234853982925415,-0.0049361903220415115,0.03940081,0.009468411,1
0.05599616095423698,-9.716970443725586,0.4356027543544769,-0.004347611218690872,0.009468411,0.0067195175,1
0.07398144900798798,-9.737634658813477,0.4459985792636871,-0.008984905667603016,-0.020158553,0.01740966,1
0.10881897807121277,-9.741337776184082,0.44839331507682795,-0.01954231038689613,0.0009162979,0.009468411,1
0.14343656599521634,-9.737080574035645,0.45820352435112,-0.025764333084225655,0.018325957,0.0033597588,1
0.15785963833332062,-9.727899551391602,0.4651529490947723,-0.027472512796521187,-0.03848451,0.00030543262000000003,1
0.1606006920337677,-9.728630065917967,0.4508234858512878,-0.03019794449210167,-0.093462385,0.016187929,1
0.16963320970535278,-9.72322940826416,0.4302396476268768,-0.036108121275901794,-0.09560041,0.0067195175,1
0.17229685187339785,-9.712166786193848,0.42556750774383545,-0.04098952934145928,-0.06078109,0.005192355,1
0.1650572419166565,-9.69977569580078,0.4369769394397736,-0.043304268270730965,-0.06169739,0.004886922,1
0.1347934454679489,-9.697343826293944,0.4516308605670929,-0.04665971919894218,-0.08827003,0.012217305,1
0.09227123111486436,-9.706714630126953,0.4528263509273529,-0.04844473302364349,-0.07880162,0.027794369,1
0.05155201628804207,-9.71479034423828,0.4492841362953186,-0.04714735224843025,-0.046731193,0.027794369,1
0.018314994871616364,-9.707197189331056,0.4512013792991638,-0.04516053199768066,-0.031154128,0.028405234,1
-0.00778051745146513,-9.688490867614746,0.4536125063896179,-0.04264810681343079,0.009773844,0.027794369,1
-0.02588631585240364,-9.673141479492188,0.4605143666267395,-0.04062943905591965,0.02107485,0.02687807,1
-0.037716325372457504,-9.671831130981444,0.4613622128963471,-0.035473953932523734,0.0021380284,0.013744468,1
-0.04465287551283837,-9.690591812133787,0.44581401348114014,-0.0305671114474535,0.02321288,0.016493361,1
-0.04394019395112991,-9.70096206665039,0.43336451053619385,-0.030796049162745483,0.048563786,0.016493361,1
-0.03405040130019188,-9.703126907348633,0.42304497957229614,-0.03382670879364014,0.08460484,0.016493361,1
-0.02088119462132454,-9.704601287841797,0.41353899240493774,-0.03499370813369751,0.08735373,0.013744468,1
-0.005140813067555428,-9.714495658874512,0.3870916068553925,-0.03255907446146012,0.08521569999999999,0.01740966,1
0.011196717619895937,-9.72480010986328,0.35600268840789795,-0.03444235771894455,0.06383542,0.009162978,1
0.0282470490783453,-9.717065811157227,0.33160147070884705,-0.03781091049313545,0.10751228,0.008857545999999999,1
0.04718833416700363,-9.70049285888672,0.32750415802001953,-0.0398218147456646,0.13744467,0.007330383,1
0.0581505112349987,-9.701406478881836,0.32809388637542725,-0.038585368543863297,0.1142318,0.0143553335,1
0.06530164927244186,-9.712324142456056,0.3252820074558258,-0.036398690193891525,0.06719518,0.019242255,1
0.07701088488101959,-9.711465835571287,0.3220515549182892,-0.03807127475738525,0.06047566,0.020158553,1
0.0839080885052681,-9.703815460205078,0.33116888999938965,-0.042335335165262215,0.092240654,0.01038471,1
0.08187643438577652,-9.698760986328123,0.35218945145606995,-0.04169515520334244,0.08552113,0.013744468,1
0.07338419556617737,-9.691431045532227,0.3662137389183045,-0.03639709576964378,0.079107046,0.010690141499999998,1
0.06759070605039598,-9.683843612670898,0.37119415402412415,-0.031116005033254623,0.052534413,0.025045475,1
0.06738706678152084,-9.672794342041016,0.3734338581562042,-0.02809721976518631,0.05467244,0.021685716,1
0.06935574114322662,-9.660472869873047,0.39688003063201904,-0.02581840008497238,0.08643743400000001,0.01985312,1
0.05760280415415764,-9.65586757659912,0.4176937341690064,-0.021113818511366844,0.056505036,0.022602014,1
0.031821075826883316,-9.66034984588623,0.4337873756885529,-0.015799906104803085,0.03390302,0.027794369,1
0.0037644011899828906,-9.673511505126953,0.4390977025032044,-0.012634815648198128,0.04550946,0.027794369,1
-0.018515489995479584,-9.677094459533693,0.4370275437831879,-0.00931265950202942,0.0571159,0.034513887,1
-0.022731300443410873,-9.665504455566406,0.4426571726799011,-0.006719253957271576,0.04337143,0.036957346,1
-0.014068637043237686,-9.66355037689209,0.4595319032669067,-0.0021867493633180857,-0.005497787,0.04734206,1
0.007532151881605388,-9.67772388458252,0.4679387807846069,0.0032120125833898787,-0.03726278,0.04428773,1
0.020068159326910973,-9.692707061767578,0.4591531753540039,0.003679396817460656,-0.027183503,0.034513887,1
0.029384007677435875,-9.698601722717283,0.4553912878036499,0.002470244886353612,-0.00030543262000000003,0.019242255,1
0.028054306283593174,-9.698588371276855,0.4593060910701752,0.0026052752509713173,-0.011911872,0.024129177,1
0.01953142881393433,-9.705244064331056,0.4580433368682861,0.003127792617306113,-0.03756821,0.035124752999999995,1
0.013683428056538105,-9.720054626464844,0.4469012320041657,0.0027468360494822264,-0.025961773,0.03390302,1
0.017593473196029663,-9.725774765014648,0.4429393708705902,-0.003008241066709161,-0.015271631,0.03145956,1
0.029298540204763406,-9.72103214263916,0.4504515826702118,-0.008848682045936584,-0.015271631,0.02443461,1
0.031999796628952026,-9.719392776489258,0.4795689880847931,-0.010455106385052204,-0.040011674,0.014966198,1
0.030332164838910106,-9.722089767456056,0.5024633407592773,-0.0102133983746171,-0.05925392700000001,0.01740966,1
0.02578123100101948,-9.719991683959961,0.5109295248985289,-0.011591558344662191,-0.03268129,0.016187929,1
0.014438305050134659,-9.70415210723877,0.5247590541839601,-0.012710196897387505,-0.008246681,0.021991149,1
-0.0031677645165473227,-9.688115119934082,0.5438209772109985,-0.012001476250588894,-0.0076358155,0.03359759,1
-0.02037041075527668,-9.688681602478027,0.5656747817993164,-0.009638568386435507,-0.036651913,0.043066,1
-0.032530125230550766,-9.704974174499512,0.5842711329460144,-0.008434923365712166,-0.06383542,0.038789943,1
-0.02603272348642349,-9.71470832824707,0.5803105235099792,-0.00959491729736328,-0.04886922,0.01985312,1
-0.024894600734114647,-9.701947212219238,0.5814198851585388,-0.011721733026206492,-0.019242255,0.021380283,1
-0.03291776776313782,-9.685941696166992,0.5868089199066162,-0.013128676451742649,-0.02076942,0.011301007,1
-0.048554051667451865,-9.676984786987305,0.5940071940422058,-0.0137419868260622,-0.042455133,0.016493361,1
-0.07046890258789062,-9.67195987701416,0.5965548753738403,-0.015416132286190987,-0.028099801,0.02076942,1
-0.09221181273460388,-9.667085647583008,0.5991169810295105,-0.01740335300564766,-0.003970624,0.02443461,1
-0.10547275096178056,-9.664121627807617,0.6100791096687317,-0.018485695123672485,0.01282817,0.02687807,1
-0.10984865576028824,-9.667036056518556,0.613469123840332,-0.019414816051721573,-0.0009162979,0.02107485,1
-0.1090860664844513,-9.673654556274414,0.6096214652061462,-0.01891794428229332,-0.0027488936,0.021991149,1
-0.11015822738409042,-9.678511619567873,0.6139996647834778,-0.018399778753519055,0.0036651916,0.018325957,1
-0.10636802017688753,-9.677957534790039,0.6102609634399414,-0.018605861812829968,0.015882496,0.021380283,1
-0.10594025254249573,-9.674184799194336,0.6095786690711975,-0.01786481775343418,0.03604105,0.015882496,1
-0.10847291350364684,-9.674694061279297,0.5996359586715698,-0.015231710858643057,0.02443461,0.014966198,1
-0.1111503541469574,-9.683238983154297,0.590502917766571,-0.015274503268301487,0.0061086523,0.014660766,1
-0.112556591629982,-9.692944526672363,0.5918242335319519,-0.01708235219120979,0.0076358155,0.031154128,1
-0.1157740131020546,-9.699238777160645,0.6022456288337708,-0.02049661800265312,0.027183503,0.022602014,1
-0.11968109756708145,-9.709131240844727,0.6120616793632507,-0.02253285050392151,0.045814894,0.021991149,1
-0.1157280132174492,-9.70592975616455,0.6151726841926575,-0.023781944066286087,0.03390302,0.010995574,1
-0.10816740244627,-9.692087173461914,0.6215906739234924,-0.02698008343577385,0.044593163,0.013439035,1
-0.09886524081230164,-9.680623054504396,0.6369710564613342,-0.02825115993618965,0.05467244,0.0036651916,1
-0.09085604548454283,-9.680458068847656,0.6489225029945374,-0.02807672880589962,0.044898596,0.0036651916,1
-0.08859845995903015,-9.687172889709473,0.6451393365859985,-0.02831106074154377,0.033292156,0.007330383,1
-0.09230977296829224,-9.69017219543457,0.6308470368385315,-0.0309480894356966,0.045814894,0.0067195175,1
-0.09425734728574753,-9.685155868530273,0.6261757612228394,-0.0344405397772789,0.05925392700000001,0.013439035,1
-0.08485110849142075,-9.685585975646973,0.6344761848449707,-0.03588920086622238,0.07452556,0.009468411,1
-0.06758279353380202,-9.696625709533693,0.6343953013420105,-0.036495693027973175,0.040011674,0.008552114,1
-0.05439172685146332,-9.704353332519533,0.6159129142761229,-0.03833845630288124,0.030848695,0.004581489,1
-0.041439220309257514,-9.70201015472412,0.5909600853919983,-0.04167284071445465,0.047647487,0.004581489,1
-0.02610250748693943,-9.687784194946287,0.5777955651283264,-0.044890496879816055,0.06566802,0.0027488936,1
-0.02094280906021595,-9.677568435668944,0.5746190547943115,-0.042730767279863364,0.056199603,0.007941248,1
-0.01466216892004013,-9.679686546325684,0.5686770677566528,-0.03888365998864174,0.01282817,0.01863139,1
-0.00369393709115684,-9.680171012878418,0.5624904036521912,-0.03768467903137207,-0.0009162979,0.02107485,1
0.01085415668785572,-9.682605743408203,0.5621153712272644,-0.03808016330003738,0.01863139,0.022907447,1
0.017584098502993584,-9.687234878540039,0.5704053044319153,-0.03760797902941704,0.027488936,0.024740042,1
0.009424738585948944,-9.692056655883787,0.5839151740074158,-0.0345403291285038,-0.004886922,0.023518313,1
-0.0076099936850368985,-9.697497367858887,0.5958680510520935,-0.03224914520978928,-0.017715093,0.023823744,1
-0.01978457346558571,-9.691344261169434,0.6047126650810242,-0.0318249948322773,-0.003970624,0.018936822,1
-0.024575764313340187,-9.687819480895996,0.6127225756645203,-0.02961669489741325,0.016798794,0.01985312,1
-0.03241514042019844,-9.690500259399414,0.6118569374084473,-0.02889627777040005,-0.013133603,0.01282817,1
-0.04513990506529808,-9.689119338989258,0.6066746115684509,-0.028916748240590092,-0.024129177,0.021685716,1
-0.05085953325033188,-9.685864448547363,0.6042934656143188,-0.030034173280000687,-0.004581489,0.02321288,1
-0.05292842909693718,-9.683249473571776,0.6055629849433899,-0.030268680304288864,0.015577064,0.02076942,1
-0.053512990474700935,-9.681879997253418,0.6054325699806213,-0.030526474118232724,0.020463986,0.027488936,1
-0.05147450789809227,-9.685959815979004,0.6109822988510132,-0.029538603499531742,-0.0061086523,0.016187929,1
-0.05231979116797447,-9.698651313781738,0.6207247972488403,-0.028771001845598217,-0.025350908,0.023518313,1
-0.05589277297258377,-9.695616722106934,0.6220488548278809,-0.02998257987201214,-0.021380283,0.019547688,1
-0.058546502143144614,-9.687036514282227,0.6249151825904846,-0.03033315017819405,0.012217305,0.022602014,1
-0.06312349438667297,-9.683330535888672,0.6271840929985046,-0.03014889918267727,0.003970624,0.013744468,1
-0.06824086606502533,-9.68420124053955,0.6233531832695007,-0.028410993516445163,-0.008857545999999999,0.019547688,1
-0.0726444274187088,-9.688673973083496,0.6075937151908875,-0.029220269992947582,-0.0061086523,0.018936822,1
-0.07629352807998657,-9.683286666870117,0.5966048240661621,-0.03210904076695442,0.01038471,0.014049901000000002,1
-0.07897953689098358,-9.671259880065918,0.5965715646743774,-0.03360649198293686,0.030848695,0.015882496,1
-0.08337771147489548,-9.66920280456543,0.6057806611061096,-0.03457362577319145,0.026267206,0.014966198,1
-0.08567552268505096,-9.682684898376463,0.6067174673080444,-0.03330167382955551,0.00030543262000000003,0.018020526,1
-0.07921645045280458,-9.696985244750977,0.6084708571434021,-0.03453120216727257,-0.009468411,0.017104227,1
-0.06472903490066527,-9.691263198852539,0.6123217940330505,-0.03578464686870575,0.017715093,0.014966198,1
-0.06001058593392373,-9.678982734680176,0.6226815581321716,-0.03670421615242958,0.015577064,0.0076358155,1
-0.07165974378585815,-9.680981636047363,0.6263668537139893,-0.034692876040935516,0.017715093,0.0076358155,1
-0.08493892848491669,-9.69165325164795,0.6211632490158081,-0.032609932124614716,-0.0070249503,0.014049901000000002,1
-0.08663204312324524,-9.69968032836914,0.6074230670928955,-0.03305130451917648,0.00061086525,0.015271631,1
-0.07323937118053436,-9.698402404785156,0.6126259565353394,-0.034347347915172584,0.03359759,0.00580322,1
-0.06822815537452698,-9.69797420501709,0.6153912544250488,-0.034771885722875595,0.051618114000000014,0.01160644,1
-0.08079089224338531,-9.701126098632812,0.6101284027099609,-0.032747410237789154,0.026267206,0.01038471,1
-0.08671002089977264,-9.700675010681152,0.6025452017784119,-0.032111912965774536,-0.008857545999999999,0.012217305,1
-0.08108245581388474,-9.69406032562256,0.5977522134780884,-0.03436790406703949,0.0143553335,0.0076358155,1
-0.07240526378154755,-9.689214706420898,0.6086286902427673,-0.03908547386527062,0.05497787,-0.0015271631,1
-0.07659535855054855,-9.698524475097656,0.6321232318878174,-0.0416199304163456,0.03970624,-0.0009162979,1
-0.08334831893444061,-9.707751274108887,0.6393638849258423,-0.04290162399411202,0.0125227375,0.0027488936,1
-0.08891241997480392,-9.709901809692383,0.6309748291969299,-0.04610220715403557,0.0070249503,0.0021380284,1
-0.08633989840745926,-9.696600914001463,0.6267480850219727,-0.051328230649232864,0.02321288,0.002443461,1
-0.0828389823436737,-9.677042961120604,0.6368749141693115,-0.055858045816421516,0.024740042,0.003970624,1
-0.08519499748945236,-9.66799259185791,0.6457788348197937,-0.057483632117509835,0.021685716,0.0015271631,1
-0.08878867328166963,-9.665099143981934,0.6548979878425598,-0.057191673666238785,0.0067195175,0.00580322,1
-0.08791311830282211,-9.660667419433594,0.655476987361908,-0.05680397897958756,-0.004886922,0.0067195175,1
-0.08457087725400925,-9.650940895080566,0.6417087316513062,-0.05633608624339104,0.022296581,0.013744468,1
-0.07761823385953902,-9.647699356079102,0.638386607170105,-0.05679786950349808,0.022907447,0.015882496,1
-0.06266063451766968,-9.651472091674805,0.6370975971221924,-0.05392441526055336,-0.0012217305,0.005192355,1
-0.047944549471139915,-9.662591934204102,0.6247295141220093,-0.05213576182723045,-0.0125227375,0.010690141499999998,1
-0.046373173594474786,-9.668423652648926,0.6094140410423279,-0.051781147718429565,-0.0143553335,0.007941248,1
-0.04383530840277672,-9.66833782196045,0.5940977931022644,-0.05203969031572342,-0.006414085,0.002443461,1
-0.043888945132493966,-9.671517372131348,0.579300582408905,-0.04964156448841095,-0.0070249503,0.0125227375,1
-0.04963796213269234,-9.681722640991213,0.5671660304069519,-0.046670444309711456,-0.016798794,0.01038471,1
-0.06073499470949172,-9.688283920288086,0.5546767115592957,-0.04631134495139122,-0.038789943,0.01985312,1
-0.05891681835055351,-9.681697845458984,0.5429359078407288,-0.04710859805345535,-0.008552114,0.019547688,1
-0.05095767974853516,-9.678485870361328,0.5403125286102295,-0.04423770308494568,-0.011911872,0.016493361,1
-0.03765171766281128,-9.689745903015137,0.5330761671066284,-0.040696170181036,-0.02107485,0.009162978,1
-0.037720754742622375,-9.700615882873537,0.5131205916404724,-0.03816555812954903,-0.018020526,0.014966198,1
-0.041165407747030265,-9.703811645507812,0.5060981512069702,-0.03776392340660095,-0.030543262,0.01740966,1
-0.041220996528863914,-9.699520111083984,0.5122693777084351,-0.03647660836577416,-0.026267206,0.016798794,1
-0.04080747812986374,-9.702138900756836,0.5103437304496765,-0.03279014676809311,-0.021991149,0.0067195175,1
-0.04011810943484306,-9.710156440734863,0.5047919154167175,-0.029536621645092964,-0.025961773,0.010079277,1
-0.0423433780670166,-9.717878341674805,0.5018149018287659,-0.030754728242754936,-0.039095376,0.0143553335,1
-0.049845118075609214,-9.714388847351074,0.5102213621139526,-0.03100609220564365,-0.022907447,0.015577064,1
-0.05832849815487861,-9.704811096191406,0.5204531550407411,-0.0296427458524704,-0.0012217305,0.013744468,1
-0.0604088306427002,-9.706029891967773,0.5277304649353027,-0.027175528928637505,0.0030543262,0.0070249503,1
-0.059039004147052765,-9.710855484008787,0.5363408923149109,-0.02684562280774116,-0.021685716,0.016493361,1
-0.05233942717313767,-9.708404541015623,0.5443061590194702,-0.02768894284963608,0.00030543262000000003,0.018936822,1
-0.040200147777795785,-9.698914527893066,0.5592554211616516,-0.027319822460412983,0.004581489,0.00580322,1
-0.031581107527017586,-9.693177223205566,0.5677735209465027,-0.025945590808987614,0.0070249503,0.009468411,1
-0.02977466583251953,-9.69383144378662,0.5693082809448242,-0.024500478059053418,-0.0018325958,-0.003970624,1
-0.032402154058217995,-9.692468643188477,0.561852216720581,-0.02287966571748257,-0.009162978,0.01038471,1
-0.030209796503186226,-9.689887046813963,0.5635802149772644,-0.02223113179206848,-0.004276057,0.006414085,1
-0.022598924115300182,-9.689745903015137,0.5697362422943115,-0.0213424488902092,0.009773844,0.0070249503,1
-0.0192733146250248,-9.690135955810547,0.569676399230957,-0.019303716719150543,0.004276057,0.0076358155,1
-0.022357290610671043,-9.693438529968262,0.5698609352111816,-0.016546370461583138,-0.0070249503,0.013133603,1
-0.024004288017749783,-9.698304176330566,0.5711881518363953,-0.015303604304790497,-0.016798794,0.014966198,1
-0.014651607722043991,-9.686849594116213,0.5710359215736389,-0.015608943067491056,-0.016493361,0.02321288,1
0.008896589279174805,-9.686037063598633,0.5874937176704407,-0.015630265697836876,-0.022907447,0.016493361,1
0.034183572977781296,-9.695229530334473,0.6027997136116028,-0.015363140031695366,-0.06780604,0.009162978,1
0.050638779997825616,-9.710628509521484,0.6150036454200745,-0.015021899715065956,-0.099265605,0.01740966,1
0.07076568156480789,-9.713505744934082,0.6309462189674377,-0.016367008909583092,-0.11911872,0.03145956,1
0.0896173045039177,-9.700844764709473,0.6427321434020996,-0.020597442984580997,-0.12339478,0.025045475,1
0.09817878901958466,-9.700532913208008,0.6473431587219238,-0.024106170982122418,-0.1151481,0.027794369,1
0.08875960111618042,-9.707942962646484,0.6382687091827393,-0.02598616667091846,-0.15027285,0.022602014,1
0.06279410421848297,-9.71267795562744,0.6160802245140076,-0.028124790638685226,-0.15027285,0.015577064,1
0.03167575225234032,-9.700026512145996,0.5952696204185486,-0.03175915777683258,-0.10873401,0.011911872,1
-0.0014028288424015045,-9.683557510375977,0.5862635374069214,-0.03473600372672081,-0.055588737,0.021685716,1
-0.0239794310182333,-9.673662185668944,0.5872842669487,-0.034690678119659424,-0.050396383,0.023518313,1
-0.03146592900156975,-9.682442665100098,0.5754708647727966,-0.033589374274015434,-0.04550946,0.021685716,1
-0.03774039447307587,-9.699326515197754,0.5649436116218567,-0.034952294081449516,-0.021991149,0.016493361,1
-0.051115751266479485,-9.702485084533693,0.5636699795722961,-0.03621702268719673,0.009773844,0.006414085,1
-0.07571736723184586,-9.699810028076172,0.5703149437904358,-0.03539492934942245,0.029626964,-0.0021380284,1
-0.10612569749355316,-9.69930934906006,0.5806830525398254,-0.032753266394138336,0.04520403,0.016187929,1
-0.14065183699131012,-9.698633193969727,0.5829803943634033,-0.030537176877260205,0.052839845,0.019242255,1
-0.16910502314567566,-9.69459629058838,0.5866395831108093,-0.031055016443133358,0.07941248,0.014049901000000002,1
-0.19406868517398834,-9.684784889221193,0.5879398584365845,-0.03215136379003525,0.1255328,0.009773844,1
-0.22150588035583496,-9.673255920410156,0.5896867513656616,-0.028609002009034164,0.14966199,0.012217305,1
-0.23645934462547305,-9.669766426086426,0.5962608456611633,-0.0233629047870636,0.15149458,0.033292156,1
-0.22324539721012115,-9.664125442504883,0.6006959080696106,-0.017467427998781204,0.14935656,0.03176499,1
-0.1842285692691803,-9.654474258422852,0.6007909774780273,-0.010289566591382028,0.16798794,0.02321288,1
-0.13650719821453094,-9.65748691558838,0.5992337465286255,-0.001805874519050121,0.15577064,0.020158553,1
-0.09263338893651962,-9.675779342651367,0.5992564558982849,0.005897075869143009,0.13255776,0.017715093,1
-0.057451315224170685,-9.69869899749756,0.6019458770751953,0.008543245494365692,0.10751228,0.012217305,1
-0.035223864018917084,-9.7144136428833,0.597625732421875,0.005453278776258229,0.14508049,0.01282817,1
-0.029933476820588112,-9.718409538269043,0.5900605916976929,0.0011496583465486765,0.16187929,0.005497787,1
