acc_x,acc_y,acc_z,gyro_x,gyro_y,gyro_z,label
0.0,0.0,0.0,0.0,0.0076358155,0.016187929,8
0.18991003930568692,0.02341102622449398,0.20664753019809726,-0.0010536505142226817,0.010079277,0.01282817,8
0.6432871818542479,0.07982141524553299,0.6993188261985779,-0.003599120071157813,0.009773844,0.02107485,8
1.2690482139587402,0.15646220743656158,1.3816848993301392,-0.006780724972486496,0.023823744,0.020158553,8
1.9730641841888428,0.2427452951669693,2.146829843521118,-0.010870245285332205,0.010690141499999998,0.017104227,8
2.672804832458496,0.3245256841182709,2.91088604927063,-0.013607598841190338,0.013744468,0.021685716,8
3.3215792179107666,0.404436856508255,3.6057829856872563,-0.01633317768573761,0.013744468,0.014966198,8
3.8930351734161377,0.4694992303848266,4.232227325439453,-0.018187416717410088,0.0070249503,0.020158553,8
4.3869948387146005,0.5216747522354126,4.738924503326416,-0.020404523238539696,0.00580322,0.014660766,8
4.79043436050415,0.564014732837677,5.223492622375488,-0.022681917995214462,0.009162978,0.016798794,8
5.117696285247803,0.5989775657653809,5.576042175292969,-0.023342564702034,0.006414085,0.011301007,8
5.383014678955078,0.634494423866272,5.849949836730957,-0.025024402886629105,0.007330383,0.016187929,8
5.597816467285156,0.6690987348556519,6.052505970001222,-0.026672637090086937,0.0030543262,0.016187929,8
5.772024154663086,0.6966322660446167,6.190629959106445,-0.027385471388697624,0.013744468,0.01740966,8
5.921304702758789,0.7159920334815979,6.2915568351745605,-0.027885893359780308,0.00580322,0.0143553335,8
6.0436339378356925,0.7275467514991759,6.3956170082092285,-0.028031358495354645,0.013133603,0.014660766,8
6.14177942276001,0.7428522109985352,6.50571870803833,-0.029838688671588894,0.020158553,0.01740966,8
6.223578453063965,0.7491503357887268,6.622662544250487,-0.031572796404361725,0.0143553335,0.007941248,8
6.289199352264403,0.7468843460083008,6.739401340484619,-0.031843967735767365,0.011301007,0.014660766,8
6.335541248321532,0.7423225641250609,6.8487491607666025,-0.031148074194788933,0.0076358155,0.014660766,8
6.371226787567139,0.7421439886093141,6.954845905303955,-0.030884938314557082,0.009162978,0.019242255,8
6.4000511169433585,0.7427986860275269,7.031261920928955,-0.03055213950574398,0.008857545999999999,0.014966198,8
6.424000263214111,0.7460542321205139,7.0693397521972665,-0.030793422833085064,0.013133603,0.0125227375,8
6.442916393280028,0.7503433823585509,7.064673900604247,-0.031517431139945984,0.014966198,0.008246681,8
6.459005832672119,0.7612727880477905,7.028787136077881,-0.03186091035604477,0.011301007,0.01038471,8
6.474058628082275,0.7695124745368958,6.975948810577393,-0.031398434191942215,0.0033597588,0.011911872,8
6.484309673309326,0.7765535712242126,6.929249286651611,-0.03188413754105568,0.009773844,0.016187929,8
6.4926862716674805,0.7859269380569458,6.901314735412598,-0.032567430287599564,0.007941248,0.016493361,8
6.4983344078063965,0.794241189956665,6.897826194763184,-0.03216264396905899,0.010690141499999998,0.015882496,8
6.500080585479736,0.7933823466300964,6.9190330505371085,-0.032340798527002335,0.009162978,0.011301007,8
6.501875877380371,0.7892127037048341,6.965412139892577,-0.032186616212129586,0.010079277,0.0143553335,8
6.501969814300537,0.7872222065925598,7.0384602546691895,-0.033133555203676224,0.013744468,0.017715093,8
6.501720905303955,0.7807328701019287,7.09931755065918,-0.033251695334911346,0.007330383,0.015271631,8
6.499221324920653,0.7776062488555908,7.1365251541137695,-0.033347636461257935,0.010690141499999998,0.015577064,8
6.496290683746338,0.7781986594200134,7.136947154998778,-0.033661969006061554,0.012217305,0.012217305,8
6.498323917388916,0.7772542834281921,7.1184425354003915,-0.032474976032972336,0.0030543262,0.016493361,8
6.499645233154298,0.7836682796478271,7.0808186531066895,-0.03266183659434318,0.016493361,0.015271631,8
6.501921653747559,0.7836708426475525,7.039113521575928,-0.03249131515622139,0.008857545999999999,0.015882496,8
6.509638786315918,0.7764385938644409,7.0104756355285645,-0.03269493207335472,0.007941248,0.011301007,8
6.513581275939941,0.7700206637382507,6.998088836669923,-0.03264100849628448,0.005497787,0.014966198,8
6.509821891784668,0.7663129568099976,6.99741268157959,-0.032487500458955765,0.010995574,0.015577064,8
6.50777006149292,0.7685422897338867,7.016223430633545,-0.0315895713865757,0.022296581,0.018020526,8
6.507462978363037,0.7712864279747009,7.050873756408691,-0.03225389122962952,0.012217305,0.018020526,8
6.508221626281737,0.7698346376419067,7.085267543792725,-0.03248005360364914,0.0030543262,0.010995574,8
6.508414268493652,0.7685751914978027,7.114205360412598,-0.03096691332757473,0.007330383,0.018936822,8
6.5091552734375,0.7718807458877563,7.123126029968263,-0.029970258474349976,0.0030543262,0.015577064,8
6.508993625640869,0.7756385803222656,7.119694232940674,-0.030021319165825844,0.015577064,0.02107485,8
6.506847381591798,0.7781935930252075,7.107888221740723,-0.029873259365558624,0.011911872,0.021991149,8
6.505723476409912,0.777744710445404,7.094679355621338,-0.030430171638727188,0.0143553335,0.015271631,8
6.50906229019165,0.7725337147712708,7.089071273803711,-0.031957700848579414,0.017715093,0.019242255,8
6.51660680770874,0.7687681317329407,7.086122512817383,-0.03190779313445091,0.009162978,0.017715093,8
6.523280620574951,0.7673103809356691,7.088148593902588,-0.032439962029457085,0.01160644,0.019547688,8
6.525845050811768,0.7643406987190247,7.0917158126831055,-0.03250209242105484,0.0015271631,0.011911872,8
6.529252052307129,0.7615868449211121,7.093770503997803,-0.03229597583413124,0.011301007,0.01863139,8
6.529548168182372,0.7677263617515564,7.088189125061035,-0.03241649642586708,0.002443461,0.014966198,8
6.524502277374268,0.7735207676887512,7.082423210144043,-0.032005686312913895,0.005192355,0.0125227375,8
6.524717807769775,0.7777053713798523,7.07773494720459,-0.030645513907074932,0.0070249503,0.014660766,8
6.525952339172362,0.7834380269050598,7.078202247619629,-0.030498672276735306,0.009773844,0.015577064,8
6.5300660133361825,0.7864468693733215,7.07710075378418,-0.03037523478269577,0.012217305,0.020463986,8
6.534165859222412,0.7885017395019531,7.074180603027344,-0.02943958155810833,0.007941248,0.025350908,8
6.532536506652832,0.787095308303833,7.070742130279541,-0.029136955738067623,0.016493361,0.027488936,8
6.526586055755615,0.7835716605186462,7.075918197631836,-0.03023764863610268,0.02321288,0.023518313,8
6.525895118713379,0.7813234925270081,7.082310676574707,-0.030794627964496613,0.0125227375,0.016798794,8
6.527394771575928,0.7812236547470093,7.087388515472412,-0.03153623640537262,0.0015271631,0.01985312,8
6.538937091827393,0.7812226414680481,7.102315425872803,-0.030809100717306137,-0.04520403,0.017104227,8
6.546806812286378,0.78885418176651,7.11317253112793,-0.02839821949601173,-0.06658431,0.025961773,8
6.521450996398926,0.813389778137207,7.120882987976074,-0.024741286411881447,-0.13988814,0.057421334,8
6.514777660369872,0.8666786551475525,7.114161491394043,-0.02089901082217693,-0.13011430000000002,0.11728613,8
6.493857383728027,0.9400481581687928,7.083205223083496,-0.013231878168880941,0.007941248,0.16737708,8
6.499454021453857,1.0060014724731443,7.0487470626831055,-0.011007863096892834,-0.04886922,0.20616703,8
6.520325183868407,1.075275421142578,7.055849552154541,-0.011694813147187231,-0.09987647,0.23976462,8
6.486833572387695,1.153406262397766,7.068497657775879,-0.01830671168863773,-0.040011674,0.28771752,8
6.462645530700684,1.1538561582565308,7.033201694488525,-0.039389900863170624,0.06627888,0.30879238,8
6.477808475494385,1.0760387182235718,6.989190101623535,-0.05904391035437584,0.076052725,0.2947425,8
6.499259948730469,0.9497263431549072,6.974501609802246,-0.06982266157865524,0.13439035,0.25778514,8
6.514070987701416,0.8075661659240723,7.019137859344482,-0.07993881404399872,0.15027285,0.21135938,8
6.516529560089111,0.6354874968528748,7.088034629821777,-0.08974318206310272,0.13561209,0.16707164,8
6.497749328613281,0.4333612620830536,7.135232448577881,-0.09426851570606233,0.11881329,0.1142318,8
6.492659091949463,0.20409202575683594,7.1484923362731925,-0.08994157612323761,0.13958271,0.056505036,8
6.50442361831665,-0.019545769318938252,7.13326358795166,-0.07530438154935838,0.13958271,0.021685716,8
6.527442455291747,-0.18053852021694186,7.105050563812256,-0.05552036687731743,0.16707164,-0.011911872,8
6.564167499542236,-0.2692736387252808,7.0838680267333975,-0.034888427704572685,0.17715092,-0.03390302,8
6.6138062477111825,-0.3145657181739807,7.067550659179688,-0.009255253709852695,0.11575896,-0.030848695,8
6.65606689453125,-0.3269408345222473,7.052872657775879,0.02175714075565338,0.13255776,0.002443461,8
6.711351871490479,-0.2823552191257477,7.0957584381103525,0.036887187510728836,0.099571034,0.023518313,8
6.820688247680664,-0.19693000614643094,7.199045181274414,0.04002085700631142,0.044593163,0.036651913,8
6.913008689880371,-0.0300795566290617,7.347442626953125,0.0353052020072937,0.14691310000000002,0.09896017,8
6.921963691711426,0.15447422862052915,7.488096714019775,0.010411029681563377,0.12217305,0.09773844,8
6.7808518409729,0.2562917172908783,7.48459529876709,-0.01274366956204176,-0.020158553,0.03268129,8
6.524253845214844,0.2350247502326965,7.330806255340576,-0.010436907410621643,-0.024129177,-0.06414085,8
6.2890381813049325,0.18295872211456302,7.1548404693603525,0.006391637492924929,0.032986723,-0.18967366,8
6.176573753356934,0.22691555321216586,7.0173821449279785,0.019388122484087944,0.1133155,-0.30085114,8
6.193971633911133,0.3803638517856598,6.937150478363037,0.023414993658661842,0.21533,-0.31245756,8
6.288115978240968,0.5355769395828247,6.900688171386719,0.026525849476456642,0.24678956,-0.3023783,8
6.382597923278809,0.6406691670417786,6.912155151367188,0.03808413073420525,0.22785273,-0.2947425,8
6.41845178604126,0.7447633743286133,6.961210250854492,0.051306746900081635,0.2706133,-0.2406809,8
6.405665397644043,0.9128369688987732,7.054309844970702,0.04977323114871979,0.3286455,-0.14752395,8
6.38029146194458,1.119725227355957,7.175632953643799,0.03092137537896633,0.31703907,-0.058948494,8
6.3316144943237305,1.234976291656494,7.2616004943847665,0.009621727280318735,0.2415972,-0.021991149,8
6.213212490081787,1.224115014076233,7.2882628440856925,0.00024944619508460164,0.17440203,-0.02565634,8
6.028843402862549,1.1758359670639038,7.28680419921875,0.00600352231413126,0.13775012,-0.01038471,8
5.851163387298584,1.1545802354812622,7.3042073249816895,0.018251916393637657,0.10445796,0.0012217305,8
5.746121406555176,1.1677510738372805,7.365034103393555,0.02927491627633572,0.058948494,0.024129177,8
5.714245796203612,1.217229247093201,7.467807292938232,0.028315426781773567,0.04642576,0.056505036,8
5.723010063171388,1.248637318611145,7.568905830383301,0.013689854182302952,0.024740042,0.09101892,8
5.725240230560303,1.2026396989822388,7.597851276397705,8.907099982025101e-07,-0.032375857,0.076052725,8
5.71434211730957,1.128246188163757,7.58170747756958,-0.009025415405631064,-0.052534413,0.03481932,8
5.73638391494751,1.0829228162765503,7.570366382598878,-0.018653567880392075,-0.03359759,0.018936822,8
5.800291061401367,1.0625112056732178,7.5757689476013175,-0.03126688301563263,-0.0036651916,0.029321533,8
5.881011486053468,1.032634139060974,7.5807600021362305,-0.0426085889339447,-0.023823744,0.032375857,8
5.950751304626465,0.9799989461898804,7.582852840423584,-0.050457842648029334,-0.025045475,0.018020526,8
6.0032100677490225,0.9092437624931335,7.56755256652832,-0.05475185811519623,-0.017104227,0.01863139,8
6.0530943870544425,0.8429481983184814,7.5417113304138175,-0.05339419469237328,-0.034208454,0.025045475,8
6.085522651672362,0.8359546065330505,7.513262748718263,-0.05226651206612587,-0.01863139,0.018020526,8
6.0812339782714835,0.8638048768043518,7.499651908874513,-0.05499396473169327,0.010079277,0.011911872,8
6.064547061920166,0.8907340764999391,7.507798671722412,-0.060961991548538215,0.021991149,0.0012217305,8
6.0464863777160645,0.9430440664291382,7.50613260269165,-0.07238111644983293,0.05100725,-0.01038471,8
6.0164451599121085,0.9760975241661072,7.47270393371582,-0.08883984386920929,0.10781772,-0.0061086523,8
5.980591773986816,0.9822081327438354,7.442901611328125,-0.10794999450445177,0.13041973,-0.020463986,8
5.948420524597168,0.9201334714889526,7.46395206451416,-0.1247897818684578,0.096516706,-0.03359759,8
5.933593273162843,0.8079056143760681,7.4957642555236825,-0.13731420040130615,0.08277224,-0.043676864,8
5.966481685638428,0.6738280057907104,7.523772716522218,-0.13972537219524386,0.040927973,-0.03604105,8
6.0385518074035645,0.5332834720611572,7.54349946975708,-0.13339585065841675,0.008246681,-0.025961773,8
6.1229634284973145,0.412116676568985,7.560343265533447,-0.11623860150575638,-0.0018325958,-0.022907447,8
6.209983825683594,0.33553561568260193,7.562314510345459,-0.09474316239356996,-0.00580322,-0.014049901000000002,8
6.278026103973389,0.3153804838657379,7.529913902282715,-0.07019421458244324,-0.016493361,-0.004581489,8
6.303891658782959,0.33942729234695435,7.478606224060059,-0.04265701025724411,0.009773844,0.028405234,8
6.2997002601623535,0.4097512066364288,7.428647994995117,-0.0176139585673809,0.046731193,0.06383542,8
6.247252941131593,0.5238794088363647,7.397939682006836,-0.0007667500758543612,0.09773844,0.0580322,8
6.169483184814452,0.6473879814147949,7.410314083099365,0.0014476071810349822,0.12858713,0.040317107000000005,8
6.104905128479004,0.7489863634109497,7.453835964202881,-0.005217245779931545,0.13255776,0.029626964,8
6.039811611175537,0.8137603402137756,7.496409893035889,-0.01229134202003479,0.11942416,0.015577064,8
5.930020332336426,0.8524110317230225,7.54443359375,-0.016021979972720146,0.10476339,-0.016187929,8
5.814897537231445,0.8882383704185486,7.613372325897218,-0.02073683589696884,0.07422013,-0.018020526,8
5.755449295043945,0.9211705327033995,7.668631553649902,-0.02573927491903305,0.03940081,-0.008246681,8
5.736175537109375,0.9458710551261902,7.6910362243652335,-0.031440801918506615,0.002443461,0.01160644,8
5.722951412200928,0.9544646739959716,7.695252895355225,-0.03309958428144455,-0.022907447,0.013439035,8
5.710281848907472,0.9454257488250732,7.677452087402344,-0.03690551221370697,-0.034513887,0.018020526,8
5.715696334838867,0.9178421497344972,7.6490888595581055,-0.04064321517944336,-0.017715093,0.023518313,8
5.756683349609375,0.8687421083450317,7.6203556060791025,-0.04024244099855423,-0.021685716,0.018936822,8
5.812321662902832,0.8097693920135498,7.602459907531737,-0.0381544753909111,0.00061086525,0.0036651916,8
5.869638919830322,0.7685092687606812,7.594494342803955,-0.036967482417821884,-0.0021380284,-0.009773844,8
5.929399490356445,0.7428082823753357,7.574096202850343,-0.0368976853787899,0.005192355,-0.014049901000000002,8
5.999894142150879,0.7334107756614685,7.546586990356445,-0.03835267201066017,0.03268129,-0.0067195175,8
6.0521416664123535,0.7406582236289978,7.510604381561278,-0.03939571976661682,0.07299839999999999,0.0012217305,8
6.070990562438965,0.7566215395927429,7.4887847900390625,-0.040206845849752426,0.09162979,0.014049901000000002,8
6.0434532165527335,0.7783780694007874,7.494850635528564,-0.03935270756483078,0.10751228,0.028710667,8
5.98281192779541,0.7891998887062073,7.518861770629883,-0.039531607180833817,0.10629055,0.038179077,8
5.917917728424072,0.7904040813446045,7.553887367248535,-0.040652945637702935,0.093767814,0.050701816,8
5.847233295440674,0.7858898639678955,7.584725379943848,-0.03894235566258431,0.0693332,0.050396383,8
5.7772789001464835,0.7728958129882812,7.603251934051514,-0.038023415952920914,0.06658431,0.043676864,8
5.728088855743407,0.7479388117790222,7.621409893035889,-0.039221126586198814,0.058948494,0.03268129,8
5.702096939086914,0.7255229353904724,7.64145565032959,-0.03900039941072464,0.056199603,0.026267206,8
5.694745063781737,0.7086722850799559,7.662553310394287,-0.03897988051176071,0.033292156,0.018325957,8
5.687593460083008,0.7026229500770569,7.6823649406433105,-0.03754804655909538,0.007941248,0.008552114,8
5.684611797332764,0.7109381556510925,7.7005743980407715,-0.03422780707478523,-0.00580322,-0.005192355,8
5.68308687210083,0.7202206254005432,7.699429035186768,-0.030140116810798645,-0.006414085,-0.015271631,8
5.69138240814209,0.730973482131958,7.691956043243407,-0.0277522224932909,-0.008857545999999999,-0.005497787,8
5.709726810455322,0.7474076151847839,7.678322792053223,-0.02717786654829979,0.009468411,-0.012217305,8
5.730343818664551,0.7658582329750061,7.658394813537598,-0.029601262882351875,0.015577064,0.0015271631,8
5.750242710113525,0.7821479439735413,7.651873588562013,-0.03320787847042084,0.01282817,0.0021380284,8
5.7729268074035645,0.7926909327507019,7.658071041107178,-0.03631041571497917,0.014049901000000002,0.015271631,8
5.800534248352051,0.7922603487968445,7.664387226104736,-0.038567375391721725,0.01038471,0.017715093,8
5.8358516693115225,0.7767816185951233,7.665315628051758,-0.03977451473474503,0.024740042,0.02687807,8
5.861040115356445,0.7537225484848022,7.654892444610597,-0.03748159855604172,0.036651913,0.029321533,8
5.864518165588379,0.7447089552879333,7.6478309631347665,-0.0351666659116745,0.049785517,0.025045475,8
5.8487610816955575,0.7413898706436157,7.646739959716798,-0.034054793417453766,0.043982297,0.017104227,8
5.820113182067871,0.7441977858543396,7.6526780128479,-0.034016162157058716,0.03848451,0.013133603,8
5.791038513183594,0.7582234144210815,7.669101238250732,-0.032462168484926224,0.0143553335,0.00580322,8
5.757130146026611,0.7758966684341431,7.68308687210083,-0.030154995620250705,-0.00061086525,0.023518313,8
5.723245143890381,0.7929083704948425,7.685698509216309,-0.028408285230398175,0.004276057,0.026572637000000003,8
5.68739652633667,0.8058063983917236,7.682569980621338,-0.028857979923486713,0.0015271631,0.024129177,8
5.6619930267333975,0.8161125779151917,7.683298110961914,-0.031357593834400184,0.006414085,0.024740042,8
5.64940357208252,0.8152496814727783,7.685006618499756,-0.03428448736667633,0.002443461,0.025961773,8
5.6389522552490225,0.8116633296012878,7.685664653778076,-0.037097249180078506,-0.01038471,0.021685716,8
5.63399600982666,0.8068063855171204,7.689178943634032,-0.04058132693171501,-0.023823744,0.021685716,8
5.633851528167725,0.795684814453125,7.690845966339111,-0.04423170909285545,-0.032375857,0.030848695,8
5.646088123321532,0.7793695330619812,7.686756610870361,-0.04590539261698723,-0.024740042,0.02321288,8
5.6720027923583975,0.7602500915527344,7.681363582611084,-0.047443151473999016,-0.03940081,0.033292156,8
5.701991558074951,0.7371962070465088,7.67100715637207,-0.048575542867183685,-0.03268129,0.02443461,8
5.732664585113525,0.7158775329589844,7.655349731445312,-0.04765127599239349,-0.027488936,0.028099801,8
5.7612648010253915,0.6961970925331116,7.648853778839111,-0.04524415358901024,-0.017104227,0.019547688,8
5.780524730682372,0.682459831237793,7.646000385284424,-0.04271087795495987,-0.026572637000000003,0.014660766,8
5.798728466033936,0.6791290640830994,7.637403011322021,-0.04188365489244461,-0.027183503,0.014660766,8
5.814253807067871,0.6783313155174255,7.627257347106934,-0.0404316671192646,-0.017104227,0.01160644,8
5.833733081817628,0.6779961585998535,7.608229160308838,-0.03734873980283737,-0.007330383,0.01863139,8
5.857483863830566,0.6774433851242065,7.5870304107666025,-0.032748572528362274,0.0018325958,0.020158553,8
5.879627227783202,0.6801168918609619,7.570663928985597,-0.029647896066308018,0.025045475,0.020463986,8
5.897049903869629,0.6857499480247498,7.562469959259032,-0.027692880481481552,0.03268129,0.01282817,8
5.904921531677246,0.6934986114501953,7.566945552825928,-0.026503484696149826,0.026267206,0.011911872,8
5.8914732933044425,0.7047088742256165,7.581649780273437,-0.02656744979321957,0.028710667,0.008246681,8
5.867767810821532,0.7214428186416626,7.594708442687987,-0.027955243363976482,0.02687807,0.01160644,8
5.8456172943115225,0.7344344258308411,7.599318981170653,-0.02780293114483356,0.011301007,0.009468411,8
5.819288730621338,0.7546020150184631,7.601981163024902,-0.026887396350502968,0.011301007,0.007941248,8
5.795907020568848,0.7651829719543457,7.6147093772888175,-0.02683267928659916,0.0061086523,0.01038471,8
5.78714656829834,0.7662990093231201,7.626266002655028,-0.027466265484690663,-0.0030543262,0.004581489,8
5.786394119262695,0.7675520181655884,7.633068561553955,-0.026744788512587547,-0.0009162979,-0.0021380284,8
5.79167366027832,0.7634854912757874,7.624345779418945,-0.02823771722614765,0.010995574,-0.010079277,8
5.8089776039123535,0.7595080733299255,7.6169676780700675,-0.029055293649435043,0.013744468,-0.00030543262000000003,8
5.829621315002441,0.7691330909729004,7.614299774169923,-0.03064349666237831,0.017715093,-0.00061086525,8
5.839108943939209,0.7762995362281799,7.617082118988037,-0.03515385091304779,0.025350908,0.006414085,8
5.841061115264893,0.771662712097168,7.6123085021972665,-0.03834632784128189,0.016798794,0.016798794,8
5.843170642852782,0.7638267278671265,7.603920459747314,-0.037924200296401984,0.028405234,0.029626964,8
5.8490047454833975,0.759756326675415,7.604905605316162,-0.03442634269595146,0.040011674,0.035430185,8
5.8429274559021,0.7532375454902649,7.620142459869385,-0.034052252769470215,0.03573562,0.03023783,8
5.826972007751465,0.7437999844551086,7.630799293518066,-0.03412839025259018,0.028405234,0.026572637000000003,8
5.8130202293396,0.7404295802116394,7.641499996185303,-0.03516148775815964,0.0290161,0.016493361,8
5.801135540008545,0.7424553632736206,7.651784896850586,-0.036207344383001334,0.017715093,0.016493361,8
5.7961769104003915,0.7420560121536255,7.661879539489746,-0.03679513931274414,0.018325957,0.01740966,8
5.793690204620361,0.7425706386566162,7.665221214294434,-0.03591804578900337,0.014049901000000002,0.01740966,8
5.7830023765563965,0.7411724328994751,7.664307594299316,-0.03634783625602722,0.007941248,0.020158553,8
5.775088787078857,0.7437440156936646,7.6645894050598145,-0.03573903813958168,0.0070249503,0.020463986,8
5.779347896575928,0.7441994547843933,7.6643524169921875,-0.037085436284542084,-0.0015271631,0.022296581,8
5.790048599243164,0.7432169318199158,7.659524440765381,-0.037099912762641914,-0.0027488936,0.021685716,8
5.804913520812987,0.7372570037841797,7.651244163513184,-0.03612881153821945,0.0018325958,0.01863139,8
5.814999580383301,0.7278546094894409,7.643857002258301,-0.03377434983849525,0.0036651916,0.018325957,8
5.818870544433594,0.7203607559204102,7.643433094024657,-0.0317879319190979,0.008552114,0.010690141499999998,8
5.820528984069824,0.7124115228652954,7.64810037612915,-0.031541839241981506,0.023518313,0.008857545999999999,8
5.827614784240723,0.7067290544509888,7.641952514648437,-0.03357692062854767,0.032986723,0.0125227375,8
5.831027030944824,0.7003059983253479,7.631948947906494,-0.03459242358803749,0.026572637000000003,0.008246681,8
5.82647180557251,0.6977427005767822,7.640999794006348,-0.03365442156791687,0.021991149,0.012217305,8
5.812769412994385,0.7018208503723145,7.650520324707031,-0.03207750990986824,0.017104227,0.015882496,8
5.798140048980713,0.7056690454483032,7.648149490356445,-0.03041630238294601,0.0030543262,0.013744468,8
5.784644603729247,0.7112029194831848,7.640487194061278,-0.02763848565518856,-0.004886922,0.016798794,8
5.774276256561278,0.7203021049499512,7.635277271270753,-0.024890029802918438,0.0061086523,0.014660766,8
5.7679548263549805,0.7314812541007996,7.6394290924072275,-0.02273869700729847,0.0067195175,0.015882496,8
5.764604568481445,0.7364901900291443,7.6521544456481925,-0.021833259612321854,0.0018325958,0.018020526,8
5.756834983825684,0.7421451210975647,7.653445243835449,-0.02226502634584904,-0.004886922,0.0143553335,8
5.752267360687256,0.7459992766380309,7.650383949279785,-0.02386561967432499,-0.004886922,0.011911872,8
5.757017135620117,0.75006103515625,7.655014514923097,-0.025540541857481003,-0.0076358155,0.009162978,8
5.765249252319336,0.7533457279205322,7.6585164070129395,-0.0259455107152462,-0.0027488936,0.01160644,8
5.769012451171875,0.7565733790397644,7.656029224395753,-0.026188010349869728,0.0015271631,0.0143553335,8
5.772078990936278,0.7537665963172913,7.655333518981934,-0.026449672877788544,-0.0009162979,0.017715093,8
5.777318000793457,0.7524336576461792,7.653775215148926,-0.027065739035606384,0.005497787,0.015577064,8
5.7787394523620605,0.7490131258964539,7.649710178375244,-0.02795780822634697,0.017715093,0.020158553,8
5.781599521636963,0.7476995587348938,7.654277324676514,-0.02921852096915245,-0.004581489,0.008246681,8
5.788290500640869,0.7446820735931396,7.657153606414795,-0.029875522479414936,0.010079277,0.016798794,8
5.801058292388916,0.7445008158683777,7.652768135070801,-0.03047276474535465,0.0061086523,0.015577064,8
5.809200763702393,0.7447797060012817,7.651255130767822,-0.0315454937517643,0.0027488936,0.01282817,8
5.810760498046875,0.7453312277793884,7.647582054138184,-0.031032007187604908,0.00061086525,0.019242255,8
5.816150665283202,0.7484371066093445,7.638449668884277,-0.030718984082341194,0.01282817,0.02107485,8
5.822103023529053,0.7514399290084839,7.63392972946167,-0.03099309839308262,0.009468411,0.02107485,8
5.828913688659668,0.7525848746299744,7.627133369445801,-0.03076616860926152,0.01160644,0.016493361,8
5.8308048248291025,0.7508263587951659,7.622575283050537,-0.032055143266916275,0.021380283,0.01985312,8
5.8287110328674325,0.7526535391807556,7.623713970184326,-0.03293481469154358,0.015882496,0.02076942,8
5.829479694366455,0.7400504946708679,7.6282243728637695,-0.03427853062748909,0.014049901000000002,0.019242255,8
5.822122573852539,0.7344855666160583,7.632535457611084,-0.03468606621026993,0.008246681,0.021380283,8
5.819199562072754,0.7312096357345581,7.633554935455322,-0.0353831872344017,0.013439035,0.017104227,8
5.820693492889403,0.7289009690284729,7.6342220306396475,-0.03582504019141197,0.017104227,0.013133603,8
5.8235416412353525,0.7291976809501648,7.6333675384521475,-0.03682773560285568,0.015271631,0.010995574,8
5.82714319229126,0.7300852537155151,7.633665561676025,-0.03814609348773956,0.022296581,0.015882496,8
5.829028129577638,0.7286452651023865,7.6344261169433585,-0.03877633437514305,0.025961773,0.02076942,8
5.8237128257751465,0.7290905117988586,7.633787631988525,-0.03887913003563881,0.022296581,0.01160644,8
5.818183898925781,0.727366030216217,7.632627010345459,-0.03821341320872307,0.01740966,0.010690141499999998,8
5.812806129455566,0.7251619696617126,7.63470458984375,-0.037879493087530136,0.016187929,0.010079277,8
5.806386470794678,0.7241842746734619,7.638685703277588,-0.03830529749393463,0.01985312,0.0143553335,8
5.805994510650635,0.7228679060935974,7.636970520019531,-0.038602780550718314,0.023823744,0.016187929,8
5.8044538497924805,0.7227864861488342,7.638251781463622,-0.038319356739521034,0.016798794,0.007330383,8
5.799642562866211,0.7239770293235779,7.638182163238525,-0.0373317152261734,0.018020526,0.0067195175,8
5.794845581054688,0.7249113321304321,7.639317035675049,-0.03745047003030777,0.026267206,0.009162978,8
5.790249347686768,0.7157080769538879,7.637726783752441,-0.0368737168610096,0.015577064,0.014049901000000002,8
5.7884907722473145,0.7119016647338867,7.6374125480651855,-0.03607859089970589,0.010079277,0.012217305,8
5.7843523025512695,0.7098388075828552,7.635040283203125,-0.03524169698357582,0.00580322,0.018325957,8
5.778659343719482,0.7068229913711548,7.631218910217285,-0.035251837223768234,0.005497787,0.009468411,8
5.776843547821045,0.7042236328125,7.628592014312744,-0.03473060950636864,0.013744468,0.012217305,8
5.777680397033691,0.7044528126716614,7.63284969329834,-0.03480541333556175,0.004581489,0.009162978,8
5.779391765594482,0.7053380012512207,7.630740642547607,-0.03432399034500122,0.008857545999999999,0.010079277,8
5.786247730255128,0.7088541984558105,7.643078804016112,-0.03461594507098198,0.01160644,0.008857545999999999,8
5.788985729217528,0.7097297906875609,7.656818866729736,-0.034795917570590966,0.008857545999999999,0.012217305,8
5.790609359741211,0.7155110836029053,7.661633014678955,-0.034317463636398315,0.010690141499999998,0.01740966,8
5.790212154388428,0.7264337539672852,7.658493518829347,-0.03528565540909767,0.017104227,0.013439035,8
5.784373283386231,0.7366604208946228,7.649645328521728,-0.035961076617240906,0.018020526,0.018325957,8
5.78189754486084,0.7396237850189209,7.65363883972168,-0.03573035076260567,0.024129177,0.013744468,8
5.779296875,0.7350528240203857,7.654873847961426,-0.0368780642747879,0.014966198,0.014049901000000002,8
5.781229496002197,0.7316105961799622,7.656341552734375,-0.03682732582092285,0.015271631,0.016798794,8
5.7866387367248535,0.7304553985595703,7.647975444793701,-0.03678413107991218,0.012217305,0.016798794,8
5.793891906738281,0.7319115996360779,7.646554946899414,-0.03613989800214768,0.014660766,0.015271631,8
5.7937583923339835,0.7258968353271484,7.643684387207031,-0.035934582352638245,0.0143553335,0.009773844,8
5.790769100189209,0.7187424898147583,7.638496398925781,-0.03627895191311836,0.013744468,0.004886922,8
5.7854413986206055,0.7119010090827942,7.6368751525878915,-0.0365150198340416,0.015882496,0.008857545999999999,8
5.777405738830566,0.7092903256416321,7.636702537536621,-0.03625081852078438,0.007330383,0.015882496,8
5.774178981781006,0.7109858989715576,7.6376214027404785,-0.035493463277816766,0.006414085,0.018020526,8
5.771296977996826,0.7152631282806396,7.637965679168701,-0.034982971847057336,0.014966198,0.014660766,8
5.771145820617676,0.7204638719558716,7.63485050201416,-0.03416823223233223,0.009162978,0.015271631,8
5.775245189666747,0.7205910086631775,7.633302211761475,-0.033279605209827416,0.019547688,0.015882496,8
5.772554874420166,0.7201772332191467,7.636020183563232,-0.03332952409982681,0.01282817,0.018936822,8
5.7702698707580575,0.7240495085716248,7.636305332183838,-0.033149290829896934,0.013744468,0.013744468,8
5.7733154296875,0.7230677604675293,7.638682842254639,-0.03311368450522423,0.010079277,0.014660766,8
5.771941184997559,0.7192832231521606,7.639149665832519,-0.0331929624080658,0.010995574,0.013439035,8
5.76688289642334,0.7190532088279724,7.6373863220214835,-0.03409179672598839,0.014966198,0.017715093,8
5.7648372650146475,0.7174442410469055,7.635985851287843,-0.03427554666996002,0.016798794,0.014966198,8
5.7707200050354,0.7176048159599304,7.637073993682861,-0.03371218964457512,0.010690141499999998,0.016187929,8
5.772566795349121,0.716049075126648,7.639142036437987,-0.034033898264169686,0.009162978,0.009468411,8
5.774613380432129,0.7135184407234192,7.642970561981201,-0.03324635326862335,0.017104227,0.008857545999999999,8
5.77628231048584,0.7154734134674072,7.650464057922362,-0.03307175636291504,0.019242255,0.020463986,8
5.77045488357544,0.7126272320747375,7.65225076675415,-0.03313301503658295,0.010079277,0.016187929,8
5.761661052703857,0.7106052041053772,7.660553932189941,-0.03352058306336403,0.008246681,0.015271631,8
5.759634017944336,0.7114109992980957,7.66155481338501,-0.0329657644033432,0.0067195175,0.01985312,8
5.757591247558594,0.7120887637138367,7.6608943939208975,-0.032444365322589874,0.0143553335,0.02107485,8
5.75908899307251,0.7142301797866821,7.6609153747558585,-0.03142065927386284,0.009773844,0.013133603,8
5.7648987770080575,0.7175291776657104,7.659415245056152,-0.031492099165916436,-0.0018325958,0.010995574,8
5.769631385803223,0.7197492122650146,7.6638617515563965,-0.031397804617881775,0.006414085,0.013439035,8
5.7663631439208975,0.7216030359268188,7.658814430236816,-0.03145985677838325,0.009468411,0.015882496,8
5.7642579078674325,0.7173733115196228,7.654976844787598,-0.03188973292708397,0.016798794,0.018325957,8
5.7618184089660645,0.7143333554267883,7.6600074768066415,-0.03209701925516128,0.01038471,0.02107485,8
5.760538101196289,0.7085185647010803,7.659424304962157,-0.031703107059001916,0.01038471,0.01863139,8
5.755136966705322,0.6991225481033325,7.657272815704347,-0.031429454684257514,0.0033597588,0.013439035,8
5.752213478088379,0.6964319348335266,7.655808448791504,-0.031536746770143516,0.0021380284,0.018936822,8
5.750273704528809,0.7009245157241821,7.656075954437256,-0.03126440197229385,0.0125227375,0.018936822,8
5.752821922302246,0.7106546759605408,7.655521869659424,-0.031347353011369705,0.006414085,0.02107485,8
5.754745960235597,0.7122178673744202,7.660155773162843,-0.031441740691661835,0.010690141499999998,0.01282817,8
5.7520012855529785,0.7128663659095764,7.656983852386475,-0.03206464275717735,0.0125227375,0.017104227,8
5.751510620117188,0.7196903228759766,7.650700569152832,-0.0335194356739521,0.01038471,0.02107485,8
5.756104946136475,0.7290037870407104,7.645851612091064,-0.03349331393837929,0.01863139,0.022602014,8
5.76371955871582,0.7252026200294495,7.646341800689697,-0.03231265768408775,0.014966198,0.028710667,8
5.769552230834961,0.7134157419204712,7.651315212249756,-0.03189830854535103,0.014660766,0.025045475,8
5.7676682472229,0.7080212235450745,7.652272701263428,-0.03045281581580639,0.010079277,0.022296581,8
5.7652645111083975,0.7071468234062195,7.652151584625244,-0.031118378043174744,0.007330383,0.018325957,8
5.76619815826416,0.7031860947608948,7.651202201843263,-0.030874671414494518,0.012217305,0.0125227375,8
5.767508506774902,0.6986280679702759,7.649346351623535,-0.03245500102639198,0.01038471,0.011911872,8
5.768952369689941,0.6985757946968079,7.654745578765869,-0.03304269537329674,0.0143553335,0.016493361,8
5.765726566314697,0.7021915316581726,7.658766269683838,-0.03380253538489342,0.004581489,0.0125227375,8
5.75888204574585,0.7065252661705017,7.664975166320801,-0.03368360549211502,-0.009162978,0.015271631,8
5.758211135864258,0.7130833268165588,7.670014381408691,-0.03305313363671303,-0.005192355,0.019242255,8
5.756556987762451,0.7108078598976135,7.669053554534912,-0.03160691261291504,0.0015271631,0.01985312,8
5.754635334014893,0.704628586769104,7.6752729415893555,-0.030605623498559,0.00030543262000000003,0.016798794,8
5.7503275871276855,0.7003191709518433,7.675325870513916,-0.030821282416582108,-0.0061086523,0.009468411,8
5.751664638519287,0.6988043785095215,7.670562267303468,-0.03153824806213379,0.00030543262000000003,-0.00030543262000000003,8
5.762401580810548,0.6982054114341736,7.661101818084718,-0.03392327204346657,0.003970624,-0.0030543262,8
5.7821598052978525,0.6996639966964722,7.652393341064452,-0.03473469614982605,0.004581489,0.0033597588,8
5.805033206939697,0.7037664651870728,7.652443885803223,-0.03505311161279678,0.011911872,0.00580322,8
5.8202762603759775,0.7113425135612488,7.650693416595459,-0.03586765006184578,0.014049901000000002,0.011911872,8
5.828077793121338,0.7204757332801819,7.6530327796936035,-0.035768043249845505,0.022602014,0.024129177,8
5.8258113861083975,0.7277532815933228,7.657602310180664,-0.03527367487549782,0.026267206,0.023518313,8
5.820791721343994,0.7303605675697327,7.655855655670166,-0.035707812756299966,0.024129177,0.028405234,8
5.811854362487793,0.7248926758766174,7.6529297828674325,-0.0343281589448452,0.01740966,0.025045475,8
5.803361415863037,0.7204725742340088,7.654482364654541,-0.03496995195746422,0.0070249503,0.018936822,8
5.797769546508789,0.7115012407302856,7.659178256988525,-0.03550700470805168,0.007941248,0.015882496,8
5.793505668640138,0.7029442191123962,7.662925243377685,-0.0360785610973835,0.010995574,0.011911872,8
5.791227340698242,0.6976777911186218,7.667763710021973,-0.03602379187941551,0.008246681,0.010079277,8
5.788919925689697,0.6962411403656006,7.67585563659668,-0.035297960042953484,0.005192355,0.0070249503,8
5.791867733001709,0.6997341513633728,7.677778720855713,-0.03443808853626251,0.011911872,0.01038471,8
5.799513816833496,0.6953776478767395,7.673316955566406,-0.034322764724493034,0.01160644,0.013744468,8
5.808926105499268,0.6893759965896606,7.664810657501222,-0.03282064199447632,0.004886922,0.014966198,8
5.813048362731934,0.6864231824874878,7.654728412628174,-0.03126910328865051,0.004581489,0.023823744,8
5.807906150817871,0.6858870983123779,7.653259754180907,-0.02976267784833908,0.0027488936,0.016798794,8
5.79815673828125,0.6855507493019104,7.660106182098389,-0.028767749667167664,0.008552114,0.01038471,8
5.7914795875549325,0.686440110206604,7.652944564819336,-0.029204767197370533,0.015577064,0.014966198,8
5.783947944641112,0.694188117980957,7.648083209991455,-0.03091160580515861,0.016187929,0.013439035,8
5.782496929168701,0.7032201886177063,7.650145053863525,-0.03205196931958198,0.016187929,0.013439035,8
5.778040409088135,0.7123979926109314,7.656630039215088,-0.032302390784025185,0.005192355,0.011301007,8
5.7785682678222665,0.7161579132080078,7.660111427307129,-0.031525887548923485,0.006414085,0.01282817,8
5.785789966583253,0.7172583341598511,7.656181812286378,-0.031213460490107536,0.007941248,0.01740966,8
5.7914652824401855,0.7159734964370728,7.6503849029541025,-0.03249809518456459,0.009162978,0.0070249503,8
5.792243957519531,0.7126281261444092,7.647734642028809,-0.03254830464720726,0.00580322,0.016798794,8
5.793269634246826,0.712078332901001,7.644814491271973,-0.032192599028348916,-0.0009162979,0.012217305,8
5.7922868728637695,0.7133874297142029,7.641586780548097,-0.03259081020951271,0.0067195175,0.015577064,8
5.794615745544434,0.7136233448982239,7.637879371643066,-0.032532289624214165,0.0018325958,0.009773844,8
5.79039478302002,0.7155200242996216,7.639061450958253,-0.031923092901706696,0.0027488936,0.016798794,8
5.785674095153809,0.710978090763092,7.641295433044434,-0.031712498515844345,0.012217305,0.010995574,8
5.78517484664917,0.7036935687065125,7.64507532119751,-0.031569890677928925,0.0076358155,0.013439035,8
5.778229236602782,0.7004960179328918,7.6479716300964355,-0.03161467611789704,0.009162978,0.010690141499999998,8
5.770667552947997,0.7032086253166199,7.6482810974121085,-0.0321345217525959,0.01038471,0.012217305,8
5.767623424530028,0.7033340930938721,7.63878059387207,-0.031321682035923004,0.008552114,0.01038471,8
5.767744064331055,0.7058150768280029,7.632420063018799,-0.030891859903931618,0.014660766,0.016187929,8
5.769347190856934,0.7088871598243713,7.634786128997803,-0.03195764496922493,0.01038471,0.014966198,8
5.769869327545166,0.7097781896591187,7.635510921478271,-0.03191336989402771,0.005497787,0.013439035,8
5.772634506225586,0.7083413600921631,7.6361026763916025,-0.03228305280208588,0.015882496,0.008246681,8
5.775810241699219,0.7084931135177612,7.641651153564452,-0.032531030476093285,0.014660766,0.011301007,8
5.775399684906006,0.7091563940048218,7.643019676208496,-0.03268858790397644,0.017104227,0.018325957,8
5.775599479675293,0.7099844813346863,7.643404483795166,-0.03372389823198318,0.01160644,0.014966198,8
5.771100044250487,0.7059908509254456,7.641909122467041,-0.033903077244758606,0.010995574,0.015882496,8
5.773163318634032,0.7055916786193848,7.639678955078125,-0.03452342376112938,0.023518313,0.018325957,8
5.776793479919434,0.7033573985099792,7.6450748443603525,-0.03443635255098343,0.0033597588,0.013744468,8
5.777729034423827,0.7034856677055359,7.6518049240112305,-0.03392153233289718,-0.0012217305,0.014049901000000002,8
5.780061721801758,0.6991794109344482,7.646812438964844,-0.033337779343128204,0.010690141499999998,0.013133603,8
5.78784704208374,0.6910146474838257,7.644129753112793,-0.034635029733181,0.014049901000000002,0.012217305,8
5.78620195388794,0.6941801309585571,7.647820472717285,-0.03512301668524742,0.013744468,0.013133603,8
5.783901691436768,0.7023949027061462,7.655468940734862,-0.03566088527441025,-0.00030543262000000003,0.01038471,8
5.785156726837157,0.7092841267585754,7.663455486297607,-0.03556250408291817,0.0018325958,0.018936822,8
5.786376476287843,0.716171383857727,7.674142360687256,-0.03364555165171623,-0.037873644,0.009468411,8
5.783076286315918,0.7395185232162476,7.681477069854736,-0.029167525470256805,-0.08307768,0.0036651916,8
5.765884399414063,0.7947443127632141,7.6834144592285165,-0.021245943382382396,-0.047647487,0.03726278,8
5.773489475250244,0.8373055458068848,7.7305908203125,-0.01725704967975616,-0.2452624,-0.029932396,8
5.766334533691406,0.8903680443763733,7.74735689163208,-0.013069931417703629,-0.2171626,-0.018020526,8
5.755977153778076,0.934765875339508,7.7163472175598145,-0.013015530072152616,-0.12736541,-0.0009162979,8
5.775245666503906,0.941068947315216,7.697744846343994,-0.016444677487015724,-0.08704830000000001,0.042760565999999986,8
5.793220043182372,0.9156567454338074,7.683152198791504,-0.02197734266519546,-0.015577064,0.08704830000000001,8
5.825304985046388,0.8485174179077148,7.6513633728027335,-0.018919749185442924,-0.05009095,0.111177474,8
5.870963096618652,0.7231718301773071,7.597836494445801,-0.01225682720541954,-0.005497787,0.10445796,8
5.963803768157959,0.5692424774169922,7.5212464332580575,0.0011074839858338237,0.038179077,0.08093964,8
6.062602043151856,0.4439338743686676,7.4742798805236825,0.019054114818573,0.084910266,0.062002823,8
6.1264586448669425,0.3928982019424439,7.4667768478393555,0.02946469374001026,0.129198,0.041233405,8
6.110751628875732,0.3728142082691193,7.446892261505128,0.034035734832286835,0.13500121,0.040927973,8
6.075547218322754,0.2947331368923187,7.439056873321532,0.04034273326396942,0.12675454,0.029932396,8
6.123626232147218,0.14157012104988098,7.516947746276855,0.05420074611902237,0.09468412,-0.014966198,8
6.2971720695495605,-0.03931250050663948,7.700997829437256,0.08454518765211105,-0.025961773,-0.00061086525,8
6.563067436218263,-0.21944496035575867,7.93646240234375,0.12044215202331544,-0.25442538,0.023518313,8
6.852737903594972,-0.4457366168498993,8.19420337677002,0.15151609480381012,-0.28283059999999993,-0.015882496,8
7.0577759742736825,-0.6616126298904419,8.438871383666992,0.17828691005706787,-0.31642818,-0.1255328,8
7.059125900268555,-0.6685057282447815,8.650128364562987,0.22646412253379825,-0.3191771,-0.3268129,9
7.095783710479736,-0.5151529908180237,8.704456329345701,0.2933253347873688,-0.33078352,-0.4886922,9
7.1863112449646,-0.27386510372161865,8.619771957397461,0.3907800018787384,-0.16676621,-0.66523224,9
7.2278404235839835,0.12063319236040115,8.543245315551758,0.4931987226009369,-0.070554934,-0.7852673000000001,9
7.199686527252197,0.5804654955863953,8.512652397155763,0.5888227820396423,-0.09590584,-0.8854492,9
7.064524173736572,1.02118182182312,8.519598007202147,0.6761214137077332,-0.22235495,-1.0354166,9
6.942626953125,1.4201655387878418,8.4989013671875,0.7488449811935425,-0.052839845,-1.1218541000000002,9
6.877532482147218,1.78557288646698,8.44282054901123,0.7975445389747621,0.03023783,-1.208597,9
6.664504051208496,2.0975613594055176,8.350666999816895,0.835243821144104,-0.14019357,-1.3597860000000002,9
6.369593620300293,2.4095308780670166,8.286053657531737,0.8660305142402649,-0.28008172,-1.4636332,9
6.084010601043701,2.77282977104187,8.152846336364746,0.8933519721031189,-0.37568212,-1.5787812,9
5.853894233703612,3.124208211898804,7.965522289276122,0.9157477021217346,-0.43004912,-1.6798794,9
5.679934501647949,3.4513823986053467,7.757114887237549,0.9307135939598083,-0.43249258,-1.738217,9
5.480447769165039,3.741056203842163,7.532602310180664,0.937971830368042,-0.38240165,-1.7803668,9
5.265625953674316,3.98965072631836,7.283940315246582,0.9396764039993286,-0.42730024,-1.7815883999999995,9
5.037063121795653,4.167194366455078,7.0083513259887695,0.9477608799934388,-0.52412236,-1.7580702,9
4.649116516113281,4.306222915649413,6.720011234283447,0.954052984714508,-0.54550266,-1.9963076,9
4.223574638366698,4.438109397888184,6.449183464050293,0.9448791742324828,-0.73853606,-2.2317963,9
3.941861867904663,4.576490879058838,6.1874656677246085,0.9388027191162108,-0.9850202,-2.257147,9
3.9417026042938232,4.742424964904785,5.979896545410156,0.9452582001686096,-1.1029171999999998,-2.1065688,9
4.221550464630127,4.950780868530273,5.871432781219482,0.9579408764839172,-1.1594223,-1.751656,9
4.676370143890381,5.1565589904785165,5.8147711753845215,0.9841530919075012,-1.210735,-1.3704761,9
5.121339797973633,5.308277130126953,5.732647895812987,1.0288667678833008,-1.2938126,-1.0198395,9
5.366575717926025,5.3903632164001465,5.531528949737549,1.0973685979843142,-1.357648,-0.8368853999999999,9
5.228947639465332,5.35325288772583,5.321892738342285,1.1921695470809937,-1.4056008999999998,-0.7266241999999999,9
4.999171257019043,5.365403175354004,5.156756401062012,1.2744714021682741,-1.7128662,-0.59559363,9
4.725688457489014,5.529580116271973,5.024176597595215,1.329305648803711,-1.9000963,-0.51159966,9
4.364103317260741,5.809813499450684,4.8566484451293945,1.345457911491394,-1.8817704,-0.5412266,9
3.871803522109986,6.14697265625,4.599706172943115,1.3527565002441406,-1.779145,-0.70096785,9
3.3539576530456543,6.5382981300354,4.3455824851989755,1.3607503175735474,-1.8277088,-0.895223,9
2.962820291519165,6.983570098876952,4.0263657569885245,1.3504152297973633,-2.0448713,-1.0641272,9
2.704991102218628,7.408442497253418,3.623888492584229,1.2980868816375732,-2.0308216,-1.0763446,9
2.465740919113159,7.761701583862305,3.17313814163208,1.2121835947036743,-1.924531,-1.0454959,9
2.278059482574463,8.02527904510498,2.7364814281463623,1.145828366279602,-2.1319196,-0.97219205,9
2.231760263442993,8.238931655883789,2.264617919921875,1.117592453956604,-2.2907448,-0.82344633,9
2.3055806159973145,8.394951820373535,1.756216526031494,1.1315016746520996,-2.3445008,-0.77091193,9
2.4008159637451167,8.528711318969728,1.2366080284118652,1.1209450960159302,-2.129171,-0.7874053000000001,9
2.4227101802825928,8.72428035736084,0.8320872187614441,1.090754747390747,-2.1065688,-0.8677341000000001,9
2.282649278640747,8.924960136413574,0.6819679737091064,1.0496802330017092,-2.0842721,-0.88178396,9
2.036460876464844,9.06217098236084,0.7677901387214661,0.9747642278671264,-2.4022276,-0.9618073,9
1.743143081665039,9.10640811920166,0.7596192955970764,0.8768153190612793,-2.726597,-0.91446525,9
1.699677348136902,9.075801849365234,0.4082039296627045,0.7789663672447205,-2.8142562,-0.8390234000000001,9
1.8939406871795652,9.060121536254883,-0.1228240728378296,0.6771593689918518,-2.5491407,-0.7678576,9
2.0930721759796143,9.067317962646484,-0.7213900089263916,0.5912769436836243,-2.0576997,-0.7110472,9
2.2633302211761475,9.11679458618164,-1.1250027418136597,0.5270703434944153,-1.7214183,-0.6768387,9
2.3712971210479736,9.173067092895508,-1.2411677837371826,0.4916971623897553,-1.7715092,-0.63163465,9
2.36130952835083,9.188203811645508,-1.2547086477279663,0.469232439994812,-1.6783522000000002,-0.6450737,9
2.2660796642303467,9.1852388381958,-1.310737371444702,0.44888779520988464,-1.4248432,-0.74372846,9
2.174692153930664,9.204157829284668,-1.4227056503295898,0.4330673813819885,-1.1499538,-0.77457714,9
2.138324737548828,9.265118598937988,-1.4889264106750488,0.4243848621845245,-0.95814216,-0.7498371,9
2.1170403957366943,9.341891288757324,-1.4430923461914062,0.4216544032096863,-0.8872818000000001,-0.7131852,9
2.1781892776489262,9.374277114868164,-1.3083183765411377,0.413176953792572,-0.7984009,-0.69027776,9
2.4396281242370605,9.38520622253418,-1.1925406455993652,0.3823563158512116,-0.8017605999999999,-0.58276546,9
2.7948744297027592,9.395061492919922,-1.154325008392334,0.3469723463058472,-0.85154617,-0.39400807,9
2.9861268997192383,9.601786613464355,-1.018101692199707,0.3120632767677307,-0.79320854,-0.24617869,9
3.0483996868133545,9.903939247131348,-0.7640162706375122,0.22952939569950104,-0.7870999,-0.058948494,9
3.14786958694458,10.29364013671875,-0.6284609436988831,0.07397659122943878,-0.5647449000000001,0.26053402,9
3.3015878200531006,10.69383144378662,-0.5506882071495056,-0.12632670998573306,-0.22143865,0.6151413,9
3.3902382850646973,11.015053749084473,-0.423058807849884,-0.3692565560340881,-0.08277224,0.91324353,9
3.231672763824463,11.185905456542967,-0.246344655752182,-0.6929501295089722,-0.122783914,1.1997393,9
2.698775291442871,11.464120864868164,0.05290663242340088,-1.0966516733169556,-0.8249735,1.568091,9
1.804919004440308,12.136983871459961,0.3951400220394135,-1.4858032464981081,-1.9068159,2.068695,9
0.6682306528091431,13.07447910308838,0.5245299935340881,-1.7497330904006958,-2.046704,2.1740694,9
-0.18052564561367035,13.651978492736815,0.2192490249872208,-1.8886823654174805,-1.217149,1.8301523,9
-0.059598848223686225,13.703583717346193,-0.14273767173290253,-1.90542995929718,-0.7654141999999999,1.9172006,9
0.7801008224487305,13.38772964477539,-0.034597963094711304,-1.8810609579086304,-0.80756384,2.1841488,9
1.4277791976928709,12.94573974609375,0.09124382585287094,-1.872819662094116,0.5757405,1.9049833,9
1.637937307357788,12.44776725769043,0.1738637089729309,-1.8429822921752932,0.82833326,1.5946637,9
1.587557077407837,11.793058395385742,0.1095438227057457,-1.7921539545059204,1.0009027,1.5558738,9
1.4436815977096558,10.95566463470459,0.05167819932103157,-1.7249239683151243,1.0134255,1.5146403,9
1.3245702981948853,10.00308322906494,0.12660448253154755,-1.642778754234314,0.8918633,1.4052955,9
1.2932941913604736,9.089043617248537,0.2751901745796204,-1.5460420846939087,0.8188649,1.2556334999999998,9
1.2964869737625122,8.342462539672853,0.4214227199554443,-1.4360177516937256,0.7504479000000001,1.0503827,9
1.263250708580017,7.73202657699585,0.605798065662384,-1.2964010238647459,0.68019843,0.7495316,9
1.180679202079773,7.1593689918518075,0.8294042348861694,-1.133139967918396,0.6007859999999999,0.31215215,9
1.0696644783020022,6.5828537940979,1.0384323596954346,-0.944827437400818,0.51159966,-0.12492194,9
0.9088371992111206,6.015305995941162,1.1916857957839966,-0.7441837787628174,0.39645153,-0.56779927,9
0.7987400889396667,5.543138980865479,1.3037433624267578,-0.5337492227554321,0.23915374,-0.95539325,9
0.8984624147415161,5.220587253570557,1.4101544618606567,-0.30800899863243103,0.19730948,-1.2095132,9
1.267644286155701,5.015907764434815,1.5968750715255735,-0.042694494128227234,0.37568212,-1.4520267,9
1.9238272905349727,4.993414402008057,2.1170027256011963,0.24966955184936526,0.55833083,-1.6426166000000002,9
2.947093963623047,5.603002071380615,3.105424404144287,0.4582698345184326,0.0061086523,-1.45783,9
4.407402038574219,7.332108020782472,4.313673973083496,0.488786518573761,-0.19517145,-0.2501493,9
5.464474678039551,9.45864963531494,5.335113048553467,0.3463291823863983,0.63316184,0.6600399,9
5.474776268005371,10.872620582580566,6.0941405296325675,0.19654712080955505,-0.1957823,0.53969944,9
4.725234508514403,11.135065078735352,6.161109447479247,0.20248226821422574,-2.1203132,-0.2003638,9
3.50266170501709,10.76989459991455,5.483620643615723,0.2579253613948822,-2.3322835,-0.5103779,9
2.634827852249145,10.77076530456543,4.8023343086242685,0.23284770548343656,-1.0714576,-0.5369505,9
2.3233778476715092,11.050273895263672,3.848121166229248,0.147227942943573,-1.8915442,-0.4841107,9
2.12476110458374,10.78806972503662,2.4303791522979736,0.2268587946891785,-2.477975,-0.70921457,9
1.7730172872543335,10.071727752685547,1.2535938024520874,0.417404979467392,-2.0665572,-1.0845913,9
1.4012253284454346,9.462955474853516,0.5342994332313538,0.5138883590698242,-1.2339478000000002,-1.3671165,9
1.3034770488739014,9.26919651031494,-0.0661831721663475,0.5605053901672363,-0.655153,-1.4428637,9
1.5610884428024292,9.409891128540039,-0.39722421765327454,0.6508691906929016,-0.66431594,-1.3151928,9
1.9365129470825195,9.540241241455078,-0.4051779806613922,0.7371839284896851,-0.960891,-1.0161743,9
2.0370185375213623,9.381778717041016,-0.25938478112220764,0.795141339302063,-1.1328496,-0.93370754,9
1.9266607761383057,9.082636833190918,-0.1791367530822754,0.8275366425514221,-0.977079,-0.9755518,9
1.866973042488098,8.871454238891602,-0.173722505569458,0.8512622117996216,-0.9804387,-0.9602802,9
1.8881959915161133,8.752147674560549,-0.3204772472381592,0.8716305494308472,-0.8542950999999999,-0.8961393,9
1.890188694000244,8.670596122741701,-0.6156981587409973,0.8859885334968567,-0.3857614,-0.9233228,9
1.9017083644866943,8.650943756103517,-0.7871896028518677,0.9141122102737428,-0.23548855,-0.9416488000000002,9
1.9137752056121824,8.686651229858397,-0.6731653213500977,0.9438785910606384,-0.25350907,-0.893085,2
1.8944491147994995,8.701659202575684,-0.5051985383033752,0.9357372522354126,-0.24831672,-0.8863655,2
1.8255882263183596,8.688158988952638,-0.4599946737289429,0.8950380086898804,-0.32467487,-0.91354895,2
1.7198669910430908,8.735393524169924,-0.6039671301841736,0.8511314392089844,-0.15332718,-0.9627236,2
1.5993396043777466,8.90135669708252,-0.7272590398788452,0.8179333209991455,-0.0842994,-1.0830641,2
1.5026282072067259,9.173487663269043,-0.657751739025116,0.7998790740966797,-0.31612277,-1.221425,2
1.6145435571670532,9.41011905670166,-0.5424221754074097,0.741493821144104,-0.61117065,-1.2458596000000002,2
2.1832435131073002,9.752801895141602,-0.6658372282981873,0.6257855296134949,-0.08277224,-0.9300423,2
2.799779891967773,10.146349906921387,-0.7421993613243103,0.5175327658653259,0.0580322,-0.47739118,2
3.249793291091919,10.564715385437012,-0.7790505886077881,0.35676029324531555,0.45937067,-0.16187929,2
3.5134952068328857,11.142314910888672,-0.6912050247192383,0.11002139002084732,0.79229224,0.30207285,2
3.552863121032715,11.64415454864502,-0.4219464361667633,-0.1877295970916748,1.0858129,0.5552765000000001,2
3.541661500930786,11.639402389526367,-0.2271641343832016,-0.5352833867073059,1.1004738,0.9660834,2
3.267543315887451,11.571284294128418,0.18951912224292755,-0.9252347946166992,0.22235495,1.6481144,2
2.5877315998077397,12.13695240020752,0.501559317111969,-1.3494073152542114,0.28283059999999993,1.8671097,2
1.6958599090576172,12.9705810546875,0.0012263035168871286,-1.6471712589263916,0.52748215,2.1209242,2
0.981867790222168,13.730685234069824,-0.3502655625343323,-1.6904481649398804,-0.61117065,2.4776695,2
0.6977261304855347,14.098377227783205,-0.16799414157867432,-1.6469910144805908,-1.1682798,2.8539624,2
0.8834351897239685,14.10105037689209,-0.002000998007133603,-1.5975803136825562,0.15790866,3.0109549,2
1.0249171257019043,13.74429416656494,0.08944008499383926,-1.582573175430298,1.2263118999999998,2.3823745,2
1.1163803339004517,12.910503387451172,0.13389167189598086,-1.5497030019760132,0.6963864000000001,2.0073032,2
1.2058568000793457,11.823447227478027,-0.011267460882663729,-1.4795607328414917,1.0509937,1.998751,2
1.268560528755188,10.721800804138184,-0.3433091938495636,-1.3810654878616333,1.964848,2.0882428,2
1.2309558391571045,9.65050220489502,-0.6303514838218689,-1.2618051767349243,2.375044,2.022575,2
1.0495785474777222,8.666132926940918,-0.7755794525146484,-1.1460148096084597,2.4178047,1.7965547,2
0.7643049359321594,7.845746517181396,-0.7556906938552856,-0.9976946711540222,2.0873265,1.5387696000000002,2
0.3882153630256653,7.185770034790039,-0.5802144408226013,-0.809258759021759,1.7534887,1.0897835,2
-0.042901329696178436,6.63624906539917,-0.34662920236587524,-0.6045213937759399,1.3811663,0.4896085,2
-0.4675155580043793,6.092982292175293,-0.1206883192062378,-0.3695707023143768,0.9098838,-0.17654006,2
-0.7474080324172974,5.482138156890869,0.08738715201616287,-0.09509416669607162,0.35246924,-0.956615,2
-0.7938693761825562,4.916707992553711,0.2922991216182709,0.23048415780067444,-0.1151481,-1.6300939,2
-0.4915525913238525,4.710892200469972,0.6411347985267639,0.6163828372955322,0.09101892,-2.0161607,2
0.3264594078063965,5.251601219177246,1.476243257522583,0.9722859263420104,0.7147123000000001,-2.157576,2
2.10918402671814,6.956309795379639,2.9575066566467285,1.035392165184021,0.6221663000000001,-0.7098253999999999,2
4.690723896026611,9.112833023071287,4.34566593170166,0.7755120992660522,0.7516696999999999,1.7629571,2
5.120484352111816,10.448119163513184,5.289050579071045,0.42653170228004456,0.15302174,1.2886202,2
4.237536907196045,10.440959930419922,5.224739074707031,0.2551688551902771,-3.087313,0.37507126,2
2.510514259338379,9.944133758544922,3.958227396011353,0.17552615702152252,-1.9507982,-0.28069258,2
1.3654264211654663,10.037120819091797,2.8815424442291264,0.01349501870572567,0.36163223,-0.12186762,2
1.022007703781128,10.110788345336914,2.486834526062012,-0.04669598862528801,-0.77304995,-0.3848451,2
0.9015785455703736,9.439556121826172,1.6840783357620241,0.044606078416109085,-2.5127943,-1.2565498,2
0.9653196930885316,8.795909881591799,0.272715300321579,0.2515856921672821,-2.0387628,-1.3759739,2
1.1995108127593994,8.903910636901855,-0.944278597831726,0.4499419033527374,-0.7263188,-1.251052,2
1.453574538230896,9.546637535095217,-1.3891774415969849,0.5777820944786072,0.14019357,-1.106277,2
1.628623127937317,9.999741554260254,-1.185302495956421,0.7011374235153198,0.25900686,-0.9477574,2
1.5564625263214111,10.03377914428711,-0.6717232465744019,0.8400052785873413,-0.73914695,-0.97585726,2
1.217146635055542,9.747601509094238,-0.41254380345344543,0.9685319066047668,-1.0219775,-1.0830641,2
0.886500895023346,9.422629356384276,-0.4776019155979157,1.0826047658920288,-1.067487,-1.1646146000000002,2
0.7769933342933655,9.28533172607422,-0.7441274523735046,1.164860725402832,-0.63163465,-1.2275337,2
0.7889201045036316,9.255804061889648,-0.943336308002472,1.2151755094528198,-0.1328632,-1.2794572,2
0.889944851398468,9.207024574279783,-0.8217047452926636,1.247070550918579,-0.22479841,-1.244638,2
0.8925422430038452,9.057806968688963,-0.5831179618835449,1.243552803993225,-0.40530908,-1.2534955,2
0.833832859992981,8.848503112792969,-0.3940345346927643,1.1963958740234375,-0.5503895999999999,-1.3509285,2
0.8409425616264343,8.718697547912598,-0.33328118920326233,1.1189748048782349,-0.56107974,-1.4309518,2
0.9950923323631288,8.771924018859862,-0.34818994998931885,1.0493584871292114,-0.5039638,-1.3970488,2
1.3217436075210571,8.892538070678711,-0.287221759557724,0.998173713684082,-0.5699373000000001,-1.2666291,2
1.869696855545044,8.970318794250488,-0.2465384006500244,0.9152662754058838,-0.6731735,-1.07665,2
2.4168412685394287,9.232769966125488,-0.2864064872264862,0.7905113101005554,-0.49296826,-0.82802784,2
2.776585102081299,9.622259140014648,-0.2949780523777008,0.6455148458480835,-0.29993483,-0.5534439,2
3.0806329250335693,9.968690872192383,-0.2514031231403351,0.4522708654403687,-0.035124752999999995,-0.22937989,2
3.3590595722198486,10.278253555297852,-0.21056492626667025,0.16270308196544647,0.3857614,0.06688975,2
3.7419068813323975,10.645392417907717,-0.20892442762851715,-0.1748470813035965,0.818254,0.61422503,2
3.925453424453736,10.908544540405273,0.0006280695088207723,-0.497652530670166,0.5412266,1.2880094,2
3.5527613162994385,11.084640502929688,0.30927330255508423,-0.8867236971855164,-0.051618114000000014,1.8374827,2
2.6313862800598145,11.913040161132812,0.6509113907814026,-1.2983721494674685,-0.15241088,2.0864103,2
1.4500104188919067,13.032032012939453,0.36258411407470703,-1.6053534746170044,-0.28221974,2.273335,2
0.5825503468513489,14.097737312316895,0.02761034108698368,-1.6780258417129517,-0.9120218,2.6853635,2
0.3466537594795227,14.576486587524414,0.2591016888618469,-1.6122857332229614,-0.99387777,2.7495046000000003,2
0.6764633655548096,14.679874420166016,0.6938217282295227,-1.5293865203857422,-0.5534439,2.8011227,2
1.0070770978927612,14.413619041442873,0.8591244220733643,-1.4756901264190674,0.35216382,2.4642303,2
1.1221632957458496,13.7174711227417,0.8337530493736267,-1.4232385158538818,0.49296826,2.055867,2
1.1844388246536257,12.580734252929688,0.7041136622428894,-1.3586868047714231,0.6719518,1.9315559,2
1.241152286529541,11.339920997619627,0.4359042942523956,-1.2772645950317385,1.2528846000000002,1.8961257,2
1.184280514717102,10.180295944213867,0.05682773515582085,-1.1756935119628906,2.0228803,1.7547104,2
1.0019224882125854,9.144701957702637,-0.2958737015724182,-1.0694960355758667,2.3081543,1.488984,2
0.7351396083831787,8.180694580078125,-0.4583859741687775,-0.947080373764038,2.2226331000000004,1.2006557,2
0.405145525932312,7.284371852874756,-0.4773929715156555,-0.8027439117431641,1.9999728,0.91904676,2
0.03097154200077057,6.469653606414795,-0.40736275911331177,-0.6155625581741333,1.5775595,0.46517387,2
-0.3636912107467651,5.731373310089111,-0.2672405540943146,-0.37609955668449396,1.0830641,-0.106595986,2
-0.6934917569160461,5.097427845001222,-0.07350540161132812,-0.08625570684671402,0.46639562,-0.8350528,2
-0.846340000629425,4.590839385986328,0.14930672943592072,0.2489876747131348,0.18081611,-1.5396858,2
-0.6502044796943665,4.5029025077819815,0.5221661925315857,0.6276012659072876,0.5021312,-1.9801197,2
0.20887699723243716,5.399206161499023,1.5637282133102417,0.9792972207069396,1.1679744,-2.2046127,2
2.246119499206543,7.510200023651122,3.121147871017456,1.0109882354736328,0.904386,-0.655153,2
4.589258670806885,9.670639991760254,4.474445343017578,0.7386562824249268,1.2403619,1.8545868000000003,2
5.220575332641602,10.725958824157717,5.722032070159912,0.43260312080383295,0.05131268,1.1743883999999998,2
4.891372680664063,10.649123191833496,6.335986614227295,0.30793580412864685,-3.648392700000001,0.35613444,2
3.355680227279663,10.06021499633789,5.311548709869385,0.2521883845329285,-2.4037547000000004,-0.36010507,2
1.8382130861282349,10.51320743560791,4.170968532562257,0.09451847523450853,1.2654073,-0.43982297,2
1.8475800752639768,10.821268081665039,3.5494425296783447,-0.023108374327421192,-0.9978484,-0.23732115,2
1.8910598754882808,10.187572479248047,2.1597521305084233,0.09803419560194017,-3.0085113,-0.9398162,2
1.3939968347549438,9.44762134552002,0.5078449249267578,0.2815914750099182,-1.4950926000000002,-1.3869696000000002,2
1.0376907587051392,9.231388092041016,-0.5301172733306885,0.40791016817092896,-0.17012598,-1.2767084,2
1.2153526544570925,9.607314109802246,-0.9791021347045898,0.5456455945968628,-0.20158553,-1.0302242,2
1.6258096694946291,10.07235622406006,-1.026370644569397,0.7044090032577515,-0.3585779000000001,-0.68691796,2
1.684821844100952,10.141075134277344,-0.7425547242164612,0.8387492299079895,-0.68783426,-0.7266241999999999,2
1.3277641534805298,9.874350547790527,-0.4585174024105072,0.9242939352989196,-0.9465357,-0.9224065,2
0.940327525138855,9.542460441589355,-0.35925188660621643,0.9645434617996216,-1.1340714,-1.1081096,2
0.7820738554000854,9.320577621459961,-0.4925066530704498,0.9725557565689088,-1.026559,-1.2104294,2
0.7802216410636902,9.20725917816162,-0.7674797177314758,0.96718031167984,-0.49663344,-1.2220358999999998,2
0.9106237292289734,9.141562461853027,-0.8990613222122192,0.97035413980484,-0.40469822,-1.1572843000000002,2
1.100147008895874,9.08456802368164,-0.8491790294647217,0.9777687788009644,-0.4129449000000001,-0.98563105,2
1.255872130393982,9.075702667236328,-0.6799965500831604,0.9720235466957092,-0.46883908,-0.9468411,2
1.3730677366256714,9.082329750061037,-0.4577460587024689,0.934826135635376,-0.54061574,-1.0250319,2
1.5189998149871826,9.128950119018556,-0.3230659067630768,0.8781524300575256,-0.4615087000000001,-1.0442741,2
1.715242862701416,9.159065246582033,-0.21022726595401764,0.8313527107238771,-0.4654793,-1.0800097,2
2.1593999862670903,9.059122085571287,-0.17788463830947876,0.7495146989822388,-0.56382865,-1.039998,2
2.7126615047454834,9.155786514282227,-0.3268937170505524,0.6202250719070435,-0.23945917,-0.7965683000000001,2
3.049822807312012,9.466934204101562,-0.3019430339336395,0.5084943771362305,0.053450707,-0.43249258,2
3.1713590621948238,9.775530815124512,-0.2021692842245102,0.3651970028877258,0.40775254,-0.20433442,2
3.254202127456665,10.046150207519533,-0.1519082337617874,0.14003683626651764,0.79229224,-0.007330383,2
3.33808970451355,10.428251266479492,-0.0884716734290123,-0.14240731298923492,1.0189233,0.29077184,2
3.2734904289245605,10.692118644714355,0.08755239099264145,-0.4356032609939575,0.5317582,0.6377433000000001,2
2.8878569602966313,10.797611236572266,0.3164717555046081,-0.7788770794868469,-0.071776666,1.196685,2
2.2135305404663086,11.195748329162598,0.405999481678009,-1.1511502265930176,-0.14996742,1.6401732,2
1.5023535490036009,12.084355354309082,0.3796885311603546,-1.4442096948623655,-0.6246096999999999,2.1245892000000004,2
0.6874390244483948,12.91818904876709,0.4586122930049896,-1.563863754272461,-1.5149458999999998,2.300824,2
0.0808827206492424,13.393115997314453,0.5512822866439819,-1.558113932609558,-1.3374895,2.024102,2
-0.008219965733587742,13.454891204833984,0.6205477118492126,-1.515749454498291,-0.18478674,1.6719381999999998,2
0.5814051032066345,13.219860076904295,0.8512976765632629,-1.5072221755981443,0.05925392700000001,1.7192802,2
1.1869924068450928,12.848454475402832,0.9718980193138124,-1.5065211057662964,0.3555236,1.5735888,2
1.5426461696624756,12.374683380126953,0.8281537890434265,-1.4682012796401978,0.93737274,1.568702,2
1.731090068817139,11.69642734527588,0.659233033657074,-1.391445517539978,1.2779301,1.609019,2
1.6973401308059692,10.836942672729492,0.4766267836093903,-1.2913780212402344,1.8145752,1.6108516000000002,2
1.5405337810516355,10.000225067138672,0.2894659638404846,-1.1858015060424805,2.2180517,1.5216653,2
1.3369005918502808,9.284628868103027,0.1463598608970642,-1.0776007175445557,2.3515258,1.4156802,2
1.0793455839157104,8.674750328063965,0.15406471490859985,-0.9656761288642884,2.1618521,1.2131784,2
0.78397136926651,8.13726806640625,0.30176085233688354,-0.8256356120109558,1.822211,0.95172805,2
0.4684112668037415,7.6626787185668945,0.4634265005588532,-0.6439232230186462,1.5870278999999998,0.6560693,2
0.1859934628009796,7.270240783691406,0.5923497676849365,-0.421747088432312,1.4483615,0.3811799,2
-0.002553979866206646,6.982028484344482,0.7248367667198181,-0.1804064363241196,1.2748758,0.14294247,2
-0.09405497461557387,6.764191150665282,0.8565157055854797,0.07928677648305893,0.9621128,-0.17409660000000002,2
-0.09120063483715056,6.594770908355713,1.0005667209625244,0.3459357023239136,0.6753115,-0.56291234,2
0.032320328056812286,6.446545600891112,1.242851495742798,0.6222864389419556,0.5864305999999999,-1.0461067,2
0.3217122256755829,6.431614875793457,1.7053796052932741,0.9116064310073853,0.79229224,-1.5757268999999998,2
1.0482262372970579,7.050239562988281,2.588017225265503,1.1021885871887207,0.820392,-1.559539,2
2.1183807849884038,8.524575233459473,3.64229416847229,1.0563578605651855,0.92057395,-0.42058071,2
3.1003429889678955,10.373607635498047,4.583216190338135,0.8716636896133423,1.6139059999999998,1.0256428,2
3.4956674575805664,11.725187301635742,5.2191572189331055,0.64915531873703,1.7250835,1.1435398,2
3.2913804054260254,11.132495880126953,5.298188209533691,0.503173828125,-0.6386596,0.5494733,2
2.6366817951202397,10.113936424255373,4.913359642028809,0.4258197844028473,-1.8903224,0.12492194,2
1.6983170509338381,10.195393562316896,4.464771747589111,0.331394761800766,-1.0360274,-0.2782491,2
1.4780490398406982,11.266609191894533,4.073255062103272,0.1584857553243637,0.7330383,-0.37232238,2
2.075286865234375,11.191888809204102,2.9372096061706543,-0.009672532789409159,-0.81000733,-0.17959438,2
2.1112220287323002,10.197476387023926,1.2692409753799438,0.13277991116046906,-1.2321151,-0.6264423000000001,2
1.666376709938049,9.166166305541992,0.1393609493970871,0.32587963342666626,0.7703011,-0.91599244,2
1.4451223611831665,8.849926948547363,-0.4203651547431946,0.44954872131347656,1.2614367,-0.83291477,2
1.5406148433685305,9.36081314086914,-0.6496066451072693,0.6174729466438293,0.88300574,-0.45937067,2
1.7418473958969116,9.911039352416992,-0.4406810104846953,0.780712366104126,-0.0036651916,-0.20647246,2
1.6405367851257324,9.98233413696289,0.07647103071212769,0.8848504424095154,-0.41905355,-0.2666427,2
1.3614577054977417,9.858941078186037,0.45026740431785583,0.9413357377052308,-0.50671273,-0.46944994,2
1.1127660274505615,9.698665618896484,0.5681412816047668,0.974923014640808,-0.6954701,-0.7144069000000001,2
0.9696070551872252,9.49148654937744,0.5184949636459351,1.0010099411010742,-0.6469063,-0.8872818000000001,2
0.9389207363128662,9.25424861907959,0.3923522830009461,1.0068883895874023,-0.37812558,-0.9593639000000002,2
1.0764238834381104,9.147770881652832,0.07332932204008102,0.9993558526039124,0.21991149,-0.86467975,2
1.3226261138916016,9.15274715423584,-0.2686896324157715,1.0080937147140503,0.4352415,-0.70707655,2
1.6060662269592283,9.202608108520508,-0.3788744211196899,1.028655767440796,0.344528,-0.50335294,2
1.7680457830429075,9.264286041259766,-0.3951370120048523,1.035059690475464,0.30543262,-0.44623706,2
1.8210096359252932,9.317669868469238,-0.4342948794364929,1.019616961479187,0.26206118,-0.4728097,2
1.804992914199829,9.411126136779783,-0.5324421525001526,0.9861876368522644,0.22815818,-0.4978552,2
1.7267435789108276,9.575547218322754,-0.6384301781654358,0.9591625928878784,0.19914207,-0.56077427,2
1.6541260480880735,9.758527755737305,-0.6325699090957642,0.9512906074523926,0.22632557,-0.57543504,2
1.727380871772766,9.977508544921877,-0.4620650112628937,0.9198691844940186,0.25228736,-0.48380527,2
2.08652138710022,10.15126132965088,-0.3185007572174072,0.8310240507125854,0.49938235,-0.2843578,2
2.5279111862182617,10.188274383544922,-0.3461047410964966,0.7056292295455933,0.93309665,-0.054367006,2
2.8045654296875,10.22871208190918,-0.4156840145587921,0.5672454833984375,1.1530081,0.22052236,2
2.87023663520813,10.550251007080078,-0.5919470191001892,0.3757369816303253,1.3833044,0.4550946,2
2.7841804027557373,11.04232692718506,-0.6992323398590088,0.1576695293188095,1.6224581,0.5885687,2
2.580673933029175,11.514972686767578,-0.5269359946250916,-0.11026092618703842,1.4153748,0.6768387,2
2.378936767578125,11.765118598937988,-0.17855048179626465,-0.4345923066139221,0.8249735,0.9831876,2
2.067382335662842,11.833213806152346,0.09482837468385696,-0.8194839954376221,0.5369505,1.3026701,2
1.5609068870544434,11.847954750061035,0.21658727526664734,-1.2183127403259275,0.39920044,1.3848315,2
1.1986325979232788,11.828369140625,0.1331971287727356,-1.5192302465438845,0.14691310000000002,1.4407257,2
1.327187180519104,11.846172332763672,-0.19927474856376648,-1.6691306829452517,0.344528,1.6743816000000002,2
1.6833014488220217,11.82516098022461,-0.5507009029388428,-1.6730115413665771,0.99173975,1.9251418,2
2.102049827575684,11.740875244140625,-0.8337441086769104,-1.5820267200469968,1.6236799,2.1111503,2
2.4194931983947754,11.547837257385256,-0.8737907409667969,-1.4127730131149292,1.8356501,2.1988094,2
2.541752338409424,11.221482276916504,-0.7258942127227783,-1.2331998348236084,2.132836,2.2327125,2
2.39826774597168,10.789306640625,-0.5498822927474976,-1.0576759576797483,2.2608123,2.0176878,2
2.138874292373657,10.291532516479492,-0.3895152509212494,-0.8827444314956665,2.2629502,1.7626517,2
1.9096947908401491,9.793594360351562,-0.2444690316915512,-0.7100215554237366,2.2363777,1.4895949,2
1.7621480226516724,9.320039749145508,-0.1569107174873352,-0.5322127938270569,2.3112087000000003,1.2501358,2
1.6507123708724976,8.855978965759277,-0.12121646851301192,-0.35523906350135803,2.3631322,0.94225967,2
1.5422977209091189,8.400094985961914,-0.11434154957532885,-0.1840667426586151,2.408947,0.6936375,2
1.395033359527588,7.945961475372314,-0.037575963884592056,-0.0132837425917387,2.3435845,0.45081854,2
1.235290288925171,7.495639324188232,0.11839906871318814,0.16802991926670074,2.2886066,0.17959438,2
1.1024014949798584,7.078169822692871,0.3334830701351166,0.36678692698478704,2.158187,-0.15882497,2
1.0876703262329102,6.7566776275634775,0.5415405035018921,0.5791915059089661,2.0928242,-0.48502702,2
1.3106194734573364,6.625874042510986,0.6529035568237305,0.7934821248054504,2.1881194,-0.6053675000000001,2
1.7108169794082642,6.735382556915282,0.5986435413360596,1.0065760612487793,2.449875,-0.5571090999999999,2
2.0626885890960693,7.17672872543335,0.4823919832706451,1.2512410879135132,3.223536,-0.34300083,2
2.175830841064453,7.864173412322997,0.6173256039619446,1.4950357675552368,3.9287798,0.017104227,2
1.8366348743438718,8.462713241577147,1.0584123134613037,1.5840526819229126,3.9788709,0.3155119,2
1.133399248123169,8.968013763427734,1.3973932266235352,1.4836595058441162,2.8542678,0.36010507,2
0.14014345407485962,9.412872314453123,1.3457099199295044,1.345468044281006,2.2858577,0.07574729,2
-1.2135653495788574,9.904705047607422,1.4132038354873655,1.2062585353851318,2.3612995,-0.5699373000000001,2
-2.380382776260376,10.458005905151367,2.0170698165893555,1.0048832893371582,1.201572,-1.5738943,2
-2.644634962081909,10.96424674987793,1.9281677007675169,0.7647423148155212,0.25045475,-1.7000380000000002,2
-1.9420795440673828,10.894119262695312,1.0797871351242063,0.7109694480895996,0.02321288,-1.033584,2
-0.7571821212768555,10.584065437316896,0.11583568900823593,0.8074421286582947,1.3481796,-0.5439755000000001,2
0.6487512588500977,11.310770034790039,-0.32974153757095337,0.9564483165740968,2.8619037,-0.40500367,2
1.8664467334747317,12.306882858276367,-0.327261745929718,1.0330256223678589,3.5317172999999995,-0.11362094,2
2.7095589637756348,12.095176696777346,-0.007474571466445924,1.0046628713607788,2.9391782,0.24740042,2
2.858480215072632,11.195547103881836,0.10894493758678436,0.9512151479721068,2.1157317000000004,0.31490102,2
2.373727321624756,10.42025661468506,0.01634315587580204,0.984390914440155,2.0448713,0.124311075,2
1.819396734237671,10.09719181060791,0.1653018593788147,1.010135293006897,1.953547,0.029626964,2
1.535519242286682,10.115585327148438,0.5691891312599182,0.9481440186500548,1.6420058000000002,0.0027488936,2
1.561473727226257,10.258234977722168,1.0470601320266724,0.7956740260124207,1.2626585,0.119729586,2
1.8546394109725952,10.286666870117188,1.21080219745636,0.609422504901886,1.2534955,0.28344148,2
2.1885638236999507,10.19716739654541,0.9435320496559144,0.4505518674850464,1.7006488000000002,0.38515055,2
2.328334331512451,10.128167152404783,0.5903056263923645,0.348766028881073,1.9141463,0.3042109000000001,2
2.3002963066101074,10.060907363891602,0.3197022080421448,0.31203219294548035,1.7412714,0.16401732,2
2.171781301498413,9.966714859008787,-0.060328241437673576,0.32711103558540344,1.7705929,0.08124508,2
2.0028541088104252,9.880940437316896,-0.5838747024536133,0.35795465111732483,2.1041253,0.08796459400000001,2
1.8652427196502688,9.8380708694458,-0.9903163909912108,0.3714467585086823,2.4544566000000003,0.0842994,2
1.825316309928894,9.827396392822266,-1.1854915618896484,0.3393492102622986,2.4605650000000003,0.0842994,2
1.8349134922027588,9.910860061645508,-1.3480870723724363,0.2630904316902161,2.2809708,0.12614368,2
1.7583593130111694,10.0249605178833,-1.6270627975463867,0.17937132716178894,2.1966715,0.21563543,2
1.5116862058639526,10.086369514465332,-1.9117366075515747,0.12082117050886156,2.2165246,0.25228736,2
1.170017957687378,10.085686683654783,-2.0258922576904297,0.08119510114192963,2.2724187,0.25870144,2
0.851272702217102,10.060770988464355,-1.9135693311691284,0.0408637672662735,2.1762075000000003,0.2593123,2
0.6385904550552368,10.03937816619873,-1.7134133577346802,-0.0037123318761587134,1.9883664,0.2919936,2
0.5443094372749329,10.03303050994873,-1.599704027175903,-0.045718535780906684,1.9083431,0.31398472,2
0.4731776714324951,10.054288864135742,-1.5135650634765625,-0.07740844041109085,1.9865338,0.27550024,2
0.42419683933258057,10.108128547668457,-1.326023817062378,-0.10968488454818726,1.9294178,0.27550024,2
0.3494279682636261,10.17049789428711,-1.0703449249267578,-0.15382690727710724,1.8185458,0.28008172,2
0.2454430013895035,10.194906234741213,-0.789831280708313,-0.2133529931306839,1.6190983,0.39095375,2
0.11293675005435945,10.22997760772705,-0.5827881693840027,-0.2747315764427185,1.3319917,0.6243043,2
-0.31069162487983704,10.228506088256836,-0.3355015218257904,-0.3084240257740021,1.0931433000000002,0.6948592,2
-0.712646484375,10.155083656311037,-0.0011466288706287742,-0.3580612242221832,0.61544675,0.6178902,2
-1.0117897987365725,10.049914360046387,0.27944308519363403,-0.4487157464027405,0.21013765,0.41325033,2
-1.0426042079925537,9.924856185913086,0.4165233969688416,-0.5531795024871826,-0.2312125,0.21502456,2
-0.6745162606239319,9.786568641662598,0.2624652683734894,-0.639910101890564,-0.3857614,0.13408493,2
-0.021858008578419685,9.664912223815918,0.009579404257237913,-0.6795377135276794,-0.008246681,0.15699236,2
0.7753239870071411,9.641539573669434,0.027390511706471443,-0.6810803413391113,0.91629785,0.13836098,2
1.5600241422653198,9.669411659240724,0.3574488162994385,-0.6590500473976135,1.1420126,0.06597344599999999,2
2.2544713020324707,9.67766284942627,0.6253865957260132,-0.5991870760917664,1.1664472,0.030543262,2
2.771448373794556,9.720663070678713,0.6013773679733276,-0.4893799126148224,1.6166549,0.047036625,2
3.034191608428955,9.734399795532227,0.395049512386322,-0.35288745164871216,1.9413297,0.116675265,2
2.9623377323150635,9.708944320678713,0.22309553623199466,-0.20455335080623627,1.9837849,0.1863139,2
2.500753879547119,9.709835052490234,0.2777782380580902,-0.03636166825890541,1.779145,0.22602014,2
1.7696160078048706,9.716532707214355,0.5317801833152771,0.14181102812290192,1.5839735,0.18997909,2
1.0953861474990845,9.700987815856934,0.878113329410553,0.2884362041950226,1.3686435,0.08155051,2
0.598922610282898,9.701668739318848,1.1757491827011108,0.366380512714386,1.0845913,0.019547688,2
0.2016679793596268,9.770469665527344,1.3287999629974363,0.3766441643238068,0.7611380999999999,-0.02687807,2
-0.18926461040973666,9.820772171020508,1.368556022644043,0.33606141805648804,0.39858958,-0.098043874,2
-0.4947532117366791,9.828008651733398,1.3021498918533323,0.266378253698349,0.15974127,-0.13988814,2
-0.5931205749511719,9.866632461547852,1.2148284912109375,0.18994256854057312,0.070249505,-0.1518,2
-0.44150441884994507,9.900564193725586,1.1581672430038452,0.12291141599416733,0.044898596,-0.10720685,2
-0.12676233053207395,9.90718936920166,1.1121999025344849,0.06588228791952133,0.042760565999999986,-0.054061573,1
0.23216119408607486,9.894180297851562,1.0338664054870603,0.02213726937770844,0.1328632,0.023518313,1
0.5234307646751404,9.85962963104248,0.9613210558891296,-0.005712971091270447,0.1826487,0.09712757,1
0.6743090748786926,9.78796672821045,0.8825019001960754,-0.019069164991378784,0.21746802,0.13775012,1
0.6913836598396301,9.727684020996094,0.8335345387458801,-0.02542521245777607,0.25686884,0.12186762,1
0.6402102112770081,9.712249755859377,0.8650807738304138,-0.037738151848316186,0.30757064,0.10262536,1
0.5734962224960327,9.739444732666016,0.9705193042755128,-0.07294998317956924,0.24281894,0.10354166,1
0.5099302530288696,9.806392669677734,1.0783312320709229,-0.12528781592845914,0.1423316,0.124005646,1
0.4626984298229218,9.852364540100098,1.1514480113983154,-0.18278181552886966,0.047036625,0.15302174,1
0.4487395882606505,9.862380981445312,1.2080533504486084,-0.2362983822822571,-0.0033597588,0.17898351,1
0.4912531077861786,9.85887622833252,1.2790969610214231,-0.2828405797481537,-0.0143553335,0.21380283,1
0.5527023673057556,9.871471405029297,1.3724420070648191,-0.32901909947395325,-0.032986723,0.30207285,1
0.5949882864952087,9.888900756835938,1.4721074104309082,-0.3751465380191803,-0.036957346,0.41447207,1
0.5776378512382507,9.906685829162598,1.552441120147705,-0.4169172942638397,-0.055588737,0.47494772,1
0.5155516266822815,9.917275428771973,1.6065179109573364,-0.447448194026947,-0.13958271,0.46761733,1
0.4650392532348633,9.919228553771973,1.6301916837692259,-0.4614518880844116,-0.27366763,0.44165558,1
0.4855196177959442,9.917919158935547,1.6252188682556152,-0.4460773766040802,-0.33383787,0.41447207,1
0.5737541317939758,9.911822319030762,1.592803120613098,-0.3979617059230805,-0.29260445,0.3930918,1
0.7139679193496704,9.869226455688477,1.5301356315612793,-0.3308883011341095,-0.2275473,0.408058,1
0.8400730490684509,9.795937538146973,1.4616514444351196,-0.25014930963516235,-0.12308934,0.3830125,1
0.9169344902038574,9.729174613952637,1.418479323387146,-0.15142451226711273,-0.006414085,0.30757064,1
0.9731121063232422,9.655512809753418,1.406392216682434,-0.04780016466975212,0.07666359,0.23487769,1
1.060515284538269,9.57244873046875,1.4256694316864014,0.053865946829319,0.09621128,0.19914207,1
1.1854352951049805,9.511603355407717,1.4573429822921753,0.15268132090568542,0.18203785,0.17928895,1
1.3278543949127195,9.457071304321287,1.480960249900818,0.23764802515506744,0.31673363,0.18203785,1
1.4623008966445925,9.38714599609375,1.479291915893555,0.3001561462879181,0.36774087,0.17837265,1
1.5279196500778198,9.339542388916016,1.4650288820266724,0.3447419106960297,0.4382958,0.15943582,1
1.5423736572265625,9.318045616149902,1.4766619205474854,0.3773776888847351,0.52656585,0.093462385,1
1.566572904586792,9.286772727966307,1.5094201564788818,0.39526915550231934,0.52381694,0.009773844,1
1.6030746698379517,9.28766632080078,1.5580062866210938,0.38305434584617615,0.43188173,-0.013744468,1
1.6432114839553833,9.363691329956056,1.591644525527954,0.3493513464927673,0.35979962,-0.01282817,1
1.7112040519714355,9.45589542388916,1.662039875984192,0.3071895837783813,0.20341812,0.0067195175,1
1.74316143989563,9.529111862182617,1.7201603651046753,0.2495009005069733,0.017104227,0.01740966,1
1.657434582710266,9.556071281433104,1.69716477394104,0.1807270497083664,-0.15668693,-0.043982297,1
1.4592161178588867,9.522777557373047,1.5922495126724243,0.12674374878406525,-0.24251351,-0.15149458,1
1.2672977447509766,9.47972011566162,1.4542070627212524,0.09997648000717163,-0.26083946,-0.258396,1
1.1599133014678955,9.488697052001953,1.3360344171524048,0.09898754209280014,-0.25045475,-0.2660318,1
1.16070818901062,9.55221462249756,1.2802948951721191,0.10647263377904892,-0.20097467,-0.1957823,1
1.2168340682983398,9.606672286987305,1.2441482543945312,0.11360003054141997,-0.25381452,-0.15149458,1
1.2660784721374512,9.63807201385498,1.0998426675796509,0.13661116361618042,-0.20586158,-0.16035213,1
1.279626488685608,9.675007820129396,0.8601587414741516,0.1822946518659592,-0.07513642,-0.1908954,1
1.2848669290542605,9.725361824035645,0.6793166399002075,0.2305741757154465,-0.006414085,-0.19608775,1
1.3077406883239746,9.764005661010742,0.6467674970626831,0.2604736685752869,-0.051618114000000014,-0.16982053,1
1.3177077770233154,9.786280632019043,0.7388334274291992,0.26474326848983765,-0.06688975,-0.14446963,1
1.314275145530701,9.789831161499023,0.8074860572814941,0.2463623583316803,-0.105068825,-0.14141529999999994,1
1.3230537176132202,9.791749954223633,0.7783856391906738,0.21234560012817386,-0.16065755,-0.1160644,1
1.3558489084243774,9.814401626586914,0.6888644695281982,0.17652590572834015,-0.1554652,-0.06963864,1
1.4205797910690308,9.844164848327637,0.600933849811554,0.1450345814228058,-0.116980694,-0.0033597588,1
1.502774953842163,9.877118110656738,0.53919917345047,0.1178952232003212,-0.11301007,0.038789943,1
1.552367925643921,9.88514804840088,0.48271536827087397,0.0912368670105934,-0.13194689,0.062308256,1
1.5678417682647705,9.85379123687744,0.4282706677913666,0.06534835696220398,-0.11301007,0.05772676700000001,1
1.567340612411499,9.800335884094238,0.36470985412597656,0.046344920992851264,-0.09590584,0.040317107000000005,1
1.567697525024414,9.77136516571045,0.3009243905544281,0.03486182540655136,-0.021380283,0.027183503,1
1.556732416152954,9.77096176147461,0.25186595320701605,0.0300484336912632,0.0009162979,0.030848695,1
1.525312423706055,9.78218936920166,0.21201543509960172,0.03020554408431053,-0.0125227375,0.03573562,1
1.49604594707489,9.78858757019043,0.1881157010793686,0.035050876438617706,-0.032375857,0.016187929,1
1.4690927267074585,9.78975772857666,0.17858216166496274,0.03753235936164856,-0.046120327,0.014660766,1
1.4440128803253174,9.787153244018556,0.1792113035917282,0.03626350313425064,-0.027794369,0.010079277,1
1.411805510520935,9.779546737670898,0.1947786659002304,0.03330136463046074,-0.046120327,0.0033597588,1
1.4029971361160278,9.77823257446289,0.20237885415554047,0.02953481115400791,-0.049480084,-0.005192355,1
1.420651912689209,9.78809928894043,0.19484581053256989,0.02594107948243618,-0.0571159,-0.002443461,1
1.4348077774047852,9.804405212402344,0.1541701853275299,0.023896027356386185,-0.058948494,0.0018325958,1
1.4285945892333984,9.806499481201172,0.11165143549442293,0.026002924889326096,-0.08552113,-0.018936822,1
1.4055181741714478,9.79157543182373,0.0915905237197876,0.02811291255056858,-0.11178834,-0.03573562,1
1.3819884061813354,9.783793449401855,0.07661149650812149,0.028475230559706688,-0.12705997,-0.06841691,1
1.3915114402770996,9.780574798583984,0.08017197996377945,0.025979459285736084,-0.15607607,-0.060170225999999986,1
1.436509370803833,9.784453392028807,0.0798584446310997,0.024578912183642387,-0.12705997,-0.04734206,1
1.5017149448394775,9.793756484985352,0.0424463152885437,0.02511871419847012,-0.1001819,-0.023518313,1
1.535139083862305,9.80734920501709,0.012501813471317293,0.028451565653085712,-0.07391469,-0.0067195175,1
1.550049901008606,9.804206848144533,0.005056940950453281,0.03171754628419876,-0.08307768,-0.007330383,1
1.5732100009918213,9.793554306030273,0.02055077999830246,0.03141579031944275,-0.08521569999999999,-0.007941248,1
1.6042438745498655,9.790173530578613,0.02174033783376217,0.02548520267009735,-0.056505036,-0.018936822,1
1.6250489950180054,9.797195434570312,-0.00016263805446214974,0.01514032855629921,-0.024129177,-0.0030543262,1
1.6212263107299805,9.809168815612793,-0.03893563151359558,0.006339069921523333,-0.0070249503,-0.0009162979,1
1.6273841857910156,9.814398765563963,-0.06228432804346085,0.002402275102213025,0.028099801,0.009162978,1
1.6320101022720337,9.817028045654297,-0.07754269987344742,-0.0026421307120472197,0.073303826,0.018936822,1
1.6148232221603394,9.819491386413574,-0.08825355023145676,-0.008435376919806005,0.11453723,0.03145956,1
1.5645129680633545,9.822339057922363,-0.09626966714859007,-0.013730837963521479,0.14905111,0.03481932,1
1.4909638166427612,9.824584007263184,-0.09155681729316713,-0.01726177334785461,0.14538592,0.04642576,1
1.397793889045715,9.823114395141602,-0.07641081511974335,-0.02013067714869976,0.11728613,0.05222898,1
1.2938159704208374,9.821703910827637,-0.04838733747601509,-0.024097483605146408,0.09315695,0.042760565999999986,1
1.2015318870544434,9.824640274047852,-0.016505111008882526,-0.028891526162624363,0.051618114000000014,0.034513887,1
1.1244351863861084,9.830153465270996,0.004231543745845556,-0.03513481840491295,0.0290161,0.023518313,1
1.0769555568695068,9.834402084350586,0.007720290683209895,-0.04053518921136856,0.014049901000000002,0.014049901000000002,1
1.047989010810852,9.830854415893556,-0.016576595604419708,-0.044008489698171616,-0.01863139,0.007330383,1
1.0223982334136963,9.829270362854004,-0.04152355343103409,-0.04468158259987831,-0.035430185,-0.00061086525,1
1.0064502954483032,9.832348823547363,-0.049253378063440316,-0.04441462829709053,-0.046120327,-0.0070249503,1
1.0053322315216064,9.83103847503662,-0.044712331146001816,-0.043752916157245636,-0.08368854,0.0015271631,1
1.0142778158187866,9.831932067871094,-0.0385197289288044,-0.04434647783637047,-0.08827003,0.00580322,1
1.0294654369354248,9.833880424499512,-0.017553653568029404,-0.04661678895354271,-0.09773844,0.0027488936,1
1.0586096048355105,9.839871406555176,0.006851820275187492,-0.0501633957028389,-0.10598512,0.0061086523,1
1.0861120223999023,9.841911315917967,0.028307761996984482,-0.05565561354160309,-0.11881329,0.017715093,1
1.1172658205032349,9.839760780334473,0.03343166783452034,-0.06019986420869827,-0.12797627,0.017104227,1
1.147082805633545,9.835843086242676,0.026181489229202267,-0.06530694663524628,-0.12186762,0.02443461,1
1.1678060293197632,9.835217475891113,0.01697472110390663,-0.06679780036211014,-0.11881329,0.0143553335,1
1.180634379386902,9.829009056091307,0.01707414537668228,-0.06722859293222427,-0.110872045,0.009468411,1
1.2006956338882446,9.821494102478027,0.0289190411567688,-0.06576751917600633,-0.115453534,-0.0018325958,1
1.210411787033081,9.822983741760254,0.045121878385543816,-0.06391797214746475,-0.11911872,0.00030543262000000003,1
1.219045877456665,9.82343578338623,0.07181255519390106,-0.0628008022904396,-0.14049901,0.003970624,1
1.2124342918395996,9.823233604431152,0.10041989386081696,-0.06051786243915557,-0.15210545,0.009773844,1
1.2118368148803709,9.829629898071287,0.12775737047195435,-0.060603827238082886,-0.17531833,0.016187929,1
1.21744966506958,9.835390090942383,0.14370445907115936,-0.0640634074807167,-0.19853121,0.018325957,1
1.212891697883606,9.828129768371582,0.1502539962530136,-0.06757903844118117,-0.19975294,0.02076942,1
1.211014986038208,9.820323944091797,0.15611213445663452,-0.06986212730407715,-0.21227567,0.022602014,1
1.2054086923599243,9.823588371276855,0.15818946063518524,-0.0717388167977333,-0.21624629,0.014660766,1
1.2049498558044434,9.823397636413574,0.1430184692144394,-0.07455751299858092,-0.24678956,0.010995574,1
1.213656663894653,9.8145112991333,0.12709859013557434,-0.07704325020313263,-0.23548855,0.0067195175,1
1.2381188869476318,9.802884101867676,0.11973554641008376,-0.07651267200708389,-0.20433442,0.01038471,1
1.2878791093826294,9.796716690063477,0.12448488175868988,-0.07451212406158447,-0.1518,0.007330383,1
1.3446849584579468,9.79055881500244,0.12958180904388428,-0.07342032343149185,-0.09193522,0.004886922,1
1.403462052345276,9.78926944732666,0.14421746134757996,-0.07151998579502106,-0.032375857,0.016493361,1
1.4486408233642578,9.7875337600708,0.16024477779865265,-0.06891876459121704,0.014049901000000002,0.0143553335,1
1.472079157829285,9.785049438476562,0.1685778796672821,-0.06759091466665268,0.040317107000000005,0.023823744,1
1.4710497856140137,9.791864395141602,0.16873037815093994,-0.06648458540439606,0.073303826,0.019242255,1
1.4465442895889282,9.7893648147583,0.17080093920230865,-0.0648333728313446,0.08093964,0.015577064,1
1.4140793085098269,9.784112930297852,0.17369380593299866,-0.062159374356269836,0.0711658,0.009162978,1
1.3943296670913696,9.784465789794922,0.1878486275672913,-0.06026609241962432,0.08063421400000001,0.005497787,1
1.3836212158203125,9.790371894836426,0.19645243883132932,-0.05929391086101533,0.10170906,0.011301007,1
1.3636132478713991,9.80205535888672,0.19430944323539734,-0.05886417999863625,0.103847094,0.004886922,1
1.3548460006713867,9.801128387451172,0.1907600164413452,-0.05601274594664574,0.10140363,0.011911872,1
1.361330270767212,9.793540954589844,0.19791246950626373,-0.05319121852517128,0.092240654,0.009773844,1
1.3742886781692505,9.78730010986328,0.21554861962795255,-0.052616644650697715,0.10567969,0.0143553335,1
1.389943242073059,9.790079116821287,0.23444004356861115,-0.05422060191631317,0.112399206,0.012217305,1
1.406024694442749,9.792597770690918,0.24833108484745026,-0.05426643043756485,0.13041973,0.016187929,1
1.4271373748779297,9.789918899536133,0.25502923130989075,-0.054086491465568536,0.13836098,0.0076358155,1
1.4545422792434692,9.787627220153807,0.2609185576438904,-0.05312858894467354,0.15241088,-0.013744468,1
1.5040330886840818,9.774850845336914,0.262957364320755,-0.05211446061730385,0.16401732,-0.024129177,1
1.5723878145217896,9.765983581542967,0.25749969482421875,-0.051987141370773315,0.19425514,-0.027794369,1
1.6396294832229614,9.76422882080078,0.23884662985801694,-0.05078612640500069,0.24404067,-0.027183503,1
1.703626275062561,9.759206771850586,0.2203957438468933,-0.04716705530881882,0.28496864,-0.011301007,1
1.7580960988998413,9.75195598602295,0.20598171651363373,-0.04335121065378189,0.3286455,0.004581489,1
1.780439019203186,9.754638671875,0.1902185678482056,-0.04158633574843407,0.3662137,0.009773844,1
1.7633006572723389,9.762931823730467,0.18367835879325867,-0.04005136713385582,0.37598756,0.0018325958,1
1.7311317920684814,9.763731002807617,0.1937585771083832,-0.038643989711999886,0.36896262,-0.0030543262,1
1.6491410732269287,9.759267807006836,0.19860219955444336,-0.03758600726723671,0.36865717,-0.016187929,1
1.5371158123016355,9.746248245239258,0.21385301649570465,-0.03692962974309921,0.40591997,-0.03390302,1
1.4486573934555054,9.727848052978516,0.23184393346309665,-0.03505217283964157,0.3659083,-0.048258353,1
1.3971176147460938,9.724610328674316,0.247197300195694,-0.032058246433734894,0.3390302,-0.050396383,1
1.3666486740112305,9.73116397857666,0.259402334690094,-0.024383625015616417,0.31856623,-0.06047566,1
1.3396389484405518,9.739227294921877,0.2611303329467773,-0.013818523846566677,0.3659083,-0.07574729,1
1.3193504810333252,9.739642143249512,0.26833367347717285,-0.0021981168538331985,0.40133846,-0.09285152,1
1.3045177459716797,9.733135223388672,0.2788092195987701,0.007896573282778263,0.40591997,-0.10934488,1
1.2745510339736938,9.73155403137207,0.2814294397830963,0.013160126283764841,0.43279803,-0.12705997,1
1.2536094188690186,9.73733901977539,0.2829177677631378,0.017622312530875206,0.46670106,-0.13927728,1
1.250336766242981,9.762734413146973,0.28403669595718384,0.01999903842806816,0.46761733,-0.11026118,1
1.2292873859405518,9.781466484069824,0.27910399436950684,0.023307807743549347,0.49388456,-0.09315695,1
1.169655203819275,9.789749145507812,0.2654753029346466,0.02734183520078659,0.5198463,-0.069027774,1
1.0620335340499878,9.804104804992676,0.25828617811203003,0.02956303767859936,0.52687126,-0.049480084,1
0.927598237991333,9.833962440490724,0.24844345450401306,0.02911001071333885,0.5519168000000001,-0.010995574,1
0.7447361946105957,9.884736061096193,0.2486212104558945,0.022414671257138245,0.52503866,-0.0033597588,1
0.5036776661872864,9.908527374267578,0.2772688567638397,0.008558708243072033,0.4783075,-0.004276057,1
0.2969343066215515,9.926790237426758,0.30684104561805725,-0.009378950111567974,0.36896262,0.015271631,1
0.1309160143136978,9.949597358703613,0.2649862468242645,-0.02400593459606171,0.32834008,0.09773844,1
-0.0006874411483295263,9.973042488098145,0.23821400105953214,-0.016918465495109558,0.1685988,0.09712757,1
-0.12904331088066098,9.989270210266113,0.14737482368946075,-0.0007866937085054816,-0.00030543262000000003,0.129198,1
-0.29084473848342896,9.968216896057127,0.017857303842902184,0.02536225132644176,-0.015577064,0.12675454,1
-0.41588425636291504,9.92890739440918,-0.036765996366739266,0.054918132722377784,-0.19120082,0.10445796,1
-0.4339997470378876,9.926321029663086,-0.08929965645074844,0.07618153840303421,-0.3359759,0.10445796,1
-0.3963311910629273,9.944997787475586,-0.18073241412639615,0.08632131665945053,-0.46761733,0.16096300000000002,1
-0.3603310883045197,9.965746879577637,-0.2333942651748657,0.08355692774057387,-0.57360244,0.23182335,1
-0.30031180381774897,9.9773588180542,-0.2154657989740372,0.05710749328136444,-0.7315111,0.2648101,1
-0.14931094646453855,10.004727363586426,-0.19334036111831665,0.01428882498294115,-0.8472700999999999,0.32345316,1
0.06309394538402557,10.043668746948242,-0.21675695478916168,-0.027356883510947227,-0.91690874,0.38973203,1
0.22304877638816836,10.088094711303713,-0.2740702033042908,-0.0646616518497467,-0.820392,0.45112398,1
0.22035548090934756,10.148456573486328,-0.2740504145622253,-0.101600743830204,-0.8045095,0.43951756,1
0.04125133529305458,10.180340766906738,-0.25585371255874634,-0.15188468992710116,-0.9624182,0.3368922,1
-0.20359918475151065,10.191534042358398,-0.2910345494747162,-0.21168717741966248,-1.2699889,0.29260445,1
-0.4445745646953583,10.204429626464844,-0.38136085867881775,-0.25954994559288025,-1.4782939,0.24220806,1
-0.4968525469303131,10.17933750152588,-0.39906182885169983,-0.2914692163467407,-1.7876971999999998,0.18997909,1
-0.2404719740152359,10.16401195526123,-0.3425822257995605,-0.3242470622062683,-1.7650951,0.22693644,1
0.2633535861968994,10.268351554870604,-0.28974732756614685,-0.3698614239692688,-1.4590516000000002,0.4465425,1
0.6898708939552307,10.393209457397461,-0.1915968954563141,-0.4037685394287109,-1.1212431,0.57879484,1
0.930841326713562,10.453323364257812,-0.015036654658615591,-0.4224046468734741,-1.0491611,0.41172317,1
1.0402795076370241,10.550764083862305,0.14855796098709104,-0.4551869928836823,-1.0607675,0.13041973,1
1.0560561418533323,10.667097091674805,0.3010304570198059,-0.5043994188308716,-1.2996159,-0.06505715,1
0.980036735534668,10.629531860351562,0.5505944490432739,-0.5579700469970703,-1.8445076,-0.092240654,1
0.8764536380767822,10.352202415466307,0.8524160385131836,-0.636457622051239,-2.2159138,-0.06261369,1
0.8098113536834717,9.941624641418457,0.9457483887672424,-0.7566227316856384,-2.3047945,-0.14172074,1
0.7933148145675659,9.578714370727539,0.858603835105896,-0.8999724984169006,-1.953547,-0.3585779000000001,1
0.8692649006843567,9.363512992858887,0.7908176183700562,-1.0380409955978394,-1.645671,-0.5757405,1
1.0371470451354978,9.249300003051758,0.8555118441581726,-1.1420505046844482,-1.6496416,-0.72418076,1
1.2014895677566528,9.164207458496094,1.0265302658081057,-1.214855074882507,-1.7122552,-0.82558435,1
1.3480530977249146,9.093949317932127,1.2218970060348509,-1.2706245183944702,-1.7180585,-0.9211848,1
1.4834922552108765,9.044388771057127,1.359052658081055,-1.3122502565383911,-1.6362026,-1.0134255,1
1.5622820854187012,8.992965698242188,1.4422755241394043,-1.3360600471496582,-1.4816537,-1.1001683,1
1.5495834350585938,8.920973777770996,1.5348889827728271,-1.3364723920822144,-1.4850134,-1.1820242,1
1.5116935968399048,8.845706939697266,1.6684911251068115,-1.3069968223571775,-1.4511104,-1.2162327,1
1.5642578601837158,8.824020385742188,1.813642501831055,-1.2585134506225586,-1.5066991000000003,-1.1603385,1
1.632947325706482,8.789844512939451,1.9698668718338013,-1.180829644203186,-1.4789047,-1.0827587,1
1.7010722160339355,8.744389533996582,2.1217358112335205,-1.0950641632080078,-1.350623,-0.9682214,1
1.7444421052932741,8.662700653076174,2.269629716873169,-1.0104545354843142,-1.2324207,-0.8350528,1
1.7704579830169678,8.550274848937987,2.456737518310547,-0.9252998232841492,-1.1881329,-0.7715228,1
1.7960957288742063,8.470580101013184,2.7059106826782227,-0.8422822356224059,-1.1823297,-0.7272350999999999,1
1.83315908908844,8.437809944152832,3.024622678756714,-0.7535179257392883,-1.1951579,-0.6429357,1
1.8700145483016968,8.411372184753418,3.3750715255737305,-0.6532907485961914,-1.1023063999999998,-0.5671884,1
1.9142873287200928,8.363015174865723,3.678758144378662,-0.536271870136261,-0.94134337,-0.46181414,1
1.9586261510849,8.277681350708008,3.931126117706299,-0.3951871395111084,-0.8680395000000001,-0.3585779000000001,1
1.8613194227218628,8.389100074768066,4.248711109161377,-0.2341148555278778,-0.9776898,-0.34300083,1
1.6297906637191772,8.98369312286377,4.526496887207031,-0.04738439619541168,-0.97005403,-0.37690386,1
1.414175510406494,9.607163429260254,4.843108177185059,0.09926121681928636,-0.73823065,-0.09560041,1
1.4238991737365725,9.986729621887207,5.188509464263916,0.13419629633426666,-0.80939645,0.24678956,2
1.718605399131775,10.164381980895996,5.4410061836242685,0.11602763086557387,-1.094976,0.46700647,2
1.7014285326004028,9.854133605957033,5.0203399658203125,0.08127827197313309,-1.9850066,0.2406809,2
1.0369460582733154,9.372028350830078,4.027557849884033,0.17755819857120514,-2.157576,-0.48716503,2
0.5630572438240051,9.303261756896973,3.074355363845825,0.31885915994644165,-2.144137,-0.61575216,2
0.5540783405303955,9.502554893493652,2.0266106128692627,0.4531803131103516,-1.9278907,-0.45081854,2
0.7041450738906859,9.696769714355467,1.1505192518234253,0.5849554538726807,-1.6694947,-0.355829,2
0.8441940546035767,9.797122955322266,0.5848326683044434,0.6989912986755371,-1.5656476,-0.30970868,2
1.0339634418487549,9.843281745910645,0.26047825813293457,0.8088129758834839,-1.7654005000000002,-0.23915374,2
1.1466248035430908,9.797390937805176,0.034964442253112786,0.8904545903205872,-1.9449949,-0.28985557,2
1.1486917734146118,9.685379981994627,-0.1116286888718605,0.9462284445762634,-1.9315559,-0.46700647,2
1.2301290035247805,9.604056358337402,-0.12109978497028352,0.9745613336563109,-1.9477439,-0.59406644,2
1.4347622394561768,9.579792022705078,-0.036976736038923264,0.9699172377586364,-2.0567832,-0.5656611999999999,2
1.643547296524048,9.572081565856934,0.011421756818890572,0.9409513473510742,-2.0305161,-0.45998153,2
1.7896842956542969,9.542315483093262,-0.022956786677241325,0.8945233821868896,-1.8020525,-0.42760566,2
1.9186313152313232,9.500468254089355,-0.0979308784008026,0.8351898193359375,-1.5231925,-0.45051312,2
2.0796556472778316,9.491966247558594,-0.1523793637752533,0.7737614512443542,-1.3695598999999998,-0.41722095,2
2.2173168659210205,9.49524974822998,-0.1806008219718933,0.7198808193206787,-1.2122620000000002,-0.35124752,2
2.244387626647949,9.487956047058104,-0.20547975599765775,0.6770010590553284,-1.0882565,-0.30024028,2
2.143028974533081,9.475200653076172,-0.24068889021873474,0.6512075066566467,-1.0711522,-0.32925636,2
1.978601574897766,9.454829216003418,-0.2844865918159485,0.6365112662315369,-1.1032226,-0.34422258,2
1.8157382011413572,9.431708335876463,-0.3425212204456329,0.6276732683181763,-1.0821478,-0.36377025,2
1.6833642721176147,9.418821334838867,-0.42657336592674255,0.6213338971138,-1.0149527,-0.39095375,2
1.57778000831604,9.402033805847168,-0.5429094433784485,0.6144078969955444,-0.9230174,-0.4279111,2
1.4862074851989746,9.36352825164795,-0.6646214127540588,0.6024290323257446,-0.77366084,-0.4978552,2
1.4042383432388306,9.32917022705078,-0.7530264258384705,0.5876055359840393,-0.7171558000000001,-0.6093381,2
1.3239800930023191,9.33714485168457,-0.8144965767860413,0.5790611505508423,-0.6786713000000001,-0.7174611999999999,2
1.1943169832229614,9.359610557556152,-0.8249735236167908,0.585497260093689,-0.77091193,-0.8390234000000001,2
1.1039472818374634,9.483452796936037,-0.8066855072975159,0.6011332869529724,-0.8707884,-0.91751957,2
1.181775689125061,9.653358459472656,-0.7977528572082521,0.5969170928001404,-0.9104946,-0.8552113000000001,2
1.4552381038665771,9.928449630737305,-0.7749280333518982,0.5596200227737427,-0.8542950999999999,-0.5732970000000001,2
1.7933087348937988,10.243156433105467,-0.6689322590827942,0.5002462863922119,-0.6805039,-0.34238997,2
2.0899279117584233,10.575920104980467,-0.5653693079948425,0.38775771856307983,-0.3680463,-0.14966199,2
2.330532550811768,11.096501350402832,-0.4810872375965118,0.2187305986881256,-0.13194689,0.12644911,2
2.56078577041626,11.682889938354492,-0.2857286036014557,0.029357319697737694,0.17043139999999998,0.46120325,2
2.8255617618560787,11.992566108703613,-0.21942710876464844,-0.23826511204242706,0.5198463,0.711658,2
2.8699109554290767,12.054259300231935,-0.1936471462249756,-0.5418815016746521,0.52687126,1.14018,2
2.514705181121826,12.247215270996096,0.08198001235723495,-0.8638350367546082,0.36163223,1.5351044,2
1.8187589645385744,12.568456649780273,0.2657477855682373,-1.2335481643676758,0.051923547,1.8258762,2
0.94476318359375,12.840173721313475,0.16781365871429446,-1.534505009651184,-0.12370021,1.9868392,2
0.30246224999427795,13.030089378356935,-0.09442241489887238,-1.6766488552093506,-0.36560285,2.000889,2
0.2586477994918823,13.100601196289062,-0.2696006596088409,-1.6840851306915283,-0.88178396,1.9727893,2
0.908969223499298,13.084850311279295,-0.08342541754245758,-1.5682979822158811,-0.9599747,2.4480424,2
1.3992316722869873,12.90755844116211,0.1150243878364563,-1.4847439527511597,0.453262,2.2907448,2
1.5582493543624878,12.52247428894043,0.12618079781532288,-1.4292389154434204,1.0726794,2.0683897,2
1.5818654298782349,11.90382194519043,0.09260199964046477,-1.3696082830429075,1.1206323,1.9749273,2
1.5484907627105713,11.10914421081543,-0.018303465098142624,-1.2849972248077393,1.4474452,1.9804251,2
1.4569735527038574,10.200967788696287,-0.15385429561138153,-1.164903163909912,1.724778,1.8829921000000005,2
1.339147448539734,9.269206047058104,-0.2571808397769928,-1.0587998628616333,1.9272798,1.7318029,2
1.2448341846466064,8.499463081359862,-0.23749953508377075,-0.954239010810852,1.7815883999999995,1.5705346000000002,2
1.1290477514266968,7.933913230895996,-0.11714721471071245,-0.8349896669387817,1.561677,1.3582588,2
0.9511849880218506,7.532461643218994,0.04340749233961105,-0.6936230659484863,1.205848,1.0680978,2
0.6764842867851257,7.103598594665527,0.1875498592853546,-0.5299850702285767,1.0564915,0.70188415,2
0.3310892879962921,6.609048843383789,0.3241448998451233,-0.35105714201927185,0.98990715,0.32253686,2
0.10692457854747772,6.09384298324585,0.4827724993228912,-0.14694179594516754,0.7632760999999999,-0.100792766,2
0.15210479497909546,5.6537132263183585,0.634110689163208,0.08002369850873947,0.6768387,-0.50640726,2
0.4945478439331055,5.34430742263794,0.8493556976318359,0.32235631346702576,0.6230826,-0.9578367,2
1.1318072080612185,5.256103515625,1.2755441665649414,0.5944378972053528,0.7706065,-1.3338243,2
2.2116811275482178,5.613820552825928,2.196077585220337,0.8388301730155945,0.5390885999999999,-1.4584408000000002,2
4.078415393829347,6.9550838470458975,3.468996286392212,0.9346168637275696,-0.4978552,-0.4578435,2
5.926127433776856,9.0369873046875,4.330552101135254,0.8304649591445923,0.013439035,0.906524,2
6.34401798248291,10.73281955718994,4.751144409179688,0.6606463789939879,1.3826935,1.1630874,2
5.52515172958374,11.61428165435791,5.072020053863525,0.506752610206604,-1.4016303,0.20433442,2
3.947241306304932,11.432550430297852,4.766939640045166,0.4368819296360016,-2.4556782000000004,-0.3631594,2
2.4691569805145264,11.290342330932615,3.7360858917236333,0.3481121361255646,-0.22876903,-0.39400807,2
1.8901816606521609,12.079228401184082,3.2042007446289062,0.1905247122049332,-0.4886922,-0.18020524,2
1.4962995052337646,11.469064712524414,2.6563916206359863,0.10407770425081253,-2.2269092,-0.6994406999999999,2
0.7948068976402283,9.932647705078123,1.6232106685638428,0.2255439311265945,-2.9046642999999994,-1.6862935,2
0.4996418952941895,9.058602333068848,0.3932291269302368,0.35864776372909546,-1.7492126,-1.7101171999999998,2
0.7197271585464478,9.481922149658203,-0.8801298141479492,0.5324578285217285,-0.84849185,-1.5012014,2
1.1673918962478638,10.322763442993164,-1.559504151344299,0.7064650058746338,0.15057829,-1.2770138,2
1.4887325763702393,10.474583625793457,-1.2982643842697144,0.8304352760314941,-0.17928895,-1.0439687,2
1.410878300666809,9.998067855834961,-0.7940065264701843,0.928758144378662,-1.1087204,-1.1016954,2
1.1306326389312744,9.455799102783203,-0.554966151714325,1.00764262676239,-1.3869696000000002,-1.1688906,2
0.9150821566581726,9.153678894042967,-0.650725245475769,1.0370484590530396,-1.2904528,-1.2073752,2
0.8911860585212708,9.052763938903807,-0.9866726398468018,1.0323436260223389,-0.6740898,-1.1606439,2
1.0451393127441406,9.024127006530762,-1.1677937507629397,1.0244131088256836,-0.516792,-0.9957104,2
1.2140154838562012,9.000455856323242,-1.1260448694229126,1.0177810192108154,-0.46639562,-0.8765915999999999,2
1.2546815872192385,8.987020492553711,-0.9316319823265076,0.9907865524291992,-0.5543602,-0.89644474,2
1.2486445903778076,8.953672409057617,-0.8199759721755981,0.9363027215003968,-0.5882632,-0.9663888,2
1.2856465578079224,8.89786434173584,-0.8537198305130005,0.87291020154953,-0.55955255,-1.0299188,2
1.3447130918502808,8.92767333984375,-0.8837411403656006,0.8205720782279968,-0.45723262,-1.1032226,2
1.4064913988113403,9.026196479797363,-0.7778595685958862,0.7847989201545715,-0.5338961999999999,-1.178359,2
1.6130092144012451,9.068021774291992,-0.6964550614356995,0.7185521125793457,-0.6982189999999999,-1.1905763,2
2.0305006504058842,9.256749153137207,-0.8237667679786682,0.613242506980896,-0.30665436,-0.9462303,2
2.3891282081604004,9.612303733825684,-0.8562756776809692,0.5158859491348267,-0.10567969,-0.6243043,2
2.6390841007232666,9.94731903076172,-0.8431817293167114,0.3642626106739044,0.19853121,-0.30848694,2
2.8020038604736333,10.337203979492188,-0.7006023526191711,0.12657132744789126,0.3191771,0.11178834,2
2.9387226104736333,10.788688659667967,-0.4982219338417053,-0.15730056166648865,0.5720753000000001,0.6239988000000001,2
3.090117931365967,10.959272384643556,-0.3313318490982056,-0.4737231135368347,0.5635232,1.1071932,2
3.0938141345977783,11.11049747467041,-0.14393064379692078,-0.8343650102615356,0.17623462,1.7244726,2
2.654746532440185,11.967251777648926,0.04940998554229736,-1.2363959550857544,0.06261369,2.2577580000000004,2
1.7034412622451782,13.194906234741213,-0.16925421357154846,-1.5307892560958862,-0.038789943,2.510656,2
0.5714148283004761,14.008810043334961,-0.22772835195064545,-1.6047276258468628,-0.8707884,2.5912905,2
0.026686422526836395,14.335562705993652,0.07413224130868913,-1.555199146270752,-1.1044444,2.532342,2
0.28574833273887634,14.314200401306152,0.5466395020484924,-1.5121679306030271,-0.7101309,2.5271494,2
0.7557109594345093,13.952258110046387,0.7419721484184265,-1.525968313217163,0.06658431,2.2153027,2
0.9817811846733092,13.263519287109375,0.6845569014549255,-1.5427191257476809,0.35094208,1.9355265,2
1.0764032602310178,12.36351203918457,0.5151770710945129,-1.5247162580490112,0.75900006,2.0051650000000003,2
1.0527335405349731,11.45261001586914,0.1336948275566101,-1.46996808052063,1.7476854,2.0360138,2
0.8265551328659058,10.509936332702637,-0.2606785297393799,-1.3893853425979614,2.0790799,1.8497,2
0.5275164246559143,9.493756294250488,-0.4757596552371979,-1.29000723361969,1.9251418,1.5937473999999998,2
0.23713572323322296,8.444647789001465,-0.509210467338562,-1.1672018766403198,1.7464638,1.2269229,2
0.017432350665330887,7.503783702850343,-0.3976364135742188,-1.0352483987808228,1.4288138,0.82986045,2
-0.17221222817897794,6.723104953765869,-0.24976544082164764,-0.8661850690841675,1.1261301,0.4382958,2
-0.3961818218231201,6.076148509979247,-0.13866527378559113,-0.653435468673706,0.93737274,-0.024740042,2
-0.6540578007698059,5.481680870056152,-0.05460795015096664,-0.3905130624771118,0.61636305,-0.57818395,2
-0.6844514608383179,4.956170558929443,0.05238782241940498,-0.08421070128679277,0.26022860000000003,-1.1866057,2
-0.3509077727794647,4.709763526916504,0.3517366945743561,0.2723104059696197,0.4859433,-1.6948457,2
0.4897947311401367,4.996192932128906,1.197581171989441,0.6481917500495911,0.8536841999999999,-2.0124955,2
2.3228402137756348,6.451210975646973,2.6841962337493896,0.8714163899421692,0.28008172,-1.6065756000000002,2
4.8993563652038565,8.636659622192383,4.010570049285889,0.7961093187332153,-0.45845437,1.0280862,2
6.0310115814208975,10.380962371826172,4.820080757141113,0.5294339656829834,2.1841488,1.8307631,2
5.676598072052003,10.79389476776123,5.479482650756836,0.3292011022567749,-1.5076154,0.732122,2
4.210639953613281,10.409693717956543,5.024615287780762,0.33580178022384644,-2.8087585,-0.29626966,2
2.497722864151001,10.00444221496582,4.0123329162597665,0.3469549119472504,-0.9101892,-0.6588182,2
1.7732704877853394,10.749116897583008,3.4162909984588623,0.1694680154323578,0.7669413,-0.12736541,2
2.1431660652160645,11.719660758972168,2.757387399673462,0.09306709468364716,-1.4874569,0.07452556,2
2.092392444610596,11.21872329711914,1.5198993682861328,0.21303662657737726,-2.1288655,-0.82986045,2
1.4418680667877195,9.970508575439453,0.4548673331737518,0.3845428824424744,-0.8295549999999999,-1.4395038999999998,2
1.0223876237869265,9.131759643554688,-0.1822129189968109,0.4823927879333496,-0.3817908,-1.4947872,2
1.1828595399856567,9.279358863830566,-0.7657410502433777,0.6032596826553345,-0.14202617,-1.3246613,2
1.517323017120361,9.873600959777832,-1.0490938425064087,0.7284760475158691,0.15271631,-1.03786,2
1.6415008306503296,10.077635765075684,-0.8778525590896606,0.8321332931518555,-0.070249505,-0.86162543,2
1.3539968729019165,9.70096206665039,-0.622830331325531,0.913382887840271,-0.2864958,-0.9957104,2
1.0323933362960815,9.270140647888184,-0.4449275434017181,0.9784639477729796,-0.5671884,-1.0906999,2
0.863635778427124,9.040084838867188,-0.42455825209617615,1.0168598890304563,-0.8020661,-1.1432343,2
0.7790374159812927,8.902502059936523,-0.5333803296089172,1.0287090539932249,-0.50671273,-1.1695015,2
0.7819010615348816,8.786979675292969,-0.6556925177574158,1.0261728763580322,-0.37965274,-1.1236867,2
0.8475660681724548,8.718098640441895,-0.7509843707084656,1.0383887290954592,-0.25411993,-1.0601566,2
0.9194542169570924,8.72624683380127,-0.7347692251205444,1.0537099838256836,-0.22052236,-1.0235047,2
0.9673035144805908,8.766592025756836,-0.590664267539978,1.0476619005203247,-0.36377025,-1.0421360999999998,2
0.9484090805053712,8.8237943649292,-0.4687980711460114,1.0008503198623655,-0.47158796,-1.151481,2
0.892670750617981,8.954286575317383,-0.5215654969215393,0.9517694115638732,-0.4654793,-1.2492194,2
0.9754005074501038,9.172011375427246,-0.5954596400260925,0.9145090579986572,-0.4841107,-1.2263118999999998,2
1.3333581686019895,9.341111183166504,-0.5413824319839478,0.8556486368179321,-0.63407815,-1.0329732,2
1.8774358034133911,9.586821556091307,-0.4892510175704956,0.7535161375999451,-0.3820962,-0.7021896,2
2.2889535427093506,9.86631965637207,-0.4957306981086731,0.6247307062149048,0.05497787,-0.49571714,2
2.684004306793213,10.16309928894043,-0.489206850528717,0.4250165522098541,0.33933565,-0.19150625,2
2.9836740493774414,10.669748306274414,-0.39006507396698,0.15995196998119354,0.42332962,0.14538592,2
3.1214966773986816,11.246993064880373,-0.1773684322834015,-0.12680980563163755,0.5122104999999999,0.6976081000000001,2
2.968491077423096,11.34784984588623,0.08289708197116852,-0.4592654705047608,0.08827003,1.0720685,2
2.5599873065948486,11.503835678100586,0.4326318204402924,-0.8691349625587463,-0.2843578,1.7027868999999998,2
1.8279601335525515,12.239622116088867,0.5888346433639526,-1.312515139579773,-0.63194007,2.1536055,2
0.905246913433075,13.141085624694824,0.2926070094108581,-1.6260175704956057,-0.7901541999999999,2.4507914,2
0.006282198242843151,13.902911186218262,0.1596907079219818,-1.7073526382446291,-1.1200215,2.6933048,2
-0.4770930111408234,14.29998779296875,0.1892179548740387,-1.6644771099090576,-0.8866709,2.4141395,2
-0.09832315891981123,14.459356307983398,0.5240871906280518,-1.5503499507904053,-0.79381937,2.5995371,2
0.6813026666641235,14.331690788269045,0.8710904717445374,-1.4563050270080566,-0.028710667,2.5173757,2
0.9726720452308656,13.72612476348877,0.8791954517364502,-1.38181471824646,0.27397305,2.1416936,2
1.064105749130249,12.749356269836426,0.7193481922149658,-1.3070995807647705,0.6817255999999999,2.0121900000000004,2
1.0894050598144531,11.620064735412598,0.42938584089279175,-1.2386680841445925,1.2275337,1.967597,2
1.0229780673980713,10.486610412597656,0.007857793010771275,-1.1581389904022217,1.7745636000000002,1.7461584,2
0.8905457258224487,9.44511890411377,-0.2861236333847046,-1.0827172994613647,1.8976529,1.5448782,2
0.7055023312568665,8.533428192138674,-0.367310106754303,-0.989461362361908,1.8753563,1.382388,2
0.4759249985218048,7.683589458465576,-0.2729205787181854,-0.868098258972168,1.6670512,1.0601566,2
0.2320281714200973,6.8894219398498535,-0.11775586754083632,-0.7154090404510498,1.1325442,0.6575964,2
-0.023428168147802356,6.2349815368652335,-0.007368753664195538,-0.5114679336547852,0.81245077,0.21288654,2
-0.3251717388629913,5.718790054321289,0.05054144188761711,-0.2738774120807648,0.7892378999999999,-0.24617869,2
-0.5057544112205505,5.323080539703369,0.09981358051300047,-0.02642717584967613,0.68630713,-0.6591236,2
-0.37228667736053467,5.0128936767578125,0.19467473030090326,0.2474424093961716,0.63071835,-1.1224649,2
0.1166733130812645,4.7763943672180185,0.4463127851486206,0.5746610760688782,0.7852673000000001,-1.7003433999999995,2
0.966328501701355,4.914959907531738,1.1484148502349854,0.9016437530517578,0.6844745,-2.0231857,2
2.6414873600006104,6.148720264434815,2.4533700942993164,1.0365076065063477,-0.09315695,-1.1569787,2
5.0497894287109375,8.314237594604492,3.8845272064208975,0.9256783127784728,-0.18509217,0.9266826,2
6.228453159332275,10.266477584838867,4.786550521850586,0.6855211853981018,1.666135,1.4401149,2
5.4746270179748535,10.778363227844238,5.229432106018066,0.496222585439682,-0.9801333,0.3903429,2
3.763976573944092,10.422029495239258,4.726071834564209,0.4774563908576965,-2.7714956,-0.4529566,2
2.3203394412994385,10.151458740234377,3.7034795284271236,0.460232675075531,-1.6114625,-0.45845437,2
1.9132080078125,10.709036827087402,3.090745687484741,0.32959386706352234,0.35185838,-0.015271631,2
2.2401323318481445,11.33895206451416,2.385581493377685,0.2527732253074646,-1.423316,-0.022602014,2
2.084216833114624,10.889902114868164,1.213420033454895,0.31526538729667664,-1.7525723999999998,-0.7134906,2
1.4870482683181765,9.917349815368652,0.4272942543029785,0.4301756322383881,-0.7791585999999999,-1.344209,2
1.0820794105529783,9.352705001831056,0.027289850637316704,0.50898277759552,-0.8903360999999999,-1.5076154,2
1.1592049598693848,9.496552467346193,-0.5083613991737366,0.6271411180496216,-0.83077675,-1.46852,2
1.382524490356445,9.887269973754883,-0.915379524230957,0.7396935224533081,-0.11881329,-1.2541064,2
1.4792457818984983,9.926791191101074,-0.8678387403488159,0.8065976500511169,-0.19181168,-1.0555751,2
1.348849892616272,9.598820686340332,-0.6655114889144897,0.8694102168083191,-0.5928446999999999,-1.0897835,2
1.1724846363067627,9.198724746704102,-0.5841401219367981,0.9282982349395752,-0.8008443000000001,-1.0906999,2
1.072917342185974,8.91221809387207,-0.7000934481620789,0.9673187732696532,-0.78038037,-1.0668761999999998,2
1.010830283164978,8.75007152557373,-0.8445436954498291,1.0080149173736572,-0.5702427,-1.0659598,2
0.9973444938659668,8.658346176147461,-0.9220152497291564,1.0386451482772827,-0.37904188,-1.0085385,2
1.0714833736419678,8.588966369628906,-0.8470839262008667,1.058226466178894,-0.33292156,-0.95325524,2
1.147498369216919,8.586895942687987,-0.6513406038284302,1.0695259571075442,-0.45020768,-0.89919364,2
1.1527295112609863,8.642756462097168,-0.4334545731544495,1.0538523197174072,-0.5891795,-0.9111055,2
1.1239821910858154,8.727301597595215,-0.4047782719135285,0.9969967007637024,-0.6404922,-1.0564915,2
1.1273425817489624,8.832561492919922,-0.5616102814674377,0.9453921914100648,-0.50610185,-1.1814133999999998,2
1.1911332607269287,8.962873458862305,-0.6830571889877319,0.9022663235664368,-0.54061574,-1.1756102,2
1.3865935802459717,9.112420082092283,-0.7387567162513733,0.8412434458732605,-0.5852089,-1.069625,2
1.7175779342651367,9.462631225585938,-0.8304288387298584,0.7569354772567749,-0.30604348,-0.7742717,2
1.996174693107605,9.857633590698242,-0.8691639304161072,0.6446209549903871,-0.19914207,-0.50976706,2
2.202382802963257,10.239978790283203,-0.9044697880744934,0.4776807725429535,0.022602014,-0.2098322,2
2.280245780944824,10.758199691772461,-0.8337156772613525,0.2665885984897613,0.21502456,0.094989546,2
2.413981437683105,11.428617477416992,-0.5916124582290649,0.03527798131108284,0.14782938,0.43585235,2
2.652337551116944,11.806076049804688,-0.4200524687767029,-0.2863096296787262,0.19975294,0.87995136,2
2.663504123687744,11.937551498413086,-0.18144161999225614,-0.6778658032417297,-0.2932153,1.5158621,2
2.098625898361206,12.539881706237793,0.05629777163267136,-1.149197697639465,-0.7110472,2.014939,2
1.0980855226516724,13.379798889160154,-0.13883395493030548,-1.5279635190963743,-0.75441855,2.3716843,2
0.15065288543701172,14.015589714050293,-0.3132440745830536,-1.6786359548568726,-1.1227703000000002,2.3448062000000003,2
-0.16968855261802673,14.289958000183105,-0.13423116505146027,-1.6912943124771118,-1.3848315,2.0995438,2
0.30107563734054565,14.309544563293455,0.09899195283651352,-1.6792056560516355,-0.2761111,2.372906,2
0.9415022730827332,13.9985990524292,0.3797259330749512,-1.6855038404464722,-0.13072516,2.3429737,2
1.066461205482483,13.376737594604492,0.3921394050121307,-1.6704694032669067,0.06169739,2.0604484,2
1.0108284950256348,12.501684188842773,0.2576063871383667,-1.620228290557861,0.61086524,2.0409007,2
0.9573066830635072,11.556981086730955,0.015066979452967644,-1.5580400228500366,1.314582,1.9947804,2
0.9031402468681335,10.61479949951172,-0.3050630986690521,-1.4681917428970337,1.6123788,1.8781052,2
0.777772068977356,9.68603801727295,-0.4510513544082642,-1.3520276546478271,1.6187929,1.6533068,2
