acc_x,acc_y,acc_z,gyro_x,gyro_y,gyro_z,label
0.0,0.0,0.0,0.0,-0.00061086525,-0.0015271631,1
0.032787274569272995,0.2483334243297577,0.013139628805220129,-0.0029446163680404425,0.18570304,0.07971791,1
0.1017499417066574,0.8464119434356691,0.036975864320993417,-0.016875807195901867,0.37598756,0.14813483,1
0.18280817568302155,1.6833554506301882,0.0582708902657032,-0.042901072651147835,0.56382865,0.21166481,1
0.2552400529384613,2.632446050643921,0.06720343232154846,-0.0656789243221283,0.5177083,0.24953845,1
0.305843710899353,3.5894374847412114,0.05869625508785248,-0.06748756766319275,0.26633725,0.25045475,1
0.3295637369155884,4.4867095947265625,0.0321950763463974,-0.0553949885070324,0.054061573,0.20861048,1
0.3259446620941162,5.290763854980469,-0.010974977165460588,-0.047312643378973014,-0.06291912,0.1441642,1
0.2974451184272766,5.991565704345702,-0.06839066743850708,-0.05072323605418205,-0.16340645,0.055283304000000005,1
0.2478659898042679,6.592196464538574,-0.13511495292186734,-0.05616183578968048,-0.21930063,-0.0018325958,1
0.20237483084201813,7.083128929138184,-0.0847712978720665,-0.05865338072180747,-0.26816985,-0.063224554,1
0.20632509887218475,7.513002872467041,0.02489711530506611,-0.0675983801484108,-0.3145956,-0.09010262,1
0.259645015001297,7.897385120391847,0.07075831294059752,-0.08992895483970642,-0.22143865,-0.09865474,1
0.33259233832359314,8.243264198303223,0.055013254284858704,-0.1177178919315338,-0.10170906,-0.08704830000000001,1
0.4015346765518189,8.60859203338623,-0.008272799663245678,-0.14059297740459442,0.009162978,-0.11026118,1
0.4574097096920013,8.959162712097168,-0.10951952636241913,-0.15902110934257507,0.10903945,-0.19517145,1
0.4916638433933258,9.240306854248047,-0.21642665565013885,-0.18272139132022855,0.054061573,-0.29352075,1
0.5059682130813599,9.447295188903807,-0.23815859854221344,-0.20417550206184387,-0.21044308,-0.38606682,1
0.602425754070282,9.579087257385254,-0.108236126601696,-0.19153986871242526,-0.49235737,-0.46792278,1
0.8257284760475159,9.701644897460938,0.17418262362480166,-0.12860743701457975,-0.6872234,-0.45356745,1
1.1488161087036133,9.741183280944824,0.5436421036720276,-0.055995725095272064,-0.7290677,-0.36163223,1
1.5744855403900146,9.660536766052246,0.927247166633606,-0.005239353049546479,-0.51893,-0.18661933,1
1.964882254600525,9.597898483276367,1.2580255270004272,0.01780277118086815,0.050701816,-0.031154128,1
2.1413142681121826,9.642892837524414,1.5188244581222534,0.018419960513710976,0.593761,-0.0027488936,1
2.1111783981323238,9.709317207336426,1.7093549966812134,0.01215440221130848,0.7150178,-0.04062254,1
1.9556858539581297,9.68840217590332,1.8300602436065676,-0.013539612293243408,0.49571714,-0.015882496,1
1.7901675701141355,9.63503360748291,1.8376207351684568,-0.02280702441930771,0.32742378,0.034513887,1
1.6715826988220217,9.679892539978027,1.8252520561218264,0.01358875632286072,0.14019357,-0.013744468,1
1.562111258506775,9.846105575561523,1.809396505355835,0.0826486200094223,0.08032878,-0.08124508,1
1.4990473985671997,9.934286117553713,1.8330537080764768,0.10127683728933334,0.058337633,-0.09101892,1
1.5217337608337402,9.797351837158203,1.8896321058273315,0.06750176101922989,0.1133155,-0.09865474,1
1.613880276679993,9.552099227905273,1.9326928853988647,0.04624348506331444,0.1908954,-0.06597344599999999,1
1.6835427284240725,9.423763275146484,1.987627029418945,0.05475088581442833,0.30115658,-0.06078109,1
1.7270405292510986,9.46731662750244,2.08806586265564,0.07209311425685883,0.43585235,-0.08674286,1
1.748998522758484,9.526754379272461,2.207134246826172,0.045336440205574036,0.6072,-0.13103059,1
1.828176498413086,9.464838981628418,2.3014025688171387,-0.04254090413451195,0.66828656,-0.11636983,1
1.9866743087768557,9.32860279083252,2.342045545578003,-0.12800191342830658,0.56138515,-0.106595986,1
2.1721580028533936,9.32977294921875,2.370193719863892,-0.149653822183609,0.30085114,-0.09743301,1
2.353559970855713,9.51160717010498,2.3690409660339355,-0.10023046284914017,0.23182335,-0.053450707,1
2.4865281581878658,9.652584075927734,2.345146894454956,-0.037400484085083015,0.22510384,-0.19456059,1
2.550226211547852,9.800172805786133,2.348832130432129,0.04979917034506798,-0.05131268,-0.30451632,1
2.5569865703582764,9.933530807495117,2.3976681232452397,0.194952592253685,-0.183565,-0.3885103,1
2.5071516036987305,10.02077865600586,2.4528050422668457,0.3491731584072113,-0.20341812,-0.39767328,0
2.32087516784668,9.937153816223145,2.53995943069458,0.4918884336948395,-0.1432479,-0.3747658,0
2.0975029468536377,9.444249153137207,2.718940734863281,0.6005951166152954,0.011911872,-0.32467487,0
1.986334562301636,9.047990798950195,2.9253265857696533,0.6413568258285522,0.37110063,-0.27947086,0
1.8947561979293823,8.67723560333252,3.156958103179932,0.6186538934707642,0.63438356,-0.312763,0
1.8783444166183472,8.407656669616701,3.2079336643218994,0.5473698377609253,0.4474588,-0.31184670000000003,0
1.9669395685195925,7.986508369445801,3.1306803226470947,0.4867079257965088,0.2666427,-0.42821655,0
2.182332754135132,7.621715545654298,3.079761743545532,0.4594312012195587,0.3378085,-0.6417139000000001,0
2.3734867572784424,7.811172485351562,3.0230510234832764,0.4857606589794159,0.2321288,-0.79076505,0
2.426436185836792,8.300936698913574,2.947791337966919,0.601993203163147,-0.23884831,-0.8359690999999999,0
2.3794469833374023,8.683761596679688,2.803455352783203,0.7712298631668091,-0.48747048,-0.90010995,0
2.3004603385925293,8.999183654785156,2.677424430847168,0.9510966539382936,-0.32650748,-0.95203346,0
2.1869766712188716,9.373297691345217,2.59317684173584,1.1300673484802246,-0.20525073,-0.95233893,0
2.0390911102294917,9.7140474319458,2.5244243144989014,1.3298931121826172,-0.21746802,-0.9828822,0
1.944605588912964,9.835772514343262,2.4760525226593018,1.5366517305374146,-0.17562376,-1.0537425,0
1.9353182315826416,9.69351577758789,2.505640983581543,1.737584352493286,-0.115453534,-1.1255191999999998,0
2.0177791118621826,9.251405715942383,2.6032745838165283,1.9212234020233157,-0.08796459400000001,-1.1972959,0
2.1183614730834956,8.618579864501951,2.739647388458252,2.090228796005249,-0.14660765,-1.3405437,0
2.2005391120910645,7.894601345062256,2.938416004180908,2.2518744468688965,-0.42852196,-1.5344934,0
2.3069119453430176,7.087639808654785,3.180347681045532,2.4126293659210205,-0.9370673,-1.756543,0
2.440316200256348,6.129001140594482,3.3304171562194824,2.5809171199798584,-1.5082263,-2.0320432,0
2.491791248321533,4.970198631286621,3.0056734085083012,2.7538862228393555,-1.9062049,-2.1655173,0
2.2660367488861084,3.6152837276458736,2.27420425415039,2.9669344425201416,-2.3839016,-2.024102,0
1.8502449989318848,2.359273672103882,1.5597784519195557,3.210545539855957,-2.0299053,-1.2626585,0
1.411360502243042,1.2372804880142212,0.95798659324646,3.300512790679932,-1.8002199,-0.31673363,0
0.611506462097168,-0.3157845437526703,-0.14886657893657684,2.9607133865356445,-2.9538388,1.131017,0
-0.8631656169891357,-1.8888670206069944,-2.533375740051269,2.0577745437622066,-1.2452488000000002,2.8316658,0
-2.88449764251709,-3.0578653812408447,-5.44649600982666,1.122488260269165,1.9385809,2.9061913,0
-5.615069389343262,-4.470236778259277,-7.3518714904785165,0.9031227827072144,-0.30909783,-3.9752057,0
-7.9754276275634775,-3.255195140838623,-8.14677906036377,1.2805835008621216,-1.8380935,-0.37018433,0
-9.217543601989746,-0.9702398777008056,-8.798645973205566,1.711467742919922,-0.24862215,-1.2950343,0
-9.794755935668944,2.0062532424926762,-8.900956153869629,1.8246448040008545,0.14294247,-1.3396275,0
-9.684972763061523,4.8707051277160645,-8.531728744506836,1.5876871347427368,0.77732605,-0.54153204,0
-8.648894309997559,6.1234493255615225,-8.099159240722656,1.2321377992630005,1.457219,-0.38912117,0
-7.202715873718263,5.97661018371582,-7.682548999786378,0.8729257583618164,0.5222898,-0.56046885,0
-6.328719615936278,5.32843017578125,-7.586109638214111,0.5544717311859131,-0.12003502,-0.62980205,0
-6.190357685089111,4.627069473266602,-7.632267951965332,0.303293377161026,-0.355829,-1.0512991000000005,0
-6.50877046585083,4.083022594451903,-7.848788261413574,0.1484912782907486,-0.7415904000000001,-0.93859446,0
-6.823709011077881,3.4264440536499023,-7.966646194458008,0.1861167848110199,-1.6920967,-1.3264938999999998,0
-7.06955099105835,2.598721504211426,-8.454788208007812,0.3842929303646088,-0.9941832,-1.7953328999999998,0
-7.6398115158081055,2.2532670497894287,-9.919127464294434,0.8511887192726135,1.001819,-2.2605069,0
-9.217066764831543,2.290741443634033,-11.552709579467773,1.6277234554290771,0.14935656,-4.215886599999998,0
-11.12107753753662,1.9809675216674805,-12.23082447052002,1.6636582612991333,-1.361924,-2.4065037,0
-12.727105140686035,1.9437899589538572,-11.64854335784912,1.2161086797714231,-1.8634444,0.49541172,0
-13.506298065185547,1.2556787729263306,-10.177266120910645,0.7442820072174072,-1.6829338,0.22510384,0
-12.87074089050293,0.4674330353736877,-8.149650573730469,0.34220659732818604,-2.287385,-0.3555236,0
-11.059154510498047,-0.18453331291675568,-7.001143932342528,-0.15703362226486206,-0.0421497,-0.7110472,0
-8.646535873413086,-0.4840206801891327,-6.516006946563722,-0.5581016540527344,1.7321084,-0.12614368,0
-6.3579468727111825,-0.14622439444065094,-6.519339084625244,-0.6030888557434082,2.8554895,0.5439755000000001,0
-5.081879615783691,0.5091948509216309,-6.794094562530518,-0.2474992424249649,3.069598,0.9092729,0
-5.026457786560059,1.1911317110061646,-7.025436401367188,0.4172064960002899,1.9254472,0.35369098,0
-5.314228057861328,1.4759013652801514,-6.858550071716309,0.9395046830177308,0.44257188,-0.6282749,0
-5.5372090339660645,1.51168954372406,-6.576821804046631,0.9762597084045409,-0.87872964,0.012217305,0
-5.771225929260254,1.3076852560043335,-6.31458044052124,0.6179750561714172,-2.346028,0.31764993,0
-6.194777965545653,0.9708762168884276,-6.4865474700927725,0.1112663671374321,-1.6847663,0.38698313,0
-7.0029053688049325,0.6436805725097656,-6.983114242553711,-0.3256419897079468,0.5299255999999999,0.72295904,0
-7.802271366119385,0.07328535616397858,-7.177830219268799,-0.4930233657360077,1.0415252000000002,0.2941316,0
-8.307884216308594,-0.6300119757652283,-7.12812089920044,-0.3832010626792908,1.1774428,0.27183503,0
-8.680936813354492,-0.9848096966743468,-7.272216796875,-0.1587492674589157,1.3069462,0.28741209999999995,0
-8.916214942932129,-1.0128169059753418,-7.322400093078612,0.10013216733932497,0.8304713,0.18692477,0
-8.939552307128906,-0.9638294577598572,-7.2512879371643075,0.2635937035083771,0.3454443,-0.04917465,0
-8.718944549560549,-0.8720908164978027,-7.385128498077393,0.3398030996322632,0.39278635,0.01863139,0
-8.2244873046875,-0.5393837690353394,-7.5159645080566415,0.3180470466613769,0.54153204,0.33261612,0
-7.653099060058594,-0.04446602612733841,-7.606649398803711,0.2205249071121216,0.54336464,0.49021935,0
-7.047194004058838,0.3965610861778259,-7.445109367370605,0.08046171814203262,0.3827071,0.45906523,0
-6.422420024871826,0.7080097198486328,-7.136472225189209,-0.08399610221385956,0.10323623,0.36163223,0
-5.864377021789551,0.9882756471633912,-6.908603191375732,-0.21417364478111267,0.08307768,0.18845193,0
-5.4802889823913565,1.371153473854065,-6.95637321472168,-0.26868540048599243,0.3885103,0.12980886,0
-5.316112995147705,1.8442476987838743,-7.269491195678711,-0.22944174706935885,0.66553766,0.0888809,0
-5.480292797088623,2.2464749813079834,-7.635414600372314,-0.10073845833539964,0.70432764,-0.28069258,0
-5.884130001068115,2.5348563194274902,-7.89455509185791,0.062160655856132514,0.516792,-0.50823987,0
-6.257464408874513,2.6850366592407227,-7.9499144554138175,0.17298932373523712,0.2144137,-0.44806966,0
-6.412392616271973,2.7601394653320312,-7.84404182434082,0.16860905289649966,-0.0711658,-0.10415252,0
-6.31135892868042,2.621990919113159,-7.715744972229004,0.08068866282701492,-0.17684549,0.070554934,0
-6.0839152336120605,2.3658626079559326,-7.647179126739503,-0.03851751610636711,-0.14477506,0.070249505,0
-5.783689975738525,2.1260766983032227,-7.6964454650878915,-0.14230817556381226,0.08552113,0.08979719,0
-5.459901809692383,1.9463024139404297,-7.830965042114258,-0.195465624332428,0.37018433,0.13897185,0
-5.225642681121826,1.8419198989868164,-7.944709300994872,-0.19011597335338595,0.5027421,0.1337795,0
-5.117751598358153,1.8118022680282595,-7.9813575744628915,-0.1427198052406311,0.5027421,0.105374254,0
-5.1154632568359375,1.854944467544556,-7.9366278648376465,-0.09281935542821884,0.37293324,0.07941248,0
-5.11851692199707,1.9689786434173584,-7.998021125793457,-0.04906180500984192,0.30176744,0.14538592,10
-5.105425834655762,2.1273436546325684,-8.11746883392334,-0.0019054890144616363,0.25992316,0.22785273,10
-5.084952354431152,2.280486583709717,-8.18087100982666,0.02002345584332943,0.1423316,0.27122417,10
-5.046324729919434,2.394842624664306,-8.193534851074219,-0.0010946617694571614,0.05467244,0.23915374,10
-4.973228931427002,2.456961154937744,-8.192108154296875,-0.05396797880530357,-0.05925392700000001,0.13194689,10
-4.848064422607422,2.483707904815674,-8.194488525390625,-0.10292156040668488,-0.12675454,0.024740042,10
-4.680980682373047,2.505448341369629,-8.184642791748049,-0.12716029584407804,-0.22296582,-0.064446285,10
-4.506650924682617,2.531367778778076,-8.186772346496582,-0.116022951900959,-0.25870144,-0.106595986,10
-4.378707408905028,2.5387368202209477,-8.209022521972656,-0.0825612023472786,-0.20769419,-0.14385876,10
-4.3621506690978995,2.507151365280152,-8.216595649719237,-0.04448548331856728,-0.2312125,-0.15424347,10
-4.41845703125,2.4687180519104004,-8.230559349060059,-0.01970040239393711,-0.3295618,-0.13225232,10
-4.542199611663818,2.4175498485565186,-8.264198303222656,-0.010654286481440069,-0.35033122,-0.09285152,10
-4.7667317390441895,2.341022729873657,-8.279040336608888,-0.008396323770284653,-0.33994650000000004,-0.06505715,10
-5.060073375701903,2.255911350250244,-8.232972145080566,-0.01135849766433239,-0.25686884,0.002443461,10
-5.355916976928711,2.1342263221740723,-8.10856819152832,-0.024753015488386158,-0.2574797,0.03145956,10
-5.588279724121094,1.9551587104797363,-7.952107429504394,-0.04015092551708221,-0.29840767,0.018020526,10
-5.716972351074219,1.7460007667541504,-7.83773946762085,-0.04133960232138634,-0.25228736,-0.010995574,10
-5.757029056549072,1.5907139778137207,-7.833714962005615,-0.02308313362300396,-0.16982053,-0.008246681,10
-5.77288818359375,1.5392986536026,-7.910810470581055,0.008999691344797611,-0.06658431,0.028710667,10
-5.806655883789063,1.5808444023132324,-7.974703788757324,0.04038335382938385,-0.08857546,0.06505715,10
-5.858854293823242,1.69897723197937,-7.955933570861816,0.05356759205460549,-0.12797627,0.08002335,10
-5.9064574241638175,1.8273981809616089,-7.905730247497559,0.040475569665431976,-0.13133603,0.06872234,10
-5.946146488189697,1.948108792304993,-7.864762306213379,0.014884776435792446,-0.111177474,0.055588737,10
-5.9865074157714835,2.0497789382934566,-7.828817844390869,-0.0017963098362088203,-0.09101892,0.05467244,10
-6.026869297027588,2.1098527908325195,-7.787699222564697,-0.008633357472717762,-0.06780604,0.056199603,10
-6.0627546310424805,2.118100881576538,-7.737640380859375,-0.014711399562656881,0.015577064,0.04337143,10
-6.092185974121094,2.0631475448608403,-7.684080600738525,-0.02694603241980076,0.09987647,0.006414085,10
-6.1169090270996085,1.968666911125183,-7.642608642578125,-0.036540940403938287,0.09437868,-0.03573562,10
-6.116040229797362,1.873239517211914,-7.6208577156066895,-0.035866882652044296,0.04642576,-0.054061573,10
-6.096152305603027,1.8056578636169436,-7.652397632598878,-0.02297374233603477,0.04886922,-0.034513887,10
-6.067931652069093,1.7723953723907468,-7.714699745178223,-0.005178411491215229,0.06994407,0.0018325958,10
-6.030028820037843,1.7592092752456665,-7.766237735748291,0.003736557206138969,0.09896017,0.01985312,10
-5.994056701660156,1.7580826282501218,-7.793360233306885,-0.0031412525568157434,0.10629055,0.027794369,10
-5.953617572784424,1.7854936122894287,-7.795401096343994,-0.019823910668492317,0.09560041,0.038789943,10
-5.913741588592528,1.8338123559951784,-7.788317203521728,-0.03961096331477165,0.122478485,0.06261369,10
-5.8743896484375,1.8992412090301516,-7.769614696502685,-0.05283844843506813,0.12370021,0.053450707,10
-5.835663318634032,1.9663361310958865,-7.7554402351379395,-0.0551687628030777,0.12889257,0.044898596,10
-5.790938854217528,2.028045892715454,-7.755500316619872,-0.04688459634780884,0.13225232,0.047647487,10
-5.741717338562013,2.0839555263519287,-7.767973899841309,-0.03246169537305832,0.103847094,0.039095376,10
-5.68656587600708,2.1386981010437007,-7.792410373687744,-0.018745671957731247,0.061391957,0.03359759,10
-5.6238532066345215,2.1788501739501958,-7.829558372497559,-0.012664886191487312,0.038789943,0.030543262,10
-5.563329219818115,2.1996068954467773,-7.859357357025146,-0.009839214384555815,0.03481932,0.03756821,10
-5.516328811645508,2.20195746421814,-7.883832454681396,-0.008484366349875927,0.03268129,0.049480084,10
-5.482142925262451,2.177772045135498,-7.899903774261475,-0.01363049540668726,0.03848451,0.04917465,10
-5.475106716156006,2.1339044570922847,-7.907436847686768,-0.020729392766952515,0.05467244,0.03940081,10
-5.489636421203613,2.0874054431915283,-7.8983473777771,-0.02652086317539215,0.058643065,0.014660766,10
-5.503380298614502,2.0482828617095947,-7.8817787170410165,-0.03026062808930874,0.03481932,0.0030543262,10
-5.512573719024658,2.0335664749145512,-7.880185127258301,-0.027301259338855743,0.007941248,0.004276057,10
-5.51750373840332,2.041785478591919,-7.891288280487059,-0.01951085217297077,-0.017715093,0.024129177,10
-5.515305042266847,2.0608603954315186,-7.908928394317628,-0.015616398304700853,-0.01282817,0.028405234,10
-5.518359184265137,2.0749845504760738,-7.929320335388184,-0.01521311141550541,-0.015271631,0.03970624,10
-5.516825199127197,2.081162691116333,-7.936609745025635,-0.016047995537519455,-0.021380283,0.025350908,10
-5.508615016937256,2.0808975696563716,-7.9310851097106925,-0.018928615376353264,0.005192355,0.0290161,10
-5.504606246948242,2.083486795425415,-7.92754316329956,-0.023053087294101715,0.00580322,0.024740042,10
-5.510272979736328,2.0884673595428467,-7.920295238494872,-0.019940467551350597,0.01038471,0.011301007,10
-5.525270938873291,2.092388153076172,-7.905758857727051,-0.01392354816198349,-0.023518313,0.00061086525,10
-5.545251369476318,2.0929956436157227,-7.896227836608888,-0.01044297032058239,-0.023518313,-0.003970624,10
-5.566999912261963,2.0870625972747803,-7.8886356353759775,-0.01228332333266735,-0.02321288,-0.002443461,10
-5.588172435760498,2.084871768951416,-7.880608081817628,-0.017568768933415413,-0.027488936,0.0027488936,10
-5.604070663452148,2.0862360000610347,-7.87625789642334,-0.018672307953238487,-0.015577064,0.013744468,10
-5.614112377166748,2.0837080478668213,-7.868738651275635,-0.017248569056391716,-0.007941248,0.0067195175,10
-5.615964889526367,2.0804369449615483,-7.881377696990968,-0.013925314880907536,0.034208454,0.020463986,10
-5.6147780418396,2.0815329551696777,-7.90019416809082,-0.011132786981761456,0.026267206,0.008857545999999999,10
-5.617423057556152,2.0880608558654785,-7.890875816345215,-0.011229534633457659,0.025961773,0.029321533,10
-5.625047206878662,2.0979549884796143,-7.882998466491699,-0.013266283087432384,0.022296581,0.025961773,10
-5.627119541168213,2.1018686294555664,-7.885692596435548,-0.015482264570891855,0.01160644,0.031154128,10
-5.623488903045653,2.1159496307373047,-7.893049716949463,-0.016335852444171906,0.00061086525,0.03390302,10
-5.6105685234069815,2.135361194610596,-7.8941893577575675,-0.020498739555478096,-0.005192355,0.035124752999999995,10
-5.593873023986816,2.1344013214111333,-7.899998188018799,-0.01853697188198566,0.070554934,0.025350908,10
-5.584741592407227,2.124798059463501,-7.911532878875732,-0.011894960887730122,0.07727446,0.014049901000000002,10
-5.583834648132324,2.1186437606811523,-7.920608997344972,-0.0098305968567729,0.06566802,0.018325957,10
-5.586748600006104,2.114519596099853,-7.92393684387207,-0.01002633385360241,0.023518313,0.026572637000000003,10
-5.586793422698975,2.1042134761810303,-7.916712284088135,-0.014118527062237263,-0.021991149,0.01740966,10
-5.581410884857178,2.091064691543579,-7.91433572769165,-0.018203020095825195,-0.029626964,0.013133603,10
-5.567597389221191,2.0773611068725586,-7.921964645385742,-0.016313251107931137,-0.0070249503,-0.0015271631,10
-5.551817417144775,2.069103479385376,-7.9300475120544425,-0.01333132665604353,0.0030543262,0.002443461,10
-5.537367820739746,2.0703597068786617,-7.9339256286621085,-0.011413921602070332,0.0030543262,0.0018325958,10
-5.525851249694824,2.083300828933716,-7.930830955505371,-0.012335930950939657,-0.010079277,0.011911872,10
-5.52073335647583,2.0940806865692143,-7.924953937530518,-0.015028282068669798,-0.0012217305,0.01740966,10
-5.522195816040039,2.1029083728790283,-7.926521301269531,-0.017461434006690982,0.008552114,0.006414085,10
-5.529607772827148,2.1135971546173096,-7.9288458824157715,-0.01717181317508221,0.03023783,-0.0015271631,10
-5.542956829071045,2.1244971752166752,-7.91900634765625,-0.017432648688554764,0.022907447,0.006414085,10
-5.5526390075683585,2.1333153247833248,-7.904526710510254,-0.017052022740244862,0.004581489,0.010995574,10
-5.5576515197753915,2.1428747177124023,-7.897246360778809,-0.014666656963527203,-0.003970624,0.016493361,10
-5.551034927368164,2.146120548248291,-7.892796516418457,-0.011083874851465223,0.009162978,0.0143553335,10
-5.545281410217285,2.144721508026123,-7.892774105072021,-0.012387082912027836,0.018020526,0.021991149,10
-5.5384840965271,2.142364025115967,-7.901955127716064,-0.016240980476140976,0.03359759,0.019242255,10
-5.534418106079102,2.1332454681396484,-7.91715145111084,-0.016624832525849342,0.011911872,0.013439035,10
-5.527918338775635,2.1216495037078857,-7.918944835662843,-0.014872301369905472,-0.01282817,0.004276057,10
-5.52301025390625,2.1151502132415767,-7.919082641601562,-0.013260125182569029,-0.0018325958,0.00061086525,10
-5.521735191345215,2.1106863021850586,-7.9239912033081055,-0.012279623188078405,0.013439035,0.008246681,10
-5.527097702026367,2.1097404956817627,-7.92886209487915,-0.011434979736804962,0.013744468,-0.0009162979,10
-5.53087854385376,2.1155767440795903,-7.935402393341064,-0.011507618241012095,-0.0030543262,0.0067195175,10
-5.530746936798097,2.1224255561828613,-7.937632083892822,-0.015075262635946276,0.0067195175,0.009468411,10
-5.530022621154785,2.127453088760376,-7.933921813964844,-0.017930394038558006,-0.0021380284,0.005497787,10
-5.525822639465332,2.1326286792755127,-7.934041976928711,-0.01902678795158863,0.0027488936,0.007941248,10
-5.519775390625,2.1369867324829097,-7.931633472442628,-0.01810306124389172,0.004276057,0.00580322,10
-5.514885902404785,2.1390295028686523,-7.931109428405763,-0.01583203859627247,0.008857545999999999,0.008857545999999999,10
-5.509475231170653,2.138895273208618,-7.941285133361816,-0.01160549372434616,0.025045475,0.0125227375,10
-5.50283145904541,2.1309235095977783,-7.953517436981201,-0.00734245590865612,0.011911872,0.007941248,10
-5.505139827728272,2.11609435081482,-7.954874992370605,-0.008808196522295475,-0.004276057,0.0067195175,10
-5.519862651824951,2.108267545700073,-7.951374053955077,-0.011065013706684113,-0.0021380284,0.01160644,10
-5.521359443664551,2.1004989147186284,-7.94957685470581,-0.014879757538437843,-0.0067195175,0.014966198,10
-5.5152587890625,2.099419355392456,-7.947225093841553,-0.01626887358725071,-0.006414085,0.010995574,10
-5.511828422546387,2.1032538414001465,-7.94976806640625,-0.01749797910451889,0.0012217305,0.0070249503,10
-5.519510746002197,2.106710910797119,-7.9491844177246085,-0.017138419672846794,-0.0015271631,0.008552114,10
-5.5219902992248535,2.1166467666625977,-7.945675373077393,-0.015867069363594055,0.0076358155,0.022296581,10
-5.5222206115722665,2.1228380203247066,-7.938839912414551,-0.01836193911731243,0.00030543262000000003,0.016493361,10
-5.523081302642822,2.132824659347534,-7.943713188171388,-0.019585190340876583,0.0009162979,0.00030543262000000003,10
-5.524028778076172,2.137063980102539,-7.940775394439697,-0.017797153443098068,0.010079277,-0.0012217305,10
-5.534349918365479,2.131701231002808,-7.937695503234862,-0.018706506118178368,0.005497787,0.002443461,10
-5.554047107696533,2.1271913051605225,-7.947807312011719,-0.02529359608888626,-0.01863139,-0.013133603,10
-5.575117588043213,2.127705812454224,-7.941161632537843,-0.031509436666965485,-0.07513642,-0.03726278,10
-5.579578399658203,2.128528594970703,-7.920281410217285,-0.03526466712355614,-0.103847094,-0.049785517,10
-5.537081241607666,2.13650131225586,-7.877372741699219,-0.031323038041591644,-0.096516706,-0.04337143,10
-5.45318078994751,2.147967338562012,-7.851344585418701,-0.019999366253614426,-0.021991149,-0.019242255,10
-5.381220817565918,2.148242950439453,-7.866128921508789,-0.003373924409970641,0.07880162,0.0143553335,10
-5.362874984741211,2.1210596561431885,-7.905998706817628,0.01057341042906046,0.110872045,0.0290161,10
-5.405927658081055,2.079062461853028,-7.942610740661621,0.013050482608377935,0.04917465,0.035124752999999995,10
-5.48985481262207,2.043637752532959,-7.9648704528808585,0.005723788402974606,-0.026267206,0.015882496,10
-5.5845794677734375,2.006053686141968,-7.977234363555907,-0.00035566638689488167,-0.08582657,0.00030543262000000003,10
-5.662519454956055,1.98732590675354,-7.9833316802978525,-0.0007009443361312151,-0.105068825,0.0012217305,10
-5.691947937011719,1.9912682771682741,-7.981502056121826,-0.0010005309013649821,-0.09468412,0.019242255,10
-5.676914691925049,2.017553329467773,-7.972368240356445,-0.005369615741074085,-0.051923547,0.04153884,10
-5.644251346588135,2.0611722469329834,-7.953445434570312,-0.008864563889801502,0.00061086525,0.046731193,10
-5.619120597839356,2.091876983642578,-7.915650844573975,-0.015519031323492529,0.01740966,0.05375614,10
-5.6049485206604,2.1131484508514404,-7.891120910644531,-0.02256784401834011,0.061086524,0.043676864,10
-5.600786685943604,2.1347765922546387,-7.881486892700195,-0.025172777473926544,0.09560041,0.025045475,10
-5.603400230407715,2.1553168296813965,-7.868427753448486,-0.021554384380578998,0.056199603,0.010995574,10
-5.597902297973633,2.1678783893585205,-7.856651306152344,-0.01865828968584537,0.02107485,0.0033597588,10
-5.585688591003418,2.170123338699341,-7.856676578521728,-0.01870021037757397,-0.006414085,-0.00061086525,10
-5.571700572967528,2.1598215103149414,-7.861062526702881,-0.02099786140024662,-0.01160644,0.0067195175,10
-5.557100772857666,2.136178493499756,-7.8688297271728525,-0.023143846541643143,0.0027488936,0.0036651916,10
-5.550150394439697,2.1002421379089355,-7.875668048858643,-0.023604784160852432,0.018936822,0.010995574,10
-5.546901226043701,2.063179016113281,-7.882626533508301,-0.02254859171807766,0.03390302,0.014966198,10
-5.549971580505371,2.0509483814239498,-7.902067184448242,-0.01888842880725861,0.024740042,0.019547688,10
-5.552859306335449,2.0631554126739498,-7.911934852600098,-0.012790261767804623,0.01160644,0.017715093,10
-5.547945022583008,2.077412843704224,-7.913405895233153,-0.008010615594685078,0.01985312,0.025045475,10
-5.531798839569092,2.0855247974395748,-7.90661096572876,-0.008112538605928421,0.00580322,0.020463986,10
-5.5198020935058585,2.0901944637298584,-7.912559986114503,-0.01008759718388319,0.02076942,0.02321288,10
-5.50403356552124,2.0972468852996826,-7.91214656829834,-0.012381963431835176,0.025045475,0.007330383,10
-5.48603105545044,2.1135540008544917,-7.917654037475586,-0.009445645846426487,0.0027488936,-0.0076358155,10
-5.4769859313964835,2.1266093254089355,-7.920724391937256,-0.008073069155216217,-0.008552114,-0.012217305,10
-5.476807117462158,2.126196384429932,-7.927027225494385,-0.010580174624919891,-0.016187929,-0.0070249503,10
-5.482255458831787,2.124593496322632,-7.936474323272705,-0.013176715932786465,-0.027183503,-0.004886922,10
-5.485136032104492,2.1235837936401367,-7.932797431945801,-0.012154646217823029,-0.043676864,0.006414085,10
-5.4888343811035165,2.12416672706604,-7.932390689849853,-0.009336902759969234,-0.02443461,0.011301007,10
-5.494354724884033,2.1225626468658447,-7.926108837127685,-0.0077083995565772065,-0.02687807,0.01038471,10
-5.503409862518311,2.1255757808685303,-7.92341423034668,-0.008692974224686623,-0.002443461,0.021685716,10
-5.5197482109069815,2.118836641311645,-7.935771465301514,-0.011637517251074314,0.0125227375,0.015271631,10
-5.544627666473389,2.1053667068481445,-7.94418478012085,-0.01100290473550558,0.00580322,0.0030543262,10
-5.558812141418457,2.0965955257415767,-7.924510478973389,-0.008929266594350338,-0.02443461,0.0036651916,10
-5.5560479164123535,2.1086046695709233,-7.905224323272705,-0.00991859380155802,-0.019242255,-0.0030543262,10
-5.557656288146973,2.123665571212769,-7.893648624420166,-0.009846135042607784,-0.011911872,-0.0030543262,10
-5.560487747192383,2.132662534713745,-7.892924785614014,-0.008251781575381756,0.00061086525,-0.007330383,10
-5.5533881187438965,2.1289746761322017,-7.902191162109375,-0.008621976710855959,0.009773844,-0.0027488936,10
-5.556138515472412,2.1201391220092773,-7.909593105316162,-0.010101811029016972,0.016798794,-0.00030543262000000003,10
-5.562603950500488,2.1115131378173833,-7.913548469543457,-0.007800572086125612,0.016798794,0.011911872,10
-5.5685553550720215,2.10095763206482,-7.908714771270753,-0.003473884193226695,0.01160644,0.013439035,10
-5.566932678222656,2.086862325668335,-7.905730247497559,-0.002940161852166057,0.016493361,0.017715093,10
-5.568475246429443,2.0729384422302246,-7.904562473297119,-0.004836268723011017,0.02321288,0.022296581,10
-5.571788311004639,2.0597198009490967,-7.902647018432617,-0.00632056873291731,0.029321533,0.022602014,10
-5.571168422698975,2.0519366264343257,-7.907060623168945,-0.008789396844804287,0.024129177,0.021991149,10
-5.564766883850098,2.048330068588257,-7.91336727142334,-0.011837336234748363,0.018936822,0.032986723,10
-5.56108283996582,2.05722975730896,-7.922679901123048,-0.012657744809985159,0.03634648,0.02076942,10
-5.552225112915039,2.0745916366577153,-7.932509899139403,-0.01290575321763754,0.024129177,0.03023783,10
-5.545417308807373,2.0886905193328857,-7.937357902526855,-0.014879235997796059,0.010995574,0.02321288,10
-5.53896951675415,2.100516557693481,-7.9311137199401855,-0.016677724197506905,-0.0033597588,0.0076358155,10
-5.531542778015137,2.1077604293823238,-7.923646926879883,-0.0186849981546402,0.01985312,0.0067195175,10
-5.529294013977051,2.106087446212769,-7.919285297393799,-0.017988985404372215,0.023518313,0.0027488936,10
-5.519586086273193,2.101175546646118,-7.92104959487915,-0.01656465046107769,0.021685716,0.011301007,10
-5.5004611015319815,2.0935776233673096,-7.926268577575684,-0.0194168034940958,0.005497787,0.01282817,10
-5.4865760803222665,2.085581064224243,-7.925217151641847,-0.022634647786617283,-0.0067195175,0.0125227375,10
-5.4799418449401855,2.0823800563812256,-7.929504871368407,-0.023137908428907398,-0.0018325958,0.0143553335,10
-5.477271556854248,2.0858807563781743,-7.937633514404298,-0.02063564956188202,0.015271631,0.015577064,10
-5.479206562042236,2.092966318130493,-7.943259239196777,-0.01883330382406712,0.011911872,0.028099801,10
-5.485157012939453,2.1023817062377934,-7.944944381713867,-0.019542183727025986,-0.005192355,0.02107485,10
-5.490092277526856,2.114736795425415,-7.941840171813965,-0.021555665880441662,0.0021380284,0.01740966,10
-5.494830131530762,2.1280367374420166,-7.936380863189697,-0.02018029429018497,-0.0036651916,0.017104227,10
-5.497011661529541,2.137591361999512,-7.920852184295653,-0.019394950941205025,-0.009162978,0.010079277,10
-5.497575759887695,2.142739534378052,-7.92583703994751,-0.018135875463485718,0.0143553335,0.014966198,10
-5.495041370391847,2.1411054134368896,-7.93501615524292,-0.017732013016939163,0.007330383,-0.0012217305,10
-5.49589204788208,2.1411371231079097,-7.945302009582519,-0.01605815440416336,0.012217305,0.002443461,10
-5.496904850006104,2.1407601833343506,-7.955658435821532,-0.013664869591593742,-0.005192355,0.006414085,10
-5.497178077697754,2.1346089839935303,-7.949789047241211,-0.012226496823132038,-0.005192355,0.013744468,10
-5.505105972290039,2.126913785934448,-7.94164514541626,-0.014161963947117329,0.0033597588,0.018325957,10
-5.518947124481201,2.119305372238159,-7.945401668548584,-0.016503078863024708,0.009773844,0.017104227,10
-5.523090362548828,2.122997999191284,-7.939008712768555,-0.01899395138025284,0.009162978,0.01740966,10
-5.5165977478027335,2.1349480152130127,-7.930952072143555,-0.021157074719667438,0.0012217305,0.016798794,10
-5.503561019897461,2.1469125747680664,-7.9272117614746085,-0.019928716123104092,0.018020526,0.022602014,10
-5.497385025024414,2.1532347202301025,-7.923398017883301,-0.017386311665177345,0.01985312,0.015577064,10
-5.498562812805176,2.1645972728729252,-7.930152893066406,-0.013668735511600971,0.04062254,0.0143553335,10
-5.5013108253479,2.1718058586120605,-7.932920932769775,-0.010307271033525469,0.022602014,0.010690141499999998,10
-5.504326820373535,2.1708788871765137,-7.927685737609862,-0.009003773331642151,-0.005497787,0.0015271631,10
-5.501739978790283,2.163715362548828,-7.927674293518066,-0.010549575090408323,-0.0061086523,0.0015271631,10
-5.4984307289123535,2.1589772701263428,-7.92875337600708,-0.01054377481341362,-0.0061086523,0.0015271631,10
-5.489500999450684,2.1514525413513184,-7.9347171783447275,-0.00900360569357872,-0.005192355,-0.0027488936,10
-5.487083911895752,2.14297103881836,-7.950949192047119,-0.009310893714427948,-0.0027488936,-0.005497787,10
-5.482564449310303,2.1361725330352783,-7.960068225860597,-0.011604147963225842,0.0076358155,0.0070249503,10
-5.476920127868652,2.1279134750366206,-7.956756591796875,-0.01449818443506956,-0.01282817,0.005192355,10
-5.472296714782715,2.121206760406494,-7.9584083557128915,-0.015647437423467636,-0.0018325958,0.005192355,10
-5.474186420440674,2.119499683380127,-7.956216812133789,-0.01325348485261202,0.0021380284,0.01038471,10
-5.480911731719972,2.11452865600586,-7.957181453704834,-0.010364294983446598,-0.0009162979,0.007330383,10
-5.482183933258057,2.116172313690185,-7.9561448097229,-0.009522807784378529,-0.0061086523,0.0027488936,10
-5.480642795562744,2.1176414489746094,-7.954689979553223,-0.009972444735467434,-0.0033597588,0.005192355,10
-5.482346534729004,2.1185302734375,-7.942337512969972,-0.011067175306379795,0.0018325958,0.01038471,10
-5.478410243988037,2.1213550567626958,-7.933182716369629,-0.013059246353805063,-0.004886922,0.0015271631,10
-5.468043327331543,2.1173009872436523,-7.933330059051514,-0.01270967535674572,0.004276057,0.0033597588,10
-5.464913845062256,2.114125490188598,-7.936736106872559,-0.008889635093510151,-0.0021380284,0.0061086523,10
-5.4715919494628915,2.1167740821838383,-7.941141605377197,-0.006782031152397394,-0.013744468,0.006414085,10
-5.481106758117676,2.1152663230896,-7.9428629875183105,-0.006950290873646736,-0.010690141499999998,0.01282817,10
-5.487053871154785,2.1115283966064453,-7.9417972564697275,-0.008738679811358452,-0.009162978,0.01160644,10
-5.494554042816162,2.105090856552124,-7.933744430541992,-0.011146458797156809,-0.004581489,0.013133603,10
-5.499556064605713,2.100943088531494,-7.9264469146728525,-0.011423714458942413,0.0061086523,0.013439035,10
-5.501781940460205,2.1060225963592534,-7.93203067779541,-0.011341345496475695,0.010690141499999998,0.011911872,10
-5.505181789398193,2.116943359375,-7.939522743225098,-0.010294683277606964,0.014966198,0.014049901000000002,10
-5.509886741638184,2.1241693496704097,-7.940536022186278,-0.012329902499914171,0.0012217305,0.0018325958,10
-5.514191627502441,2.124844789505005,-7.9433226585388175,-0.01344114076346159,-0.008246681,0.004276057,10
-5.513097286224365,2.1220626831054688,-7.9380149841308585,-0.012857528403401377,0.0070249503,0.00061086525,10
-5.510915279388428,2.121652126312256,-7.932514190673827,-0.011877726763486862,0.008857545999999999,-0.0012217305,10
-5.504990577697754,2.1144380569458012,-7.938291549682617,-0.011373750865459442,0.01160644,0.01038471,10
-5.500952243804932,2.108171939849853,-7.949345111846924,-0.01225894596427679,0.01038471,0.010079277,10
-5.503113269805908,2.1016197204589844,-7.958815574645996,-0.012830907478928566,0.0070249503,-0.00030543262000000003,10
-5.512304306030273,2.0993311405181885,-7.963944911956787,-0.012626542709767818,-0.0067195175,0.009162978,10
-5.519221782684326,2.099611759185791,-7.955309391021728,-0.01396228838711977,-0.0125227375,0.0061086523,10
-5.517539978027344,2.0995035171508794,-7.952667713165282,-0.016255151480436325,0.00030543262000000003,0.02076942,10
-5.510115146636963,2.099478483200073,-7.9583868980407715,-0.0184367336332798,0.019242255,0.02321288,10
-5.50184965133667,2.1003124713897705,-7.965129852294923,-0.01897612400352955,0.0036651916,0.013133603,10
-5.492137432098389,2.102194309234619,-7.963072299957275,-0.01831919141113758,0.006414085,0.007330383,10
-5.485536575317383,2.1030023097991943,-7.956308841705322,-0.017813049256801602,-0.005192355,0.009162978,10
-5.4816317558288565,2.111398220062256,-7.948335647583008,-0.018014280125498768,-0.012217305,0.0143553335,10
-5.484153270721436,2.124275684356689,-7.946228981018066,-0.01894354820251465,-0.0030543262,0.018325957,10
-5.489508152008057,2.1338677406311035,-7.951786994934082,-0.020436210557818413,0.004276057,0.016493361,10
-5.492769241333008,2.141652107238769,-7.951128005981445,-0.019694563001394272,0.011911872,0.009468411,10
-5.49075174331665,2.1375179290771484,-7.947628974914551,-0.018167931586503986,0.015882496,0.005497787,10
-5.484329700469972,2.127593994140625,-7.9437804222106925,-0.015524457208812237,-0.00030543262000000003,0.008552114,10
-5.485788345336914,2.1227767467498784,-7.9540061950683585,-0.014519507996737957,0.0012217305,0.008857545999999999,10
-5.494858264923097,2.120535135269165,-7.974242687225343,-0.013911735266447069,0.0012217305,0.008246681,10
-5.501417636871338,2.120092391967773,-7.980644702911378,-0.013487488962709905,-0.0018325958,0.022907447,10
-5.5024495124816895,2.1233956813812256,-7.972161293029785,-0.017164716497063637,-0.002443461,0.024740042,10
-5.502587795257568,2.1183133125305176,-7.961631774902344,-0.021856734529137608,0.011301007,0.023518313,10
-5.508820056915283,2.116794347763061,-7.959384441375732,-0.02357064001262188,0.01863139,0.013133603,10
-5.515259265899658,2.1258716583251958,-7.960783958435059,-0.0225313063710928,0.014966198,0.027183503,10
-5.510345935821533,2.142563343048096,-7.959986209869385,-0.021566171199083328,0.018936822,0.02565634,10
-5.499225616455078,2.1534109115600586,-7.948223114013673,-0.02230742014944553,0.014660766,0.02687807,10
-5.4917707443237305,2.158524751663208,-7.936268806457519,-0.02358778938651085,0.022907447,0.028710667,10
-5.489048480987549,2.1644244194030757,-7.9303154945373535,-0.024490181356668472,0.019242255,0.021991149,10
-5.482965469360352,2.1703951358795166,-7.936441898345947,-0.022933637723326683,0.016493361,0.013744468,10
-5.475282669067383,2.1649768352508545,-7.9354071617126465,-0.021186158061027527,0.0125227375,0.021991149,10
-5.4653849601745605,2.1587235927581787,-7.937135219573975,-0.02314982563257217,0.0027488936,0.013744468,10
-5.459183216094972,2.156994342803955,-7.945024013519287,-0.024043761193752292,0.0067195175,0.010690141499999998,10
-5.457902908325195,2.15986442565918,-7.9512267112731925,-0.023293094709515568,-0.01160644,0.010079277,10
-5.451324462890625,2.1636059284210205,-7.9476318359375,-0.02256710268557072,-0.02443461,0.014049901000000002,10
-5.444381713867188,2.171358823776245,-7.940329551696777,-0.02062588930130005,-0.003970624,0.008246681,10
-5.44556188583374,2.1818799972534184,-7.936928749084473,-0.0175891425460577,0.0143553335,0.0076358155,10
-5.452494621276856,2.1889362335205083,-7.933884143829347,-0.014896012842655182,0.027488936,0.00580322,10
-5.456994533538818,2.1932690143585205,-7.9337525367736825,-0.01133197546005249,0.02076942,0.0076358155,10
-5.454621315002441,2.194415330886841,-7.9346885681152335,-0.008838926441967487,-0.01038471,-0.0030543262,10
-5.451844692230225,2.2001261711120605,-7.938544273376465,-0.009893123060464859,-0.013744468,-0.009162978,10
-5.452730178833008,2.203618049621582,-7.948386192321777,-0.009439685381948948,-0.009468411,0.00030543262000000003,10
-5.455085754394531,2.1957120895385738,-7.960573196411133,-0.009066359139978886,-0.016798794,-0.005497787,10
-5.457816123962402,2.1865384578704834,-7.963136672973633,-0.009696748107671738,-0.02076942,0.0036651916,10
-5.4533305168151855,2.181396007537842,-7.965306758880615,-0.0111179668456316,-0.010079277,-0.0027488936,10
-5.442484855651856,2.174966335296631,-7.967172145843506,-0.011233403347432612,-0.0067195175,-0.007941248,10
-5.438786506652832,2.168063879013061,-7.970668315887451,-0.008644437417387962,0.0027488936,0.00030543262000000003,10
-5.443443298339844,2.160794973373413,-7.971749305725098,-0.004625867586582899,0.004276057,0.00580322,10
-5.4544405937194815,2.1519715785980225,-7.96610164642334,-0.0021148836240172386,-0.014049901000000002,-0.007941248,10
-5.4640398025512695,2.138274669647217,-7.963948726654053,-0.0039018546231091022,-0.016187929,-0.004886922,10
-5.471482276916504,2.130698204040528,-7.955668926239014,-0.005154117476195097,-0.015577064,0.0012217305,10
-5.473912715911865,2.130169153213501,-7.943275451660156,-0.00640921201556921,-0.014049901000000002,0.015577064,10
-5.473103046417236,2.1302049160003658,-7.9428062438964835,-0.006727635860443115,0.008552114,0.008552114,10
-5.474910259246826,2.1293601989746094,-7.93972635269165,-0.004684187471866608,0.025045475,0.016187929,10
-5.479250431060791,2.1374800205230717,-7.942123889923097,-0.005317924544215202,0.020463986,0.0143553335,10
-5.4818081855773935,2.143759250640869,-7.948672771453857,-0.007180702406913042,0.0125227375,0.013439035,10
-5.485384464263916,2.1465871334075928,-7.948744773864746,-0.008848683908581734,-0.00030543262000000003,0.0027488936,10
-5.4875826835632315,2.1482927799224854,-7.949297428131103,-0.008941657841205597,-0.0012217305,-0.00061086525,10
-5.485260963439941,2.1501059532165527,-7.950455665588379,-0.01058120559900999,-0.003970624,-0.005497787,10
-5.480774879455566,2.1516306400299072,-7.95723295211792,-0.011681382544338705,0.008552114,-0.005497787,10
-5.47266960144043,2.1533706188201904,-7.96246337890625,-0.011062811128795149,0.0030543262,-0.0125227375,10
-5.458598136901856,2.1492834091186523,-7.954389572143555,-0.011250277049839495,-0.0030543262,0.0009162979,10
-5.448093891143799,2.146037101745605,-7.961073875427246,-0.011199675500392914,0.007330383,0.0015271631,10
-5.45286750793457,2.145019054412842,-7.961771965026855,-0.010483299382030964,0.004581489,0.0027488936,10
-5.465626239776611,2.1380889415740967,-7.954240798950195,-0.013074935413897038,-0.005497787,0.004276057,10
-5.467526912689209,2.12952733039856,-7.95382833480835,-0.014185029082000256,-0.0036651916,0.0076358155,10
-5.4666476249694815,2.1167314052581787,-7.958430767059326,-0.011133789084851742,-0.0021380284,0.0033597588,10
-5.462328433990479,2.11075210571289,-7.95663595199585,-0.008722119033336641,-0.005497787,0.009162978,10
-5.458364009857178,2.110893726348877,-7.951620578765869,-0.010991835966706276,-0.0021380284,0.014049901000000002,10
-5.4552574157714835,2.1145994663238525,-7.957050323486327,-0.012680664658546448,0.0027488936,0.0012217305,10
-5.454697608947754,2.1150479316711426,-7.956118583679199,-0.010611914098262787,0.0125227375,0.007941248,10
-5.45165491104126,2.1166019439697266,-7.956019401550293,-0.009159481152892113,-0.002443461,0.004276057,10
-5.443201541900635,2.1196544170379643,-7.958842754364014,-0.008846713230013847,-0.0070249503,-0.0015271631,10
-5.445580959320068,2.123800754547119,-7.949124336242676,-0.008292491547763348,-0.007330383,-0.005497787,10
-5.44988489151001,2.1281969547271733,-7.945417881011963,-0.00915414094924927,-0.017104227,0.01160644,10
-5.461189270019531,2.1325039863586426,-7.955130100250244,-0.011228511109948158,-0.0012217305,-0.009773844,10
-5.471289157867432,2.1309175491333012,-7.949429988861084,-0.013093501329421995,-0.0009162979,-0.0033597588,10
-5.46853494644165,2.1207144260406494,-7.940237045288086,-0.014840773306787012,-0.004581489,-0.0021380284,10
-5.4708251953125,2.10921049118042,-7.941622734069824,-0.013730069622397423,-0.00030543262000000003,-0.008246681,10
-5.475928783416748,2.1020841598510738,-7.943533897399902,-0.010880784131586552,-0.004886922,0.00061086525,10
-5.477821350097656,2.094860315322876,-7.951530933380128,-0.009408456273376942,0.00030543262000000003,0.013439035,10
-5.480292797088623,2.0884659290313716,-7.959388732910156,-0.01093435287475586,0.0018325958,0.008552114,10
-5.4796180725097665,2.086376428604126,-7.959329605102539,-0.011316962540149687,0.007941248,0.015882496,10
-5.476794719696045,2.0851330757141118,-7.956863403320312,-0.00978334806859493,0.003970624,0.013439035,10
-5.476142883300781,2.0798628330230717,-7.948456287384032,-0.00742267072200775,-0.00580322,0.01282817,10
-5.475632190704347,2.0780491828918457,-7.9433650970458975,-0.004814980551600456,-0.008246681,0.004276057,10
-5.479580879211426,2.082805871963501,-7.950881004333496,-0.004287152551114559,0.00030543262000000003,-0.00030543262000000003,10
-5.48415994644165,2.0933611392974854,-7.95503044128418,-0.002636288059875369,0.0143553335,0.002443461,10
-5.487377643585205,2.1001439094543457,-7.960304737091064,-0.0061594685539603225,0.020158553,0.009468411,10
-5.493725776672363,2.111436128616333,-7.964190483093263,-0.01167265884578228,0.0070249503,0.0018325958,10
-5.498739242553711,2.1168289184570312,-7.975475788116455,-0.015118765644729137,-0.00030543262000000003,0.004886922,10
-5.497405052185059,2.1119370460510254,-7.976834774017334,-0.016225215047597885,-0.0015271631,0.002443461,10
-5.489074230194092,2.09710955619812,-7.977046012878418,-0.017171300947666168,-0.005192355,0.014966198,10
-5.478377819061278,2.0773954391479488,-7.974331855773926,-0.018355665728449818,-0.0018325958,0.0143553335,10
-5.469815254211426,2.06340765953064,-7.981510639190674,-0.017993398010730743,0.008246681,0.025045475,10
-5.466142177581787,2.053347110748291,-7.994354248046875,-0.017640944570302963,0.00030543262000000003,0.02443461,10
-5.473031520843506,2.048389196395874,-7.9958744049072275,-0.018899012356996536,-0.005192355,0.020158553,10
-5.476564407348633,2.059943437576294,-7.99966287612915,-0.020089708268642426,-0.0033597588,0.021380283,10
-5.483621597290039,2.0674736499786377,-7.99249792098999,-0.022306108847260475,0.0027488936,0.018325957,10
-5.481412410736084,2.0840804576873784,-7.9795379638671875,-0.02211915329098701,-0.00580322,0.014049901000000002,10
-5.4801363945007315,2.104940414428711,-7.966509819030763,-0.02134901471436024,-0.004581489,0.0076358155,10
-5.477190971374512,2.1198287010192867,-7.96372652053833,-0.020494561642408368,0.015882496,0.010690141499999998,10
-5.481579303741455,2.129854440689087,-7.970774173736572,-0.020541273057460785,0.021685716,0.010079277,10
-5.484664440155028,2.134338617324829,-7.969823360443115,-0.020048271864652637,0.004581489,0.004886922,10
-5.481293201446533,2.1402745246887207,-7.952829837799072,-0.020222513005137444,-0.0070249503,0.009468411,10
-5.472058773040772,2.1438748836517334,-7.9458274841308585,-0.025075901299715042,-0.011301007,0.017715093,10
-5.459162712097168,2.150964975357056,-7.950026988983153,-0.026851644739508632,0.0033597588,0.014660766,10
-5.450132846832275,2.149604082107544,-7.956817626953125,-0.02498805895447731,0.0143553335,0.011301007,10
-5.4457292556762695,2.139868259429932,-7.962708950042725,-0.022601479664444923,0.016493361,0.011301007,10
-5.444202423095703,2.1271028518676762,-7.965638160705566,-0.020790405571460724,-0.00030543262000000003,0.0076358155,10
-5.448494911193848,2.120871067047119,-7.954813003540039,-0.020035073161125183,-0.02076942,0.0076358155,10
-5.453373908996582,2.118309736251831,-7.9501705169677725,-0.020013183355331417,-0.0012217305,0.01985312,10
-5.466240406036377,2.12298321723938,-7.9628682136535645,-0.019522691145539284,0.01985312,0.029932396,10
-5.478692054748535,2.1246287822723393,-7.96625280380249,-0.019572589546442032,0.023823744,0.027183503,10
-5.482752799987793,2.1226773262023926,-7.961769580841064,-0.023231040686368942,0.018936822,0.03481932,10
-5.482916355133057,2.1271123886108403,-7.968849182128906,-0.026144323870539662,0.019547688,0.02687807,10
-5.487077713012695,2.135813474655152,-7.974914073944093,-0.023895686492323875,0.019242255,0.013439035,10
-5.490233421325684,2.145039319992065,-7.973467826843263,-0.022631250321865082,0.019547688,0.019547688,10
-5.477547645568848,2.155222654342652,-7.96584939956665,-0.025928886607289314,0.005497787,0.01740966,10
-5.456279277801514,2.162648916244507,-7.963082313537598,-0.02615823782980442,0.008552114,0.013744468,10
-5.4375104904174805,2.173053741455078,-7.965758323669434,-0.023247627541422844,0.016187929,0.011911872,10
-5.42384672164917,2.1817402839660645,-7.971054077148437,-0.022201362997293472,0.013133603,0.008246681,10
-5.424102783203125,2.181631326675415,-7.974250316619872,-0.020147766917943958,0.004886922,0.008246681,10
-5.420957565307617,2.1744000911712646,-7.974215984344482,-0.020083598792552948,0.0012217305,0.016798794,10
-5.422159194946289,2.165660858154297,-7.983144283294678,-0.021830355748534203,0.0070249503,0.021685716,10
-5.429852485656738,2.161623477935791,-7.985676288604736,-0.02331997267901897,0.0067195175,0.021991149,10
-5.436806678771973,2.1606495380401607,-7.9785828590393075,-0.02426256611943245,0.004581489,0.02443461,10
-5.441679954528809,2.1681890487670903,-7.962447643280028,-0.02559866011142731,-0.0015271631,0.02687807,10
-5.439903736114502,2.1719346046447754,-7.962755680084228,-0.02406357415020466,0.010079277,0.014049901000000002,10
-5.443671703338623,2.175588846206665,-7.9767093658447275,-0.021008100360631943,0.007330383,0.015577064,10
-5.447680473327637,2.1751928329467773,-7.989346981048584,-0.024593232199549675,-0.0018325958,0.022296581,10
-5.4610633850097665,2.175607919692993,-7.998319149017334,-0.0315113440155983,-0.0018325958,0.014049901000000002,10
-5.468008518218994,2.1705350875854488,-8.000367164611816,-0.037245064973831184,-0.011911872,0.015882496,10
-5.47016191482544,2.1673355102539062,-7.995375633239746,-0.038228094577789314,-0.012217305,0.0027488936,10
-5.468842029571533,2.1663451194763184,-7.984705448150635,-0.036017701029777534,-0.007941248,0.009162978,10
-5.46187686920166,2.1722671985626216,-7.976280689239503,-0.033158626407384865,0.010690141499999998,0.011301007,10
-5.450948715209961,2.1914622783660893,-7.962714672088622,-0.029773002490401268,0.0067195175,0.014966198,10
-5.439301013946533,2.214592695236206,-7.935306072235107,-0.02587020769715309,0.0030543262,0.009773844,10
-5.434806823730469,2.230686664581299,-7.917846202850343,-0.021054411306977272,0.011911872,0.010690141499999998,10
-5.4288330078125,2.2432520389556885,-7.915282726287843,-0.01362124364823103,0.028099801,0.010995574,10
-5.431307315826416,2.249477863311768,-7.9290666580200195,-0.003381844377145171,0.0143553335,-0.0027488936,10
-5.439149379730225,2.249691963195801,-7.946255683898926,0.0003619982453528792,0.009162978,-0.004581489,10
-5.4443440437316895,2.2456274032592773,-7.961790561676025,-0.0004031295538879931,0.005497787,-0.00580322,10
