acc_x,acc_y,acc_z,gyro_x,gyro_y,gyro_z,label
0.0,0.0,0.0,0.0,-0.0012217305,0.035124752999999995,1
-0.00988941825926304,0.28578609228134155,-0.04187465086579323,-0.0018656625179573891,-0.0012217305,0.026267206,1
-0.033519741147756583,0.966782808303833,-0.1418546587228775,-0.004930200986564159,-0.0076358155,0.008857545999999999,1
-0.06828133016824722,1.9113649129867556,-0.2824406027793884,-0.008256031200289726,-0.004886922,0.008857545999999999,1
-0.1085900068283081,2.969738483428955,-0.43855929374694813,-0.011407816782593729,-0.01038471,0.00061086525,1
-0.14421498775482178,4.018335819244385,-0.5842087268829346,-0.014493302442133428,-0.019242255,-0.00061086525,1
-0.1713770031929016,4.989250659942627,-0.7197416424751282,-0.015613577328622341,-0.0012217305,-0.007330383,1
-0.19013285636901853,5.846235275268555,-0.8424526453018188,-0.0160922072827816,-0.0021380284,-0.0033597588,1
-0.21832966804504395,6.5858306884765625,-0.884221076965332,-0.015479459427297115,-0.011301007,0.004581489,1
-0.2305032759904861,7.198882102966309,-0.9682507514953612,-0.015000306069850922,-0.014660766,0.013439035,1
-0.2330352216959,7.704680919647218,-1.0622522830963137,-0.012332071550190449,-0.0033597588,0.015577064,1
-0.2382637560367584,8.107501029968263,-1.1791915893554688,-0.011764350347220898,-0.002443461,0.0018325958,1
-0.24673070013523105,8.437453269958496,-1.295771598815918,-0.012848895043134691,0.010690141499999998,-0.00030543262000000003,1
-0.23763589560985565,8.707489013671875,-1.3822143077850342,-0.0137050561606884,0.003970624,-0.008857545999999999,1
-0.2168733924627304,8.931998252868652,-1.434385895729065,-0.013187115080654621,0.013133603,-0.0143553335,1
-0.19884669780731198,9.11867618560791,-1.4387834072113037,-0.012408999726176262,0.015882496,0.008552114,1
-0.1884128302335739,9.260224342346193,-1.4024314880371094,-0.010054371319711208,0.00580322,0.01740966,1
-0.18728946149349213,9.345451354980467,-1.320340871810913,-0.007089446298778056,0.009162978,0.025045475,1
-0.19621574878692627,9.403661727905273,-1.245392918586731,-0.005112338811159135,0.013133603,0.01863139,1
-0.21577419340610504,9.461455345153807,-1.2014213800430298,-0.003459002124145627,0.014660766,0.016187929,1
-0.2364344298839569,9.518058776855467,-1.1926015615463257,-0.0032575288787484173,0.01740966,0.013744468,1
-0.25419145822525024,9.557757377624512,-1.2247720956802368,-0.0032419376075267787,0.011301007,0.004886922,1
-0.28701144456863403,9.581622123718262,-1.2908164262771606,-0.0037850667722523212,-0.004886922,0.00580322,1
-0.32650548219680786,9.61864185333252,-1.3818573951721191,-0.004185459576547146,-0.016798794,0.00030543262000000003,1
-0.3559084534645081,9.671526908874512,-1.45837140083313,-0.0023146867752075195,-0.018936822,-0.0143553335,1
-0.361981213092804,9.740235328674316,-1.4783838987350464,-0.0011893913615494967,-0.008552114,-0.016798794,1
-0.33100295066833496,9.80367946624756,-1.4533642530441284,-0.0020226752385497093,-0.01038471,-0.0012217305,1
-0.2787497937679291,9.84409999847412,-1.4046858549118042,-0.00958320312201977,-0.042455133,0.016493361,1
-0.2358761429786682,9.853261947631836,-1.344799518585205,-0.02378265559673309,-0.061391957,0.03573562,1
-0.21938666701316836,9.84653091430664,-1.268134355545044,-0.04015171527862549,-0.05375614,0.04337143,1
-0.22054241597652435,9.838172912597656,-1.210050344467163,-0.052630431950092316,-0.06169739,0.029321533,1
-0.22065159678459167,9.825206756591797,-1.1777001619338991,-0.056451790034770966,-0.08246681,0.029321533,1
-0.2276968210935593,9.809118270874023,-1.1782981157302856,-0.05522763729095459,-0.06994407,-0.00030543262000000003,1
-0.2298768311738968,9.819480895996094,-1.2068960666656494,-0.05100146308541298,-0.05925392700000001,-0.006414085,1
-0.23084576427936554,9.865323066711426,-1.2560386657714844,-0.050022847950458534,-0.048563786,0.009162978,1
-0.23744119703769684,9.93299674987793,-1.3156875371932983,-0.05453191697597504,-0.048563786,0.041233405,1
-0.2550384402275085,9.981297492980957,-1.3824336528778076,-0.06772290170192719,-0.047647487,0.07574729,1
-0.2851490974426269,9.98826789855957,-1.4429010152816772,-0.08498618006706238,-0.016493361,0.10873401,1
-0.31168386340141296,9.95492935180664,-1.451392650604248,-0.0964198186993599,-0.008552114,0.099265605,1
-0.3194784224033356,9.8955717086792,-1.4117536544799805,-0.10176890343427658,-0.0030543262,0.10598512,1
-0.3062599897384644,9.837606430053713,-1.3299391269683838,-0.10219954699277878,0.0021380284,0.10048734,1
-0.277725487947464,9.801483154296877,-1.2567230463027954,-0.09867455810308456,-0.0012217305,0.07574729,1
-0.2497168630361557,9.80756950378418,-1.2150437831878662,-0.0919256955385208,0.007941248,0.064751714,1
-0.22076591849327087,9.841063499450684,-1.1910641193389893,-0.08314184844493866,0.0070249503,0.06841691,1
-0.1832319051027298,9.88154411315918,-1.163970947265625,-0.07446692883968352,0.020463986,0.08827003,1
-0.1389378309249878,9.90074062347412,-1.1267292499542236,-0.06933146715164185,0.020158553,0.101098195,1
-0.08596105128526688,9.88797092437744,-1.0881240367889404,-0.06795383989810944,0.016187929,0.098043874,0
-0.03400885686278343,9.854269027709961,-1.0469399690628052,-0.06674465537071228,0.016493361,0.06658431,0
0.014676754362881184,9.804893493652344,-1.0043431520462036,-0.06127091497182846,0.040317107000000005,0.028710667,0
0.06629417091608047,9.75548267364502,-0.9509472846984864,-0.050117332488298416,0.08277224,-0.008552114,0
0.12213711440563202,9.713885307312012,-0.885903537273407,-0.03146640956401825,0.094989546,-0.04917465,0
0.1822915226221085,9.698884963989258,-0.8008862733840942,-0.009011060930788515,0.10598512,-0.09193522,0
0.2575328052043915,9.70897388458252,-0.6843112707138062,0.01072030607610941,0.10323623,-0.15302174,0
0.3414033949375153,9.784082412719727,-0.5356977581977844,0.02524855174124241,0.064751714,-0.18967366,0
0.4240580201148987,9.844508171081543,-0.4055881202220917,0.04785207286477089,-0.062002823,-0.22388211,0
0.4681409299373626,9.799173355102539,-0.32242852449417114,0.10077299177646636,-0.25534168,-0.28802297,0
0.4601775407791138,9.621787071228027,-0.32411593198776245,0.19297324120998385,-0.44440445,-0.35063666,0
0.4183774590492249,9.376429557800293,-0.4456754624843597,0.3126840591430664,-0.49968776,-0.4034765,0
0.3849564492702484,9.19879150390625,-0.6326462626457214,0.42760846018791204,-0.4456262,-0.41599923,0
0.39844194054603577,9.197626113891602,-0.843052327632904,0.5028777718544006,-0.18081611,-0.29138273,0
0.4889041483402252,9.4571533203125,-1.0472906827926636,0.5073823928833008,0.18570304,-0.013744468,0
0.6677845120429993,9.990636825561523,-1.2258144617080688,0.4533936977386474,0.5513059,0.34330627,0
0.8461263179779053,10.704058647155762,-1.4332628250122068,0.3907509446144104,0.6780604,0.7440339,0
0.7520304322242737,11.175407409667967,-1.580060601234436,0.3213500380516052,-0.20830505,0.61208695,0
0.05120157077908516,10.447514533996582,-1.7880692481994631,0.2802861034870148,-0.32467487,-0.25686884,0
-0.9548016786575316,8.371190071105957,-2.1143875122070312,0.3410991728305817,-0.07544186,-0.88086766,0
-1.9521286487579343,6.625424861907959,-2.560150384902954,0.5372148752212524,0.5647449000000001,-0.44165558,0
-2.595226764678955,5.534852981567383,-2.732170581817627,0.6305479407310486,0.34697145,-0.82802784,0
-2.696443796157837,4.7686767578125,-2.6933865547180176,0.5076038241386414,-0.3811799,-1.2498302,0
-2.494415521621704,4.246490478515625,-2.848618268966675,0.34752973914146423,0.03145956,-1.2064588,0
-2.043445587158203,4.134659290313722,-3.241457223892212,0.4107553362846375,0.9761627,-0.8500190000000001,0
-1.7857627868652344,4.465993404388428,-3.4188218116760254,0.6418952345848083,0.6914994999999999,-0.50426924,0
-1.9414796829223635,5.031683444976807,-3.439678192138672,0.7456039190292358,0.008552114,-0.3585779000000001,0
-2.497537612915039,5.946000099182129,-3.516911268234253,0.6539927124977112,0.08460484,-0.36835176,0
-3.182326316833496,6.92499303817749,-3.769437313079834,0.5502144694328308,-0.15424347,-0.63132924,0
-3.6640141010284415,7.6771135330200195,-4.319502353668213,0.4701345860958099,-0.53023106,-0.55924714,0
-3.7286858558654794,8.437509536743164,-4.793698310852051,0.4304451048374176,-0.37751472,-0.35033122,0
-3.735544681549072,9.205952644348145,-5.288132190704347,0.3819763660430908,-0.3323107,0.042760565999999986,0
-3.85052490234375,10.078812599182127,-5.814952373504639,0.2971887588500977,-0.30909783,0.43554693,0
-4.151226043701172,11.051480293273926,-6.454265117645264,0.18316280841827395,-0.24678956,0.6765333,0
-4.4655842781066895,11.87688159942627,-7.083137035369872,0.03892116993665695,-0.1337795,0.93034774,0
-4.768901348114014,12.487232208251953,-7.646912574768066,-0.1257583051919937,-0.070554934,1.2486086,0
-5.006619453430176,12.900655746459961,-8.119893074035645,-0.30994874238967896,0.025961773,1.5231925,0
-5.15264368057251,13.113441467285154,-8.495628356933594,-0.4957571029663086,0.13775012,1.7821994,0
-5.2729225158691415,13.1434965133667,-8.735990524291992,-0.6795444488525391,0.22540927,2.0112739,0
-5.355339050292969,12.966788291931152,-8.820971488952637,-0.8691737651824951,0.22999077,2.1502457,0
-5.346061706542969,12.52765655517578,-8.727903366088867,-1.0696343183517456,0.17012598,2.207056,0
-5.242420673370361,11.7887544631958,-8.443778991699219,-1.2697180509567259,0.100792766,2.2159138,0
-5.087196826934815,10.802916526794434,-8.060850143432617,-1.47917902469635,0.023518313,2.2024746,0
-4.822213172912598,9.423154830932617,-7.630324840545653,-1.7171247005462646,-0.19211712,2.193617,0
-4.4103593826293945,7.588931083679199,-7.09674072265625,-1.9573493003845213,-0.344528,2.2879958,0
-4.018437385559082,5.904228687286378,-6.568625450134277,-2.1756575107574463,-0.42730024,2.4514022,0
-3.737172365188599,4.467940807342528,-6.143649101257324,-2.3833236694335938,-0.38789943,2.7586675,0
-3.5188415050506587,3.2695920467376713,-5.698448181152344,-2.603598594665528,-0.27488935,3.0320296,0
-3.102315664291382,2.19257926940918,-4.766345500946045,-2.8623464107513428,-0.63163465,2.871983,0
-2.279218435287476,1.2582440376281738,-3.0879018306732178,-3.136167287826538,-0.7816021,2.143526,0
-1.3182802200317385,0.7714861631393433,-1.4223555326461792,-3.2415788173675537,0.33505958,1.7275269,0
0.13302889466285706,0.7518531084060669,0.16713333129882812,-3.1077258586883545,-0.24465153,1.7318029,0
2.8501763343811035,0.4490304887294769,1.58918035030365,-3.011796712875366,0.037873644,2.0696115,0
5.776244163513184,-0.228919580578804,2.8905909061431885,-3.1497743129730225,1.0433578,1.6041322,0
8.044472694396973,-1.061679482460022,4.187887191772462,-3.199897289276123,1.7809776000000002,0.3753767,0
9.586847305297852,-1.2681971788406372,5.4608025550842285,-2.8636810779571533,1.9532416,0.39278635,0
10.526968955993652,-0.8695932626724243,6.7455687522888175,-2.332589626312256,2.0097466,0.8924741,0
10.72301959991455,-0.1254492998123169,7.809536457061768,-1.8655681610107424,2.1951442,0.9407325,0
10.309080123901367,0.7888928055763245,8.542990684509277,-1.6166398525238037,1.6010778,0.505491,0
9.459017753601074,1.5816725492477417,8.983813285827637,-1.546332597732544,0.63255095,0.17684549,0
8.381130218505861,2.0263319015502934,9.1738862991333,-1.4674067497253418,0.5177083,0.30909783,0
7.430814743041992,2.197904348373413,9.373129844665527,-1.2935891151428225,0.52106804,0.88239485,0
6.913456439971924,2.1215753555297847,9.567256927490234,-1.0732094049453735,0.46853364,1.2464706,0
6.750438213348389,1.754184007644653,9.705456733703613,-0.8666177988052368,0.6221663000000001,1.1872166000000002,0
6.734626770019531,1.240392565727234,9.77049732208252,-0.67630535364151,0.7828238000000001,0.7452555999999999,0
6.571596145629883,0.8538438081741333,9.714423179626463,-0.477132648229599,0.7452555999999999,0.37934732,0
6.268021106719972,0.7374348640441895,9.49621868133545,-0.341533362865448,0.50671273,-0.05131268,0
5.995650768280028,0.7680217623710632,9.229947090148926,-0.3589619398117065,0.030848695,-0.44990227,0
5.742772579193115,1.0059868097305298,8.85128402709961,-0.5109962821006775,-0.25381452,-0.56382865,0
5.464330196380615,1.3012229204177856,8.401437759399414,-0.670042872428894,0.05955936,-0.24953845,0
5.2513999938964835,1.4643930196762085,8.134842872619629,-0.729867160320282,0.2968805,0.0076358155,0
5.1646881103515625,1.6679660081863403,8.279805183410645,-0.6900795698165894,0.27672195,0.13225232,0
5.31865930557251,2.2126390933990483,9.259950637817383,-0.6995825171470642,0.54825157,0.16829337,0
5.860326290130615,3.13674259185791,10.889887809753418,-0.9531487226486206,1.0943651,0.5332854,0
6.92139196395874,3.636662006378174,12.380850791931152,-1.1388403177261353,0.18173242,1.7467692,0
7.45335054397583,3.157475709915161,12.952241897583008,-0.9984177947044371,-0.66248333,0.89369583,0
7.128129005432129,2.776496171951294,12.711067199707033,-0.7289726138114929,-2.2626447999999995,0.2941316,0
6.298116683959961,2.5532972812652592,11.626001358032227,-0.4075828194618225,-2.1355848,-0.24801129,0
5.347390651702881,2.191688060760498,10.010039329528807,-0.11198297888040544,-1.1847731,-0.73364913,0
4.634951591491699,1.7615879774093628,8.326447486877441,0.04865286126732826,0.30909783,-0.8069529999999999,0
4.2890233993530265,1.4209847450256348,7.1419410705566415,0.00404876796528697,1.1291844,-0.9245446,0
4.160002708435059,1.5639137029647827,7.08540153503418,-0.29557666182518005,1.2620476,-0.9257663,0
4.172746658325194,2.1327872276306152,7.965900421142577,-0.6788047552108765,1.0009027,-0.38820487,0
4.5413856506347665,2.721631526947021,9.13099765777588,-0.792521059513092,0.32803464,0.5549710999999999,0
4.873374938964844,3.0195996761322017,9.846803665161133,-0.6203173398971558,-0.589485,0.95111716,0
4.9039716720581055,3.1503827571868896,9.848029136657717,-0.27485209703445435,-1.428203,0.8155051,0
4.744523525238037,3.2817156314849854,9.353863716125488,0.051453296095132835,-1.3842206,0.602924,0
4.545080184936523,3.3799941539764404,8.65993595123291,0.19693061709403992,-0.711658,0.3811799,0
4.42625904083252,3.3330564498901367,7.988722324371338,0.17112800478935242,0.056199603,0.12217305,0
4.487456321716309,3.1579818725585938,7.539209842681885,0.05620063096284866,0.42271876,0.0009162979,0
4.765668869018555,2.8805625438690186,7.416996955871582,-0.07273796200752257,0.47433686,-0.04795292,0
5.190459728240967,2.541163444519043,7.5769920349121085,-0.16970425844192505,0.15913039999999998,0.025045475,0
5.610265254974365,2.1417796611785893,7.838669300079347,-0.1834709346294403,-0.3203988,0.14905111,0
5.883955955505371,1.7969841957092283,7.975107192993164,-0.12234434485435484,-0.54244834,0.26450464,0
5.981653690338135,1.618191123008728,7.938248634338379,-0.031559105962514884,-0.5152648,0.32162055,0
5.926970958709718,1.6758275032043457,7.780651569366455,0.04071779921650887,-0.3408628,0.32803464,0
5.818387508392334,1.902039051055908,7.5874576568603525,0.06802955269813538,-0.069027774,0.26206118,0
5.743563652038574,2.149341821670532,7.439552783966064,0.05270655825734138,0.10445796,0.12736541,0
5.7142653465271,2.3402585983276367,7.351248741149902,0.020909788087010384,0.17440203,0.032375857,0
5.73814582824707,2.4049441814422607,7.346009731292725,0.006882586982101202,0.16646078,0.03176499,0
5.8177642822265625,2.3817622661590576,7.4044976234436035,0.01231196615844965,0.062308256,0.062308256,0
5.928850173950195,2.3449594974517822,7.458152770996094,0.01952289044857025,-0.038179077,0.103847094,0
6.038657188415527,2.309918165206909,7.473283290863037,0.016580134630203247,-0.09040806,0.108123146,0
6.109600067138673,2.2458372116088867,7.424946784973144,0.005240354221314192,-0.054367006,0.08827003,0
6.132596492767334,2.1462068557739262,7.365033149719237,-0.008973853662610054,0.024129177,0.034513887,0
6.103880405426025,2.04750657081604,7.306614875793457,-0.01827426068484783,0.13958271,-0.03176499,0
6.029212951660156,1.9680460691452024,7.286166667938232,-0.015797263011336327,0.19517145,-0.08704830000000001,0
5.949223041534424,1.9214067459106443,7.309530258178711,-0.00641346350312233,0.23182335,-0.083383106,0
5.884703636169434,1.9151976108551023,7.361506462097168,0.007091414649039506,0.20830505,-0.049480084,0
5.835788249969482,1.9431586265563965,7.432250499725343,0.016631828621029854,0.20280726,0.0070249503,0
5.7880306243896475,1.9907073974609373,7.498241424560548,0.020488863810896873,0.1695151,0.06536258,0
5.727908611297607,2.0498380661010738,7.539270877838135,0.017622459679841995,0.1423316,0.09743301,0
5.634902477264403,2.0957489013671875,7.5728697776794425,0.015505426563322544,0.12186762,0.110872045,0
5.528855323791504,2.1177549362182617,7.607288837432861,0.017419204115867615,0.12705997,0.10048734,10
5.4216341972351065,2.118895530700684,7.643501758575439,0.024793565273284912,0.12095132,0.087659165,10
5.3401312828063965,2.115668773651123,7.68399715423584,0.03583013266324997,0.1337795,0.077579886,10
5.291396617889403,2.1179151535034184,7.71713924407959,0.05276506394147873,0.09743301,0.07574729,10
5.260268688201903,2.127086877822876,7.729618549346924,0.06654972583055496,0.03176499,0.089491755,10
5.234423637390137,2.131563663482666,7.726449012756348,0.06378782540559769,0.0021380284,0.092240654,10
5.233482360839844,2.1266765594482417,7.726935386657715,0.049848183989524834,0.024740042,0.09285152,10
5.259959220886231,2.109792947769165,7.7404441833496085,0.04083690419793129,0.030543262,0.08277224,10
5.289269924163818,2.0985181331634517,7.757423877716064,0.04007197916507721,-0.002443461,0.06169739,10
5.302550792694092,2.0919351577758794,7.758533954620361,0.039170991629362106,-0.033292156,0.03848451,10
5.299561977386475,2.0873799324035645,7.741592407226562,0.0314054898917675,-0.020158553,0.025350908,10
5.300898551940918,2.0882863998413086,7.724012851715088,0.020892543718218803,-0.0033597588,0.0125227375,10
5.3088717460632315,2.0968673229217534,7.705124855041504,0.016028983518481255,-0.0009162979,0.022907447,10
5.319406032562256,2.1086249351501465,7.687124252319336,0.015659281983971596,-0.013439035,0.028099801,10
5.32209062576294,2.109991788864136,7.671238899230957,0.0135871646925807,-0.027183503,0.029321533,10
5.30588436126709,2.115124225616455,7.648765563964844,0.009736430831253529,-0.08735373,0.013439035,10
5.27914571762085,2.130838394165039,7.623260021209718,-0.0024651323910802607,-0.08368854,0.004886922,10
5.2622642517089835,2.1619327068328857,7.61231803894043,-0.016793539747595787,-0.0580322,-0.0036651916,10
5.2609710693359375,2.1974327564239498,7.6324119567871085,-0.0335661955177784,-0.03940081,0.0143553335,10
5.282771587371826,2.228926658630371,7.657524108886719,-0.047881197184324265,-0.038789943,0.025350908,10
5.309368133544922,2.241461515426636,7.676223278045653,-0.05596371740102768,-0.027183503,0.039095376,10
5.339150428771973,2.224442958831787,7.6878252029418945,-0.05815462023019791,-0.016187929,0.064446285,10
5.371281623840332,2.189157247543335,7.690752983093263,-0.05300609767436981,-0.05589417,0.05497787,10
5.413045406341553,2.1398074626922607,7.679031848907472,-0.04675941914319992,-0.06597344599999999,0.05375614,10
5.451226711273193,2.090842962265014,7.661908149719237,-0.041360318660736084,-0.048258353,0.04062254,10
5.488481521606445,2.0374348163604736,7.6515564918518075,-0.03913017362356186,-0.05100725,0.03756821,10
5.521775245666504,1.9860196113586424,7.6495842933654785,-0.03971797227859497,-0.046731193,0.03145956,10
5.5462307929992685,1.9421938657760618,7.64793062210083,-0.04185239970684052,-0.030543262,0.016187929,10
5.562573432922363,1.912788987159729,7.642870426177978,-0.04403725266456604,-0.020463986,0.008857545999999999,10
5.577503681182861,1.8988579511642456,7.637749195098878,-0.04397658631205559,-0.016187929,-0.0018325958,10
5.593626976013184,1.9033448696136477,7.635689258575439,-0.04110383614897728,-0.0076358155,-0.00061086525,10
5.608479499816895,1.9206451177597048,7.633186340332031,-0.03687965869903565,0.0021380284,-0.0015271631,10
5.618845462799072,1.939199924468994,7.635580062866211,-0.03577829524874687,0.004276057,0.015577064,10
5.6153178215026855,1.949676513671875,7.637721061706543,-0.03433260694146156,0.015271631,0.016798794,10
5.6146507263183585,1.9558501243591309,7.640561580657959,-0.030711514875292775,0.024129177,0.016493361,10
5.607285976409912,1.9680238962173464,7.637893676757812,-0.02638641372323036,0.025045475,0.013133603,10
5.596715450286865,1.9815399646759035,7.640625953674316,-0.02310066297650337,0.03268129,0.019242255,10
5.575273036956787,1.9876037836074831,7.64174747467041,-0.020905600860714912,0.03604105,0.021380283,10
5.552103042602539,1.987133741378784,7.641646862030028,-0.01668214239180088,0.023823744,0.02107485,10
5.531182289123535,1.9820560216903689,7.638619422912598,-0.012960055842995644,0.030848695,0.022907447,10
5.515185356140137,1.9848582744598389,7.645641326904298,-0.010906128212809564,0.03940081,0.015271631,10
5.499561786651611,1.9925698041915891,7.654103755950928,-0.007549948524683714,0.030848695,0.02321288,10
5.492687702178955,2.002481460571289,7.661221027374268,-0.007100214716047049,0.012217305,0.019547688,10
5.487180233001709,2.0114395618438716,7.661162853240968,-0.007044674828648567,0.008857545999999999,0.015882496,10
5.484271049499512,2.0097398757934566,7.657472610473633,-0.0066521093249320975,-0.002443461,0.02107485,10
5.477853298187256,2.0016648769378658,7.651900768280028,-0.004460570868104696,-0.00030543262000000003,0.013133603,10
5.474208354949951,1.9932186603546145,7.648569583892822,-0.0023092925548553467,-0.009162978,-0.0027488936,10
5.470170021057129,1.9819755554199217,7.655140399932861,-0.00334643479436636,-0.01160644,-0.0070249503,10
5.4679293632507315,1.975506901741028,7.663467407226562,-0.0054747555404901505,-0.002443461,0.008552114,10
5.465471267700195,1.9775748252868648,7.669182777404785,-0.007251093164086342,-0.011301007,0.0021380284,10
5.466507434844972,1.9853359460830688,7.66033411026001,-0.01069444604218006,0.00030543262000000003,0.00061086525,10
5.475869655609131,1.9917713403701784,7.6539626121521,-0.011381058022379877,0.0012217305,0.00061086525,10
5.48464298248291,1.9931919574737549,7.643964290618896,-0.01203263457864523,-0.01160644,0.0015271631,10
5.48555850982666,1.9970232248306277,7.64105749130249,-0.011722271330654621,-0.016187929,0.007941248,10
5.489933967590332,1.9950450658798216,7.641946315765381,-0.01192051637917757,-0.010079277,0.009162978,10
5.493484973907472,1.9893956184387207,7.6423845291137695,-0.012641632929444313,-0.00580322,0.01038471,10
5.501250267028809,1.9903391599655151,7.646035194396973,-0.013812001794576643,-0.0018325958,0.0027488936,10
5.504593849182129,1.990755558013916,7.648781299591064,-0.013427115976810457,-0.0015271631,0.006414085,10
5.505950927734375,1.993808388710022,7.647510051727295,-0.01305733062326908,-0.0015271631,0.0027488936,10
5.505847454071045,2.0022752285003658,7.6416683197021475,-0.012051679193973541,0.006414085,0.007941248,10
5.5090837478637695,2.01227068901062,7.631885051727295,-0.011248145252466202,0.0021380284,0.005497787,10
5.508969783782959,2.0170621871948238,7.632308483123778,-0.009607440792024136,0.010079277,0.007941248,10
5.506819725036621,2.0218369960784908,7.632418155670166,-0.010199697688221931,0.0067195175,0.012217305,10
5.506292343139648,2.017782211303711,7.629358768463135,-0.01002439484000206,0.0076358155,0.0125227375,10
5.509451866149902,2.0120203495025635,7.630773067474365,-0.0077411732636392125,0.003970624,0.011911872,10
5.506943702697754,2.007636308670044,7.6374874114990225,-0.006901763379573822,0.007330383,-0.0018325958,10
5.49729585647583,2.0087077617645264,7.6399126052856445,-0.006777918431907892,0.0021380284,0.01160644,10
5.49066162109375,2.007040977478028,7.6443681716918945,-0.007862292230129242,-0.013133603,0.0012217305,10
5.484382152557373,2.0081493854522705,7.651199340820312,-0.009220553562045096,-0.0067195175,0.0012217305,10
5.478335380554199,2.0059781074523926,7.661624431610107,-0.010517210699617864,-0.004581489,-0.004276057,10
5.47938871383667,2.0005218982696533,7.673943042755128,-0.012338012456893921,-0.0030543262,-0.0015271631,10
5.487668514251709,1.9896628856658936,7.679891586303711,-0.014939174056053163,-0.015577064,0.005192355,10
5.490795612335205,1.9850441217422483,7.677405834197997,-0.01614220067858696,-0.0143553335,0.0027488936,10
5.490278720855713,1.9764878749847408,7.672089576721191,-0.015591629780828953,-0.0067195175,0.00580322,10
5.489173412322998,1.9716421365737915,7.660494327545166,-0.01305039506405592,-0.01038471,0.00030543262000000003,10
5.4927592277526855,1.9726506471633911,7.653584957122803,-0.011431933380663395,-0.008246681,-0.00030543262000000003,10
5.5019145011901855,1.982277750968933,7.6504883766174325,-0.011707420460879804,0.004886922,-0.0061086523,10
5.510308742523193,1.988210916519165,7.648963451385497,-0.01368632260710001,0.0036651916,-0.0009162979,10
5.518890380859375,1.9920181035995483,7.654717445373535,-0.01510273013263941,-0.014049901000000002,-0.007941248,10
5.520010471343994,1.99814248085022,7.656721591949463,-0.016012230888009068,-0.021991149,-0.00580322,10
5.520996570587158,2.0063812732696533,7.659628868103027,-0.016569416970014572,-0.004581489,0.005192355,10
5.5201849937438965,2.0050106048583984,7.658771991729736,-0.015311527997255325,-0.0015271631,0.008857545999999999,10
5.515546798706055,2.0070950984954834,7.659990310668945,-0.012938077561557293,-0.007330383,0.020463986,10
5.508872032165527,2.009115219116211,7.660020351409912,-0.011047074571251871,-0.00061086525,0.016798794,10
5.506932735443115,2.0050618648529053,7.658083438873291,-0.010521059855818748,-0.010690141499999998,0.017104227,10
5.510042667388916,1.99373459815979,7.654488563537598,-0.01181809138506651,-0.004886922,0.016798794,10
5.5049920082092285,1.981767535209656,7.647871971130371,-0.01235588826239109,-0.0030543262,0.002443461,10
5.507624626159668,1.9723055362701416,7.642964363098144,-0.012147574685513972,-0.003970624,0.007330383,10
5.510858058929443,1.9740639925003047,7.636704444885254,-0.01123275514692068,-0.00580322,0.007941248,10
5.510526180267334,1.976196527481079,7.635513782501222,-0.010342003777623177,0.0036651916,0.01740966,10
5.5116238594055185,1.9792742729187007,7.638435363769531,-0.009502064436674118,-0.008552114,0.009162978,10
5.514375686645508,1.982944130897522,7.643420219421388,-0.00815137941390276,-0.0012217305,0.0143553335,10
5.517968654632568,1.987427353858948,7.647139549255371,-0.007997569628059864,0.0012217305,0.013744468,10
5.523904800415039,1.993776559829712,7.65099573135376,-0.008393188938498497,-0.0009162979,0.015271631,10
5.528982639312744,1.996304154396057,7.653279781341553,-0.009115897119045258,0.003970624,0.0125227375,10
5.535267353057861,1.9963719844818115,7.650205612182617,-0.008253311738371849,0.014660766,0.024129177,10
5.543674945831299,1.996779203414917,7.650155544281006,-0.006889075972139835,0.024129177,0.03268129,10
5.543947219848633,1.9923436641693115,7.648783683776855,-0.003433987963944673,0.017715093,0.029321533,10
5.5349459648132315,1.985415816307068,7.63679027557373,3.048713733733166e-05,0.016493361,0.03634648,10
5.518932819366455,1.9798401594161987,7.62871789932251,0.0022160445805639033,0.0067195175,0.025350908,10
5.502116680145264,1.9594252109527588,7.627826690673827,0.0023692739196121693,0.024129177,0.03359759,10
5.4872870445251465,1.9263601303100584,7.635730743408202,0.0028472081758081913,0.022296581,0.022602014,10
5.4772629737854,1.8774574995040891,7.6509742736816415,0.003268323140218854,0.028710667,0.026267206,10
5.467382907867432,1.8383368253707888,7.665253639221191,0.0030935204122215514,0.0143553335,0.0009162979,10
5.460458755493164,1.8215010166168213,7.679078578948975,0.0008726348751224577,-0.004581489,-0.01160644,10
5.4523515701293945,1.835930109024048,7.684520244598389,-0.0006491945241577923,-0.0143553335,-0.031154128,10
5.443861961364746,1.8840605020523071,7.685610294342041,-0.0027482802979648113,-0.028405234,-0.027794369,10
5.442123889923097,1.962607979774475,7.6904869079589835,-0.0035924087278544907,-0.02321288,-0.018020526,10
5.459596633911133,2.056313753128052,7.670955181121826,-0.005820855498313904,-0.022296581,-0.0070249503,10
5.476347923278809,2.1350762844085693,7.652998924255371,-0.00748382182791829,-0.016187929,-0.005192355,10
5.482048511505127,2.182940721511841,7.647387981414795,-0.007095611654222012,-0.015271631,0.0067195175,10
5.481505870819092,2.2039802074432373,7.642101764678955,-0.004149661399424076,-0.010690141499999998,0.036957346,10
5.47884464263916,2.2091405391693115,7.637714862823486,0.0011850198497995734,-0.00030543262000000003,0.044898596,10
5.477509021759033,2.1921954154968257,7.648310661315918,0.006736893206834793,-0.01282817,0.058643065,10
5.480735778808594,2.163204431533813,7.653092384338379,0.009734947234392166,-0.025045475,0.06566802,10
5.482847690582275,2.123178482055664,7.655390739440918,0.009075750596821308,-0.03145956,0.058948494,10
5.488806247711182,2.0753180980682373,7.656802654266357,0.005613371264189482,-0.035430185,0.05009095,10
5.500204086303711,2.015573501586914,7.6606292724609375,0.0013549035647884011,-0.033292156,0.032375857,10
5.518311023712158,1.95047664642334,7.659026145935059,-0.00037071426049806183,-0.02443461,0.012217305,10
5.538759708404541,1.8848997354507449,7.652505874633789,-0.0016100548673421144,-0.0143553335,-0.004886922,10
5.560901641845703,1.8282976150512693,7.644625186920166,-0.0018158907769247892,-0.0076358155,-0.0015271631,10
5.582205295562744,1.7979501485824585,7.634252071380615,-0.0034497829619795084,-0.009468411,-0.006414085,10
5.5881991386413565,1.7970521450042725,7.630237579345702,-0.006897728890180589,-0.009162978,-0.016493361,10
5.585374355316162,1.80501651763916,7.624381065368652,-0.010020839981734751,-0.009162978,-0.011911872,10
5.57322359085083,1.8222205638885496,7.613379955291747,-0.013050781562924385,0.0018325958,-0.01160644,10
5.554585933685303,1.8663190603256223,7.616078853607178,-0.015252950601279737,0.010690141499999998,-0.0030543262,10
5.532289981842041,1.9204015731811523,7.626105308532715,-0.016379933804273602,0.0061086523,0.0067195175,10
5.513738632202148,1.960399150848389,7.63852596282959,-0.015235470607876778,0.017715093,0.02687807,10
5.50355339050293,1.9892194271087649,7.65672492980957,-0.014394138939678669,-0.008857545999999999,0.03573562,10
5.501579284667969,2.0130720138549805,7.670853137969972,-0.01589537411928177,-0.023823744,0.052839845,10
5.508942604064941,2.0428304672241206,7.669125556945801,-0.020303014665842056,-0.038179077,0.038179077,10
5.517601490020752,2.0722520351409908,7.660093784332275,-0.022480467334389687,-0.04795292,0.02443461,10
5.529668807983398,2.094687938690185,7.641619682312013,-0.017501575872302055,-0.040927973,0.010995574,10
5.549665927886963,2.0977013111114498,7.6285462379455575,-0.008141710422933102,-0.030848695,0.015577064,10
5.580004215240479,2.086321353912353,7.617179870605469,-0.0036065718159079547,-0.00030543262000000003,0.016187929,10
5.613341808319092,2.0758960247039795,7.6001219749450675,-0.00734034227207303,0.011911872,0.032986723,10
5.6480140686035165,2.065054178237915,7.581515789031982,-0.015753645449876785,0.02687807,0.03359759,10
5.662938594818115,2.0362706184387207,7.566462993621826,-0.023264288902282715,0.03604105,0.03726278,10
5.65821647644043,1.9989192485809328,7.558534622192383,-0.02568913996219635,0.042455133,0.04153884,10
5.647059917449951,1.9665074348449707,7.571574211120605,-0.024582749232649803,0.05131268,0.027488936,10
5.622870922088623,1.941482186317444,7.5950164794921875,-0.01940171793103218,0.040927973,0.03756821,10
5.591206073760986,1.93022882938385,7.623390197753906,-0.014141468331217766,0.03726278,0.035430185,10
5.560446262359619,1.9293774366378784,7.643107414245605,-0.00977233424782753,0.04917465,0.038789943,10
5.539392471313477,1.9370175600051882,7.654162406921388,-0.009231969714164734,0.060170225999999986,0.03970624,10
5.523536682128906,1.9365278482437132,7.6691575050354,-0.010782111436128616,0.06169739,0.05222898,10
5.519211769104004,1.9325881004333496,7.669645309448242,-0.01252914872020483,0.057421334,0.04795292,10
5.530663013458252,1.930360555648804,7.661365032196045,-0.01323530450463295,0.05925392700000001,0.03940081,10
5.551605224609375,1.932125806808472,7.649313926696777,-0.01333690620958805,0.06536258,0.03634648,10
5.582224845886231,1.9370492696762085,7.642696857452393,-0.012706252746284008,0.10140363,0.047647487,10
5.611319541931152,1.95020055770874,7.6401124000549325,-0.013282708823680878,0.13408493,0.058948494,10
5.625265598297119,1.9546461105346682,7.6342620849609375,-0.011730236001312731,0.15699236,0.081855945,10
5.618544578552246,1.9511849880218504,7.639049053192139,-0.008032557554543018,0.16157386,0.10048734,10
5.598592758178711,1.937036633491516,7.65817928314209,-0.002428986132144928,0.14721853,0.101098195,10
5.5674781799316415,1.919553279876709,7.679165840148926,0.003412202699109912,0.15974127,0.103847094,10
5.527751922607422,1.9079222679138184,7.7072978019714355,0.007867847569286823,0.14019357,0.10170906,10
5.482521057128906,1.892961263656616,7.734335422515869,0.013155519030988216,0.15424347,0.094989546,10
5.438555717468262,1.88888680934906,7.7441444396972665,0.01590908691287041,0.16126843,0.09621128,10
5.39431619644165,1.8906941413879397,7.7674560546875,0.017606418579816818,0.16920967,0.10598512,10
5.350980758666992,1.888781309127808,7.785877227783202,0.0199330672621727,0.1695151,0.10476339,10
5.303808212280273,1.8750113248825075,7.809735774993896,0.023909227922558784,0.17654006,0.11453723,10
5.264833450317383,1.8741186857223509,7.822834491729736,0.028612397611141205,0.17745635,0.12186762,10
5.2260422706604,1.8784306049346924,7.836069583892822,0.03313196077942848,0.118507855,0.12308934,10
5.191689491271973,1.8812412023544312,7.8490118980407715,0.032524008303880685,0.094989546,0.12064589,10
5.159489631652832,1.8843731880187988,7.8633995056152335,0.03183343634009361,0.07941248,0.113926366,10
5.131086826324463,1.8823071718215945,7.880424976348878,0.0312070157378912,0.074830994,0.112399206,10
5.110404968261719,1.8781126737594604,7.887804985046388,0.029524851590394974,0.07513642,0.10445796,10
5.086506366729736,1.875150442123413,7.886396408081055,0.026505554094910618,0.06994407,0.08582657,10
5.064567565917969,1.8742061853408811,7.884156227111816,0.024326600134372708,0.069027774,0.07544186,10
5.045446395874023,1.8767558336257932,7.8863654136657715,0.02205603197216988,0.05467244,0.05955936,10
5.034719944000244,1.8818098306655884,7.892581462860107,0.01976112090051174,0.040317107000000005,0.043066,10
5.027344703674316,1.892925262451172,7.899291515350343,0.015723163262009617,0.034208454,0.016493361,10
5.0191073417663565,1.8972530364990237,7.897337913513184,0.00976232811808586,0.029321533,0.008857545999999999,10
5.014372825622559,1.8951632976531985,7.8896989822387695,0.00424691429361701,0.029626964,0.00030543262000000003,10
5.010449409484863,1.900225281715393,7.888948917388916,0.0005822745151817799,0.024129177,0.0070249503,10
5.007158756256104,1.9002629518508911,7.899596691131593,-0.0019396619172766805,0.010995574,0.0067195175,10
5.0015902519226065,1.8940999507904053,7.926279544830322,-0.004777371883392334,0.0061086523,0.0012217305,10
4.998986721038818,1.8814404010772705,7.948830604553223,-0.005567600950598718,-0.0070249503,-0.002443461,10
5.001014232635498,1.871092438697815,7.961484909057617,-0.006320133339613676,-0.00580322,-0.007330383,10
5.003396511077881,1.8686293363571167,7.973175525665282,-0.008738218806684017,-0.00580322,0.0015271631,10
5.008397102355957,1.8645139932632449,7.980947017669678,-0.012162955477833748,-0.01740966,0.011301007,10
5.016707897186278,1.8594115972518919,7.9847540855407715,-0.014655917882919313,-0.0421497,0.010690141499999998,10
5.019365310668945,1.861214637756348,7.984712600708008,-0.01493388693779707,-0.03359759,0.015882496,10
5.018994331359863,1.8701881170272827,7.986556053161621,-0.013931493274867536,-0.04917465,0.013439035,10
5.020299911499023,1.876197338104248,7.98489236831665,-0.014103110879659653,-0.06261369,0.0125227375,10
5.027976989746094,1.8795890808105469,7.985583305358888,-0.01552198361605406,-0.06047566,0.016187929,10
5.043808937072754,1.878100037574768,7.977823257446289,-0.017545798793435097,-0.03023783,0.015577064,10
5.07169246673584,1.868588924407959,7.953378677368164,-0.01852383278310299,-0.016187929,0.013439035,10
5.099846363067627,1.8528621196746824,7.9289793968200675,-0.01711842603981495,-0.0070249503,0.0030543262,10
5.1326942443847665,1.8431570529937744,7.906666278839111,-0.015812823548913002,-0.0009162979,0.008857545999999999,10
5.161425590515137,1.83736515045166,7.891072273254394,-0.01460426300764084,-0.0021380284,-0.0030543262,10
5.176868915557861,1.8326978683471682,7.887993335723878,-0.01384572684764862,-0.006414085,0.0076358155,10
5.177972316741943,1.8359204530715945,7.888906002044678,-0.01428928691893816,-0.0009162979,0.004581489,10
5.167013645172119,1.8409292697906492,7.901143550872803,-0.015503786504268646,0.014966198,0.0015271631,10
5.155295372009277,1.83892285823822,7.9015846252441415,-0.015297678299248219,0.026267206,0.007941248,10
5.14180850982666,1.8371524810791016,7.902280330657959,-0.01387096382677555,0.033292156,0.0125227375,10
5.1311540603637695,1.8383299112319944,7.909154415130615,-0.012774718925356865,0.034208454,0.006414085,10
5.119531154632568,1.8386768102645876,7.918631553649902,-0.013193566352128984,0.030848695,0.017715093,10
5.109898090362549,1.8379909992218015,7.927103996276855,-0.012809648178517818,0.016187929,0.0125227375,10
5.10047721862793,1.8430182933807373,7.929041862487793,-0.012311008758842943,0.009468411,0.0061086523,10
5.0900492668151855,1.8479950428009035,7.932413578033447,-0.011641896329820156,0.0070249503,0.003970624,10
5.074271202087402,1.8506318330764768,7.929307460784912,-0.010628653690218924,0.012217305,0.006414085,10
5.061381816864014,1.848691701889038,7.932535648345947,-0.008925650268793106,0.0125227375,0.00030543262000000003,10
5.055896759033203,1.845213890075684,7.9341797828674325,-0.010281615890562534,0.006414085,-0.005192355,10
5.058360576629639,1.8448425531387331,7.933278083801269,-0.010885022580623628,-0.005497787,0.00030543262000000003,10
5.060510158538818,1.8502622842788696,7.941071510314941,-0.01153329387307167,-0.007941248,-0.0070249503,10
5.063024997711182,1.854777812957764,7.937132358551025,-0.011851278133690355,-0.003970624,0.009162978,10
5.0641136169433585,1.8621352910995483,7.929227828979492,-0.012046135030686857,0.0036651916,0.010995574,10
5.066237449645996,1.8664796352386477,7.9264817237854,-0.01245214231312275,0.0070249503,0.020463986,10
5.06868839263916,1.8655459880828855,7.92959451675415,-0.012742919847369194,-0.01038471,0.01282817,10
5.072320938110352,1.8602966070175169,7.93167781829834,-0.010731243528425694,0.003970624,0.013133603,10
5.071944713592528,1.8554524183273315,7.936920166015625,-0.011109529994428158,-0.0021380284,0.0143553335,10
5.072856426239014,1.8475416898727417,7.941131114959718,-0.011308860965073109,0.00030543262000000003,0.0030543262,10
5.076251983642578,1.839611887931824,7.939541339874268,-0.010938674211502077,0.005497787,0.002443461,10
5.074687957763672,1.8385884761810305,7.943504810333253,-0.011489949189126492,0.0015271631,0.008857545999999999,10
5.073909282684326,1.83967399597168,7.94627046585083,-0.011293333023786543,0.008552114,0.005497787,10
5.071101665496826,1.841982364654541,7.942319393157959,-0.01101801171898842,0.0027488936,0.0009162979,10
5.066213607788086,1.8416603803634644,7.934906959533691,-0.010731182061135769,0.0027488936,0.01282817,10
5.058747291564941,1.8410873413085935,7.929130554199219,-0.010202905163168907,0.0015271631,0.014049901000000002,10
5.050212383270264,1.8410177230834959,7.928055286407472,-0.009692207910120487,0.0009162979,0.005497787,10
5.047504901885986,1.8404909372329712,7.9360809326171875,-0.009978930465877056,0.009468411,0.0036651916,10
5.049056053161621,1.84037721157074,7.942111492156982,-0.010166414082050323,0.0030543262,0.00580322,10
5.050824165344238,1.8373767137527464,7.9466819763183585,-0.01071679312735796,-0.004886922,0.008246681,10
5.052722930908203,1.8319064378738403,7.944843292236327,-0.009423880837857723,0.0036651916,0.009162978,10
5.0560269355773935,1.8315681219100952,7.944663524627685,-0.009313893504440784,-0.0012217305,0.0018325958,10
5.054502010345459,1.832462310791016,7.944283962249756,-0.009938807226717472,0.0027488936,0.007330383,10
5.053586483001709,1.837735772132873,7.946931838989258,-0.009521236643195152,-0.00030543262000000003,0.0033597588,10
5.053210735321045,1.8436514139175413,7.959198474884032,-0.009205100126564504,-0.004581489,0.007330383,10
5.051802158355713,1.8493717908859253,7.9680824279785165,-0.00915302149951458,0.010995574,0.0067195175,10
5.050836563110352,1.8535799980163572,7.970690250396728,-0.008804679848253727,-0.0018325958,0.008552114,10
5.052511215209961,1.8521219491958616,7.973830223083496,-0.008793218992650509,-0.0036651916,0.0067195175,10
5.050581455230713,1.8453100919723509,7.9806976318359375,-0.00872164685279131,-0.0009162979,0.011911872,10
5.049805641174316,1.8444348573684688,7.984419345855713,-0.007620399817824364,0.0012217305,0.01282817,10
5.050512313842773,1.846047163009644,7.98079252243042,-0.008081335574388504,-0.005497787,0.0036651916,10
5.05563497543335,1.8464276790618896,7.97293758392334,-0.008205244317650795,-0.009468411,0.005497787,10
5.059417247772217,1.854899287223816,7.964886665344237,-0.007368873804807662,-0.0033597588,0.0021380284,10
5.066687107086182,1.859801769256592,7.9597434997558585,-0.00808450486510992,0.008552114,0.01038471,10
5.069480895996094,1.8617874383926392,7.958512783050537,-0.009373081848025322,-0.00061086525,0.004276057,10
5.067957878112793,1.864473342895508,7.955343246459961,-0.009143746457993984,0.00030543262000000003,0.008552114,10
5.0647921562194815,1.8678703308105469,7.950317859649657,-0.009298674762248993,-0.006414085,0.005192355,10
5.064860820770264,1.8698368072509768,7.946104049682617,-0.009292728267610071,-0.0018325958,0.0067195175,10
5.0675578117370605,1.8743821382522583,7.93836498260498,-0.008792967535555363,-0.0009162979,0.011911872,10
5.0666937828063965,1.875581741333008,7.929111003875732,-0.008973762392997742,-0.00061086525,0.011911872,10
5.065864562988281,1.8693256378173828,7.922835826873778,-0.008829115889966488,0.0033597588,0.011911872,10
5.069375038146973,1.860358476638794,7.9209041595458975,-0.009409253485500813,-0.0067195175,0.01038471,10
5.071125984191895,1.8526563644409182,7.920934200286865,-0.010107927955687046,-0.005192355,0.01282817,10
5.0729146003723145,1.8470743894577024,7.917265892028809,-0.011574637144803999,-0.0033597588,-0.0036651916,10
5.076420307159424,1.8432244062423704,7.922579288482666,-0.011634544469416142,-0.0033597588,-0.0012217305,10
5.079739570617676,1.8432366847991943,7.929628372192383,-0.011617234908044338,0.0009162979,0.0021380284,10
5.0847811698913565,1.8453611135482788,7.93472957611084,-0.011582269333302976,0.002443461,0.0021380284,10
5.088855266571045,1.8459439277648928,7.937074184417725,-0.011658159084618092,-0.00061086525,0.0033597588,10
5.088588237762451,1.8490372896194456,7.9331603050231925,-0.010786857455968857,-0.004886922,0.003970624,10
5.082742214202881,1.850067138671875,7.93258810043335,-0.011040168814361095,-0.0012217305,0.004276057,10
5.076693058013916,1.847750663757324,7.92993688583374,-0.010619311593472958,0.01038471,0.008552114,10
5.071516513824463,1.8467555046081543,7.924160480499268,-0.010087205097079277,0.01038471,0.015271631,10
5.067299842834473,1.8457844257354736,7.9263739585876465,-0.00911338534206152,-0.0009162979,0.009773844,10
5.062736511230469,1.8478852510452268,7.926725387573242,-0.009459693916141987,0.005497787,0.00580322,10
5.062774658203125,1.8498164415359497,7.927250862121582,-0.008604072034358978,-0.002443461,0.0009162979,10
5.063912868499756,1.8500362634658811,7.928162097930907,-0.008544251322746277,0.00061086525,0.006414085,10
5.062970161437988,1.8499959707260127,7.9345340728759775,-0.008364621549844742,-0.0012217305,0.004886922,10
5.06382417678833,1.8486086130142207,7.935806751251222,-0.00728259701281786,-0.0027488936,0.002443461,10
5.062596797943115,1.8468122482299805,7.935795307159424,-0.0076641980558633796,-0.003970624,0.0027488936,10
5.060464859008789,1.8374305963516235,7.94342565536499,-0.008575687184929848,-0.002443461,-0.0021380284,10
5.063899040222168,1.833092212677002,7.950546264648437,-0.00854797288775444,-0.004886922,0.0018325958,10
5.065032958984375,1.829211711883545,7.947330951690674,-0.00838247686624527,-0.0033597588,0.00030543262000000003,10
5.0657219886779785,1.8295685052871704,7.948437213897705,-0.007835895754396915,0.003970624,0.0027488936,10
5.074061393737793,1.834028005599976,7.947765827178955,-0.00800978299230337,-0.0021380284,0.00030543262000000003,10
5.080624580383301,1.8361390829086304,7.945170402526855,-0.008152332156896591,0.0027488936,0.004276057,10
5.083425045013428,1.8415645360946653,7.943089008331299,-0.008652782067656517,-0.0027488936,-0.005497787,10
5.08624267578125,1.8474271297454836,7.942853927612305,-0.008329289965331554,-0.006414085,0.005497787,10
5.0917487144470215,1.8451151847839355,7.9421610832214355,-0.007988364435732366,-0.01160644,0.0018325958,10
5.0979084968566895,1.8445919752120967,7.944081783294678,-0.008484995923936367,-0.0070249503,-0.00061086525,10
5.100158214569092,1.8455557823181152,7.947112560272218,-0.009172026067972185,-0.009468411,0.005192355,10
5.09678840637207,1.8512109518051147,7.9526824951171875,-0.009989263489842415,-0.009773844,-0.00061086525,10
5.086456775665283,1.8607499599456787,7.953565120697021,-0.00960037112236023,-0.0012217305,-0.00030543262000000003,10
5.0760273933410645,1.8673053979873655,7.955360412597656,-0.008817990310490131,0.0021380284,0.009468411,10
5.0714149475097665,1.872046947479248,7.963559150695801,-0.008430914022028444,-0.0018325958,0.011911872,10
5.067101001739502,1.8681633472442627,7.96420955657959,-0.00820113718509674,-0.007330383,0.017104227,10
5.065556526184082,1.8591442108154297,7.9566521644592285,-0.008397999219596386,-0.0067195175,0.007330383,10
5.066629409790039,1.852285861968994,7.952097415924072,-0.008872970007359982,-0.005497787,-0.0015271631,10
5.065299034118652,1.8503893613815308,7.951366901397705,-0.008800955489277841,-0.0036651916,-0.004276057,10
5.0647006034851065,1.8471689224243164,7.945416450500487,-0.009506035596132278,-0.004276057,-0.0030543262,10
5.068751811981201,1.8458982706069944,7.947009563446045,-0.009170578792691229,-0.0012217305,-0.00580322,10
5.072970390319824,1.845055341720581,7.9490604400634775,-0.00825225654989481,-0.002443461,0.004886922,10
5.076698780059815,1.8503434658050537,7.944354057312013,-0.008381076157093048,-0.004276057,-0.0009162979,10
5.078914165496826,1.860320806503296,7.9363250732421875,-0.00824608001857996,-0.0076358155,0.00580322,10
5.0797953605651855,1.8667038679122925,7.930443286895753,-0.007922655902802944,-0.0009162979,-0.002443461,10
5.081188201904297,1.8703111410140991,7.924981117248535,-0.007387411780655384,0.00030543262000000003,0.008857545999999999,10
5.084834098815918,1.8692078590393064,7.915266513824463,-0.006978980265557766,0.0067195175,0.00030543262000000003,10
5.083511829376222,1.863223433494568,7.918053150177003,-0.007352073211222888,-0.0018325958,0.0018325958,10
5.079164505004883,1.8602371215820312,7.92414665222168,-0.008436678908765316,-0.00061086525,0.005192355,10
5.076099872589111,1.8599385023117063,7.932892799377441,-0.008923550136387348,-0.002443461,0.0070249503,10
5.0730013847351065,1.8653833866119385,7.937924385070801,-0.008480575866997242,0.005497787,0.006414085,10
5.068249702453613,1.8725054264068604,7.94169282913208,-0.00957833044230938,-0.0015271631,0.007330383,10
5.063331604003906,1.8723514080047607,7.9442315101623535,-0.010055991820991041,-0.004581489,0.015271631,10
5.057248592376709,1.8710594177246092,7.947328090667725,-0.010532462038099766,-0.002443461,0.005192355,10
5.055880069732666,1.874508500099182,7.955131530761719,-0.011112312786281107,-0.007330383,0.010079277,10
5.0610084533691415,1.874947428703308,7.955276012420653,-0.011159103363752363,-0.002443461,0.0030543262,10
5.068812370300293,1.8717099428176882,7.952815055847168,-0.011297287419438362,0.0030543262,0.01038471,10
5.071790218353272,1.866294384002685,7.952349662780763,-0.01243552565574646,-0.004581489,0.010995574,10
5.075221538543701,1.865232825279236,7.949777603149414,-0.011792712844908236,0.0018325958,0.009468411,10
5.078903675079347,1.8627718687057493,7.950844764709473,-0.01196090504527092,0.006414085,0.015271631,10
5.0784406661987305,1.8574236631393437,7.957323551177978,-0.011891488917171957,0.0036651916,0.016798794,10
5.077807903289795,1.850778579711914,7.95604944229126,-0.0114819947630167,0.0033597588,0.011911872,10
5.077957630157472,1.848858118057251,7.957406044006348,-0.011960435658693314,0.005192355,0.008552114,10
5.075092315673828,1.8505702018737795,7.948218822479247,-0.0113198421895504,-0.006414085,0.00030543262000000003,10
5.06898307800293,1.853617787361145,7.938239097595215,-0.010759304277598858,-0.0070249503,0.0030543262,10
5.0633511543273935,1.8591481447219849,7.940676212310791,-0.010488643310964108,0.0018325958,0.0061086523,10
5.058651924133301,1.8649284839630127,7.943603992462157,-0.010777798481285572,0.004581489,0.012217305,10
5.062986850738525,1.8712704181671145,7.945569038391112,-0.011280111968517305,0.0030543262,0.0070249503,10
5.064236640930176,1.8681541681289675,7.947506427764893,-0.01051221415400505,-0.0018325958,0.016187929,10
5.063090324401856,1.8594422340393064,7.938769340515138,-0.00987830851227045,-0.003970624,0.004886922,10
5.057487487792969,1.8505475521087649,7.927320957183838,-0.010485204868018629,-0.0015271631,0.01160644,10
5.055909633636475,1.8440145254135127,7.926869869232178,-0.01110175345093012,-0.012217305,0.00061086525,10
5.054791927337647,1.839885950088501,7.931174278259277,-0.010859563015401363,-0.00580322,0.0061086523,10
5.055452346801758,1.8416320085525515,7.934398174285889,-0.01166326180100441,0.0030543262,0.0009162979,10
5.057619571685791,1.8469994068145752,7.935121059417725,-0.011478657834231852,0.0015271631,0.0033597588,10
5.056961536407472,1.8454720973968504,7.930862903594972,-0.011204796843230723,0.0009162979,0.008857545999999999,10
5.055319786071777,1.846769094467163,7.9308929443359375,-0.011164865456521513,-0.007941248,0.0067195175,10
5.055737018585205,1.8475989103317259,7.936970233917236,-0.01070689968764782,-0.005497787,0.016187929,10
5.0510592460632315,1.8400824069976809,7.946946620941162,-0.010291002690792084,0.0009162979,0.008552114,10
5.052541732788086,1.8399305343627932,7.947536945343018,-0.00955477263778448,0.0018325958,0.007330383,10
5.059360980987549,1.836682677268982,7.945692539215088,-0.008373609744012356,0.0061086523,0.007941248,10
5.059103965759277,1.8342459201812744,7.950944900512695,-0.008493699133396149,-0.0030543262,0.0018325958,10
5.056617259979248,1.8344523906707764,7.953582286834718,-0.00889718346297741,-0.0033597588,0.0009162979,10
5.052870750427246,1.8369625806808472,7.960621833801269,-0.009254846721887587,0.0070249503,0.005192355,10
5.0474514961242685,1.8384939432144165,7.967002868652344,-0.008546685799956322,-0.0036651916,0.010079277,10
