acc_x,acc_y,acc_z,gyro_x,gyro_y,gyro_z,label
0.0,0.0,0.0,0.0,-0.036651913,-0.03604105,1
0.04019508138298988,0.2838130295276642,0.011619137600064278,0.0008948988979682326,-0.056199603,-0.040317107000000005,1
0.13644850254058838,0.95988667011261,0.039722401648759835,0.0026026370469480753,-0.046120327,-0.026267206,1
0.2702755928039551,1.894498944282532,0.0792178139090538,0.0037901541218161587,-0.039095376,-0.028099801,1
0.4209499061107636,2.939845323562622,0.124228373169899,0.0031299625989049677,-0.036651913,-0.026267206,1
0.5716202259063721,3.977222442626953,0.16986088454723358,0.0012338177766650915,-0.032375857,-0.0061086523,1
0.7115746736526489,4.932194232940674,0.21292471885681152,-0.00414709933102131,-0.01985312,0.0009162979,1
0.8361150622367859,5.768755435943604,0.2510342597961426,-0.011887127533555029,-0.018020526,0.015577064,1
0.9464042782783508,6.474778652191162,0.27979403734207153,-0.021218879148364067,-0.009468411,0.025350908,1
1.0431268215179443,7.056746959686278,0.29944154620170593,-0.028945589438080788,0.008552114,0.043066,1
1.12755286693573,7.528635501861572,0.3111836314201355,-0.03536078333854675,0.014966198,0.052534413,1
1.2012348175048828,7.9065842628479,0.31635430455207825,-0.038950759917497635,0.0018325958,0.05222898,1
1.2659809589385986,8.205885887145996,0.3159819841384888,-0.03811904042959213,0.0143553335,0.027794369,1
1.3231449127197266,8.440690994262695,0.3112413585186005,-0.035166852176189416,0.022602014,0.03145956,1
1.374091386795044,8.622864723205566,0.30295732617378235,-0.02614651620388031,0.044898596,0.011301007,1
1.4200152158737185,8.762273788452147,0.29177382588386536,-0.01079781074076891,0.036957346,-0.0015271631,1
1.4618698358535769,8.867107391357422,0.2782517373561859,0.00030768098076805467,-0.009162978,-0.01038471,1
1.4987132549285889,8.947381973266602,0.2637975215911865,-0.0009726263815537096,-0.023823744,0.013133603,1
1.5230773687362669,9.024178504943848,0.2532513737678528,-0.014506375417113302,-0.06719518,0.0125227375,1
1.5362651348114014,9.10037326812744,0.24646806716918945,-0.025728467851877213,-0.09987647,-0.007941248,1
1.540473699569702,9.176064491271973,0.2427085489034653,-0.026823991909623143,-0.13530666,-0.051618114000000014,1
1.5374819040298462,9.251310348510742,0.24137499928474426,-0.022562485188245773,-0.19028452,-0.07391469,1
1.528555154800415,9.32653522491455,0.2420303821563721,-0.022625552490353584,-0.18753563,-0.07788532,1
1.515136957168579,9.401113510131836,0.24421051144599915,-0.022231198847293854,-0.16340645,-0.063224554,1
1.4979701042175293,9.475489616394043,0.24765267968177795,-0.01819088496267796,-0.14202617,-0.054367006,1
1.4777860641479492,9.54971694946289,0.2521103322505951,-0.013792338781058788,-0.12339478,-0.07941248,1
1.4551481008529663,9.623891830444336,0.25739163160324097,-0.009418017230927944,-0.122783914,-0.10629055,1
1.4312885999679563,9.694961547851562,0.26310744881629944,-0.0044494387693703175,-0.14874569,-0.13347405,1
1.4100542068481443,9.74787712097168,0.2680600583553314,0.003206789260730148,-0.18478674,-0.16279559,1
1.3914794921875,9.783742904663086,0.27222803235054016,0.014898261986672878,-0.18325958,-0.17440203,1
1.375066161155701,9.806023597717283,0.275762677192688,0.029863646253943443,-0.16279559,-0.17562376,1
1.360374927520752,9.817328453063963,0.278790295124054,0.043532341718673706,-0.15149458,-0.15882497,1
1.3470422029495241,9.819707870483398,0.2814137935638428,0.052454058080911636,-0.14813483,-0.129198,1
1.3348431587219238,9.815105438232422,0.28370729088783264,0.05780811607837678,-0.1282817,-0.13255776,1
1.3235489130020142,9.804866790771484,0.2857365012168884,0.05889387056231499,-0.09865474,-0.122783914,1
1.3129700422286987,9.790051460266113,0.2875548601150513,0.05747401714324951,-0.084910266,-0.10873401,1
1.3029619455337524,9.771541595458984,0.2892042696475983,0.05533674731850624,-0.109650314,-0.08643743400000001,1
1.2899048328399658,9.753893852233887,0.2897576689720154,0.05255497992038727,-0.13164146,-0.07727446,1
1.254170536994934,9.75869369506836,0.28391605615615845,0.04932910948991776,-0.121256754,-0.08307768,1
1.1970161199569702,9.784971237182617,0.2720640301704407,0.05090099200606346,-0.121256754,-0.11911872,1
1.1169040203094482,9.833032608032227,0.25393661856651306,0.05367954820394516,-0.24190263,-0.22693644,1
1.007584810256958,9.907075881958008,0.2280590385198593,0.04960047826170921,-0.18784106,-0.27763826,1
0.8921371698379517,9.98833179473877,0.20031793415546414,0.051152203232049935,-0.13133603,-0.26511553,1
0.7710716724395752,10.075927734375,0.1709049642086029,0.05458024516701698,-0.050396383,-0.17073683,1
0.6454544067382812,10.16864776611328,0.14013923704624176,0.06545692682266235,0.05955936,-0.046731193,1
0.5159641504287721,10.265655517578123,0.1082322672009468,0.07729975879192352,-0.040317107000000005,-0.018020526,1
0.3851493000984192,10.363607406616213,0.07553255558013916,0.07616634666919707,-0.13561209,-0.13836098,1
0.2871285676956177,10.411402702331543,0.04348485544323921,0.09728147089481354,-0.10995574,-0.3304781,1
0.2288486212491989,10.398652076721193,0.012438064441084862,0.12752339243888855,-0.023518313,-0.4633413,1
0.2022435963153839,10.337886810302734,-0.01774049922823906,0.15230970084667206,0.027183503,-0.47891834,1
0.2012065351009369,10.238240242004396,-0.04725388437509537,0.1879020631313324,0.01740966,-0.44012842,1
0.22120846807956696,10.106109619140623,-0.07636282593011856,0.2472846359014511,-0.014660766,-0.56077427,1
0.257110208272934,9.95038604736328,-0.10488758236169816,0.2981152832508087,0.014966198,-0.7651087,0
0.3062752485275269,9.77448272705078,-0.1330704689025879,0.28715872764587397,0.06688975,-0.7476991,0
0.3661125898361206,9.58232307434082,-0.16098348796367645,0.18476836383342746,0.18051068,-0.4343252,0
0.43451273441314703,9.377130508422852,-0.1886771321296692,0.056196082383394234,0.14599679999999998,-0.19975294,0
0.5042434334754944,9.16802215576172,-0.21809716522693634,0.03174467757344246,0.2779437,-0.2742785,0
0.4788533449172974,9.16784381866455,-0.2057044506072998,0.01906783133745193,0.6020076999999999,-0.43127087,0
0.5298780202865601,9.20512580871582,0.10701381415128708,-0.03680156171321869,0.08246681,-0.5656611999999999,0
0.7475289702415466,9.141904830932617,0.3963051438331604,-0.11453387141227722,-0.23487769,-0.71593404,0
1.1308971643447876,9.193864822387695,0.6163702011108398,-0.14993418753147125,0.029321533,-0.6768387,0
1.2275625467300415,9.360105514526367,0.7858073115348816,-0.14815382659435272,-0.06658431,-0.66553766,0
1.0759079456329346,9.357172012329102,0.9423427581787108,-0.16304153203964233,-0.07574729,-0.6759224,0
1.3261971473693848,9.165325164794922,1.2468340396881104,-0.1985616683959961,-0.3005457,-0.4783075,0
1.7616004943847656,8.887666702270508,1.6269755363464355,-0.2059895545244217,0.39736784,-0.18020524,0
1.829922556877136,8.526238441467285,1.94720196723938,-0.2487945705652237,0.5158757,-0.18081611,0
1.68205988407135,8.155739784240723,2.251004219055176,-0.3073655962944031,0.37995818,-0.27366763,0
1.6098766326904297,7.9435462951660165,2.224194288253784,-0.34140366315841675,0.7128797,-0.29382620000000004,0
1.6448365449905396,7.891494750976562,2.326300621032715,-0.32027220726013184,0.7641924,-0.4569272,0
1.8625638484954836,7.958176136016847,3.0066466331481934,-0.2704509496688843,0.5271766999999999,-0.68661255,0
1.9709360599517824,8.221982955932617,3.3637359142303467,-0.17499825358390808,0.41996986,-0.75777835,0
1.927131175994873,8.557089805603027,3.5306305885314937,-0.02048452012240887,0.46822822,-0.92179567,0
1.9025850296020508,8.939370155334473,3.751694917678833,0.17056307196617124,0.49174652,-1.181108,0
1.918335199356079,9.320708274841307,3.9785118103027344,0.3685685098171234,0.3717115,-1.4712689,0
2.0417499542236333,9.62660026550293,4.1542086601257315,0.5859655141830444,0.3145956,-1.6557503,0
2.136359453201294,9.754768371582033,4.319108486175537,0.832321047782898,0.17440203,-1.8219056,0
2.0963420867919917,9.79040241241455,4.290631771087647,1.0878002643585205,0.18448131,-2.014939,0
2.001840114593506,9.636480331420898,4.1505699157714835,1.3888221979141235,0.31337386,-2.2883012000000003,0
1.846896052360535,9.272828102111816,3.816945791244507,1.7848103046417236,0.2742785,-2.47095,0
1.5215007066726685,8.644828796386719,3.311150074005127,2.25091552734375,0.101098195,-2.3261747,0
0.7550018429756165,7.885999202728271,2.4431943893432617,2.742274045944214,-0.15577064,-2.1077905,0
-0.4059204161167145,7.000779151916504,1.2723549604415894,3.28710412979126,0.8573494,-1.4669929,0
-2.504185438156128,5.506251811981201,-0.2317574620246887,3.7625248432159424,2.3109033,-0.7669413,0
-4.934937477111816,3.362999439239502,-1.696489930152893,3.9643175601959233,3.8035524,-0.29077184,0
-6.47482442855835,1.4763816595077517,-3.2561309337615967,3.5110559463500977,5.2241197,1.9184223,0
-7.406150817871094,0.18067003786563876,-4.516524791717528,2.6348679065704346,6.697832000000001,4.0610323,0
-8.406600952148438,0.5964966416358948,-5.273592472076416,1.922842502593994,5.8789672999999985,3.5023959,0
-8.125410079956055,2.663823366165161,-5.0359392166137695,1.5951029062271118,-0.5314528000000001,2.271197,0
-5.835758686065674,3.8242495059967037,-5.824522018432617,1.625399827957153,-2.7409523,1.5378532,0
-2.845775604248047,3.595009088516236,-7.013388156890869,1.2794637680053709,2.1380284,-0.5216789000000001,0
-0.4798895716667175,3.3819499015808105,-8.09837532043457,0.9366050958633424,-0.9239337,-2.399784,0
0.5439265370368958,3.301957607269287,-8.799294471740723,1.136271595954895,-1.8460348,-2.2763894,0
0.0709770917892456,2.7764265537261963,-8.80881404876709,1.2366390228271484,-3.244,-0.98349303,0
-1.4612599611282349,2.513765573501587,-8.604490280151367,1.0686464309692385,-1.8671097,0.42577308,0
-3.9582123756408687,2.6839804649353027,-9.398326873779297,0.6532040238380432,-0.41416663,-1.0042624,0
-4.7393975257873535,3.0146243572235107,-10.67276382446289,0.7882119417190552,-2.1740694,-1.3371841,0
-4.388173580169679,2.7190773487091064,-11.344000816345215,0.8881601095199585,-3.1410692000000004,-1.5198327,0
-4.199045181274413,2.371429443359375,-12.018157958984375,0.6672002077102661,-1.5464053,-2.1242838,0
-3.3334269523620605,2.731572389602661,-12.417908668518065,0.5557822585105896,-2.2284365000000004,-1.91323,0
-2.4402313232421875,3.1801972389221187,-12.287713050842285,0.5784497857093811,-2.7461448,-2.1704042,0
-2.349170684814453,3.152052164077759,-11.706329345703125,0.7106846570968628,-2.764776,-2.384207,0
-3.0756750106811523,2.8803408145904537,-11.10154628753662,0.8004939556121826,-1.9333885,-2.5482244,0
-4.307945728302002,2.6180579662323,-11.34512424468994,0.9056745171546936,-2.3359487,-2.823419,0
-5.579738140106201,2.452789068222046,-11.668502807617188,1.0716392993927002,-2.5066855,-2.7907379,0
-6.5235700607299805,2.1558520793914795,-11.342753410339355,1.0983068943023682,-2.1789563,-2.5411994,0
-7.161576271057129,1.846979141235352,-10.765617370605467,1.0605785846710205,-1.7568485,-2.122146,0
-7.602692604064941,2.0475077629089355,-9.851495742797852,1.01947283744812,-1.3729197,-0.8915578000000002,0
-8.04893970489502,2.5444228649139404,-8.721953392028809,0.8992023468017578,-0.85062987,-0.06597344599999999,0
-7.919276714324951,2.2983815670013428,-7.811994075775146,0.8116273283958435,-0.6038403,-0.15393804,0
-7.521699905395508,1.5162413120269775,-7.11475944519043,0.7601985335350037,-0.7107416999999999,0.003970624,0
-7.125522136688232,0.6870039701461792,-6.4458250999450675,0.6906868815422058,-0.6973026999999999,0.42638394,0
-6.85907793045044,-0.1694580614566803,-5.818281173706055,0.5704964399337769,-0.6600399,0.5207626000000001,0
-6.786001682281494,-0.934772253036499,-5.558646202087402,0.4593064188957214,-0.55680364,0.5045747,0
-7.050343990325928,-1.2694296836853027,-5.640780448913574,0.39220130443573,-0.11636983,0.3454443,0
-7.776121616363525,-1.2051498889923096,-5.732733726501465,0.31286653876304626,-0.006414085,0.37293324,0
-8.686188697814941,-1.042200207710266,-5.665207862854004,0.2405982911586761,0.03848451,0.5983425,0
-9.404218673706056,-1.0332566499710083,-5.716902256011963,0.20818395912647247,0.12980886,0.68325275,0
-9.737074851989746,-0.9044505953788756,-5.779369354248048,0.2352767437696457,0.08307768,0.4801401,0
-9.71176528930664,-0.6954564452171326,-5.651778697967528,0.20514073967933652,0.083383106,0.267559,0
-9.609553337097168,-0.4534026682376862,-5.606081485748291,0.17415539920330048,0.34605515,-0.16646078,0
-9.527247428894043,-0.1056014820933342,-5.5608344078063965,0.14333130419254306,0.40530908,-0.4034765,0
-9.3638334274292,0.11035574972629547,-5.459733963012695,0.10459800809621812,0.4092797,-0.30024028,0
-9.160396575927734,0.15760815143585205,-5.3554511070251465,0.07428958266973495,0.47311515,0.061391957,0
-8.9829683303833,0.2162538468837738,-5.433877468109131,0.018107611685991287,0.7095199999999999,0.22571471,0
-8.861150741577148,0.4008749723434448,-5.535375595092773,-0.03735453635454178,0.7641924,0.21044308,0
-8.748690605163574,0.7187731266021729,-5.612229347229004,-0.08741244673728943,0.8588764999999999,0.24251351,0
-8.519426345825195,1.0566368103027344,-5.651578903198242,-0.14463447034358978,0.79534656,0.28283059999999993,0
-8.204624176025389,1.4436295032501218,-5.754190921783447,-0.18896618485450745,0.7883216,0.2910773,0
-7.91200590133667,1.8764126300811768,-5.985722064971924,-0.1867211163043976,0.7330383,0.15149458,0
-7.699301242828369,2.2525792121887207,-6.2252583503723145,-0.1490207016468048,0.5726861999999999,-0.089186326,0
-7.46348762512207,2.482728719711304,-6.319853782653809,-0.13233859837055206,0.37110063,-0.15363261,0
-7.1195616722106925,2.4087047576904297,-6.343612194061278,-0.11400702595710754,0.26145032,-0.058948494,0
-6.770322799682617,2.12194299697876,-6.427917003631593,-0.0819794312119484,0.21380283,0.062308256,0
-6.539107799530028,1.8559058904647827,-6.569212436676025,-0.06576547026634216,0.23304509,0.15057829,0
-6.441020965576173,1.6732392311096191,-6.7348976135253915,-0.0584767609834671,0.34025195,0.19883664,0
-6.393237113952638,1.531104326248169,-6.817628383636475,-0.041458599269390106,0.19058995,0.18295415,0
-6.386878967285156,1.3990100622177124,-6.9233765602111825,-0.019418304786086082,0.07941248,0.11789699,0
-6.33054256439209,1.3001019954681396,-7.0601444244384775,-0.02063973993062973,-0.028405234,0.03970624,0
-6.250584125518799,1.2582910060882568,-7.175845146179199,-0.02083820104598999,-0.22082779,-0.073303826,0
-6.200941562652588,1.2401326894760132,-7.221426010131836,-0.01122728642076254,-0.32834008,-0.14263703,0
-6.200200080871582,1.1861692667007446,-7.198150157928468,-0.009239901788532734,-0.3378085,-0.15210545,0
-6.2518744468688965,1.1051558256149292,-7.142224311828612,-0.013444346375763416,-0.30604348,-0.103847094,0
-6.345208168029785,1.0390462875366209,-7.082619667053223,-0.013907472603023052,-0.28863382,-0.07360926,0
-6.464723587036133,1.011794924736023,-7.025383949279785,-0.007439288776367903,-0.29016098,-0.049480084,0
-6.630162715911865,1.0333540439605713,-6.968100070953369,-0.0018177985912188888,-0.28221974,-0.023823744,0
-6.820670127868652,1.098626971244812,-6.89789342880249,-0.0014809133717790244,-0.26542094,-0.0018325958,0
-6.9932804107666025,1.1709222793579102,-6.822460651397705,-0.004057930316776036,-0.2049453,0.031154128,0
-7.126396179199219,1.254328966140747,-6.762265682220459,0.0009662769152782855,-0.13988814,0.04062254,0
-7.251535892486572,1.3092070817947388,-6.706878662109375,0.012630428187549114,-0.13500121,0.03573562,0
-7.390542507171631,1.3281031847000122,-6.6624064445495605,0.02349522709846497,-0.12461651,0.030848695,0
-7.525310516357423,1.319360852241516,-6.654975891113281,0.02853311598300934,-0.070554934,0.056199603,0
-7.665602207183838,1.3049173355102541,-6.6826438903808585,0.025589050725102425,-0.038789943,0.09896017,0
-7.779643058776855,1.3100051879882812,-6.691605091094972,0.01838170737028122,-0.019547688,0.1337795,0
-7.699934482574463,1.3184734582901,-6.590057849884032,0.010035433806478977,-0.11484267,0.1001819,0
-7.40422248840332,1.317413091659546,-6.417325019836426,0.0041009378619492045,-0.04917465,0.034208454,0
-7.130314350128174,1.2879964113235474,-6.267830848693848,-0.003572658635675907,0.021991149,-0.13775012,0
-7.079085350036621,1.222160577774048,-6.228960514068604,0.004396788775920868,0.10720685,-0.2501493,0
-7.223569393157959,1.1591217517852783,-6.302260875701903,0.023976178839802745,0.17470746,-0.1863139,0
-7.47274923324585,1.131763935089111,-6.432003974914551,0.032768260687589645,0.1133155,0.005497787,0
-7.67799711227417,1.144619345664978,-6.536797523498535,0.017804713919758797,0.076358154,0.09560041,0
-7.718464851379394,1.1618736982345579,-6.572378635406494,-0.006528202444314957,0.10720685,0.07360926,0
-7.624026298522949,1.161119818687439,-6.560337543487549,-0.01543198339641094,0.1685988,0.020463986,10
-7.467085838317871,1.141059398651123,-6.54076623916626,-0.00759202241897583,0.17165314,0.009162978,10
-7.314493179321289,1.1133110523223877,-6.546116828918457,0.008874584920704365,0.16310102,0.010079277,10
-7.226236343383789,1.072885036468506,-6.593355178833008,0.02190116606652737,0.17379116,0.01038471,10
-7.20878267288208,1.0084336996078491,-6.6713504791259775,0.026680469512939453,0.13408493,0.008246681,10
-7.21445894241333,0.9360234141349792,-6.748230934143066,0.020673267543315887,0.06872234,0.049785517,10
-7.184877395629883,0.8916869759559631,-6.807445049285889,0.0010529038263484836,0.028405234,0.064446285,10
-7.136820793151856,0.9220396876335144,-6.8314476013183585,-0.018157543614506718,0.005497787,0.035124752999999995,10
-7.069022178649902,1.0158361196517944,-6.812811851501465,-0.02796523831784725,-0.009162978,-0.016187929,10
-7.002943992614746,1.0935957431793213,-6.776018142700195,-0.028907522559165955,-0.007941248,-0.03940081,10
-6.971119403839111,1.1193149089813232,-6.759127616882324,-0.025569209828972816,-0.016493361,-0.07147124,10
-6.995281219482423,1.0985015630722046,-6.77342700958252,-0.020069792866706848,-0.005497787,-0.044593163,10
-7.043372631072997,1.0688296556472778,-6.799748420715332,-0.01577138900756836,-0.039095376,-0.026267206,10
-7.076591968536378,1.0618206262588499,-6.831602096557617,-0.016577748581767082,-0.052534413,0.02076942,10
-7.084024429321289,1.0903767347335815,-6.830533504486084,-0.019882526248693463,-0.0693332,0.025350908,10
-7.097177505493164,1.132644534111023,-6.796736240386963,-0.021418938413262367,-0.086132,0.008552114,10
-7.1262030601501465,1.1461266279220579,-6.756202697753906,-0.021541476249694824,-0.0571159,-0.005192355,10
-7.161262512207031,1.1278504133224487,-6.7288455963134775,-0.017543703317642212,-0.013744468,0.004581489,10
-7.206881046295166,1.10188627243042,-6.711362838745117,-0.009140805341303349,0.004276057,0.028099801,10
-7.2464537620544425,1.0765644311904907,-6.702036380767822,-0.0012834534281864762,-0.010079277,0.040317107000000005,10
-7.276357650756836,1.053853988647461,-6.698461055755615,0.0008357397164218128,-0.020463986,0.029932396,10
-7.283885955810548,1.03651225566864,-6.705994606018066,-0.004736829549074173,0.0036651916,0.040317107000000005,10
-7.270678520202638,1.024902105331421,-6.723072528839111,-0.009982363320887087,0.018936822,0.03023783,10
-7.257336139678955,1.0227106809616089,-6.73177433013916,-0.008694611489772797,0.00580322,0.021685716,10
-7.239941596984862,1.0066523551940918,-6.7383012771606445,-0.007051883265376091,-0.00061086525,0.009773844,10
-7.230624675750732,0.9857980012893676,-6.757933139801025,-0.01220019906759262,-0.005497787,0.013133603,10
-7.238180637359619,0.97154700756073,-6.763619899749756,-0.01823468878865242,-0.013744468,0.005497787,10
-7.257713317871094,0.973597764968872,-6.75388240814209,-0.022011905908584598,0.0033597588,0.019547688,10
-7.280623435974121,0.9921368360519408,-6.735583305358888,-0.024451741948723796,0.015577064,0.020158553,10
-7.301930427551269,1.016696214675903,-6.7212281227111825,-0.025625359266996384,0.04184427,0.029932396,10
-7.322257995605469,1.0441758632659912,-6.710261821746826,-0.02654801309108734,0.044593163,0.029626964,10
-7.338386535644531,1.0748589038848877,-6.707400798797607,-0.025059886276721958,0.054367006,0.026267206,10
-7.327535629272461,1.0920007228851318,-6.7085609436035165,-0.02330188453197479,0.04917465,0.03268129,10
-7.298269748687744,1.0940364599227903,-6.722307205200195,-0.02366005815565586,0.046120327,0.026267206,10
-7.26691722869873,1.0847506523132324,-6.741028308868407,-0.02386275120079517,0.021380283,0.01038471,10
-7.234128475189209,1.072790026664734,-6.751708984375,-0.023279067128896717,0.018325957,0.004886922,10
-7.198456287384032,1.0602601766586304,-6.75582218170166,-0.025160379707813263,0.03145956,0.004581489,10
-7.1782941818237305,1.0523141622543335,-6.760520458221436,-0.028335707262158394,0.00580322,-0.004886922,10
-7.172565937042236,1.0449771881103516,-6.77006721496582,-0.02856042981147766,-0.0015271631,-0.003970624,10
-7.173665046691895,1.04159414768219,-6.775937557220459,-0.03006303682923317,-0.01863139,-0.0125227375,10
-7.17978572845459,1.0495784282684326,-6.774437427520753,-0.03209858760237694,-0.010079277,-0.0070249503,10
-7.18434476852417,1.0563589334487915,-6.769523143768311,-0.03343403339385986,0.00061086525,0.008857545999999999,10
-7.1881957054138175,1.0685319900512695,-6.769627094268799,-0.032046034932136536,0.0036651916,0.018325957,10
-7.20396614074707,1.0846545696258545,-6.76872444152832,-0.02808315120637417,-0.007330383,0.0033597588,10
-7.213988780975343,1.0817233324050903,-6.7585859298706055,-0.025670126080512997,-0.011301007,0.007941248,10
-7.217696189880371,1.0613508224487305,-6.740223407745361,-0.025980757549405098,-0.010995574,0.015882496,10
-7.215641498565674,1.0559998750686646,-6.733022689819336,-0.025950048118829727,0.011301007,0.019547688,10
-7.216609477996826,1.0585261583328247,-6.73554277420044,-0.02376684732735157,0.02076942,0.0143553335,10
-7.225058555603027,1.0573865175247192,-6.735968589782715,-0.02126142755150795,0.004581489,0.015577064,10
-7.235924243927003,1.0511466264724731,-6.73380184173584,-0.0209772139787674,-0.007941248,0.018020526,10
-7.245527267456055,1.040629744529724,-6.738961696624756,-0.0215146578848362,0.0018325958,0.0036651916,10
-7.247941970825195,1.0217325687408447,-6.750900745391847,-0.021884381771087646,0.007941248,0.0012217305,10
-7.245253086090088,1.0083123445510864,-6.7490177154541025,-0.02395813353359699,0.0012217305,0.008857545999999999,10
-7.239694595336914,1.00175678730011,-6.75049352645874,-0.02623245678842068,0.0027488936,0.027794369,10
-7.237633228302003,1.005583643913269,-6.753025531768799,-0.026734497398138046,0.012217305,0.020158553,10
-7.2416486740112305,1.0165451765060425,-6.756746292114258,-0.026672568172216412,0.015577064,0.022602014,10
-7.237228870391847,1.034678339958191,-6.752009391784668,-0.02861383557319641,0.009162978,0.01160644,10
-7.2272047996521,1.0437626838684082,-6.742101192474365,-0.02923568151891232,-0.008246681,0.00580322,10
-7.214573860168457,1.0386908054351809,-6.7344818115234375,-0.0300009660422802,-0.0036651916,0.0036651916,10
-7.208964824676514,1.0290238857269287,-6.7325544357299805,-0.0296972431242466,0.007330383,0.0036651916,10
-7.1996212005615225,1.0255062580108645,-6.738064765930176,-0.02755214460194111,0.024740042,0.015882496,10
-7.206804275512695,1.0292143821716309,-6.739393711090088,-0.02513677254319191,0.026572637000000003,0.014049901000000002,10
-7.22145938873291,1.0284689664840698,-6.7370848655700675,-0.024522006511688232,0.004581489,0.02076942,10
-7.225948810577393,1.0327666997909546,-6.738955020904541,-0.023552050814032555,-0.0076358155,0.01160644,10
-7.215296745300293,1.0330288410186768,-6.748810291290282,-0.02495467290282249,0.002443461,0.010690141499999998,10
-7.201473712921143,1.0319663286209106,-6.750061511993407,-0.026954660192132,0.01985312,0.019547688,10
-7.199997425079347,1.0317426919937134,-6.757228374481201,-0.026656391099095345,0.0067195175,0.01160644,10
-7.209556579589844,1.030827522277832,-6.76224946975708,-0.025295045226812363,0.0015271631,0.009162978,10
-7.224532127380371,1.0326005220413208,-6.7670416831970215,-0.027240119874477383,0.009773844,0.0030543262,10
-7.2371039390563965,1.035008668899536,-6.770559787750244,-0.02966044098138809,0.0009162979,0.009162978,10
-7.236340522766112,1.027654767036438,-6.7743754386901855,-0.029036778956651688,0.00030543262000000003,0.0067195175,10
-7.223512172698975,1.0146443843841553,-6.773891925811768,-0.029778063297271732,-0.00061086525,0.009468411,10
-7.215121746063232,1.007562518119812,-6.773690700531006,-0.030489904806017883,-0.004581489,0.0067195175,10
-7.2134456634521475,1.014461874961853,-6.7743186950683585,-0.02968948893249035,0.0033597588,0.016493361,10
-7.217251777648926,1.0159859657287598,-6.7815308570861825,-0.0294384453445673,0.010079277,0.016493361,10
-7.224263191223144,1.0149354934692385,-6.7749128341674805,-0.03097833879292012,-0.003970624,0.01740966,10
-7.233356475830077,1.0171716213226318,-6.7658939361572275,-0.03179996460676193,0.010995574,0.013744468,10
-7.234230041503906,1.0225729942321775,-6.7681732177734375,-0.031904492527246475,0.0143553335,0.016493361,10
-7.2281389236450195,1.0274418592453003,-6.7724857330322275,-0.03113079816102982,0.019242255,0.020463986,10
-7.220705509185791,1.023340106010437,-6.774935722351074,-0.03062701784074306,0.016798794,0.014660766,10
-7.222018241882324,1.0189800262451172,-6.773557186126709,-0.029370686039328575,0.022296581,0.014660766,10
-7.225800037384032,1.0140345096588137,-6.766773223876952,-0.028716372326016426,-0.003970624,0.0012217305,10
-7.221347332000732,1.0095208883285522,-6.766125202178955,-0.0307148564606905,0.00061086525,0.011911872,10
-7.20560884475708,1.0088950395584106,-6.773953437805176,-0.03261518105864525,0.013744468,0.01038471,10
-7.192772388458253,1.009349346160889,-6.778980731964111,-0.03253746032714844,0.019547688,0.01282817,10
-7.192805767059326,1.0148521661758425,-6.776131629943848,-0.030765417963266376,0.013133603,0.0009162979,10
-7.20790433883667,1.0223568677902222,-6.771132946014403,-0.0287814699113369,0.0012217305,0.011301007,10
-7.220456123352051,1.021509885787964,-6.771158695220947,-0.029353613033890724,0.01740966,0.018936822,10
-7.219418048858643,1.0149701833724976,-6.774060249328612,-0.030033448711037636,0.017104227,0.025350908,10
-7.215842247009277,1.0176326036453247,-6.7769269943237305,-0.031809885054826736,0.023518313,0.035124752999999995,10
-7.216156482696532,1.021398901939392,-6.775278568267822,-0.03104602731764317,0.018020526,0.027183503,10
-7.2133851051330575,1.0154415369033811,-6.773733615875244,-0.029920781031250957,0.03023783,0.034208454,10
-7.207108974456787,1.0118355751037598,-6.781910419464111,-0.029409147799015045,0.021685716,0.027183503,10
-7.197597026824951,1.0134091377258299,-6.788939476013184,-0.02868261188268661,0.017104227,0.023823744,10
-7.196577548980713,1.0080522298812866,-6.794011116027832,-0.02630341611802578,0.01160644,0.017104227,10
-7.204421043395996,0.9971240758895874,-6.793213367462157,-0.024953192099928856,0.00030543262000000003,0.021991149,10
-7.207843780517577,0.9858646988868712,-6.783337593078612,-0.027060708031058308,0.00030543262000000003,0.017715093,10
-7.203978061676025,0.9825236201286316,-6.77814245223999,-0.030479958280920982,0.014966198,0.02321288,10
-7.202358722686768,0.9794813394546508,-6.775742053985597,-0.030932601541280743,0.026267206,0.018936822,10
-7.2068562507629395,0.9904355406761168,-6.783089637756348,-0.030756331980228424,0.013744468,0.01740966,10
-7.212940692901611,1.0149893760681152,-6.784790515899657,-0.028890313580632213,-0.0027488936,0.0033597588,10
-7.216739177703857,1.03132164478302,-6.782505989074707,-0.02841715514659882,-0.004886922,0.004886922,10
-7.2182044982910165,1.0265533924102783,-6.781519889831543,-0.031223699450492862,0.005192355,0.005497787,10
-7.213765621185303,1.0193358659744265,-6.773599624633789,-0.03252221643924713,0.0067195175,-0.00030543262000000003,10
-7.203489303588867,1.0117287635803225,-6.760993480682372,-0.03215914964675903,0.0076358155,0.010995574,10
-7.1962218284606925,1.0118180513381958,-6.761158466339111,-0.031700145453214645,0.025961773,0.019547688,10
-7.202283382415772,1.0192975997924805,-6.769881725311278,-0.03154613822698593,0.006414085,0.009468411,10
-7.213955402374268,1.0272164344787598,-6.7766618728637695,-0.03065768256783485,0.005192355,0.01282817,10
-7.219775676727295,1.0314308404922483,-6.780221939086914,-0.030410818755626682,0.0036651916,0.0143553335,10
-7.220493793487549,1.0277260541915894,-6.783839225769043,-0.03003275580704212,0.01740966,0.022907447,10
-7.213038921356201,1.0185858011245728,-6.788276195526122,-0.030708977952599525,0.0018325958,0.020463986,10
-7.202165126800537,1.012198805809021,-6.786952018737793,-0.02983391098678112,0.0061086523,0.014049901000000002,10
-7.19691276550293,1.0074721574783323,-6.7863521575927725,-0.02982497960329056,0.004581489,0.012217305,10
-7.2010111808776855,1.005071759223938,-6.788055419921875,-0.030152656137943268,0.005497787,0.012217305,10
-7.209261894226074,1.0110692977905271,-6.785367488861084,-0.031046532094478607,-0.0030543262,0.016187929,10
-7.213764190673827,1.0220274925231934,-6.787312984466553,-0.030341755598783493,0.004581489,0.018020526,10
-7.221397876739503,1.0323104858398438,-6.7762699127197275,-0.030088650062680244,-0.0021380284,0.016493361,10
-7.226359844207764,1.0362372398376465,-6.767789840698242,-0.031318485736846924,0.016798794,0.00580322,10
-7.22702693939209,1.0395463705062866,-6.768963813781737,-0.03152038902044296,0.02076942,0.004886922,10
-7.22659158706665,1.037256121635437,-6.7759928703308105,-0.02993166260421276,0.010079277,0.01038471,10
-7.224471092224121,1.042064905166626,-6.779709339141847,-0.02977459318935871,-0.0030543262,0.009773844,10
-7.218935966491699,1.0354075431823728,-6.77946662902832,-0.03069216199219227,0.002443461,0.007330383,10
-7.2038774490356445,1.032482385635376,-6.779690265655518,-0.0309006292372942,0.013133603,0.014660766,10
-7.195773601531982,1.0350809097290041,-6.782576560974121,-0.029260409995913506,-0.0009162979,0.016187929,10
-7.196613311767577,1.0376315116882324,-6.784849166870117,-0.029009113088250164,0.010690141499999998,0.016798794,10
-7.199315071105957,1.0386962890625,-6.783215045928955,-0.029242075979709625,0.0030543262,0.013744468,10
-7.193673133850098,1.0339055061340332,-6.782970905303955,-0.030084941536188126,0.0021380284,0.007330383,10
-7.186030387878418,1.0262595415115356,-6.786229133605957,-0.0309283547103405,0.003970624,0.0021380284,10
-7.183347225189209,1.0150339603424072,-6.792912006378174,-0.03052295371890068,0.0012217305,0.01038471,10
-7.184560298919678,1.0096930265426636,-6.79024600982666,-0.029137467965483662,-0.0009162979,0.016187929,10
-7.195606231689452,1.0010409355163574,-6.787124156951903,-0.028092212975025174,0.015882496,0.015271631,10
-7.2067604064941415,0.9929841160774232,-6.774444103240968,-0.0297431405633688,0.00061086525,0.0036651916,10
-7.208826541900635,0.996826469898224,-6.7762999534606925,-0.0311967208981514,0.0018325958,0.016187929,10
-7.205385208129883,1.0163601636886597,-6.7786293029785165,-0.03162315860390663,0.004886922,0.019547688,10
-7.2106733322143555,1.0266989469528198,-6.772761344909668,-0.02970413491129875,0.00580322,0.013439035,10
-7.22217845916748,1.0222454071044922,-6.764585971832275,-0.028628507629036907,-0.0012217305,0.007330383,10
-7.230438709259032,1.0107223987579346,-6.7653985023498535,-0.029558250680565838,0.006414085,0.009773844,10
-7.234614849090576,0.9994453191757202,-6.765175819396973,-0.03064098209142685,0.002443461,0.013133603,10
-7.233641624450684,0.9901511073112488,-6.760408401489258,-0.031546108424663544,0.004276057,0.01038471,10
-7.227327823638916,0.9911597967147828,-6.765091419219972,-0.031140616163611405,0.010690141499999998,0.008552114,10
-7.217672824859619,1.000304937362671,-6.772008419036865,-0.030880233272910118,0.0036651916,0.010995574,10
-7.210753917694093,1.003676176071167,-6.772202968597412,-0.03129641339182854,0.004581489,0.009773844,10
-7.211440086364746,0.9979609847068788,-6.768900871276856,-0.0330599844455719,0.007330383,0.011911872,10
-7.2175540924072275,0.9900869727134703,-6.769224643707275,-0.03411228209733963,0.017715093,0.014660766,10
-7.221530437469482,0.9844841957092284,-6.769829750061035,-0.03210100904107094,0.016493361,0.022602014,10
-7.22027587890625,0.9897919297218324,-6.7641706466674805,-0.03003991581499577,0.01160644,0.020463986,10
-7.214550971984862,0.9972249269485474,-6.755295276641847,-0.030936680734157562,0.013744468,0.017104227,10
-7.212601184844972,1.0037779808044434,-6.750172138214111,-0.031140912324190136,0.003970624,0.0030543262,10
-7.215291976928711,1.0041457414627075,-6.7544898986816415,-0.03000895865261555,0.0036651916,0.014966198,10
-7.205038070678711,1.0012266635894775,-6.755217552185059,-0.029288513585925106,0.0076358155,0.01282817,10
-7.20450496673584,1.0006412267684937,-6.758150577545166,-0.030086575075983998,0.009162978,0.016798794,10
-7.207640647888184,0.9997090697288512,-6.759676456451416,-0.031363826245069504,0.0018325958,0.010995574,10
-7.214553833007812,0.9958838224411012,-6.7575626373291025,-0.03268025815486908,0.0125227375,0.004276057,10
-7.216966152191162,0.9887685179710388,-6.7601280212402335,-0.03438862785696983,0.009773844,0.013439035,10
-7.214643478393555,0.9896739721298218,-6.763486385345459,-0.033380761742591865,0.014966198,0.022907447,10
-7.214913845062256,0.9938032627105712,-6.764283657073975,-0.033134836703538895,0.009162978,0.022296581,10
-7.209260940551758,0.994556486606598,-6.763701438903809,-0.03254332765936852,0.0027488936,0.019242255,10
-7.201172351837157,1.0048079490661619,-6.763175010681152,-0.032266911119222634,0.0018325958,0.011911872,10
-7.197542190551758,1.0133794546127322,-6.763700485229492,-0.031657878309488297,0.007941248,0.01038471,10
-7.197917938232423,1.0260698795318604,-6.774259090423584,-0.03119216859340668,0.010995574,0.01863139,10
-7.212021827697754,1.0390294790267944,-6.780515193939209,-0.02941951528191566,-0.004886922,0.009468411,10
-7.221046924591064,1.0368897914886477,-6.772082805633545,-0.027591165155172348,0.0067195175,0.0290161,10
-7.209831714630128,1.0204615592956543,-6.76517915725708,-0.026569748297333717,0.0018325958,0.02107485,10
-7.199726104736327,1.0030194520950315,-6.762691974639893,-0.02853655442595482,-0.004276057,0.004581489,10
-7.200949192047119,0.9976301193237304,-6.767817497253418,-0.028466627001762387,0.0061086523,0.006414085,10
-7.204588413238525,0.9962211847305298,-6.77485466003418,-0.028297204524278637,0.007330383,0.0143553335,10
-7.208698749542236,0.9974255561828612,-6.7748122215271,-0.02888392470777035,0.004276057,0.023518313,10
-7.213909149169923,0.9988370537757874,-6.766713619232178,-0.029875950887799263,0.0012217305,0.012217305,10
-7.215993881225586,0.9974313974380492,-6.766451358795166,-0.03181254118680954,0.009773844,0.021991149,10
-7.211250305175781,0.9946083426475524,-6.7675209045410165,-0.03496100381016731,0.018936822,0.02687807,10
-7.186047077178955,1.0022200345993042,-6.767590522766112,-0.03509578853845596,0.03940081,0.03940081,10
-7.161551475524902,1.0202401876449585,-6.76759672164917,-0.03178529068827629,0.032070424,0.056199603,10
-7.16059160232544,1.0307319164276123,-6.774333953857423,-0.02830186486244202,0.0067195175,0.04520403,10
-7.171447277069093,1.0371099710464478,-6.790221214294434,-0.02541147544980049,0.004581489,0.043066,10
-7.184083461761475,1.0491770505905151,-6.801664352416992,-0.021992310881614685,0.015271631,0.038789943,10
-7.200439929962157,1.060346603393555,-6.797236442565918,-0.019379183650016785,-0.007941248,0.026572637000000003,10
-7.210475444793701,1.0469028949737549,-6.789803981781006,-0.01877610944211483,0.0015271631,0.0070249503,10
-7.215468406677246,1.0168439149856567,-6.781990051269531,-0.0209589134901762,0.01160644,0.018936822,10
-7.212717056274414,1.0020681619644165,-6.76869535446167,-0.024003993719816208,-0.0012217305,0.0067195175,10
-7.208677291870117,1.005454421043396,-6.763693809509277,-0.029533328488469124,-0.006414085,-0.01038471,10
-7.20436954498291,1.0153464078903198,-6.774799823760986,-0.034489572048187256,-0.009773844,-0.006414085,10
-7.199195384979247,1.0266101360321045,-6.7850213050842285,-0.0369277149438858,-0.009773844,-0.004581489,10
-7.201938152313232,1.0392642021179201,-6.7842698097229,-0.03826864808797836,-0.017715093,-0.008246681,10
-7.207560062408447,1.0531394481658936,-6.778778553009032,-0.03867997229099274,-0.020158553,-0.007330383,10
-7.213930130004883,1.0554516315460205,-6.7746524810791025,-0.03710049390792847,-0.010690141499999998,-0.009773844,10
-7.220496654510497,1.0486626625061035,-6.767814159393311,-0.035539723932743066,-0.0076358155,0.003970624,10
-7.223910808563232,1.0401015281677246,-6.756449222564697,-0.03497204929590225,0.018020526,0.023823744,10
-7.220520496368407,1.0335237979888916,-6.754321098327638,-0.03251584991812706,0.037873644,0.02565634,10
-7.213186740875244,1.0312812328338623,-6.755429267883301,-0.029218835756182667,0.013744468,0.020463986,10
-7.207902908325195,1.0285831689834597,-6.761412620544434,-0.027649497613310814,0.008246681,0.024129177,10
-7.2129950523376465,1.0233621597290041,-6.7714056968688965,-0.026539010927081108,-0.007941248,0.010690141499999998,10
-7.22254753112793,1.0037965774536133,-6.771839618682861,-0.02450402081012726,0.0125227375,0.005497787,10
-7.226448535919189,0.9875103235244752,-6.7719502449035645,-0.02456488274037838,0.009468411,0.007330383,10
-7.222614765167236,0.9878384470939636,-6.769183158874513,-0.02666640281677246,0.023518313,0.024129177,10
-7.226667881011963,1.0046329498291016,-6.759249210357666,-0.027047857642173767,-0.00030543262000000003,0.012217305,10
-7.230207920074463,1.0112736225128174,-6.75313138961792,-0.02791230566799641,0.0027488936,0.007941248,10
-7.226716041564941,1.0080224275588991,-6.7597007751464835,-0.030173683539032936,0.00030543262000000003,0.014966198,10
-7.220395565032959,1.0120283365249634,-6.7755985260009775,-0.031291883438825614,-0.005192355,0.005192355,10
-7.212615013122559,1.0164674520492554,-6.783464431762695,-0.030182430520653725,-0.00061086525,0.005497787,10
-7.213077068328857,1.0171289443969729,-6.773680686950684,-0.027348393574357036,0.0033597588,0.008246681,10
-7.225505352020264,1.004635453224182,-6.753093719482423,-0.0262234415858984,0.0143553335,0.0143553335,10
-7.23970890045166,0.993371844291687,-6.736706256866455,-0.02723684348165989,0.03145956,0.022296581,10
-7.246662139892577,0.9994701147079468,-6.731421947479247,-0.028868112713098526,0.03176499,0.0290161,10
-7.2359256744384775,1.0134077072143557,-6.740225791931152,-0.027795284986495968,0.036957346,0.028710667,10
-7.22243070602417,1.0250768661499023,-6.75052547454834,-0.025393830612301826,0.013133603,0.027794369,10
-7.216429233551025,1.0266692638397217,-6.758838653564452,-0.024615192785859108,0.005192355,0.015577064,10
-7.209760665893555,1.0178223848342896,-6.756803035736084,-0.02535969950258732,0.015577064,0.01863139,10
-7.205207824707031,1.0105485916137695,-6.755687713623048,-0.027306752279400826,0.015577064,0.0061086523,10
-7.203392028808594,1.0072979927062988,-6.7574381828308105,-0.030118934810161587,-0.009162978,0.0076358155,10
-7.197446346282959,1.0036669969558716,-6.762401103973389,-0.030630208551883694,0.0067195175,0.01160644,10
-7.189606666564941,1.0025757551193235,-6.7689738273620605,-0.03165092319250107,0.006414085,0.008552114,10
-7.188375473022461,0.9938864707946776,-6.773826122283936,-0.031016599386930462,0.013439035,0.013133603,10
-7.191940784454347,0.9897863268852234,-6.775802612304688,-0.028926793485879895,0.004886922,0.008857545999999999,10
-7.190316200256348,0.9920262694358826,-6.783313274383545,-0.028612429276108745,0.012217305,0.016798794,10
-7.186931610107423,0.9990781545639038,-6.7877564430236825,-0.02781733684241772,0.007330383,0.021380283,10
-7.186525344848633,0.9998359084129332,-6.789628028869629,-0.029280092567205433,-0.01282817,0.016187929,10
-7.188333511352539,0.9881564378738404,-6.788729190826416,-0.03022010624408722,0.0012217305,0.016187929,10
-7.184566020965576,0.9791211485862732,-6.790173053741455,-0.03111630864441395,0.0036651916,0.009468411,10
-7.172638416290282,0.968418300151825,-6.790328502655028,-0.03099036030471325,-0.01282817,0.016798794,10
-7.165238857269287,0.962457835674286,-6.790255546569824,-0.03242453560233116,-0.016187929,0.0125227375,10
-7.164097309112549,0.9613966345787048,-6.790196895599365,-0.03582816198468208,-0.0290161,0.008552114,10
-7.171701908111572,0.9642202258110046,-6.788479328155518,-0.03854745626449585,-0.03268129,-0.0021380284,10
-7.192087650299072,0.9764249920845032,-6.7800841331481925,-0.0405719019472599,-0.02107485,-0.007330383,10
-7.21694803237915,1.0052239894866943,-6.770590782165527,-0.04091915860772133,-0.003970624,0.00580322,10
-7.238052845001222,1.0418438911437988,-6.757643699645996,-0.04039018228650093,0.007941248,0.00580322,10
-7.2585954666137695,1.0607450008392334,-6.74704122543335,-0.03843734413385391,0.0033597588,0.0143553335,10
-7.269163131713867,1.062703251838684,-6.733845233917236,-0.03605503961443901,0.008552114,0.02107485,10
-7.269001007080077,1.0597342252731323,-6.723423957824707,-0.03529336676001549,0.025350908,0.023518313,10
-7.264079570770264,1.0588402748107908,-6.7347145080566415,-0.033049985766410835,0.03573562,0.020158553,10
-7.25713586807251,1.056334376335144,-6.749118328094482,-0.03136918693780899,0.03023783,0.019242255,10
-7.245323181152344,1.0444796085357666,-6.75277042388916,-0.030759694054722782,0.012217305,0.022296581,10
-7.227061748504639,1.0263582468032837,-6.752397537231445,-0.029692070558667183,-0.009162978,0.0061086523,10
-7.216003894805907,1.0108826160430908,-6.761172771453857,-0.028982434421777725,0.009468411,0.010690141499999998,10
-7.213205814361572,1.0025353431701658,-6.7754225730896,-0.028943723067641255,0.004581489,0.013439035,10
-7.2211670875549325,1.0008834600448608,-6.770034790039063,-0.028228454291820526,-0.004581489,0.010079277,10
-7.228647232055664,0.9948124289512634,-6.751754283905028,-0.027510790154337883,0.009773844,0.014660766,10
-7.2359070777893075,0.988234281539917,-6.7428321838378915,-0.030062826350331306,0.018936822,0.01038471,10
-7.246255874633789,0.993310809135437,-6.741135120391847,-0.030156673863530162,0.025350908,0.027488936,10
-7.253165245056152,0.9980096220970154,-6.746869087219237,-0.03010179661214352,0.028405234,0.028099801,10
-7.249483585357666,1.0021302700042725,-6.757966041564941,-0.029551653191447255,0.019547688,0.013744468,10
-7.243350028991699,0.9988662600517272,-6.763575077056885,-0.029506025835871693,0.00030543262000000003,0.008857545999999999,10
-7.229495525360107,1.0042920112609863,-6.768292427062987,-0.031092338263988495,0.012217305,0.004886922,10
-7.218356609344482,1.0217764377593994,-6.771473407745361,-0.03129936754703522,-0.003970624,0.008246681,10
-7.212626934051514,1.032155156135559,-6.770381450653076,-0.0303820688277483,-0.007330383,-0.0015271631,10
-7.21146821975708,1.0356913805007937,-6.767801761627197,-0.03033286333084106,-0.00030543262000000003,-0.0015271631,10
-7.2165184020996085,1.033881902694702,-6.765993118286133,-0.030957726761698726,0.0018325958,0.0012217305,10
-7.222235679626465,1.0271393060684204,-6.771997928619385,-0.03048027865588665,0.010690141499999998,0.009162978,10
-7.22238826751709,1.0151827335357666,-6.775722980499268,-0.028419882059097287,0.010079277,0.019547688,10
-7.22681999206543,1.0047479867935178,-6.772995471954347,-0.029139354825019836,0.0076358155,0.01985312,10
-7.226603507995605,0.9876677989959716,-6.769092559814452,-0.02939942851662636,0.004276057,0.018325957,10
-7.221496105194093,0.9734793305397034,-6.762585163116455,-0.029774004593491558,0.005497787,0.022296581,10
-7.2126827239990225,0.9663745760917664,-6.761481761932372,-0.030652588233351707,0.011911872,0.016187929,10
-7.205658435821532,0.9699389934539796,-6.764077663421631,-0.030809180811047557,0.00061086525,0.0143553335,10
-7.204146385192871,0.9810112118721008,-6.761768817901611,-0.031927838921546936,-0.00580322,0.006414085,10
-7.20114803314209,0.99277001619339,-6.76091194152832,-0.0329928919672966,0.004581489,0.011301007,10
-7.200014114379883,1.00516676902771,-6.752642631530763,-0.033398199826478965,0.00580322,0.007330383,10
-7.200989246368407,1.0131355524063108,-6.746531486511231,-0.033084787428379066,0.004276057,0.0061086523,10
-7.202805519104004,1.019235134124756,-6.7454466819763175,-0.03272941708564758,-0.008246681,0.005192355,10
-7.211570739746094,1.0350509881973269,-6.747508525848389,-0.0310064684599638,0.004886922,0.0125227375,10
-7.2213501930236825,1.0363742113113403,-6.748595237731934,-0.028646823018789288,0.01282817,0.022907447,10
-7.230879783630371,1.0314767360687256,-6.7451438903808585,-0.028397545218467712,0.0012217305,0.0030543262,10
-7.234614849090576,1.0205992460250854,-6.74732780456543,-0.02856147103011608,-0.004886922,-0.0076358155,10
-7.226225852966309,1.0086148977279663,-6.754575252532959,-0.027250371873378757,0.010690141499999998,0.005192355,10
-7.2210350036621085,1.0034925937652588,-6.760405540466309,-0.026931049302220345,0.0070249503,0.009468411,10
-7.224720478057861,1.0060956478118896,-6.764817237854004,-0.02683863788843155,0.010079277,0.015577064,10
-7.2324790954589835,1.0113856792449951,-6.762424945831299,-0.02507562376558781,0.01038471,0.016798794,10
-7.243323802947997,1.0111500024795532,-6.754396438598633,-0.023507151752710342,0.010690141499999998,0.010079277,10
-7.2485108375549325,1.001720309257507,-6.7489986419677725,-0.022569388151168827,0.03023783,0.008857545999999999,10
-7.245974540710449,0.9936607480049132,-6.752143383026122,-0.02145135775208473,0.03726278,0.007330383,10
-7.2405242919921875,0.9952440857887268,-6.758304119110107,-0.022097595036029816,0.027183503,0.018325957,10
-7.235473155975343,0.9965314269065856,-6.759945869445801,-0.022634172812104225,0.022907447,0.01740966,10
-7.228902816772461,0.9900887608528136,-6.76771879196167,-0.02375400625169277,0.026267206,0.022602014,10
-7.2128257751464835,0.9724828004837036,-6.7797298431396475,-0.0278511680662632,0.03481932,0.0018325958,10
-7.196866035461426,0.962937355041504,-6.7861504554748535,-0.031887009739875787,0.023823744,0.005497787,10
-7.18834114074707,0.9527856707572936,-6.782765865325928,-0.03418029844760895,0.010995574,0.0030543262,10
-7.1806907653808585,0.9493561387062072,-6.782064437866211,-0.034552380442619324,0.005497787,0.003970624,10
-7.181661128997803,0.9595043063163756,-6.791749477386475,-0.03460870683193207,0.0036651916,0.009468411,10
-7.181106090545653,0.9705029726028442,-6.7937188148498535,-0.035937409847974784,0.005192355,0.007941248,10
-7.18110990524292,0.982472002506256,-6.793033123016357,-0.03548502922058105,-0.0009162979,0.009468411,10
-7.181345462799072,0.9854242205619812,-6.7845778465271,-0.03419813141226768,0.0012217305,0.0067195175,10
-7.181128978729247,0.9760257005691528,-6.781722545623778,-0.033827897161245346,0.002443461,0.003970624,10
-7.1869707107543945,0.9739989638328552,-6.782425403594972,-0.03283191844820976,0.0076358155,0.01160644,10
-7.2002668380737305,0.9871607422828674,-6.7789955139160165,-0.031602472066879266,0.005497787,0.0143553335,10
-7.218720436096191,0.9933451414108276,-6.773050785064697,-0.03142072632908821,-0.0018325958,0.01863139,10
-7.240041732788086,0.9957777261734008,-6.767820835113525,-0.03132607415318489,0.009773844,0.023518313,10
-7.2589659690856925,0.9857860207557678,-6.764737129211426,-0.03094999305903912,0.018936822,0.01985312,10
-7.273454666137695,0.9735745191574096,-6.7568931579589835,-0.0304785817861557,0.022907447,0.02076942,10
-7.2729411125183105,0.9628445506095886,-6.761964797973633,-0.03190092742443085,0.048563786,0.030543262,10
-7.265444755554199,0.9506698846817015,-6.771097183227539,-0.033420126885175705,0.0290161,0.028710667,10
-7.2530784606933585,0.936115860939026,-6.774914741516112,-0.03397975489497185,0.020463986,0.031154128,10
-7.234632015228271,0.9186832904815674,-6.7757019996643075,-0.038792099803686135,0.022296581,0.03176499,10
-7.210896968841553,0.9148253798484802,-6.788349628448486,-0.04302023351192474,0.025045475,0.027488936,10
-7.191351890563965,0.9217542409896852,-6.796604633331299,-0.045711446553468704,0.025045475,0.023518313,10
-7.1741943359375,0.9304179549217224,-6.807698726654053,-0.04507274180650711,0.0036651916,0.025961773,10
-7.1768856048583975,0.9522209763526917,-6.8081321716308585,-0.045101363211870193,-0.0061086523,0.010995574,10
-7.187623977661133,0.9751800298690796,-6.805859565734862,-0.04732520878314972,-0.007330383,0.011301007,10
-7.197610378265381,0.9978034496307372,-6.801970958709718,-0.04694557934999466,0.005497787,0.02107485,10
-7.204647541046143,1.0076497793197632,-6.794346809387207,-0.04619893059134483,0.0015271631,0.021991149,10
-7.2136549949646,1.0006016492843628,-6.786851406097412,-0.04574713110923767,0.0015271631,0.03176499,10
-7.219633102416992,1.0076770782470703,-6.787717342376709,-0.04777796193957329,0.015882496,0.034208454,10
-7.223254680633545,1.0265575647354126,-6.803346157073975,-0.0478174164891243,0.03268129,0.031154128,10
-7.223910331726074,1.0341295003890991,-6.807185173034668,-0.04906277731060982,0.018325957,0.019242255,10
-7.2132463455200195,1.0319044589996338,-6.802680015563965,-0.0502716451883316,0.0033597588,0.009773844,10
-7.1948180198669425,1.0269767045974731,-6.803652763366699,-0.05036872625350952,0.017715093,0.0143553335,10
-7.179759502410889,1.0185871124267578,-6.81114673614502,-0.04901083931326866,0.0067195175,0.010995574,10
-7.170045852661133,1.0100194215774536,-6.813660621643066,-0.049645066261291504,-0.0021380284,0.010079277,10
-7.170151233673097,1.0176085233688354,-6.817573070526122,-0.050332996994256966,-0.0036651916,0.018020526,10
-7.171751022338867,1.0313452482223509,-6.810141086578369,-0.05039181560277939,-0.008552114,0.02076942,10
-7.176697254180907,1.0436931848525999,-6.797213554382324,-0.049355246126651764,-0.00061086525,0.020463986,10
-7.188819885253906,1.0530667304992676,-6.790133476257324,-0.04779725894331932,0.007941248,0.03176499,10
-7.200785636901856,1.0535829067230225,-6.7822818756103525,-0.04533682763576508,0.012217305,0.034513887,10
-7.2089600563049325,1.0484468936920166,-6.768769264221191,-0.043064139783382416,0.02443461,0.04184427,10
-7.221540451049805,1.0436670780181885,-6.7565674781799325,-0.041232533752918236,0.03970624,0.042760565999999986,10
-7.227120399475098,1.0410184860229492,-6.757536888122559,-0.04125404357910156,0.041233405,0.039095376,10
-7.217997074127197,1.0455083847045898,-6.762110710144043,-0.041805364191532135,0.032986723,0.03390302,10
-7.1964378356933585,1.0619138479232788,-6.768834114074707,-0.04058576375246048,0.018325957,0.03176499,10
-7.171687602996826,1.0697283744812012,-6.7788758277893075,-0.04087524488568306,0.014049901000000002,0.029932396,10
-7.157227993011475,1.0667489767074585,-6.782200336456299,-0.04154519364237785,0.012217305,0.02107485,10
-7.154843807220459,1.0616708993911743,-6.787653923034668,-0.04315594211220741,0.013744468,0.02076942,10
-7.156763553619385,1.0688142776489258,-6.796867847442628,-0.0443405881524086,0.007941248,0.017715093,10
-7.151273727416992,1.0828166007995603,-6.80878496170044,-0.045915942639112466,-0.0009162979,0.01863139,10
