timestamp,rel_time,acc_x,acc_y,acc_z,gyro_x,gyro_y,gyro_z,azimuth,pitch,roll,label
0.0,0.0,0.0,0.0,0.0,0.0,0.021991148999999998,0.02443461,156.39691000000002,-21.185349,25.68988,STD
173331560000.0,1.4925223695172463e-05,0.0074616228230297565,0.02864413522183895,-0.0022630917374044657,-0.00011602176527958363,0.018936822,0.025045475,156.44461,-21.674263,25.65233,STD
517414880000.0,7.422902126563713e-05,0.0222780741751194,0.08551175147294998,-0.006752748508006334,-0.00034815739491023123,0.0290161,0.020158553,156.4852,-22.154863,25.604185,STD
1027183300000.0,0.00020653945102822036,0.04423541948199272,0.16977110505104065,-0.013400033116340637,-0.0007029162370599806,0.0290161,0.02321288,156.51723,-22.623151999999997,25.555737,STD
1695263100000.0,0.0004474830930121243,0.07302144914865494,0.28021061420440674,-0.022105198353528976,-0.0011320003541186452,0.018325957,0.024129177,156.54353,-23.083385,25.502057999999998,STD
2512228700000.0,0.0008034799247980118,0.10823143273591995,0.4152740240097046,-0.03274448215961456,-0.0015147682279348373,0.017104227,0.023518313,156.56032,-23.535111999999998,25.441744,STD
3466916500000.0,0.0013052490539848804,0.1493893563747406,0.5731225609779358,-0.04516909644007683,-0.002056737896054983,0.025045475,0.03023783,156.56723,-23.97318,25.37862,STD
4546779000000.0,0.0019723637960851192,0.19595804810523987,0.7516865730285645,-0.05921323969960213,-0.002784788142889738,0.021380282999999996,0.02321288,156.57237,-24.40634,25.312788,STD
5738261000000.0,0.002819720422849059,0.24735625088214874,0.9487290382385254,-0.07469838112592697,-0.003308699931949377,0.026572637000000003,0.022907447,156.5637,-24.832062,25.240435,STD
7027173000000.0,0.0038600938860327005,0.30297520756721497,1.1619077920913696,-0.091437928378582,-0.004395707044750452,0.025961772999999997,0.027794369,156.54942,-25.239462,25.166458,STD
8399056000000.0,0.005102543160319328,0.36219391226768494,1.3888353109359741,-0.10924208909273148,-0.005322291981428862,0.013744468000000001,0.024740042,156.53088,-25.65024,25.089287,STD
9839508000000.0,0.006554010324180126,0.42439356446266174,1.6271331310272217,-0.12792205810546875,-0.006170885171741247,0.013744468000000001,0.022602014,156.50166000000002,-26.04584,25.006453,STD
11334475000000.0,0.008213073946535587,0.48896917700767517,1.8744789361953735,-0.14729437232017517,-0.007317336741834879,0.018325957,0.026572637000000003,156.46546999999998,-26.432108000000003,24.922520000000002,STD
12870501000000.0,0.010083639994263649,0.5553421378135681,2.1286497116088867,-0.1671828180551529,-0.008525466546416283,0.006414085,0.025961772999999997,156.4265,-26.81468,24.838414999999998,STD
14434912000000.0,0.012161734513938427,0.6229665279388428,2.3875505924224854,-0.1874222457408905,-0.009448540396988392,0.0067195175,0.027183502999999998,156.37624,-27.189482,24.747742000000002,STD
16015971000000.0,0.014443171210587025,0.6913365721702576,2.6492412090301514,-0.20785966515541077,-0.010425825603306293,0.0070249503,0.021991148999999998,156.32278,-27.555372,24.655869,STD
17602968000000.0,0.016921905800700188,0.7599904537200928,2.9119505882263184,-0.2283557653427124,-0.011545488610863686,0.01740966,0.02321288,156.25868,-27.914965000000002,24.559502,STD
19186277000000.0,0.019592033699154854,0.8285132646560669,3.1740877628326416,-0.2487853765487671,-0.012506736442446709,0.007330383,0.025350908,156.19212,-28.270084000000004,24.464548,STD
20757384000000.0,0.02247515134513378,0.89654141664505,3.434248924255371,-0.26903513073921204,-0.013683398254215717,-0.0009162978999999999,0.01985312,156.11855,-28.616359999999997,24.362825,STD
22308860000000.0,0.025497984141111374,0.9637447595596313,3.691192865371704,-0.289014995098114,-0.014552319422364235,-0.008857545999999999,0.025045475,156.03647,-28.958868,24.262665,STD
23834330000000.0,0.028684839606285095,1.0298526287078857,3.9438717365264893,-0.30863943696022034,-0.015406676568090916,0.003970624,0.022296581,155.94931,-29.294003000000004,24.154787,STD
25328430000000.0,0.03202206268906593,1.0946320295333862,4.191395282745361,-0.32783961296081543,-0.016283592209219933,0.007330383,0.026572637000000003,155.85536000000002,-29.623194,24.050371,STD
26786725000000.0,0.03550545871257782,1.1578539609909058,4.432899475097656,-0.3464833199977875,-0.017521794885396957,0.010690141499999998,0.026572637000000003,155.75465,-29.945797,23.939299,STD
28205635000000.0,0.03912298008799553,1.2193576097488403,4.6677727699279785,-0.3645145297050476,-0.018684837967157364,0.0018325957999999999,0.028099801,155.64763,-30.26442,23.828835,STD
29582363000000.0,0.042864840477705,1.2790217399597168,4.895552635192871,-0.3818989396095276,-0.0198698528110981,0.014049901000000002,0.024740042,155.62811000000002,-30.694623999999997,23.741997,STD
30914808000000.0,0.046720340847969055,1.3367555141448975,5.115893840789795,-0.398612380027771,-0.02121759206056595,0.012217305,0.024129177,155.60611,-31.118055,23.658829,STD
32201482000000.0,0.05068078637123108,1.3924946784973145,5.328552722930908,-0.41463831067085266,-0.022155636921525,0.002443461,0.027794369,155.57764,-31.538427000000002,23.572401,STD
33441437000000.0,0.05473926663398743,1.4461984634399414,5.533374309539795,-0.42996683716773987,-0.023177286610007286,0.012217305,0.030543262,155.54082,-31.949721999999998,23.479229999999998,STD
34634195000000.0,0.058886490762233734,1.4978464841842651,5.730283260345459,-0.44459572434425354,-0.025007300078868866,0.01038471,0.030543262,155.50194,-32.353333,23.388884,STD
35779674000000.0,0.06311403214931488,1.5474355220794678,5.9192705154418945,-0.45852789282798767,-0.026224590837955475,0.014966198,0.032375857,155.45328,-32.757244,23.293255,STD
36878133000000.0,0.06741654872894287,1.5949771404266357,6.100381374359131,-0.47176945209503174,-0.02714979089796543,0.010690141499999998,0.03145956,155.40157,-33.15005,23.197441,STD
37930110000000.0,0.07178666442632675,1.6404950618743896,6.273709297180176,-0.4843314290046692,-0.028569510206580162,0.008552114,0.027488936000000002,155.34315,-33.536335,23.097694,STD
38936380000000.0,0.07623228430747986,1.6840226650238037,6.4393792152404785,-0.4962208569049835,-0.029988950118422508,0.016798794,0.027183502999999998,155.27705,-33.92033,22.994889999999998,STD
39897900000000.0,0.08071935176849365,1.7256032228469849,6.597568035125732,-0.5074673891067505,-0.030897358432412148,0.015271631,0.03268129,155.20692,-34.298485,22.893091000000002,STD
40815790000000.0,0.08525697141885757,1.7652846574783325,6.748456954956055,-0.5180821418762207,-0.031686894595623016,0.016798794,0.03023783,155.13081,-34.670254,22.785320000000002,STD
41691277000000.0,0.08983976393938065,1.803120732307434,6.8922529220581055,-0.5280848145484924,-0.03320463374257088,0.0015271631,0.028405233999999998,155.05084,-35.03394,22.680769,STD
42525670000000.0,0.0944630354642868,1.839168906211853,7.029178142547607,-0.5374959707260132,-0.03380474075675011,0.013133603,0.028405233999999998,154.95963999999998,-35.4008,22.567835000000002,STD
43320357000000.0,0.09912413358688354,1.8734891414642334,7.159463882446289,-0.5463360548019409,-0.03418745845556259,0.007330383,0.032986722999999996,154.86829,-35.75512,22.460855,STD
44076754000000.0,0.1038200855255127,1.9061434268951416,7.283348560333252,-0.5546262860298157,-0.03478860482573509,0.015271631,0.028099801,154.76836,-36.107693,22.344720000000002,STD
44796308000000.0,0.10854563117027283,1.93719482421875,7.40107536315918,-0.5623893141746521,-0.035202059894800186,0.010995574,0.021380282999999996,154.66544,-36.457706,22.231258,STD
45480470000000.0,0.11330036073923111,1.966706395149231,7.5128865242004395,-0.5696455836296082,-0.0351027250289917,0.008552114,0.026572637000000003,154.55305,-36.80233,22.115234,STD
46130690000000.0,0.11807961016893387,1.994741439819336,7.6190266609191895,-0.5764175057411194,-0.03543831408023834,0.0070249503,0.03634648,154.436,-37.13867,21.997942000000002,STD
46748410000000.0,0.12288112938404083,2.021362543106079,7.719735622406006,-0.5827261209487915,-0.03594867140054703,0.013439035,0.028710667000000002,154.31482,-37.4754,21.875547,STD
47335030000000.0,0.12770426273345947,2.046631097793579,7.815249919891357,-0.588591456413269,-0.03635336831212044,0.01740966,0.030543262,154.1842,-37.804153,21.755997,STD
47891950000000.0,0.1325444132089615,2.0706076622009277,7.9058027267456055,-0.5940349698066711,-0.03662540763616562,0.014660766,0.029321532999999997,154.05042,-38.129065999999995,21.632986,STD
48420513000000.0,0.13740018010139465,2.093350887298584,7.99161958694458,-0.5990762114524841,-0.03742928430438042,0.010995574,0.03359759,153.90863000000002,-38.44583,21.509242999999998,STD
48922035000000.0,0.14228884875774384,2.114917039871216,8.072912216186523,-0.6037251353263855,-0.03807952255010605,0.023823743999999997,0.032986722999999996,153.75974,-38.762833,21.379997,STD
49397786000000.0,0.14717045426368713,2.1353633403778076,8.149910926818848,-0.6080185770988464,-0.03816523775458336,0.02443461,0.032986722999999996,153.60745,-39.07443,21.253662,STD
49848997000000.0,0.15206530690193176,2.154742479324341,8.222811698913574,-0.6119639873504639,-0.038536570966243744,0.023518313,0.030543262,153.44799999999998,-39.37904,21.123026,STD
50276858000000.0,0.15696991980075836,2.1731059551239014,8.291812896728516,-0.6155795454978943,-0.03914676606655121,0.015882496,0.03359759,153.28307,-39.6817,20.993444,STD
50682506000000.0,0.16188642382621765,2.1905033588409424,8.357105255126953,-0.6188800930976868,-0.03967684507369995,0.021991148999999998,0.03359759,153.11122,-39.98137,20.858885,STD
51067035000000.0,0.1668127179145813,2.206982374191284,8.41887092590332,-0.621881902217865,-0.04017932713031769,0.014355333500000001,0.027183502999999998,152.93925,-40.276325,20.726876999999998,STD
51431495000000.0,0.17174378037452698,2.2225890159606934,8.477288246154785,-0.6246019601821899,-0.04088198393583298,0.023518313,0.03023783,152.75503999999998,-40.565616999999996,20.590816,STD
51776896000000.0,0.1766851395368576,2.2373664379119873,8.532522201538086,-0.6270516514778137,-0.04180680587887764,0.01985312,0.03023783,152.57195,-40.852524,20.455992000000002,STD
52104194000000.0,0.18163006007671356,2.251356840133667,8.584735870361328,-0.6292476058006287,-0.042278360575437546,0.020463986,0.025961772999999997,152.38107,-41.13836,20.31707,STD
52414313000000.0,0.18658022582530975,2.2646002769470215,8.634082794189453,-0.6312017440795898,-0.04287096858024597,0.02076942,0.019242255,152.18642,-41.41745,20.177423,STD
52708124000000.0,0.19153498113155365,2.277134656906128,8.680707931518555,-0.6329266428947449,-0.04292994365096092,0.015577064,0.023823743999999997,151.98618000000002,-41.697502,20.039196,STD
52986466000000.0,0.19649484753608704,2.288996458053589,8.724751472473145,-0.6344336867332458,-0.04334256425499916,0.018020526000000002,0.029321532999999997,151.78041000000002,-41.970459999999996,19.897276,STD
53250133000000.0,0.20145846903324127,2.300220251083374,8.766345977783203,-0.6357345581054688,-0.04323054105043411,0.018020526000000002,0.022296581,151.57294,-42.24799,19.754341,STD
53499887000000.0,0.20642705261707306,2.3108389377593994,8.805618286132812,-0.6368393301963806,-0.042978379875421524,0.024740042,0.026572637000000003,151.35495,-42.517075,19.612072,STD
53736446000000.0,0.21140311658382416,2.3208835124969482,8.842686653137207,-0.6377567648887634,-0.04327523335814476,0.016493361,0.024740042,151.13808999999998,-42.784209999999995,19.469238,STD
53960493000000.0,0.21637457609176636,2.3303847312927246,8.877671241760254,-0.6385021805763245,-0.043215397745370865,0.009773844,0.01863139,150.91457,-43.053577000000004,19.323892999999998,STD
54172683000000.0,0.22135019302368164,2.339409589767456,8.91081428527832,-0.6388936042785645,-0.04294758662581444,0.016798794,0.015271631,150.68483999999998,-43.31707,19.176832,STD
54373636000000.0,0.22633494436740875,2.3479955196380615,8.942254066467285,-0.638886034488678,-0.04290514811873436,0.010995574,0.014049901000000002,150.45549,-43.578144,19.032026000000002,STD
54563940000000.0,0.2313144952058792,2.356163740158081,8.972077369689941,-0.6385195851325989,-0.042637474834918976,0.010690141499999998,0.017104227,150.22263,-43.835021999999995,18.886715,STD
54744152000000.0,0.23629631102085114,2.3639371395111084,9.000370025634766,-0.6378030776977539,-0.0421077162027359,0.018325957,0.01740966,149.98557,-44.089397,18.739567,STD
54914806000000.0,0.2412824034690857,2.3713364601135254,9.027213096618652,-0.6367519497871399,-0.0413459949195385,0.014355333500000001,0.015577064,149.74641,-44.342506,18.594313,STD
55076400000000.0,0.24626725912094116,2.3783810138702393,9.052681922912598,-0.635391116142273,-0.04047839343547821,0.0070249503,0.02076942,149.50037,-44.593384,18.449194,STD
55229412000000.0,0.25125011801719666,2.385089159011841,9.076848030090332,-0.633738100528717,-0.03960808739066124,0.0067195175,0.021685716,149.25043,-44.84377,18.301657000000002,STD
55374300000000.0,0.2562330961227417,2.391479015350342,9.099781036376953,-0.6318054795265198,-0.0385238379240036,0.016187929,0.01985312,148.99506,-45.09355,18.15363,STD
55511488000000.0,0.261222243309021,2.3975682258605957,9.12154769897461,-0.6295996308326721,-0.037789929658174515,0.017715093,0.014966198,148.73764,-45.339237,18.006187,STD
55641380000000.0,0.26620906591415405,2.4033713340759277,9.142207145690918,-0.627146303653717,-0.03670469671487808,0.018020526000000002,0.013744468000000001,148.47368,-45.587383,17.857092,STD
55764370000000.0,0.2711968719959259,2.4089040756225586,9.161819458007812,-0.6244542002677917,-0.03582355007529259,0.015271631,0.020158553,148.20529,-45.829421999999994,17.708467000000002,STD
55880820000000.0,0.27618762850761414,2.4141812324523926,9.180439949035645,-0.6215331554412842,-0.034826599061489105,0.02107485,0.021991148999999998,147.93181,-46.073840000000004,17.556547,STD
55991077000000.0,0.281177818775177,2.419215679168701,9.198121070861816,-0.6183999180793762,-0.034256838262081146,0.03359759,0.016798794,147.65343000000001,-46.313390000000005,17.403349,STD
56095465000000.0,0.2861681878566742,2.424020290374756,9.214912414550781,-0.6150647401809692,-0.03327813372015953,0.024129177,0.008552114,147.37485,-46.556267,17.252514,STD
56194300000000.0,0.29115942120552063,2.42860746383667,9.230860710144043,-0.6115374565124512,-0.03279079124331474,0.02443461,0.009162978,147.08649,-46.79119,17.098028,STD
56287874000000.0,0.29615166783332825,2.4329888820648193,9.246011734008789,-0.60782790184021,-0.0325571708381176,0.029626964,0.019242255,146.7949,-47.02768,16.944447,STD
56376466000000.0,0.3011481761932373,2.437175750732422,9.260407447814941,-0.6039412617683411,-0.03194547817111015,0.034513887,0.014049901000000002,146.50221000000002,-47.2655,16.787449,STD
56460344000000.0,0.3061448037624359,2.4411780834198,9.274087905883789,-0.5998923182487488,-0.0313338041305542,0.031154128,0.02107485,146.2021,-47.496555,16.635668,STD
56539755000000.0,0.311144083738327,2.4450058937072754,9.287091255187988,-0.5956861972808838,-0.030949966982007027,0.03268129,0.009773844,145.90044,-47.730083,16.476728,STD
56614938000000.0,0.31614333391189575,2.4486680030822754,9.299452781677246,-0.5913347005844116,-0.03014719858765602,0.025045475,0.014355333500000001,145.59357,-47.962994,16.324920000000002,STD
56686120000000.0,0.3211413323879242,2.4521729946136475,9.311206817626953,-0.5868473649024963,-0.029549913480877876,0.04062254,0.018325957,145.27953,-48.192394,16.165895000000003,STD
56753510000000.0,0.32617196440696716,2.4555342197418213,9.322392463684082,-0.5821844339370728,-0.029570292681455612,0.03756821,0.007330383,144.96982,-48.422062,16.009173999999998,STD
56817310000000.0,0.3311692476272583,2.4587502479553223,9.333026885986328,-0.577444314956665,-0.028482943773269653,0.03940081,0.014355333500000001,144.64766,-48.655678,15.853565,STD
56877710000000.0,0.3361663222312927,2.4618330001831055,9.343146324157715,-0.5725877285003662,-0.02787664718925953,0.03726278,0.0125227375,144.32733000000002,-48.880466,15.694789000000002,STD
56934896000000.0,0.34116330742836,2.464789867401123,9.352777481079102,-0.5676206350326538,-0.02759559080004692,0.03573562,0.009773844,144.00173999999998,-49.109703,15.536904999999999,STD
56989036000000.0,0.34616151452064514,2.46762752532959,9.361947059631348,-0.5625471472740173,-0.027606181800365448,0.029321532999999997,0.010690141499999998,143.674,-49.335945,15.380679,STD
57040295000000.0,0.3511596620082855,2.4703521728515625,9.370678901672363,-0.5573745965957642,-0.027453456073999405,0.03573562,0.010995574,143.34084,-49.562576,15.221751000000001,STD
57088823000000.0,0.35615697503089905,2.4729697704315186,9.378995895385742,-0.5521093606948853,-0.027699479833245277,0.027183502999999998,0.009468411,143.00954,-49.78457,15.066421,STD
57134763000000.0,0.36115744709968567,2.4754867553710938,9.386921882629395,-0.5467508435249329,-0.028127703815698624,0.028710667000000002,0.012217305,142.67029,-50.007187,14.909312,STD
57178258000000.0,0.3661550283432007,2.477907419204712,9.394475936889648,-0.5413122177124023,-0.027849527075886726,0.026267206,0.018325957,142.33043,-50.231464,14.754920000000002,STD
57219433000000.0,0.3711530566215515,2.4802372455596924,9.401678085327148,-0.5357933044433594,-0.02792796865105629,0.025961772999999997,0.014355333500000001,141.98793,-50.450084999999994,14.598320999999999,STD
57258415000000.0,0.37615129351615906,2.4824812412261963,9.408548355102539,-0.5301986932754517,-0.02818126790225506,0.014966198,0.017715093,141.64302,-50.670853,14.447126,STD
57295320000000.0,0.38115066289901733,2.4846441745758057,9.4151029586792,-0.5245311260223389,-0.02830713614821434,0.02107485,0.010690141499999998,141.29369,-50.892582,14.289882999999998,STD
57330260000000.0,0.3861493468284607,2.486729860305786,9.421359062194824,-0.5187968611717224,-0.028263535350561142,0.013133603,0.009162978,140.94574,-51.11227,14.139064000000001,STD
57363340000000.0,0.39114755392074585,2.4887425899505615,9.427332878112793,-0.5129992961883545,-0.02872682735323906,0.016798794,0.016493361,140.59033,-51.32864,13.985835999999999,STD
57394655000000.0,0.39616575837135315,2.490689277648926,9.433043479919434,-0.5071133971214294,-0.02897011488676071,0.01740966,0.022296581,140.23515,-51.54926,13.834002499999999,STD
57424304000000.0,0.4011639356613159,2.492567777633667,9.438497543334961,-0.5011979341506958,-0.029086502268910408,0.011301007,0.013439035,139.8792,-51.767513,13.681176,STD
57452372000000.0,0.4061613976955414,2.494384288787842,9.443711280822754,-0.49522915482521057,-0.029359454289078712,0.0021380284,0.019242255,139.51755,-51.982887,13.533659,STD
57478943000000.0,0.41116225719451904,2.496142625808716,9.448698997497559,-0.4892042577266693,-0.029503924772143364,0.008857545999999999,0.017104227,139.15373,-52.2018,13.380870999999999,STD
57504100000000.0,0.4161577522754669,2.497844696044922,9.453471183776855,-0.4831381142139435,-0.030047617852687836,0.011911871999999999,0.022296581,138.78807,-52.415676,13.233507999999999,STD
57527916000000.0,0.42115649580955505,2.4998209476470947,9.458534240722656,-0.478181391954422,-0.030855322256684303,0.015271631,0.020158553,138.41971999999998,-52.631523,13.083053999999999,STD
57550465000000.0,0.4261558949947357,2.502171754837036,9.4640474319458,-0.47468847036361694,-0.031880415976047516,0.013133603,0.022907447,138.04774,-52.844337,12.935630999999999,STD
57571814000000.0,0.4311547577381134,2.5044236183166504,9.470026969909668,-0.47264817357063293,-0.032671838998794556,0.009162978,0.02565634,137.90228000000002,-53.21604,12.864249000000001,STD
57592020000000.0,0.43615344166755676,2.5062925815582275,9.476475715637207,-0.47203078866004944,-0.03379545733332634,0.003970624,0.025045475,137.7563,-53.57976,12.793516,STD
57611156000000.0,0.44115155935287476,2.5076515674591064,9.48252010345459,-0.4731755554676056,-0.034533657133579254,0.01740966,0.01740966,137.66415,-53.991375,12.738728,STD
57629270000000.0,0.44614946842193604,2.508453130722046,9.487757682800293,-0.4761990010738373,-0.03521624207496643,0.008246681,0.02443461,137.5763,-54.393393999999994,12.692,STD
57646420000000.0,0.45114824175834656,2.5089991092681885,9.492431640625,-0.4809882938861847,-0.03569968044757843,0.015577064,0.02443461,137.52867,-54.83225,12.646592,STD
57662660000000.0,0.4561460018157959,2.5095160007476807,9.496729850769043,-0.4874204099178314,-0.036238741129636765,0.017104227,0.031154128,137.48326,-55.26309200000001,12.607187,STD
57678026000000.0,0.4611474871635437,2.510005474090576,9.500670433044434,-0.4954409897327423,-0.036830462515354156,0.025961772999999997,0.021380282999999996,137.47977,-55.725519999999996,12.57006,STD
57692576000000.0,0.4661470055580139,2.5104687213897705,9.504274368286133,-0.5049265027046204,-0.037537142634391785,0.008857545999999999,0.017715093,137.48175,-56.17974,12.539991,STD
57706350000000.0,0.4711481034755707,2.511047840118408,9.508050918579102,-0.5153263211250305,-0.03815733268857002,0.017104227,0.022602014,137.5281,-56.66098,12.510889,STD
57719394000000.0,0.476148396730423,2.511848211288452,9.512382507324219,-0.5261802673339844,-0.03887468948960304,0.014049901000000002,0.028710667000000002,137.58365,-57.133747,12.485513000000001,STD
57731742000000.0,0.48114949464797974,2.5128142833709717,9.516565322875977,-0.5381031036376953,-0.038935281336307526,0.026572637000000003,0.026572637000000003,137.69072,-57.64812,12.462422,STD
57743430000000.0,0.48614999651908875,2.513896942138672,9.520020484924316,-0.5515762567520142,-0.039236802607774734,0.030848695,0.025961772999999997,137.80133,-58.148219999999995,12.442556,STD
57754500000000.0,0.4911484122276306,2.5150890350341797,9.52278995513916,-0.5665044188499451,-0.039245542138814926,0.03390302,0.021685716,137.9984,-58.703357999999994,12.428569,STD
57764980000000.0,0.49614983797073364,2.516387939453125,9.524901390075684,-0.5828511714935303,-0.0396607480943203,0.044898596,0.029626964,138.19167,-59.241431999999996,12.414792,STD
57774898000000.0,0.5011503100395203,2.5177855491638184,9.526396751403809,-0.6005094051361084,-0.040053825825452805,0.037873644,0.024129177,138.51663,-59.84806999999999,12.402971,STD
57784290000000.0,0.506150484085083,2.5192768573760986,9.527307510375977,-0.6194145083427429,-0.04050734266638756,0.03970624,0.028099801,138.83237,-60.43540600000001,12.390741,STD
57793180000000.0,0.5111511945724487,2.5213136672973633,9.527963638305664,-0.6387602686882019,-0.0406111441552639,0.056505035999999995,0.029932396,139.3352,-61.12444,12.378527,STD
57801600000000.0,0.5161562561988831,2.5243852138519287,9.528712272644043,-0.6577103734016418,-0.040725693106651306,0.054367005999999996,0.026267206,139.83406000000002,-61.790386,12.36391,STD
57809568000000.0,0.5211547613143921,2.5283913612365723,9.529542922973633,-0.6762607097625732,-0.0405411459505558,0.06047566,0.024129177,140.57877,-62.6109,12.351349,STD
57817113000000.0,0.5261557698249817,2.5333189964294434,9.530454635620117,-0.6944530010223389,-0.040740810334682465,0.057726767000000005,0.02565634,141.3023,-63.395584,12.332130000000001,STD
57824256000000.0,0.5311543345451355,2.539057731628418,9.531492233276367,-0.71185702085495,-0.040441516786813736,0.06811147,0.024740042,141.99786,-64.154945,12.302517,STD
57831017000000.0,0.5361565947532654,2.5455234050750732,9.532732963562012,-0.7278172373771667,-0.040174450725317,0.06811147,0.01985312,142.6747,-64.880394,12.267683,STD
57837420000000.0,0.5411525368690491,2.552166700363159,9.534153938293457,-0.7421528100967407,-0.03930307924747467,0.07574729,0.015271631,143.72236999999998,-65.83296,12.232511500000001,STD
57843480000000.0,0.5461538434028625,2.5582008361816406,9.535754203796387,-0.7544488310813904,-0.038543254137039185,0.06963864,0.021685716,144.72241,-66.73318,12.188286,STD
57849216000000.0,0.5511488914489746,2.5638914108276367,9.537641525268555,-0.7652096152305603,-0.03787275403738022,0.08827003,0.02076942,145.78307,-67.66611,12.131824,STD
57854650000000.0,0.5561497807502747,2.5697124004364014,9.540079116821289,-0.7751800417900085,-0.03684733062982559,0.08827003,0.013133603,146.79701,-68.551285,12.066672,STD
57859790000000.0,0.5611746311187744,2.575688362121582,9.543047904968262,-0.784304141998291,-0.03561611473560333,0.08093964,0.016798794,147.7634,-69.38914,11.991995,STD
57864660000000.0,0.5661794543266296,2.581793785095215,9.545634269714355,-0.7907028794288635,-0.03441796079277992,0.08246681,0.014049901000000002,148.68193,-70.18511,11.905826,STD
57869270000000.0,0.5711731314659119,2.5880355834960938,9.547852516174316,-0.7944516539573669,-0.03290928155183792,0.089491755,0.015271631,149.553,-70.93484000000001,11.815581,STD
57873636000000.0,0.5761728286743164,2.593257188796997,9.550101280212402,-0.7942191958427429,-0.031204288825392723,0.09590584,0.013133603,150.38422,-71.64459000000001,11.719856,STD
57877767000000.0,0.5811675786972046,2.597275972366333,9.552460670471191,-0.7900700569152832,-0.02929716743528843,0.099571034,0.019547688,151.17628,-72.3152,11.623908,STD
57881680000000.0,0.5861667990684509,2.6002330780029297,9.554438591003418,-0.783349335193634,-0.027768395841121674,0.1020145,0.01985312,151.93318,-72.941864,11.520344999999999,STD
57885384000000.0,0.5911645889282227,2.6022605895996094,9.55579662322998,-0.7749283313751221,-0.02596299536526203,0.10262536,0.018325957,152.65704,-73.53636999999999,11.417389,STD
57888890000000.0,0.5961651802062988,2.604640245437622,9.557093620300293,-0.7645235657691956,-0.024318918585777283,0.096516706,0.011911871999999999,153.35052,-74.09105,11.310233,STD
57892212000000.0,0.6011632084846497,2.607909679412842,9.558575630187988,-0.7521319389343262,-0.022355524823069572,0.10659598599999999,0.018936822,154.01044,-74.61506,11.206277,STD
57895360000000.0,0.6061636805534363,2.6106314659118652,9.559195518493652,-0.7385741472244263,-0.020594431087374687,0.09987647,0.015271631,154.65703,-75.11332,11.096671,STD
57898336000000.0,0.6111695766448975,2.6122028827667236,9.558525085449219,-0.7242308259010315,-0.018845804035663605,0.09254608,0.013744468000000001,155.27528,-75.58293,10.990747,STD
57901155000000.0,0.6161733865737915,2.613511800765991,9.557123184204102,-0.7099651098251343,-0.017320584505796432,0.096516706,0.012217305,155.85175,-76.00573,10.896788,STD
57903822000000.0,0.6211714148521423,2.615006446838379,9.555285453796387,-0.6962042450904846,-0.015665041282773018,0.10170906,0.008552114,156.41023,-76.406235,10.803677,STD
57906347000000.0,0.6261708736419678,2.6158480644226074,9.553535461425781,-0.682097852230072,-0.014439551159739494,0.101098195,0.010995574,156.92677,-76.76437,10.7206335,STD
57908738000000.0,0.631172239780426,2.6156506538391113,9.55212688446045,-0.6672519445419312,-0.013214262202382088,0.09132435,0.0036651915999999997,157.42899,-77.10665,10.635512,STD
57911003000000.0,0.6361719369888306,2.6147685050964355,9.550735473632812,-0.6523088216781616,-0.011956607922911644,0.095294975,0.0021380284,157.9105,-77.42319499999999,10.555779,STD
57913146000000.0,0.6411740183830261,2.6134164333343506,9.54916000366211,-0.6376451253890991,-0.011238020844757557,0.089186326,0.004581489,158.38342,-77.71975,10.47767,STD
57915176000000.0,0.6461724638938904,2.6117889881134033,9.547876358032227,-0.622653603553772,-0.01005313079804182,0.098043874,0.005497787,158.82654,-77.99653,10.401193,STD
57917097000000.0,0.6511951684951782,2.6099741458892822,9.547208786010742,-0.6068158745765686,-0.009273211471736431,0.09254608,0.010079277,159.26308999999998,-78.25118,10.328992999999999,STD
57918917000000.0,0.6561923623085022,2.608015775680542,9.546431541442871,-0.5917887687683105,-0.008160477504134178,0.09773844,0.0015271631,159.67918,-78.494644,10.254157000000001,STD
57920640000000.0,0.6611896753311157,2.6058897972106934,9.545151710510254,-0.5783781409263611,-0.007741860579699278,0.093767814,0.004581489,160.08803,-78.71508,10.186342999999999,STD
57922273000000.0,0.666186511516571,2.6027419567108154,9.544127464294434,-0.5675079226493835,-0.00724788848310709,0.09560041,0.011301007,160.47437,-78.91872,10.120867,STD
57923816000000.0,0.6711840629577637,2.5982460975646973,9.543663024902344,-0.5594905614852905,-0.006536081433296204,0.08643743400000001,-0.0018325957999999999,160.85582,-79.11192,10.052968,STD
57925280000000.0,0.6761836409568787,2.593977928161621,9.543548583984375,-0.5529615879058838,-0.00592731824144721,0.08735373,-0.0018325957999999999,161.045351605803,-79.2024341370685,10.0196135807904,STD
57926664000000.0,0.6811810731887817,2.5906386375427246,9.543673515319824,-0.5472481846809387,-0.005823040381073952,0.08155051,-0.0018325957999999999,161.23206000000002,-79.2916,9.986756,STD
57927977000000.0,0.6861788630485535,2.588510036468506,9.544181823730469,-0.5424820780754089,-0.0053011090494692326,0.08155051,0.00030543262000000003,161.59995,-79.463135,9.920053999999999,STD
57929220000000.0,0.691175639629364,2.5878353118896484,9.545199394226074,-0.538774311542511,-0.004465168341994286,0.0842994,0.007330383,161.96883,-79.63348,9.847127,STD
57930397000000.0,0.6964404582977295,2.586601972579956,9.546747207641602,-0.5393189787864685,-0.004064433742314577,0.071776666,-0.00580322,162.68797,-79.93744000000001,9.708711,STD
57931513000000.0,0.7016865611076355,2.5848515033721924,9.548314094543457,-0.5415116548538208,-0.004271039739251137,0.06780604,-0.002443461,163.0391,-80.069664,9.641395,STD
57932570000000.0,0.7069220542907715,2.582749843597412,9.54970932006836,-0.5443875789642334,-0.004271307028830051,0.073303826,-0.00061086525,163.37973,-80.195,9.573675999999999,STD
57933570000000.0,0.7121425271034241,2.5803239345550537,9.550942420959473,-0.5478954911231995,-0.004011122509837151,0.076052725,-0.0027488936,163.71783,-80.31275,9.508474,STD
57934516000000.0,0.7173670530319214,2.5775606632232666,9.552016258239746,-0.5520561933517456,-0.0040415190160274506,0.07422013,-0.01038471,164.04668999999998,-80.41991,9.445537,STD
57935414000000.0,0.7225659489631653,2.574526786804199,9.552949905395508,-0.5567472577095032,-0.004298178479075432,0.07299839999999999,-0.008857545999999999,164.36594,-80.51474,9.387825999999999,STD
57936260000000.0,0.7277529835700989,2.571216344833374,9.553746223449707,-0.5619771480560303,-0.0045248824171721935,0.06291912,-0.0070249503,164.68007,-80.60155,9.331313,STD
57937066000000.0,0.7329296469688416,2.567983388900757,9.554540634155273,-0.5673961639404297,-0.004723227117210627,0.058337633,-0.007941248,164.98086999999998,-80.67408,9.282982,STD
57937825000000.0,0.7380969524383545,2.565049648284912,9.555419921875,-0.5727803111076355,-0.00487844692543149,0.057421334000000004,-0.01038471,165.27618,-80.737915,9.237482,STD
57938547000000.0,0.7432554960250854,2.562399387359619,9.556379318237305,-0.5781314969062805,-0.005383496638387442,0.06078109,-0.014660766,165.57419,-80.80823000000001,9.180222,STD
57939230000000.0,0.7484055161476135,2.5600173473358154,9.557415008544922,-0.5834513306617737,-0.005470974370837212,0.058948494000000004,-0.014355333500000001,165.86623,-80.869545,9.127006,STD
57939876000000.0,0.7535467743873596,2.557959794998169,9.55837631225586,-0.5883053541183472,-0.005211965646594763,0.057726767000000005,-0.016187929,166.14502,-80.92215999999999,9.0776825,STD
57940490000000.0,0.7586828470230103,2.5562644004821777,9.559160232543945,-0.5923960208892822,-0.0055039129219949245,0.04917465,-0.02076942,166.41966000000002,-99.03171,9.0307455,STD
57941068000000.0,0.763809859752655,2.55490779876709,9.559778213500977,-0.5957717895507812,-0.005698914639651775,0.041233405,-0.016493361,166.68062,-99.000656,8.995104,STD
57941617000000.0,0.7689350843429565,2.5538783073425293,9.560235977172852,-0.5984579920768738,-0.005964911077171564,0.043066,-0.015577064,166.93511999999998,-98.97321,8.959867,STD
57942137000000.0,0.7740538120269775,2.5525147914886475,9.560991287231445,-0.6008869409561157,-0.006509724073112011,0.034208454,-0.014049901000000002,167.18695,-98.957054,8.932673,STD
57942630000000.0,0.7791672348976135,2.550236701965332,9.562446594238281,-0.6034333109855652,-0.006472072564065456,0.038789943,-0.023823743999999997,167.42865,-98.943275,8.90483,STD
57943098000000.0,0.7842733860015869,2.547422170639038,9.564345359802246,-0.6062061190605164,-0.006859638728201389,0.025961772999999997,-0.024129177,167.67338999999998,-98.938225,8.884103999999999,STD
57943540000000.0,0.7893852591514587,2.5444910526275635,9.566410064697266,-0.6093647480010986,-0.006982389837503433,0.028099801,-0.017104227,167.90717,-98.93735,8.864930000000001,STD
57943957000000.0,0.7944785952568054,2.5418107509613037,9.56894588470459,-0.6122784614562988,-0.007554365321993828,0.01985312,-0.015882496,168.14058,-98.93434,8.842382,STD
57944356000000.0,0.7995684742927551,2.539785146713257,9.572370529174805,-0.614268958568573,-0.006940166931599379,0.027488936000000002,-0.016798794,168.36389,-98.93780500000001,8.823447,STD
57944733000000.0,0.8046520948410034,2.5380969047546387,9.576125144958496,-0.6156195402145386,-0.006521474104374647,0.028405233999999998,-0.015271631,168.57471999999999,-98.94383,8.809460000000001,STD
57945090000000.0,0.809732973575592,2.5363738536834717,9.57955551147461,-0.6166484951972961,-0.006401809398084879,0.024740042,-0.024129177,168.78046,-98.95026999999999,8.794139,STD
57945425000000.0,0.8148078322410583,2.5346193313598633,9.582679748535156,-0.6173762083053589,-0.006841951981186867,0.017104227,-0.02076942,168.98375,-98.96341,8.785708999999999,STD
57945744000000.0,0.8198802471160889,2.5328335762023926,9.585512161254883,-0.6178156137466431,-0.006884259171783924,0.014355333500000001,-0.008552114,169.18282,-98.979515,8.779099,STD
57946046000000.0,0.8249452114105225,2.5309529304504395,9.588216781616211,-0.6176918148994446,-0.006598764564841986,0.016493361,-0.014966198,169.38028,-98.99381,8.770107000000001,STD
57946330000000.0,0.8300087451934814,2.5288307666778564,9.591119766235352,-0.6163783669471741,-0.006686586420983076,0.019242255,-0.017715093,169.57483,-99.01399,8.767234,STD
57946604000000.0,0.8350647687911987,2.5264878273010254,9.59420108795166,-0.6139662265777588,-0.007339435163885355,0.015271631,-0.016493361,169.76663,-99.034424,8.764555,STD
57946860000000.0,0.8401210904121399,2.523926258087158,9.597461700439453,-0.6104806661605835,-0.007697054650634527,0.014355333500000001,-0.014049901000000002,169.95326,-99.05662,8.763052,STD
57947103000000.0,0.8451721668243408,2.521164894104004,9.600885391235352,-0.6060035824775696,-0.00775890052318573,0.009468411,-0.009773844,170.13815,-99.08349,8.765943,STD
57947334000000.0,0.850223183631897,2.5182080268859863,9.604469299316406,-0.600566029548645,-0.008224383927881718,0.007330383,-0.004581489,170.3193,-99.11185,8.771115,STD
57947550000000.0,0.8552715182304382,2.515023708343506,9.608024597167969,-0.5949598550796509,-0.009234768338501453,0.0009162978999999999,-0.0061086523,170.49652,-99.14774,8.78195,STD
57947760000000.0,0.8603267073631287,2.5115010738372803,9.611136436462402,-0.5909228324890137,-0.010565685108304024,-0.0018325957999999999,-0.0033597588,170.67038,-99.186584,8.796416,STD
57947960000000.0,0.8653711080551147,2.507857322692871,9.6139554977417,-0.5882344841957092,-0.011223412118852139,0.0012217305,0.002443461,170.83891,-99.22169,8.808897,STD
57948148000000.0,0.8704115748405457,2.504650592803955,9.616867065429688,-0.5866600871086121,-0.011829809285700321,0.00061086525,-0.004886922,171.00626,-99.25301,8.819266,STD
57948324000000.0,0.8754525780677795,2.50193190574646,9.619871139526367,-0.5858777165412903,-0.012110897339880466,-0.0030543262,0.0015271631,171.17381,-99.29262,8.834211,STD
57948490000000.0,0.8804894089698792,2.5000967979431152,9.622961044311523,-0.5841519832611084,-0.012783939018845558,-0.007330383,0.00580322,171.33871000000002,-99.32896,8.847329,STD
57948650000000.0,0.8855234384536743,2.499046802520752,9.626132011413574,-0.5816260576248169,-0.0133885582908988,-0.013744468000000001,-0.002443461,171.50291,-99.36641999999999,8.860002,STD
57948800000000.0,0.8905552625656128,2.4980525970458984,9.629352569580078,-0.5795632600784302,-0.014058619737625122,-0.008552114,-0.0036651915999999997,171.66245,-99.40629,8.876799,STD
57948944000000.0,0.8955857753753662,2.4971115589141846,9.632620811462402,-0.5779398679733276,-0.014172096736729145,-0.004276057,0.0021380284,171.82205,-99.441925,8.893057,STD
57949083000000.0,0.900614857673645,2.496220588684082,9.635934829711914,-0.5767322778701782,-0.015012006275355816,-0.011301007,0.0070249503,171.98088,-99.4749,8.909517,STD
57949213000000.0,0.9056413769721985,2.4953770637512207,9.639290809631348,-0.5759167671203613,-0.015270003117620945,-0.015577064,0.0027488936,172.13522,-99.51047,8.925937,STD
57949335000000.0,0.9106712341308594,2.4949419498443604,9.642838478088379,-0.5752155184745789,-0.015921182930469513,-0.014660766,0.011301007,172.28802,-99.547935,8.9481735,SCH
57949450000000.0,0.9156993627548218,2.495366334915161,9.646754264831543,-0.5742729306221008,-0.016749266535043716,-0.010690141499999998,0.015882496,172.43868999999998,-99.58471999999999,8.968808000000001,SCH
57949560000000.0,0.9207220673561096,2.4959053993225098,9.650778770446777,-0.5742400884628296,-0.017647160217165947,-0.002443461,0.020463986,172.58841999999999,-99.62194000000001,8.990452000000001,SCH
57949666000000.0,0.9257455468177795,2.496084213256836,9.654754638671875,-0.5758675336837769,-0.018497202545404434,-0.0070249503,0.01740966,172.73845,-99.6583,9.011778999999999,SCH
57949767000000.0,0.9307644963264465,2.4959280490875244,9.658681869506836,-0.5790345668792725,-0.01980654150247574,0.0030543262,0.022602014,172.88593999999998,-99.69484,9.036152000000001,SCH
57949863000000.0,0.9357840418815613,2.4954490661621094,9.662565231323242,-0.5836890339851379,-0.020704278722405434,0.009468411,0.02443461,173.03348,-99.73151,9.059302,SCH
57949950000000.0,0.9408016204833984,2.4946675300598145,9.66640567779541,-0.5897359251976013,-0.022368039935827255,0.01038471,0.0290161,173.18051,-99.76365,9.082696,SCH
57950035000000.0,0.9458197355270386,2.4935965538024902,9.670207023620605,-0.5971161723136902,-0.023910580202937126,0.021685716,0.032375857,173.32063,-99.7985,9.107292999999999,SCH
57950115000000.0,0.9508335590362549,2.4921891689300537,9.674582481384277,-0.6061668992042542,-0.02590806595981121,0.03176499,0.029626964,173.45879,-99.83044,9.132114999999999,SCH
57950190000000.0,0.955848753452301,2.4903435707092285,9.680521011352539,-0.6175577044487,-0.028352530673146248,0.048258353,0.03176499,173.59007,-99.864746,9.160193,SCH
57950260000000.0,0.9608672261238098,2.4883813858032227,9.687640190124512,-0.6308141946792603,-0.0310411024838686,0.06383542,0.043066,173.71558000000002,-99.90188,9.187633,SCH
57950333000000.0,0.9658846259117126,2.4867730140686035,9.6953763961792,-0.645233154296875,-0.03423748537898064,0.06566802,0.04276056599999999,173.8384,-99.93491999999999,9.212954,SCH
57950400000000.0,0.9708938002586365,2.485492706298828,9.703670501708984,-0.660702109336853,-0.0384192168712616,0.07880162,0.044593163,173.95116000000002,-99.969284,9.240217,SCH
57950463000000.0,0.9759462475776672,2.4845709800720215,9.712682723999023,-0.6775233745574951,-0.04206882417201996,0.08521569999999999,0.05222898,174.0639,-100.00676,9.269391,SCH
57950520000000.0,0.9809526205062866,2.483505964279175,9.722238540649414,-0.6952918767929077,-0.04531232640147209,0.10415252,0.05955936,174.1684,-100.03692,9.297399,SCH
57950580000000.0,0.9859621524810791,2.4812862873077393,9.732980728149414,-0.715021014213562,-0.04973399266600609,0.13103059,0.064446285,174.26755,-100.06609,9.327539,SCH
57950635000000.0,0.9909693598747253,2.4782862663269043,9.744599342346191,-0.7362655401229858,-0.05505943298339844,0.15393804,0.07086037,174.364,-100.098625,9.358993,SCH
57950685000000.0,0.9959806203842163,2.476191997528076,9.755846977233887,-0.7573722004890442,-0.06104515120387077,0.18539760000000002,0.07574729,174.44926,-100.12978000000001,9.3922825,SCH
57950735000000.0,1.0009891986846924,2.4749040603637695,9.766739845275879,-0.7783125042915344,-0.06827449798583984,0.20189096,0.07696902,174.52916000000002,-100.1557,9.421395,SCH
57950780000000.0,1.0059958696365356,2.4739532470703125,9.777320861816406,-0.7989423274993896,-0.07601382583379745,0.20922135,0.089491755,174.60225,-100.18543000000001,9.45562,SCH
57950828000000.0,1.0110039710998535,2.4730851650238037,9.78760814666748,-0.8193787336349487,-0.0838615819811821,0.21227567,0.11362094,174.67297,-100.22006999999999,9.496335,SCH
57950870000000.0,1.0160131454467773,2.471212387084961,9.797609329223633,-0.8400396108627319,-0.09176315367221832,0.22235495,0.122478485,174.73901,-100.25231,9.536358,SCH
57950910000000.0,1.0210200548171997,2.4681267738342285,9.807106971740723,-0.8608843684196472,-0.09989471733570099,0.23090707,0.13652839,174.80275,-100.291664,9.585986,SCH
57950950000000.0,1.0260257720947266,2.4629600048065186,9.815349578857422,-0.8818657994270325,-0.10848818719387054,0.24984388,0.15607607,174.86061,-100.33331,9.639588,SCH
57950987000000.0,1.0310314893722534,2.45599365234375,9.822733879089355,-0.9031322598457336,-0.11789331585168839,0.2593123,0.16737708,174.917,-100.37209,9.690762,SCH
57951020000000.0,1.0360368490219116,2.4481120109558105,9.830753326416016,-0.9253239631652832,-0.1278715282678604,0.25228736,0.16798794,174.97287,-100.411674,9.7437725,SCH
57951054000000.0,1.0410401821136475,2.43915057182312,9.839117050170898,-0.948119580745697,-0.13822950422763824,0.26725355,0.17684549,175.01158,-100.445015,9.795567,SCH
57951088000000.0,1.0460847616195679,2.4278736114501953,9.846748352050781,-0.97055983543396,-0.14925627410411835,0.28313604,0.19425514,175.0524,-100.47848499999999,9.849198,SCH
57951117000000.0,1.0510871410369873,2.415142297744751,9.85376262664795,-0.9924365878105164,-0.16182772815227509,0.28527406,0.1966986,175.09343,-100.49710999999999,9.891358,SCH
57951146000000.0,1.0560897588729858,2.400669813156128,9.86015510559082,-1.0138919353485107,-0.17397338151931763,0.2773328,0.19456059,175.13336,-100.52096,9.936672,SCH
57951176000000.0,1.0610941648483276,2.3845338821411133,9.865957260131836,-1.034952998161316,-0.18727853894233704,0.26022860000000003,0.19975294,175.17323000000002,-100.54778,9.987891000000001,SCH
57951200000000.0,1.0660970211029053,2.3668532371520996,9.871203422546387,-1.0556316375732422,-0.20047689974308014,0.24068089999999998,0.19486602,175.21623,-100.57345,10.034732,SCH
57951226000000.0,1.0711185932159424,2.3475265502929688,9.875904083251953,-1.0760046243667603,-0.21354158222675323,0.22632557,0.19975294,175.25847,-100.6019,10.087335000000001,SCH
57951250000000.0,1.076122522354126,2.326963186264038,9.880122184753418,-1.0959892272949219,-0.22652855515480042,0.21868975,0.19333886,175.30443,-100.62558,10.134447999999999,SCH
57951272000000.0,1.081142783164978,2.3050179481506348,9.883837699890137,-1.1156779527664185,-0.24010932445526123,0.20677789,0.20036379999999998,175.35889,-100.654,10.185387,SCH
57951293000000.0,1.0861440896987915,2.2840194702148438,9.886797904968262,-1.134540319442749,-0.25353604555130005,0.18845193,0.20036379999999998,175.41727,-100.679634,10.231767999999999,SCH
57951314000000.0,1.0911433696746826,2.2639029026031494,9.889007568359375,-1.1526345014572144,-0.2671912908554077,0.1685988,0.19700404,175.45563,-100.6781,10.250232,SCH
57951335000000.0,1.0961449146270752,2.2446177005767822,9.890498161315918,-1.170005202293396,-0.28059086203575134,0.14782938,0.20158553,175.4997,-100.67975,10.270739,SCH
57951356000000.0,1.1011440753936768,2.226123332977295,9.891316413879395,-1.1866871118545532,-0.29361817240715027,0.13591751,0.19730948,175.54666,-100.67806999999999,10.287747999999999,SCH
57951373000000.0,1.1061451435089111,2.207496166229248,9.8906888961792,-1.2027274370193481,-0.3071720004081726,0.12614368,0.19364429,175.59894,-100.67715,10.306151,SCH
57951390000000.0,1.1111464500427246,2.1883673667907715,9.888351440429688,-1.2181620597839355,-0.3210940957069397,0.11698069400000001,0.19792034,175.6543,-100.67825,10.325687,SCH
57951407000000.0,1.1161623001098633,2.169008255004883,9.88461971282959,-1.2339516878128052,-0.33518579602241516,0.12003502,0.1966986,175.70186,-100.67348,10.342702000000001,SCH
57951423000000.0,1.1211615800857544,2.1497106552124023,9.879874229431152,-1.2503550052642822,-0.3497310280799866,0.10262536,0.18967366,175.75797,-100.66812,10.359115,SCH
57951440000000.0,1.1261619329452515,2.1305925846099854,9.874614715576172,-1.2660645246505737,-0.3644126355648041,0.087659165,0.1881465,175.80606,-100.6614,10.374596,SCH
57951457000000.0,1.1311630010604858,2.1117382049560547,9.869132041931152,-1.2804332971572876,-0.3794512152671814,0.08643743400000001,0.19700404,175.85523999999998,-100.655785,10.391316999999999,SCH
57951474000000.0,1.1361621618270874,2.093374490737915,9.863922119140625,-1.2939362525939941,-0.39516958594322205,0.079107046,0.19700404,175.90599,-100.64785,10.404694000000001,SCH
57951486000000.0,1.1411635875701904,2.0756027698516846,9.859248161315918,-1.3068485260009766,-0.4107827842235565,0.06963864,0.20311269,175.95792,-100.64553000000001,10.422578999999999,SCH
57951500000000.0,1.1461637020111084,2.058396339416504,9.855077743530273,-1.3191999197006226,-0.42707768082618713,0.064751714,0.21807889999999996,176.00221000000002,-100.64595,10.445008999999999,SCH
57951510000000.0,1.151163935661316,2.0417230129241943,9.851385116577148,-1.3310209512710571,-0.4442458748817444,0.057726767000000005,0.22632557,176.04998999999998,-100.64721999999999,10.467281,SCH
57951524000000.0,1.156163215637207,2.0261218547821045,9.847820281982422,-1.3430571556091309,-0.4623384475708008,0.06169739,0.23915374,176.09084,-100.65593,10.497760000000001,SCH
57951537000000.0,1.1611684560775757,2.0118625164031982,9.84419059753418,-1.3557273149490356,-0.4810131788253784,0.06994407,0.24007004,176.13273999999998,-100.664375,10.527072,SCH
57951550000000.0,1.1661702394485474,1.999018907546997,9.840580940246582,-1.3699822425842285,-0.5002878904342651,0.07544186,0.25350907,176.16722,-100.67898000000001,10.562945,SCH
57951560000000.0,1.1711697578430176,1.9876210689544678,9.837037086486816,-1.3863959312438965,-0.5210095047950745,0.064751714,0.27152961,176.20456000000001,-100.695625,10.600086,SCH
57951574000000.0,1.176169753074646,1.9775997400283813,9.8335542678833,-1.404882788658142,-0.5421894788742065,0.063224554,0.28099802,176.23486,-100.7174,10.641183999999999,SCH
57951587000000.0,1.181169867515564,1.9688804149627686,9.83012866973877,-1.425328254699707,-0.5639986395835876,0.070249505,0.29535335,176.26663,-100.74646,10.688305999999999,SCH
57951600000000.0,1.1861827373504639,1.9610917568206787,9.824326515197754,-1.4476696252822876,-0.5852640867233276,0.07971791,0.31184670000000003,176.2937,-100.77995,10.738299000000001,SCH
57951608000000.0,1.1911793947219849,1.953957438468933,9.815244674682617,-1.471451997756958,-0.6068937182426453,0.0693332,0.3371976,176.32547,-100.82159399999999,10.794203,SCH
57951616000000.0,1.196178913116455,1.9480611085891724,9.795137405395508,-1.4978234767913818,-0.62696373462677,0.04795292,0.35002577,176.36198000000002,-100.87467,10.857218,SCH
57951625000000.0,1.2011781930923462,1.9437319040298462,9.759563446044922,-1.5272998809814453,-0.6454758644104004,0.025045475,0.36468655,176.40298,-100.93665,10.926935,SCH
57951633000000.0,1.2061772346496582,1.9411797523498535,9.71268367767334,-1.5574536323547363,-0.6620736122131348,0.021380282999999996,0.37965274,176.44347,-101.008255,11.003851,SCH
57951640000000.0,1.211180329322815,1.9405642747879028,9.65749740600586,-1.5865148305892944,-0.6766799688339233,0.027794369,0.39187005,176.48856,-101.08425,11.0829315,SCH
57951650000000.0,1.2161821126937866,1.940482258796692,9.592257499694824,-1.6119520664215088,-0.6898568272590637,0.026572637000000003,0.40744713,176.54523,-101.18463,11.184542,SCH
57951660000000.0,1.2211792469024658,1.939931869506836,9.515838623046875,-1.6320152282714844,-0.7017942667007446,0.02443461,0.43249258,176.60126,-78.70901500000001,11.290747999999999,SCH
57951667000000.0,1.2261765003204346,1.9385849237442017,9.426219940185547,-1.6440447568893433,-0.7117933630943298,0.020463986,0.45081854,176.66017,-78.58419,11.414222,SCH
57951675000000.0,1.2311745882034302,1.9360090494155884,9.320825576782227,-1.6445070505142212,-0.7184598445892334,0.02076942,0.45937067,176.71957,-78.45624000000001,11.540042,SCH
57951683000000.0,1.2361721992492676,1.9322887659072876,9.205424308776855,-1.6346410512924194,-0.7231596112251282,0.0027488936,0.46211955,176.78767,-78.31551999999999,11.677407,SCH
57951690000000.0,1.2411695718765259,1.9275003671646118,9.086295127868652,-1.6156760454177856,-0.7234256267547607,-0.01863139,0.453262,176.85793,-78.17824,11.811713000000001,SCH
57951700000000.0,1.2461669445037842,1.92282235622406,8.966650009155273,-1.5885249376296997,-0.7189896106719971,-0.01863139,0.44684792,176.885420248876,-78.10733384107951,11.8809306791604,SCH
57951710000000.0,1.2511647939682007,1.9196668863296509,8.850325584411621,-1.554162621498108,-0.7110136151313782,0.03481932,0.43066000000000004,176.91296,-78.0363,11.950273,SCH
57951717000000.0,1.256162405014038,1.918215274810791,8.739505767822266,-1.5134830474853516,-0.7010374069213867,0.09590584,0.40958515,176.97314,-77.89780999999999,12.084622999999999,SCH
57951725000000.0,1.2611637115478516,1.9187484979629517,8.63697624206543,-1.467341661453247,-0.6914951801300049,0.15088372,0.3753767,177.01428,-77.769554,12.208131,SCH
57951734000000.0,1.2661612033843994,1.921506404876709,8.543813705444336,-1.416095495223999,-0.6842519640922546,0.21685717,0.33353242,177.03287,-77.64237,12.328434,SCH
57951740000000.0,1.2711594104766846,1.9274985790252686,8.46393871307373,-1.3595174551010132,-0.6794782876968384,0.29749137,0.28863382,177.03265,-77.52741,12.435464,SCH
57951750000000.0,1.276157021522522,1.937302589416504,8.398167610168457,-1.2974246740341187,-0.6778401136398315,0.3717115,0.24587326,177.0095,-77.41332,12.53748,SCH
57951760000000.0,1.2811564207077026,1.9525542259216309,8.34951400756836,-1.2288498878479004,-0.6781285405158997,0.44990227,0.204029,176.96393,-77.31237,12.624094,SCH
57951767000000.0,1.286151647567749,1.973024606704712,8.31811809539795,-1.1543982028961182,-0.6801432967185974,0.5345071,0.17684549,176.89317,-77.213295,12.701269,SCH
57951776000000.0,1.2911502122879028,1.999784231185913,8.311853408813477,-1.074425458908081,-0.6829133629798889,0.6169739000000001,0.14935656,176.80338,-77.12556,12.763581,SCH
57951784000000.0,1.296147108078003,2.032095193862915,8.328473091125488,-0.9909016489982605,-0.6861706376075745,0.66798115,0.13439035,176.69278,-77.02146,12.832604,SCH
57951792000000.0,1.3011894226074219,2.06952166557312,8.368287086486816,-0.9103426337242126,-0.690751850605011,0.70738196,0.124311075,176.56555,-76.921844,12.891726,SCH
57951797000000.0,1.3061860799789429,2.1092400550842285,8.420970916748047,-0.8341383934020996,-0.6971235871315002,0.73761976,0.12003502,176.43001,-76.813225,12.951706,SCH
57951800000000.0,1.3111844062805176,2.1494030952453613,8.479299545288086,-0.7668617367744446,-0.7063786387443542,0.7837400999999999,0.13041973,176.28233,-76.700096,13.009258,SCH
57951805000000.0,1.3161814212799072,2.1895368099212646,8.54117202758789,-0.7076013088226318,-0.7192261219024658,0.8414669,0.13775012,176.1226,-76.57944,13.062011,SCH
57951810000000.0,1.321178674697876,2.227741241455078,8.598699569702148,-0.6542227864265442,-0.7363860607147217,0.9306532,0.129198,175.94476,-76.45429,13.108575,SCH
57951818000000.0,1.3261759281158447,2.2641189098358154,8.652114868164062,-0.6064094305038452,-0.7570101022720337,0.9841039,0.112704635,175.76968,-76.32466,13.153533,SCH
57951820000000.0,1.3311737775802612,2.2988057136535645,8.699115753173828,-0.553692638874054,-0.7801323533058167,1.0616838,0.10781772,175.56638,-76.18757,13.193721,SCH
57951826000000.0,1.3361680507659912,2.3319008350372314,8.73924446105957,-0.49299517273902893,-0.8040081858634949,1.1230757,0.09162979,175.35801999999998,-76.05319,13.221747,SCH
57951830000000.0,1.3411654233932495,2.3634865283966064,8.773886680603027,-0.4203711748123169,-0.8304042220115662,1.1539245,0.0711658,175.1267,-75.89749,13.251889000000002,SCH
57951834000000.0,1.3461613655090332,2.393636465072632,8.8037109375,-0.33552247285842896,-0.8581932187080383,1.1343768,0.046731193,174.8989,-75.744804,13.272355,SCH
57951843000000.0,1.3511598110198975,2.423175811767578,8.831687927246094,-0.24242864549160004,-0.8876428008079529,1.0870347,0.034208454,174.66714,-75.56724,13.292862,SCH
57951847000000.0,1.3561575412750244,2.4523978233337402,8.858928680419922,-0.14298281073570251,-0.9190388321876526,1.0311405999999999,0.008246681,174.45123,-75.391754,13.300208,SCH
57951850000000.0,1.361161231994629,2.483696222305298,8.88638973236084,-0.042088575661182404,-0.9509266018867493,0.97127575,-0.0009162978999999999,174.23862,-75.18189,13.315689,SCH
57951855000000.0,1.366161823272705,2.517744302749634,8.914350509643555,0.05809194594621658,-0.982791543006897,0.9111055,-0.010995574,174.04985,-74.9703,13.322835000000001,SCH
57951864000000.0,1.3712066411972046,2.5578455924987793,8.941886901855469,0.1535244733095169,-1.0137884616851807,0.8539896,0.0012217305,173.86543,-74.72229,13.340732999999998,SCH
57951868000000.0,1.3762072324752808,2.602277994155884,8.96835994720459,0.24286046624183655,-1.0428404808044434,0.81336707,0.02443461,173.69966000000002,-74.47149,13.358457999999999,SCH
57951870000000.0,1.3812049627304077,2.650313138961792,8.992913246154785,0.3328522741794586,-1.0683258771896362,0.7687739,0.05100725,173.54906,-74.186066,13.403387,SCH
57951876000000.0,1.3862028121948242,2.7004213333129883,9.014795303344727,0.42922163009643555,-1.0898324251174927,0.6579019,0.0842994,173.43365,-73.89814,13.458824,SCH
57951880000000.0,1.3911982774734497,2.7536747455596924,9.031457901000977,0.5213050842285156,-1.1077837944030762,0.6007859999999999,0.13255776,173.33531000000002,-73.58071,13.552210999999998,SCH
57951885000000.0,1.396196961402893,2.8106820583343506,9.041654586791992,0.6039175987243652,-1.1220275163650513,0.398895,0.1966986,173.31298999999999,-73.26671999999999,13.668095000000001,SCH
57951890000000.0,1.4011950492858887,2.8656389713287354,9.044913291931152,0.6846268177032471,-1.1250784397125244,0.037873644,0.30665436,173.34303,-72.92515,13.837951,SCH
57951897000000.0,1.4061931371688843,2.915351152420044,9.04104995727539,0.7677392363548279,-1.1071317195892334,0.07666359,0.38759398,173.31595,-72.62567,14.003815,SCH
57951900000000.0,1.4111943244934082,2.9600706100463867,9.030362129211426,0.8532059192657471,-1.0806028842926025,0.10873401,0.43860126,173.40358,-72.283455,14.2416,SCH
57951906000000.0,1.4161937236785889,3.0001046657562256,9.013337135314941,0.9407820701599121,-1.0516301393508911,0.10293079,0.47586402,173.48767,-71.98315,14.491067000000001,SCH
57951910000000.0,1.421191930770874,3.033444881439209,8.989728927612305,1.0309293270111084,-1.0239084959030151,0.11759156,0.5009095,173.5451,-71.69011,14.740129000000001,SCH
57951914000000.0,1.4261934757232666,3.05745792388916,8.959019660949707,1.1243619918823242,-1.0004150867462158,0.10873401,0.54519725,173.60826,-71.39549,14.9987,SCH
57951922000000.0,1.4311918020248413,3.075620412826538,8.915647506713867,1.2184596061706543,-0.978922426700592,0.11484267,0.55955255,173.63843,-71.08581,15.243642999999999,SCH
57951927000000.0,1.4361903667449951,3.090709686279297,8.854586601257324,1.311226725578308,-0.9589006900787354,0.17623462,0.5549710999999999,173.65411,-70.77235999999999,15.485692000000002,SCH
57951930000000.0,1.4412024021148682,3.102376699447632,8.780375480651855,1.4059667587280273,-0.9393274188041687,0.23671028,0.535118,173.64141999999998,-70.46046,15.702079000000001,SCH
57951935000000.0,1.4462008476257324,3.110806465148926,8.697993278503418,1.503741979598999,-0.9192346334457397,0.27122417,0.5207626000000001,173.61937,-70.15908,15.9103365,SCH
57951940000000.0,1.4511985778808594,3.1183619499206543,8.603628158569336,1.6046323776245117,-0.900147557258606,0.25137106,0.4877759,173.58809,-69.8382,16.120455,SCH
57951948000000.0,1.4561965465545654,3.127058982849121,8.494733810424805,1.708381175994873,-0.8824357986450195,0.21655174,0.42241332,173.55524,-69.53967,16.310595000000003,SCH
57951950000000.0,1.4611990451812744,3.139437198638916,8.388721466064453,1.8144382238388062,-0.8671329021453857,0.12522738,0.3930918,173.52946,-69.21701999999999,16.507957,SCH
57951956000000.0,1.4661997556686401,3.1571624279022217,8.298369407653809,1.9221011400222778,-0.8536221981048584,0.05681047,0.36835176,173.51164,-68.91504,16.684739999999998,SCH
57951960000000.0,1.4711973667144775,3.1781580448150635,8.21721076965332,2.027519702911377,-0.8420848846435547,0.044898596,0.34208453,173.50078,-68.57073000000001,16.881216000000002,SCH
57951964000000.0,1.4761931896209717,3.2007248401641846,8.139888763427734,2.1275646686553955,-0.8323506712913513,-0.004276057,0.32406402,173.52132,-68.23254399999999,17.076187,SCH
57951973000000.0,1.4811898469924927,3.2243363857269287,8.069005012512207,2.222090005874634,-0.8242908716201782,-0.06872234,0.31429017,173.54565,-67.87821,17.276718,SCH
57951977000000.0,1.4861866235733032,3.248361587524414,8.007631301879883,2.310861349105835,-0.8174256682395935,-0.08582657,0.28924468,173.57246,-67.534676,17.464218,SCH
57951980000000.0,1.4911819696426392,3.27298641204834,7.9571685791015625,2.396165132522583,-0.8140841126441956,-0.084910266,0.27519479999999996,173.61195,-67.16901,17.662373000000002,SCH
57951985000000.0,1.496178388595581,3.298680067062378,7.921433448791504,2.4826114177703857,-0.8153969049453735,-0.12034045,0.2941316,173.66612,-66.800674,17.862913,SCH
57951990000000.0,1.5011752843856812,3.325380325317383,7.899614334106445,2.570126533508301,-0.8187720775604248,-0.17134771,0.32742378,173.72366,-66.436134,18.058123000000002,SCH
57951994000000.0,1.5061715841293335,3.3530242443084717,7.8909220695495605,2.658630847930908,-0.8230579495429993,-0.20036379999999998,0.35094208,173.78482,-66.064926,18.253466,SCH
57952002000000.0,1.5112007856369019,3.3848485946655273,7.8973846435546875,2.746674060821533,-0.8284664750099182,-0.21258110000000002,0.36926803,173.84319,-65.67558000000001,18.461857000000002,SCH
57952006000000.0,1.5161973237991333,3.421767473220825,7.916022777557373,2.8317229747772217,-0.8338146209716797,-0.24862215,0.3903429,173.91537,-65.28851,18.677862,SCH
57952010000000.0,1.5211912393569946,3.4647891521453857,7.946139335632324,2.9109981060028076,-0.8386173248291016,-0.26389378,0.44593164,173.96107,-64.88879,18.890173,SCH
57952015000000.0,1.5261880159378052,3.5147998332977295,7.983932971954346,2.9777700901031494,-0.8419920802116394,-0.2773328,0.48258355,174.01747,-64.50033,19.101576,SCH
57952020000000.0,1.5311840772628784,3.5720155239105225,8.026792526245117,3.034832000732422,-0.8435267210006714,-0.27275133,0.5674938,174.06712,-64.09295,19.347841,SCH
57952027000000.0,1.5361814498901367,3.6381070613861084,8.068636894226074,3.088345527648926,-0.8424891233444214,-0.22540927,0.63591075,174.10765,-63.699467000000006,19.591223,SCH
57952030000000.0,1.54117751121521,3.711564302444458,8.108612060546875,3.1354401111602783,-0.8380885720252991,-0.22449298,0.6908886,174.17991999999998,-63.31474,19.874151,SCH
57952036000000.0,1.5461753606796265,3.7892022132873535,8.144003868103027,3.166778087615967,-0.8290882110595703,-0.22266038,0.7367035,174.23462,-62.943459999999995,20.160864,SCH
57952040000000.0,1.5511723756790161,3.868884325027466,8.173286437988281,3.18292498588562,-0.8147401809692383,-0.16584991,0.77457714,174.29166999999998,-62.562045999999995,20.487347,SCH
57952044000000.0,1.556168794631958,3.9402503967285156,8.18676471710205,3.1824419498443604,-0.7971688508987427,-0.1020145,0.8032878000000001,174.34409,-62.195533999999995,20.812593,SCH
57952052000000.0,1.5611660480499268,4.002484321594238,8.183767318725586,3.1684656143188477,-0.7776365876197815,-0.01160644,0.8417723,174.37561000000002,-61.814865000000005,21.1777,SCH
57952057000000.0,1.5661650896072388,4.048989772796631,8.156898498535156,3.154970169067383,-0.757403552532196,0.09010262,0.8689558000000001,174.38634,-61.452564,21.528048000000002,SCH
57952060000000.0,1.5711629390716553,4.081404209136963,8.109517097473145,3.1426947116851807,-0.7376628518104553,0.15393804,0.88789266,174.39075,-61.10290500000001,21.882887,SCH
57952065000000.0,1.5761613845825195,4.102967739105225,8.049607276916504,3.1344947814941406,-0.7194624543190002,0.2443461,0.8958339,174.35992,-60.762671999999995,22.218348000000002,SCH
57952070000000.0,1.581179141998291,4.113559722900391,7.976848125457764,3.1307191848754883,-0.7043806314468384,0.33475417,0.8872818000000001,174.29398,-60.41672,22.532679,SCH
57952078000000.0,1.5861766338348389,4.113897323608398,7.895792007446289,3.1378285884857178,-0.6916000843048096,0.38453966,0.8741482,174.21786,-60.081084999999995,22.8331,SCH
57952080000000.0,1.5911775827407837,4.103742599487305,7.806527614593506,3.1563174724578857,-0.6812097430229187,0.44806966,0.84940815,174.085,-59.732403000000005,23.103506,SCH
57952086000000.0,1.5961756706237793,4.085212707519531,7.719135761260986,3.186408519744873,-0.6735543012619019,0.505491,0.8200866,173.94688,-59.391987,23.356041,SCH
57952090000000.0,1.6011722087860107,4.059484958648682,7.634286880493164,3.2270376682281494,-0.6703110933303833,0.5161811,0.77396625,173.77945,-59.04543,23.572557,SCH
57952094000000.0,1.6061694622039795,4.031915187835693,7.556943416595459,3.2744524478912354,-0.6706589460372925,0.5412266,0.7449501999999999,173.5971,-58.70575,23.771816,SCH
57952103000000.0,1.6111692190170288,4.002579212188721,7.4867262840271,3.3283538818359375,-0.6750413179397583,0.5491679,0.70921457,173.37556,-58.354904000000005,23.931372,SCH
57952107000000.0,1.6161675453186035,3.9732613563537598,7.423562526702881,3.3852357864379883,-0.6831943988800049,0.548557,0.6814201999999999,173.15607,-58.00574,24.078083,SCH
57952110000000.0,1.6211631298065186,3.944364070892334,7.367040634155273,3.444289207458496,-0.6946567893028259,0.54244834,0.6603453,172.94391000000002,-57.65835,24.211783999999998,SCH
57952115000000.0,1.6261605024337769,3.9187583923339844,7.316283226013184,3.501446485519409,-0.7074453234672546,0.5491679,0.64568454,172.70303,-57.307080000000006,24.313776,SCH
57952120000000.0,1.6311689615249634,3.8963687419891357,7.2711381912231445,3.5569825172424316,-0.7224984765052795,0.5534439,0.61178154,172.45816000000002,-56.951719999999995,24.39115,SCH
57952124000000.0,1.6361675262451172,3.877373218536377,7.231822490692139,3.6124932765960693,-0.7395328283309937,0.5558874,0.58276546,172.21866,-56.599982999999995,24.46154,SCH
57952132000000.0,1.6411793231964111,3.8618099689483643,7.198206901550293,3.6680855751037598,-0.7582474946975708,0.56291234,0.55680364,171.97763,-56.243626,24.52378,SCH
57952136000000.0,1.6461750268936157,3.849555492401123,7.168185710906982,3.721616744995117,-0.7778692245483398,0.58032197,0.5345071,171.74241999999998,-55.893209999999996,24.574697,SCH
57952140000000.0,1.651169776916504,3.8405730724334717,7.141669273376465,3.773247480392456,-0.7988380789756775,0.57879484,0.5002986,171.50900000000001,-55.532897999999996,24.614689000000002,SCH
57952145000000.0,1.6561661958694458,3.8356099128723145,7.122546672821045,3.815119743347168,-0.8208868503570557,0.5729916,0.47464229999999996,171.28078,-55.177567,24.647095,SCH
57952150000000.0,1.6611628532409668,3.8345589637756348,7.11095666885376,3.8466835021972656,-0.8435673713684082,0.57848936,0.45570546,171.06053,-54.828762,24.669165,SCH
57952157000000.0,1.6661590337753296,3.8336181640625,7.100371360778809,3.8778655529022217,-0.866845965385437,0.57451874,0.45204028,170.84627,-54.469517,24.699947,SCH
57952160000000.0,1.671154260635376,3.8324832916259766,7.090228080749512,3.9094622135162354,-0.8895025253295898,0.5699373000000001,0.45601090000000005,170.63947,-54.11889300000001,24.725618,SCH
57952166000000.0,1.6761512756347656,3.8311619758605957,7.080502033233643,3.9414727687835693,-0.911456286907196,0.58032197,0.4605924,170.45462,-53.786106000000004,24.750303,SCH
57952170000000.0,1.6811500787734985,3.8296642303466797,7.071170806884766,3.9738759994506836,-0.9323051571846008,0.59742624,0.4569272,170.27754,-53.463104,24.77262,SCH
57952174000000.0,1.686147928237915,3.8296422958374023,7.065629005432129,4.005865573883057,-0.9515708684921265,0.61941737,0.44593164,170.09502,-53.141290000000005,24.793188,SCH
57952182000000.0,1.6911444664001465,3.8315107822418213,7.064701080322266,4.037230014801025,-0.9703470468521118,0.65087694,0.43493605,169.91347,-52.825825,24.80828,SCH
57952187000000.0,1.6961767673492432,3.8329875469207764,7.069054126739502,4.072020530700684,-0.9888550639152527,0.6786713000000001,0.42546764,169.71,-52.499413,24.821114,SCH
57952190000000.0,1.7011685371398926,3.83394455909729,7.077145099639893,4.109147548675537,-1.0072556734085083,0.6930265999999999,0.41233405,169.5118,-52.182970000000005,24.826775,SCH
57952195000000.0,1.7061614990234375,3.8334343433380127,7.086676597595215,4.150500297546387,-1.0253105163574219,0.7165449,0.39675698,169.30168,-51.866634000000005,24.826126000000002,SCH
57952200000000.0,1.7111544609069824,3.8314313888549805,7.097219944000244,4.195982456207275,-1.0433961153030396,0.7440339,0.36713,169.0991,-51.560629999999996,24.815348,SCH
57952208000000.0,1.716148853302002,3.8322553634643555,7.118104457855225,4.244716644287109,-1.0616084337234497,0.75686204,0.3359759,168.87771999999998,-51.24843,24.791786,SCH
57952210000000.0,1.7211408615112305,3.8362863063812256,7.14987850189209,4.2963547706604,-1.0806570053100586,0.7632760999999999,0.32559118,168.66061000000002,-50.94084,24.762864999999998,SCH
57952216000000.0,1.726137638092041,3.842120409011841,7.186346530914307,4.347372531890869,-1.0993415117263794,0.77763146,0.32253686,168.41762,-50.62267,24.717875,SCH
57952220000000.0,1.7311304807662964,3.84938383102417,7.226091384887695,4.397162914276123,-1.1181696653366089,0.7797695,0.31673363,168.18745,-50.307705,24.670906,SCH
57952224000000.0,1.7361271381378174,3.8575992584228516,7.2662739753723145,4.4439263343811035,-1.1367268562316895,0.75441855,0.31245756,167.94385,-49.985764,24.61557,SCH
57952230000000.0,1.7411229610443115,3.8666059970855713,7.306281566619873,4.487460136413574,-1.153839349746704,0.7635816,0.31215215,167.70016,-49.674545,24.554955,SCH
57952237000000.0,1.7461202144622803,3.875614881515503,7.345213413238525,4.527083396911621,-1.1695189476013184,0.73914695,0.33017266,167.45541,-49.34867,24.511253,SCH
57952240000000.0,1.7511152029037476,3.8844025135040283,7.382846832275391,4.562783241271973,-1.1830607652664185,0.7284568,0.33658674,167.21571,-49.04055,24.461607,SCH
57952245000000.0,1.7561124563217163,3.888683319091797,7.400433540344238,4.600942611694336,-1.1952461004257202,0.69058317,0.3210097,166.98361,-48.724174,24.419610000000002,SCH
57952250000000.0,1.7611109018325806,3.8877480030059814,7.394886493682861,4.6428046226501465,-1.2060006856918335,0.63194007,0.29810223,166.76845,-48.424416,24.382692000000002,SCH
57952254000000.0,1.7661117315292358,3.8851478099823,7.3847880363464355,4.687810897827148,-1.2168657779693604,0.55924714,0.28496864,166.55973999999998,-48.114265,24.353417999999998,SCH
57952262000000.0,1.7711082696914673,3.8819525241851807,7.375472545623779,4.735555648803711,-1.227542519569397,0.5510005,0.28313604,166.35924,-47.8205,24.320686,SCH
57952266000000.0,1.7761106491088867,3.880340576171875,7.366182327270508,4.783349990844727,-1.2376502752304077,0.5314528000000001,0.27916542,166.16338000000002,-47.478245,24.311420000000002,SCH
57952270000000.0,1.7811142206192017,3.8810501098632812,7.356642246246338,4.830087661743164,-1.2471216917037964,0.5384777,0.2773328,165.97072,-47.145534999999995,24.298922,SCH
57952275000000.0,1.7861169576644897,3.8833446502685547,7.344507694244385,4.879467487335205,-1.2553396224975586,0.52687126,0.28252518,165.78826999999998,-46.821247,24.286781,SCH
57952280000000.0,1.79111647605896,3.8868355751037598,7.328800201416016,4.933072566986084,-1.263282299041748,0.5002986,0.28405234,165.61616999999998,-46.504715000000004,24.274862,SCH
57952287000000.0,1.7961158752441406,3.891542434692383,7.308770656585693,4.9873576164245605,-1.2709319591522217,0.46517387,0.3036,165.41266000000002,-46.144768,24.286892,SCH
57952290000000.0,1.8011430501937866,3.897573471069336,7.283770561218262,5.041374683380127,-1.2777345180511475,0.45845437,0.30573806,165.21953,-45.800796999999996,24.294082999999997,SCH
57952296000000.0,1.806142807006836,3.904751777648926,7.252509593963623,5.095905303955078,-1.2845163345336914,0.45356745,0.32314770000000004,165.03197,-45.44038,24.319178,SCH
57952300000000.0,1.81114661693573,3.9133007526397705,7.21289587020874,5.15203857421875,-1.290285587310791,0.4266894,0.3295618,164.86043999999998,-45.099056,24.346159,SCH
57952304000000.0,1.816150188446045,3.9190332889556885,7.172913551330566,5.2257843017578125,-1.296284556388855,0.37690386,0.33750305,164.66336,-44.699745,24.395174,SCH
57952312000000.0,1.8211510181427002,3.918818235397339,7.138572692871094,5.329075813293457,-1.302907943725586,0.33628133,0.33964106,164.47833,-44.314163,24.445475,SCH
57952317000000.0,1.8261531591415405,3.9128928184509277,7.109622001647949,5.460812091827393,-1.3097480535507202,0.22174409,0.34513888,164.30878,-43.88692,24.536259,SCH
57952320000000.0,1.8311539888381958,3.901613712310791,7.085741996765137,5.619165897369385,-1.3192675113677979,0.09101892,0.4098906,164.14786,-43.44828,24.64839,SCH
57952325000000.0,1.836154580116272,3.8726422786712646,7.057322025299072,5.809377193450928,-1.329695701599121,-0.06627888,0.39492437,164.02065,-43.012524,24.765192000000003,SCH
57952330000000.0,1.8411552906036377,3.814685821533203,7.015537261962891,6.036142826080322,-1.3437352180480957,-0.3915646,0.3136793,163.9717,-42.56595,24.934856,SCH
57952338000000.0,1.846155047416687,3.7502028942108154,6.968679428100586,6.265614032745361,-1.3655884265899658,-0.8567385000000001,0.17073683,163.9414,-42.078309999999995,25.022467000000002,SCH
57952340000000.0,1.8511559963226318,3.699108600616455,6.924063682556152,6.467799663543701,-1.4018055200576782,-1.1716396,0.009162978,163.97661000000002,-41.56811,25.123013,SCH
57952346000000.0,1.8561538457870483,3.6768202781677246,6.883848667144775,6.643017292022705,-1.4502376317977905,-1.1866056999999999,-0.13652839,163.98216000000002,-41.000009999999996,25.099142,SCH
57952350000000.0,1.8611531257629395,3.6985700130462646,6.8501129150390625,6.791042804718018,-1.5031529664993286,-0.93951076,-0.20341812,164.02184,-40.4146,25.070545000000003,SCH
57952354000000.0,1.8661518096923828,3.7612457275390625,6.819996356964111,6.92252254486084,-1.5534436702728271,-0.5549710999999999,-0.22510384,164.07544,-39.80893,25.046532,SCH
57952363000000.0,1.8711609840393066,3.863917350769043,6.790696620941162,7.047782897949219,-1.597375512123108,-0.16340645,-0.22418754,164.08736000000002,-39.20521,24.965982,SCH
57952367000000.0,1.8761593103408813,3.9906511306762695,6.761423110961914,7.172906398773193,-1.6336922645568848,0.20891592,-0.19425514,164.06728,-38.561954,24.980999,SCH
57952370000000.0,1.8811603784561157,4.130124568939209,6.731210708618164,7.304607391357422,-1.6612207889556885,0.5363397,-0.15363261,163.97807,-37.957157,24.929134,SCH
57952375000000.0,1.8861587047576904,4.276454448699951,6.700881004333496,7.441024303436279,-1.6813085079193115,0.76174897,-0.11789699,163.85713,-37.298435,24.974833,SCH
57952380000000.0,1.8911561965942383,4.422435760498047,6.671469688415527,7.580182075500488,-1.6944820880889893,0.8875871999999999,-0.09040806,163.69348,-36.68837,24.976961,SCH
57952384000000.0,1.8961515426635742,4.565952777862549,6.643424034118652,7.720510482788086,-1.70163094997406,0.91996306,-0.07269296,163.52315,-36.07634,25.002773,SCH
57952392000000.0,1.9011521339416504,4.699324607849121,6.618537425994873,7.856966018676758,-1.7032063007354736,0.8588764999999999,-0.05375614,163.35123000000002,-35.508232,25.023972,SCH
57952396000000.0,1.9061485528945923,4.819769859313965,6.594079494476318,7.986564636230469,-1.6997331380844116,0.73914695,-0.043066,163.1623,-34.918694,25.063663000000002,SCH
57952400000000.0,1.9111517667770386,4.921009540557861,6.565042972564697,8.103630065917969,-1.6915130615234375,0.5891795,-0.020463986,162.99562,-34.37109,25.124632000000002,SCH
57952405000000.0,1.9161505699157715,5.003687858581543,6.5294718742370605,8.208353042602539,-1.6794663667678833,0.5180137,0.005192355,162.8265,-33.84377,25.173965,SCH
57952410000000.0,1.9211513996124268,5.066451072692871,6.481942176818848,8.299636840820312,-1.6667920351028442,0.39187005,0.02107485,162.70343,-33.343563,25.266579,SCH
57952417000000.0,1.926151156425476,5.110536098480225,6.423247337341309,8.378287315368652,-1.6510004997253418,0.31031954,0.06047566,162.55676,-32.871759999999995,25.340207999999997,SCH
57952420000000.0,1.9311519861221313,5.137308120727539,6.3511505126953125,8.442246437072754,-1.6329253911972046,0.25259277,0.103847094,162.43237,-32.417336,25.436275,SCH
57952426000000.0,1.9361473321914673,5.1481614112854,6.26619291305542,8.491990089416504,-1.613160252571106,0.20372356,0.13255776,162.32234,-31.990934000000003,25.548527,SCH
57952430000000.0,1.9411479234695435,5.147571563720703,6.1707539558410645,8.528684616088867,-1.59125816822052,0.17012598,0.16523905,162.18588,-31.559305,25.63941,SCH
57952434000000.0,1.9461439847946167,5.137719631195068,6.066586494445801,8.553627014160156,-1.567039966583252,0.12278391400000001,0.18570304,162.06354,-31.15376,25.743965,SCH
57952443000000.0,1.9511452913284302,5.121480941772461,5.95677375793457,8.57211971282959,-1.5400593280792236,0.06414085,0.20036379999999998,161.92819,-30.752115000000003,25.846874,SCH
57952447000000.0,1.956143856048584,5.1001505851745605,5.8428053855896,8.586052894592285,-1.5108379125595093,0.018325957,0.21013765,161.80132,-30.375803,25.957098000000002,SCH
57952450000000.0,1.9611470699310303,5.074420928955078,5.721540451049805,8.59636402130127,-1.4802438020706177,-0.027794369,0.20983220000000002,161.67723,-29.998115999999996,26.067211,SCH
57952455000000.0,1.9661527872085571,5.044855117797852,5.591938018798828,8.603658676147461,-1.4474387168884277,-0.046731193,0.20922135,161.55925,-29.651665,26.180020000000003,SCH
57952460000000.0,1.971153974533081,5.014228343963623,5.460046768188477,8.606388092041016,-1.4144774675369263,-0.07147124,0.20861048,161.44173,-29.290049,26.289513,SCH
57952468000000.0,1.9761533737182617,4.98316764831543,5.327178478240967,8.604323387145996,-1.3802777528762817,-0.049480084,0.19761491,161.32698,-28.963054999999997,26.38761,SCH
57952470000000.0,1.9811530113220215,4.952282428741455,5.197740077972412,8.59913158416748,-1.3457194566726685,-0.02687807,0.19761491,161.20741,-28.611776000000003,26.481028000000002,SCH
57952476000000.0,1.9861509799957275,4.921700954437256,5.072515487670898,8.591307640075684,-1.3117332458496094,-0.016798794,0.19150625,161.09483,-28.281747999999997,26.567053,SCH
57952480000000.0,1.991149663925171,4.891408443450928,4.951869010925293,8.582289695739746,-1.27815842628479,-0.007330383,0.19608775,160.97733,-27.95028,26.64651,SCH
57952484000000.0,1.996147632598877,4.8614068031311035,4.836063861846924,8.573223114013672,-1.24622642993927,-0.0067195175,0.19547687,160.8665,-27.628906,26.721874,SCH
57952493000000.0,2.0011484622955322,4.832670211791992,4.724860191345215,8.56330394744873,-1.2164844274520874,0.003970624,0.18997909,160.748,-27.306454,26.792206,SCH
57952497000000.0,2.006148338317871,4.805719375610352,4.618058204650879,8.552135467529297,-1.1888645887374878,0.022907447,0.19456059,160.62956,-26.991394,26.859749,SCH
57952500000000.0,2.0111539363861084,4.780465126037598,4.51538610458374,8.539738655090332,-1.1633353233337402,0.046731193,0.19975294,160.49721,-26.662249,26.918598,SCH
57952505000000.0,2.016159772872925,4.75681209564209,4.416652679443359,8.526214599609375,-1.1398013830184937,0.06658431,0.19486602,160.36874,-26.340290000000003,26.97121,SCH
57952510000000.0,2.021158456802368,4.733785629272461,4.320403575897217,8.512150764465332,-1.119198203086853,0.10354166,0.1908954,160.23692,-26.01861,27.012989,SCH
57952514000000.0,2.026158094406128,4.710831165313721,4.22568941116333,8.497809410095215,-1.0999534130096436,0.13927728,0.17165314,160.11272,-25.712229,27.045972999999996,SCH
57952522000000.0,2.031158447265625,4.687946796417236,4.132435321807861,8.483206748962402,-1.0824503898620605,0.17531833,0.1563815,159.97267,-25.3761,27.071463,SCH
57952526000000.0,2.036159038543701,4.665129661560059,4.040566444396973,8.468358993530273,-1.0668894052505493,0.19730948,0.13713925,159.84183000000002,-25.050629,27.087631,SCH
57952530000000.0,2.04115891456604,4.642323017120361,3.9512033462524414,8.45171070098877,-1.0524832010269165,0.22418754,0.11698069400000001,159.71524,-24.736975,27.091045,SCH
57952535000000.0,2.0461597442626953,4.619486331939697,3.864859104156494,8.432462692260742,-1.0392680168151855,0.24617869,0.11026118,159.59355,-24.428429,27.089437,SCH
57952540000000.0,2.0511600971221924,4.595442771911621,3.781959295272827,8.411043167114258,-1.0268058776855469,0.26450464,0.09193522,159.47592,-24.104013000000002,27.0656,SCH
57952547000000.0,2.056187152862549,4.569087982177734,3.702648401260376,8.387449264526367,-1.0148940086364746,0.2611449,0.08246681,159.3635,-23.787537,27.042982000000002,SCH
57952550000000.0,2.0611889362335205,4.541015148162842,3.6282999515533447,8.362076759338379,-1.0036494731903076,0.25503623,0.06261369,159.26349,-23.482704000000002,27.015886,SCH
57952556000000.0,2.0661916732788086,4.510891914367676,3.5596871376037598,8.33450984954834,-0.9925321340560913,0.26633725,0.05589417,159.16576,-23.18894,26.986963,SCH
57952560000000.0,2.0711891651153564,4.47983980178833,3.4976556301116943,8.305214881896973,-0.9826909303665161,0.267559,0.05161811400000001,159.0713,-22.88843,26.949081,SCH
57952564000000.0,2.0761878490448,4.448675155639648,3.442969799041748,8.27445125579834,-0.9727556705474854,0.26725355,0.050396382999999996,158.9818,-22.605383,26.910059000000004,SCH
57952573000000.0,2.0811870098114014,4.4175262451171875,3.3969171047210693,8.243439674377441,-0.9636428952217102,0.267559,0.05467244,158.88962,-22.3226,26.862726000000002,SCH
57952577000000.0,2.086185932159424,4.386515140533447,3.360675573348999,8.213319778442383,-0.9551947712898254,0.26511553,0.06383542,158.80208000000002,-22.051447,26.818806,SCH
57952580000000.0,2.0911881923675537,4.356513023376465,3.3338634967803955,8.185568809509277,-0.9471154808998108,0.27702740000000003,0.07544186,158.71649,-21.795214,26.764228999999997,SCH
57952585000000.0,2.096187114715576,4.328359127044678,3.315840244293213,8.161541938781738,-0.9390435814857483,0.26878070000000004,0.09682214,158.63316,-21.54521,26.72002,SCH
57952590000000.0,2.1011850833892822,4.301957130432129,3.306201696395874,8.141060829162598,-0.9314343929290771,0.27214047,0.12370021,158.54903000000002,-21.312004,26.65567,SCH
57952598000000.0,2.106184482574463,4.277215957641602,3.304563522338867,8.123955726623535,-0.9243609309196472,0.26358834,0.14782938,158.46628,-21.08515,26.601146999999997,SCH
57952600000000.0,2.111182928085327,4.25540828704834,3.3114020824432373,8.112071990966797,-0.9182504415512085,0.26267207,0.17043139999999998,158.37888999999998,-20.859835,26.548840000000002,SCH
57952606000000.0,2.116180419921875,4.238035202026367,3.327441692352295,8.107617378234863,-0.9119446873664856,0.25686884,0.18448131,158.29283,-20.644238,26.503744,SCH
57952610000000.0,2.1211752891540527,4.224969387054443,3.3494346141815186,8.107516288757324,-0.9051774144172668,0.25442538,0.21410827,158.18391,-20.433695,26.438270000000003,SCH
57952614000000.0,2.126213788986206,4.216781139373779,3.3738791942596436,8.107977867126465,-0.8989009857177734,0.2611449,0.27000242,158.06679,-20.222834,26.378415999999998,SCH
57952620000000.0,2.1312060356140137,4.211080551147461,3.398808479309082,8.109838485717773,-0.892356812953949,0.25320363,0.2846632,157.95381,-20.032482,26.31265,SCH
57952627000000.0,2.136204481124878,4.205944061279297,3.4226698875427246,8.115769386291504,-0.8856242299079895,0.25778514,0.3136793,157.82196000000002,-19.838696,26.251213,SCH
57952630000000.0,2.141200304031372,4.201188564300537,3.444317102432251,8.124780654907227,-0.8787946701049805,0.26878070000000004,0.3371976,157.6913,-19.648594,26.196875,SCH
57952635000000.0,2.146198034286499,4.196447849273682,3.460986852645874,8.135224342346191,-0.8725732564926147,0.25228736,0.35613444,157.56035,-19.461203,26.152407,SCH
57952640000000.0,2.1511929035186768,4.191609859466553,3.472766160964966,8.146648406982422,-0.8674972653388977,0.24556783,0.38637227,157.40828,-19.260996,26.101423,SCH
57952644000000.0,2.1561853885650635,4.1859822273254395,3.4784188270568848,8.156939506530762,-0.8636196255683899,0.25595254,0.410196,157.25696000000002,-19.064497,26.052479,SCH
57952652000000.0,2.1611788272857666,4.179126262664795,3.478543281555176,8.166207313537598,-0.8606811165809631,0.29138273,0.441961,157.09544,-18.849798,25.994009,SCH
57952656000000.0,2.166173219680786,4.169247627258301,3.474752187728882,8.17471981048584,-0.8589572310447693,0.31764993,0.45234573,156.93805,-18.63648,25.936403,SCH
57952660000000.0,2.1711668968200684,4.15616512298584,3.467221975326538,8.18221378326416,-0.8570647835731506,0.33841935,0.46914452,156.76862,-18.417095,25.878135999999998,SCH
57952665000000.0,2.1761627197265625,4.1388349533081055,3.4559290409088135,8.18774700164795,-0.8564939498901367,0.35033122,0.49296826,156.59735,-18.191338000000002,25.818005,SCH
57952670000000.0,2.181157350540161,4.11769962310791,3.440403461456299,8.189634323120117,-0.856637179851532,0.3576616,0.528093,156.39981,-17.944496,25.745924,SCH
57952677000000.0,2.186152458190918,4.093378067016602,3.4188554286956787,8.183049201965332,-0.8585958480834961,0.37323865,0.56291234,156.19904,-17.692223000000002,25.671892,SCH
57952680000000.0,2.1911461353302,4.068065166473389,3.3934645652770996,8.177535057067871,-0.8628591895103455,0.42058071,0.59437186,155.98494,-17.433613,25.582848000000002,SCH
57952686000000.0,2.1961426734924316,4.047930717468262,3.3699374198913574,8.200906753540039,-0.8689299821853638,0.4465425,0.61758476,155.76994,-17.173868,25.499026999999998,SCH
57952690000000.0,2.2011382579803467,4.033053874969482,3.3497533798217773,8.241399765014648,-0.8756701946258545,0.26908615,0.6068946,155.57027,-16.895495999999998,25.455635,SCH
57952694000000.0,2.2061336040496826,4.024483680725098,3.3379127979278564,8.265951156616211,-0.8742868900299072,0.18600847,0.5534439,155.3707,-16.662207000000002,25.37954,SCH
57952703000000.0,2.2111310958862305,4.019796371459961,3.3339486122131348,8.277613639831543,-0.8665152192115784,0.17898351,0.52626044,155.1633,-16.404322,25.306963,SCH
57952707000000.0,2.216127395629883,4.010538578033447,3.337045192718506,8.286117553710938,-0.849912166595459,0.22968534,0.4636467000000001,154.99127,-16.217434,25.23415,SCH
57952710000000.0,2.2211239337921143,3.996300220489502,3.3436567783355713,8.291449546813965,-0.8283503651618958,0.23640485,0.40744713,154.84125,-16.058294,25.197857,SCH
57952715000000.0,2.2261264324188232,3.974628210067749,3.340482234954834,8.293022155761719,-0.8034776449203491,0.18478674,0.3735441,154.70796,-15.947504,25.160887,SCH
57952720000000.0,2.231126546859741,3.9457955360412598,3.3269476890563965,8.291545867919922,-0.7761215567588806,0.13897185,0.35124752,154.5872,-15.892664000000002,25.100664000000002,SCH
57952728000000.0,2.236128807067871,3.9071688652038574,3.2925033569335938,8.290406227111816,-0.7475050687789917,0.11545353400000001,0.32375857,154.48306000000002,-15.861382500000001,25.046108,SCH
57952730000000.0,2.2411293983459473,3.859945774078369,3.2396721839904785,8.289850234985352,-0.718916118144989,0.07513642,0.29138273,154.37083,-15.813269,24.988531,SCH
57952736000000.0,2.24613094329834,3.808457851409912,3.1777305603027344,8.291895866394043,-0.6907764077186584,0.046120327,0.26022860000000003,154.26955,-15.781701000000002,24.93309,SCH
57952740000000.0,2.2511298656463623,3.753021717071533,3.107320785522461,8.296370506286621,-0.6638107895851135,0.025350908,0.21685717,154.15599,-15.706926999999999,24.8688,SCH
57952745000000.0,2.2561304569244385,3.6981842517852783,3.035628080368042,8.303309440612793,-0.6374683976173401,0.007330383,0.16798794,154.05836000000002,-15.647281,24.809721,SCH
57952753000000.0,2.261136770248413,3.6442666053771973,2.963249921798706,8.312631607055664,-0.6116020679473877,-0.0070249503,0.12095132,153.97691,-15.597517000000002,24.752981,SCH
57952757000000.0,2.2661383152008057,3.5959603786468506,2.8924198150634766,8.328039169311523,-0.5867886543273926,-0.01863139,0.074830994,153.87854,-15.511610999999998,24.686329,SCH
57952760000000.0,2.271134614944458,3.5536937713623047,2.8233842849731445,8.34980297088623,-0.5630372166633606,-0.02321288,0.04550946,153.79227,-15.436717000000002,24.620758,SCH
57952765000000.0,2.2761330604553223,3.5180089473724365,2.7545976638793945,8.378708839416504,-0.5399330258369446,-0.020158553,0.004581489,153.7207,-15.364582999999998,24.547767999999998,SCH
57952770000000.0,2.281130313873291,3.4886744022369385,2.685770034790039,8.41447639465332,-0.5172625184059143,-0.019242255,-0.02107485,153.65587,-15.298953,24.47741,SCH
57952774000000.0,2.286132574081421,3.46682071685791,2.6172893047332764,8.455036163330078,-0.495474636554718,-0.018936822,-0.056199603,153.60185,-15.21845,24.39777,SCH
57952782000000.0,2.2911324501037598,3.4523050785064697,2.5493712425231934,8.499369621276855,-0.4746362864971161,-0.016493361,-0.07696902,153.5527,-15.145273000000001,24.318876,SCH
57952786000000.0,2.296132802963257,3.445530891418457,2.480916976928711,8.5462064743042,-0.45459920167922974,-0.024740042,-0.09896017,153.50832,-15.058330999999999,24.250889,SCH
57952790000000.0,2.3011317253112793,3.446436643600464,2.4114058017730713,8.59472942352295,-0.4353044033050537,-0.021991148999999998,-0.12767084,153.47267,-14.978501999999999,24.179365,SCH
57952795000000.0,2.3061304092407227,3.4533586502075195,2.341830253601074,8.64427375793457,-0.4165332615375519,-0.01740966,-0.13836098,153.43672,-14.886364000000002,24.131926999999997,SCH
57952800000000.0,2.3111321926116943,3.465466260910034,2.2725815773010254,8.694558143615723,-0.3988601565361023,-0.022296581,-0.14263703,153.40952,-14.798232999999998,24.086351,SCH
57952807000000.0,2.316133975982666,3.481114149093628,2.2040491104125977,8.743340492248535,-0.3812987506389618,-0.019242255,-0.16096300000000002,153.39178,-14.700226,24.055653,SCH
57952810000000.0,2.321133613586426,3.499082565307617,2.1364996433258057,8.789037704467773,-0.3645918667316437,-0.024129177,-0.17501289,153.37666000000002,-14.60118,24.029768,SCH
57952816000000.0,2.3261330127716064,3.5190541744232178,2.070103883743286,8.831147193908691,-0.34861254692077637,-0.038179077,-0.18509217,153.37227,-14.497171,24.020970000000002,SCH
57952820000000.0,2.3311333656311035,3.540689468383789,2.005064010620117,8.869102478027344,-0.3335987627506256,-0.04428773,-0.18997909,153.37146,-14.396309,24.011501000000003,SCH
57952824000000.0,2.3361334800720215,3.5628812313079834,1.940321922302246,8.900603294372559,-0.3183596134185791,-0.04734206,-0.20036379999999998,153.36821,-14.286677,24.018642,SCH
57952833000000.0,2.341132402420044,3.584912061691284,1.875198483467102,8.924294471740723,-0.3028908669948578,-0.058948494000000004,-0.21135938,153.36925,-14.180736999999999,24.02971,SCH
57952837000000.0,2.3461365699768066,3.605865001678467,1.8093512058258057,8.94129467010498,-0.2872861325740814,-0.063224554,-0.21899518,153.3768,-14.077363,24.049885,SCH
57952840000000.0,2.3511362075805664,3.6252052783966064,1.7427953481674194,8.952675819396973,-0.27104803919792175,-0.063224554,-0.23365596,153.3914,-13.986718,24.070612,SCH
57952845000000.0,2.3561363220214844,3.6431591510772705,1.677843689918518,8.959569931030273,-0.25556138157844543,-0.070554934,-0.24740042,153.4017,-13.875935,24.104181,SCH
57952850000000.0,2.361140012741089,3.6599056720733643,1.6161028146743774,8.962837219238281,-0.23906071484088898,-0.07819075,-0.26511553,153.4187,-13.785948000000001,24.136055,SCH
57952858000000.0,2.3661437034606934,3.6765384674072266,1.5595811605453491,8.963146209716797,-0.22176285088062286,-0.08032878,-0.28069258,153.44223,-13.688429000000001,24.17041,SCH
57952860000000.0,2.371142864227295,3.6939377784729004,1.5098501443862915,8.961077690124512,-0.2036777138710022,-0.08643743400000001,-0.2968805,153.47293,-13.60475,24.206213,SCH
57952866000000.0,2.3761425018310547,3.7118568420410156,1.4685941934585571,8.957338333129883,-0.1846519410610199,-0.105068825,-0.31184670000000003,153.50117,-13.527276,24.250269,SCH
57952870000000.0,2.3811702728271484,3.7300124168395996,1.4393656253814697,8.95290470123291,-0.1647031009197235,-0.11178834,-0.32131509999999996,153.53271,-13.461607,24.291355,SCH
57952875000000.0,2.3861680030822754,3.7484803199768066,1.420337438583374,8.94777774810791,-0.1446128636598587,-0.12370021,-0.32253686,153.56902,-13.411398000000002,24.344099,SCH
57952880000000.0,2.391165256500244,3.7676782608032227,1.4126092195510864,8.941699981689453,-0.12450270354747772,-0.119729586,-0.31978795,153.60652,-13.371939999999999,24.392870000000002,SCH
57952887000000.0,2.3961615562438965,3.788111448287964,1.4152957201004028,8.934913635253906,-0.10406441986560822,-0.13011430000000002,-0.31764993,153.65027,-13.360831,24.445242,SCH
57952890000000.0,2.4011600017547607,3.8105368614196777,1.427596092224121,8.927719116210938,-0.08421074599027634,-0.13041973,-0.310625,153.69037,-13.349919,24.493123999999998,SCH
57952896000000.0,2.4061577320098877,3.834519386291504,1.4488637447357178,8.919713020324707,-0.06460126489400864,-0.13255776,-0.3005457,153.73283,-13.370078,24.542372,SCH
57952900000000.0,2.4111626148223877,3.8596274852752686,1.4788789749145508,8.910264015197754,-0.045922886580228806,-0.12522738,-0.28191432,153.76918,-13.386572,24.588839,SCH
57952904000000.0,2.4161629676818848,3.885209083557129,1.5156099796295166,8.899663925170898,-0.028679419308900833,-0.12583824,-0.2648101,153.80902,-13.423873,24.63946,SCH
57952912000000.0,2.42116117477417,3.91068434715271,1.5574228763580322,8.8881196975708,-0.011752639897167683,-0.1282817,-0.23976462,153.83951000000002,-13.462093,24.68891,SCH
57952916000000.0,2.4261577129364014,3.9357268810272217,1.60429048538208,8.874635696411133,0.0030838169623166323,-0.12797627,-0.21899518,153.87225,-13.509124,24.738000000000003,SCH
57952920000000.0,2.431156873703003,3.9599320888519287,1.6563681364059448,8.857892036437988,0.016966823488473892,-0.12858713,-0.20036379999999998,153.89741999999998,-13.559356,24.787884,SCH
57952925000000.0,2.4361519813537598,3.982891082763672,1.7110244035720825,8.83830738067627,0.030077412724494934,-0.12064589,-0.17165314,153.91562,-13.615787,24.835820000000002,SCH
57952930000000.0,2.4411497116088867,4.003862380981445,1.7642958164215088,8.816201210021973,0.04200098291039467,-0.12034045,-0.15363261,153.93132,-13.6663475,24.884752,SCH
57952937000000.0,2.4461452960968018,4.022793769836426,1.8161509037017822,8.791671752929688,0.053256556391716,-0.12308934,-0.129198,153.94475,-13.737597000000001,24.933526999999998,SCH
57952940000000.0,2.451179265975952,4.039254188537598,1.8667044639587402,8.764063835144043,0.06361930072307587,-0.1255328,-0.11178834,153.95396000000002,-13.8016,24.981031,SCH
57952946000000.0,2.456174373626709,4.053832054138184,1.9155694246292114,8.734994888305664,0.0735437273979187,-0.12186762,-0.09285152,153.96402,-13.874535,25.027857,SCH
57952950000000.0,2.4611775875091553,4.0666069984436035,1.9628560543060303,8.7046537399292,0.08342757076025009,-0.11362094,-0.07880162,153.96938,-13.943995999999999,25.073092000000003,SCH
57952954000000.0,2.4661781787872314,4.077316761016846,2.0089364051818848,8.672935485839844,0.09231263399124146,-0.11575896,-0.06627888,153.98146,-14.012509,25.11232,SCH
57952963000000.0,2.471177816390991,4.085190773010254,2.0545995235443115,8.639283180236816,0.09995914995670319,-0.112704635,-0.058337633,153.98872,-14.078434,25.14699,SCH
57952967000000.0,2.476182460784912,4.090431213378906,2.1003828048706055,8.603522300720215,0.10591225326061249,-0.11453723,-0.046731193,153.99171,-14.1394415,25.182914999999998,SCH
57952970000000.0,2.481182098388672,4.094396114349365,2.151449203491211,8.563688278198242,0.11143415421247482,-0.09315695,-0.03970624,153.99084,-14.19996,25.210358,SCH
57952975000000.0,2.486189365386963,4.097387313842773,2.2083349227905273,8.519869804382324,0.116075798869133,-0.098043874,-0.037873644,153.99387,-14.259991000000001,25.239252,SCH
57952980000000.0,2.491185426712036,4.102657318115234,2.275266408920288,8.474396705627441,0.1207142323255539,-0.09254608,-0.042455133,153.99335,-14.321514,25.258268,SCH
57952988000000.0,2.496182441711426,4.110195636749268,2.3523027896881104,8.427176475524902,0.12517058849334717,-0.09712757,-0.034513887,153.99313,-14.397378,25.279657,SCH
57952990000000.0,2.5011816024780273,4.119326591491699,2.4381051063537598,8.380010604858398,0.13007310032844543,-0.09162979,-0.029321532999999997,153.99283,-14.475964000000001,25.295036,SCH
57952996000000.0,2.5061795711517334,4.12982702255249,2.531865358352661,8.333270072937012,0.1354956477880478,-0.09193522,-0.026267206,153.99077,-14.552341,25.312561,SCH
57953000000000.0,2.5111827850341797,4.138988971710205,2.6277682781219482,8.288639068603516,0.14093849062919617,-0.081855945,-0.007330383,154.00371,-14.674244,25.32805,SCH
57953005000000.0,2.516188144683838,4.145486831665039,2.722639560699463,8.246931076049805,0.14677491784095764,-0.083383106,-0.007330383,154.008744526429,-14.716835484572,25.3319970957875,SCH
57953013000000.0,2.5212037563323975,4.148593425750732,2.812939405441284,8.209345817565918,0.15300023555755615,-0.06872234,-0.007330383,154.013932763617,-14.7607273435739,25.3360647016367,SCH
57953017000000.0,2.526200771331787,4.148610591888428,2.897977113723755,8.175787925720215,0.15827524662017822,-0.06627888,-0.005192355,154.01859,-14.800127,25.339716,SCH
57953020000000.0,2.5311977863311768,4.146339416503906,2.9758408069610596,8.147765159606934,0.16271570324897766,-0.05681047,0.0070249503,154.03156,-14.950408,25.35047,SCH
57953026000000.0,2.536194324493408,4.1423845291137695,3.045687198638916,8.125877380371094,0.16543827950954437,-0.04428773,0.01282817,154.04007,-15.107134,25.345888000000002,SCH
57953030000000.0,2.5411899089813232,4.1362223625183105,3.106231689453125,8.1087064743042,0.1662578135728836,-0.03573562,0.013744468000000001,154.04973999999999,-15.271445000000002,25.333942,SCH
57953034000000.0,2.546189308166504,4.127595901489258,3.156949043273926,8.095497131347656,0.16493389010429382,-0.03145956,0.014049901000000002,154.05473,-15.421864499999998,25.319294,SCH
57953042000000.0,2.5511882305145264,4.116026878356934,3.1969375610351562,8.083083152770996,0.16198767721652985,-0.015882496,0.007941248,154.06011999999998,-15.556319,25.287767000000002,SCH
57953046000000.0,2.5561890602111816,4.101256847381592,3.2257962226867676,8.069694519042969,0.15753819048404694,-0.0036651915999999997,0.008246681,154.06113,-15.676216,25.256301999999998,SCH
57953050000000.0,2.561192512512207,4.083292484283447,3.244459390640259,8.054113388061523,0.1509656012058258,0.003970624,0.008246681,154.058999262377,-15.7199892461415,25.2325111250752,SCH
57953055000000.0,2.5661919116973877,4.062352180480957,3.253798007965088,8.036123275756836,0.14373409748077393,0.019547688,-0.0067195175,154.05692,-15.762704999999999,25.209295,SCH
57953060000000.0,2.571190357208252,4.040395736694336,3.2573230266571045,8.016409873962402,0.1354881227016449,0.04917465,-0.0070249503,154.04463,-15.846210999999998,25.158813000000002,SCH
57953067000000.0,2.576188802719116,4.018861293792725,3.257667064666748,7.995502471923828,0.12720955908298492,0.06963864,-0.010995574,154.03471000000002,-15.905632999999998,25.102856,SCH
57953070000000.0,2.5811879634857178,3.998404026031494,3.2587170600891113,7.974924564361572,0.11850947886705399,0.09010262,-0.015577064,154.01695,-15.93785,25.039032000000002,SCH
57953076000000.0,2.5861871242523193,3.979584217071533,3.26381516456604,7.955990314483643,0.11019166558980942,0.099265605,-0.008552114,153.99515,-15.969988,24.974628,SCH
57953080000000.0,2.591188669204712,3.963627576828003,3.2752280235290527,7.939925193786621,0.10192647576332092,0.087659165,0.012217305,153.98623999999998,-16.006363,24.918552,SCH
57953084000000.0,2.5961880683898926,3.951005220413208,3.2937331199645996,7.9272003173828125,0.09465519338846207,0.07788532,0.03940081,153.97115,-16.044404999999998,24.861937,SCH
57953093000000.0,2.601186752319336,3.942776679992676,3.318809747695923,7.917949676513672,0.08801557868719101,0.0711658,0.06078109,153.9515,-16.084387,24.807543,SCH
57953097000000.0,2.6061851978302,3.9394569396972656,3.3500003814697266,7.912172317504883,0.08156703412532806,0.047036625,0.07849618,153.92665,-16.121317,24.763507999999998,SCH
57953100000000.0,2.6111881732940674,3.9403624534606934,3.3853230476379395,7.908749580383301,0.07518543303012848,0.020463986,0.10781772,153.90303,-16.178713000000002,24.724367,SCH
57953105000000.0,2.6161892414093018,3.9448089599609375,3.423121452331543,7.9067912101745605,0.0689648762345314,-0.00061086525,0.12736541,153.87791,-16.233341,24.691444,SCH
57953110000000.0,2.6211886405944824,3.951761484146118,3.4616715908050537,7.907035827636719,0.06229451671242714,-0.023518313,0.15668693,153.84824,-16.292059,24.673374,SCH
57953118000000.0,2.626187801361084,3.9605209827423096,3.499861001968384,7.909929275512695,0.055426206439733505,-0.04184427,0.16584991,153.81973,-16.349417000000003,24.659542000000002,SCH
57953120000000.0,2.6311864852905273,3.9689114093780518,3.534071445465088,7.914295673370361,0.047931008040905,-0.048563786,0.172264,153.78835,-16.403332000000002,24.655703,SCH
57953126000000.0,2.63618540763855,3.9747376441955566,3.560636281967163,7.91895866394043,0.03997255116701126,-0.056505035999999995,0.16035213,153.76135,-16.454798,24.655664,SCH
57953130000000.0,2.641184091567993,3.978200912475586,3.582223892211914,7.924858093261719,0.03193362429738045,-0.054367005999999996,0.14660765,153.74844,-16.510445,24.652287,SCH
57953135000000.0,2.646181583404541,3.9794833660125732,3.600914478302002,7.9326887130737305,0.02306975983083248,-0.053145275,0.14385876,153.7362,-16.556856,24.65079,SCH
57953140000000.0,2.651179313659668,3.97774600982666,3.615647792816162,7.94133186340332,0.014580611139535904,-0.04276056599999999,0.14019357,153.72342,-16.594664,24.642998000000002,SCH
57953147000000.0,2.6561787128448486,3.9722342491149902,3.6254711151123047,7.949772357940674,0.006153216119855642,-0.031154128,0.12461651,153.7145,-16.62595,24.633032,SCH
57953150000000.0,2.6611781120300293,3.9636142253875732,3.628732442855835,7.958016395568848,-0.0013530163560062647,-0.024129177,0.10659598599999999,153.70483000000002,-16.660168,24.614555,SCH
57953156000000.0,2.6661763191223145,3.9524593353271484,3.624084711074829,7.966070652008057,-0.00857316330075264,-0.016798794,0.095294975,153.69624,-16.690025,24.592278,SCH
57953160000000.0,2.671182632446289,3.9386634826660156,3.6108815670013428,7.9743452072143555,-0.01514809112995863,-0.00030543262000000003,0.07696902,153.68713,-16.719362,24.556065,SCH
57953164000000.0,2.6761810779571533,3.922419548034668,3.5893216133117676,7.983158111572266,-0.020949412137269974,-0.0021380284,0.0571159,153.68245,-16.74994,24.522308,SCH
57953172000000.0,2.6811790466308594,3.903998374938965,3.5600521564483643,7.9918084144592285,-0.026034630835056305,0.008552114,0.035430185,153.67581,-16.766829,24.477434,SCH
57953177000000.0,2.6861774921417236,3.8837738037109375,3.523987293243408,7.999491214752197,-0.03050701878964901,0.007330383,0.019547688,153.6743,-16.786892,24.435982,SCH
57953180000000.0,2.6911730766296387,3.8623335361480713,3.4827499389648438,8.006698608398438,-0.03417135402560234,0.015271631,0.0076358155,153.67014,-16.791273,24.386177,SCH
57953185000000.0,2.696171760559082,3.840289831161499,3.4379730224609375,8.014020919799805,-0.03770551458001137,0.009162978,-0.009773844,153.67352,-16.796944,24.339845999999998,SCH
57953190000000.0,2.7011687755584717,3.81870698928833,3.390594005584717,8.022257804870605,-0.04067695140838623,0.0021380284,-0.019547688,153.67763,-16.792006,24.290962,SCH
57953197000000.0,2.706202983856201,3.799389362335205,3.341279983520508,8.033122062683105,-0.0433923676609993,0.01038471,-0.038789943,153.68845,-16.78903,24.238617,SCH
57953200000000.0,2.711200475692749,3.78243350982666,3.2920312881469727,8.04580307006836,-0.045930519700050354,-0.0021380284,-0.044898596,153.69786000000002,-16.774373999999998,24.194945999999998,SCH
57953206000000.0,2.7161970138549805,3.7689976692199707,3.2443606853485107,8.060686111450195,-0.048740338534116745,-0.015577064,-0.05589417,153.71336000000002,-16.761475,24.148684,SCH
57953210000000.0,2.7211921215057373,3.759990930557251,3.1989123821258545,8.078144073486328,-0.051253918558359146,-0.013439035,-0.071776666,153.7436,-16.746107000000002,24.100475,SCH
57953214000000.0,2.726191759109497,3.7574353218078613,3.156991720199585,8.09909439086914,-0.053584709763526917,-0.029932396,-0.07696902,153.77653999999998,-16.728839999999998,24.062551000000003,SCH
57953223000000.0,2.7312064170837402,3.7609825134277344,3.1184580326080322,8.123356819152832,-0.05559596046805382,-0.03481932,-0.07269296,153.80586,-16.70681,24.03004,SCH
57953227000000.0,2.736201047897339,3.766456365585327,3.083035707473755,8.148018836975098,-0.05821622908115387,-0.04276056599999999,-0.0842994,153.8429,-16.683685,24.002237,SCH
57953230000000.0,2.7412023544311523,3.7739734649658203,3.050668716430664,8.173234939575195,-0.06063174828886986,-0.050396382999999996,-0.08521569999999999,153.88248000000002,-16.659372,23.991552,SCH
57953235000000.0,2.7462048530578613,3.782996892929077,3.020176649093628,8.197909355163574,-0.06225116550922394,-0.046731193,-0.08063421400000001,153.92303,-16.63586,23.98029,SCH
57953240000000.0,2.7511966228485107,3.793259620666504,2.9911868572235107,8.221760749816895,-0.06344245374202728,-0.05497787,-0.07574729,153.9652,-16.611732,23.975082,SCH
57953244000000.0,2.7561893463134766,3.804769515991211,2.963613748550415,8.244853973388672,-0.06364244967699051,-0.04734206,-0.073303826,154.01195,-16.594177,23.965485,SCH
57953250000000.0,2.761183023452759,3.8174610137939453,2.9373819828033447,8.267229080200195,-0.06438521295785904,-0.040927973,-0.06627888,154.05618,-16.57031,23.960005,SCH
57953256000000.0,2.7661750316619873,3.8301010131835938,2.911738872528076,8.288924217224121,-0.06460007280111313,-0.04062254,-0.061086524,154.08807,-16.55134,23.959364,SCH
57953260000000.0,2.7711679935455322,3.8423261642456055,2.8864269256591797,8.309980392456055,-0.06407099962234497,-0.03359759,-0.055588737,154.11624,-16.53054,23.956282,SCH
57953265000000.0,2.7761828899383545,3.8545663356781006,2.8609156608581543,8.329825401306152,-0.0630655288696289,-0.035430185,-0.058643065,154.14009,-16.50052,23.966639999999998,SCH
57953270000000.0,2.781175374984741,3.866804361343384,2.835355281829834,8.348395347595215,-0.06123466417193413,-0.023823743999999997,-0.05375614,154.15797,-16.475016,23.972711999999998,SCH
57953277000000.0,2.7861690521240234,3.8790998458862305,2.809619188308716,8.365739822387695,-0.05924093350768089,-0.024129177,-0.06566802,154.18317,-16.449131,23.981873999999998,SCH
57953280000000.0,2.7911648750305176,3.8914527893066406,2.7837107181549072,8.381921768188477,-0.05645819753408432,-0.027183502999999998,-0.064446285,154.20209,-16.429037,23.990301000000002,SCH
57953286000000.0,2.796160936355591,3.9039297103881836,2.7576889991760254,8.396578788757324,-0.053530771285295486,-0.026572637000000003,-0.053450707,154.2212,-16.408026,23.997726,SCH
57953290000000.0,2.801154136657715,3.9165985584259033,2.731626033782959,8.40931224822998,-0.050319865345954895,-0.037873644,-0.05375614,154.24458,-16.393654,24.008377,SCH
57953294000000.0,2.8061470985412598,3.9300405979156494,2.706834554672241,8.419828414916992,-0.047166138887405396,-0.03940081,-0.05222898,154.26057,-16.368845,24.02909,SIT
57953302000000.0,2.811142683029175,3.944498062133789,2.68385910987854,8.428051948547363,-0.043838657438755035,-0.03604105,-0.06627888,154.28195,-16.349716,24.049704000000002,SIT
57953307000000.0,2.8161368370056152,3.959893226623535,2.6625962257385254,8.434128761291504,-0.039597924798727036,-0.03634648,-0.06750060599999999,154.3015,-16.330257,24.076881,SIT
57953310000000.0,2.8211312294006348,3.9761862754821777,2.6429574489593506,8.438163757324219,-0.0351274274289608,-0.03726278,-0.079107046,154.328,-16.312803,24.100716000000002,SIT
57953315000000.0,2.8261263370513916,3.9934306144714355,2.626038074493408,8.440452575683594,-0.03056962601840496,-0.036957346,-0.08124508,154.35445,-16.307732,24.130053,SIT
57953320000000.0,2.8311216831207275,4.011659622192383,2.6127398014068604,8.441259384155273,-0.025668738409876823,-0.032375857,-0.07269296,154.38048,-16.306078,24.157747,SIT
57953328000000.0,2.8361167907714844,4.029247283935547,2.6029908657073975,8.440974235534668,-0.021208083257079124,-0.033292156,-0.06414085,154.41685,-16.297626,24.19249,SIT
57953330000000.0,2.8411121368408203,4.045391082763672,2.596675157546997,8.439817428588867,-0.016415441408753395,-0.037873644,-0.05955936,154.45139,-16.294968,24.226704,SIT
57953336000000.0,2.8461079597473145,4.060166835784912,2.593613624572754,8.437834739685059,-0.011829381808638573,-0.0290161,-0.0580322,154.48618000000002,-16.293413,24.261585,SIT
57953340000000.0,2.8511040210723877,4.073648929595947,2.593627691268921,8.435070991516113,-0.007211010437458754,-0.03023783,-0.05375614,154.51978,-16.294527,24.30023,SIT
57953344000000.0,2.8560991287231445,4.0849785804748535,2.5970683097839355,8.431964874267578,-0.0031805895268917084,-0.045814894,-0.045814894,154.54236,-16.288385,24.344316,SIT
57953353000000.0,2.861097574234009,4.093676567077637,2.604128122329712,8.428771018981934,0.0006350394105538726,-0.04428773,-0.03481932,154.56107,-16.284191,24.38372,SIT
57953357000000.0,2.8660941123962402,4.100087642669678,2.614501953125,8.424778938293457,0.004263599868863821,-0.041233405,-0.032070424,154.58078,-16.293968,24.420002,SIT
57953360000000.0,2.871090888977051,4.104434490203857,2.628013849258423,8.419523239135742,0.008089440874755383,-0.03726278,-0.022907447,154.59488000000002,-16.302951999999998,24.456129999999998,SIT
57953365000000.0,2.876089096069336,4.107170581817627,2.6432785987854004,8.41369342803955,0.012183435261249542,-0.040011674,-0.018325957,154.60686,-16.323082,24.483467,SIT
57953370000000.0,2.8810863494873047,4.108720779418945,2.659029960632324,8.407914161682129,0.015424433164298534,-0.041233405,-0.00580322,154.61296000000002,-16.336918,24.510006,SIT
57953374000000.0,2.8860836029052734,4.108321666717529,2.6749398708343506,8.40190601348877,0.018883366137742996,-0.033292156,-0.010079277,154.61711,-16.368116,24.527107,SIT
57953380000000.0,2.891080856323242,4.105423927307129,2.6907577514648438,8.395462036132812,0.022630006074905396,-0.032986722999999996,0.0012217305,154.61356999999998,-16.392372,24.548332000000002,SIT
57953386000000.0,2.89607834815979,4.1012372970581055,2.7067480087280273,8.388346672058105,0.026128144934773445,-0.036957346,0.0030543262,154.61223999999999,-16.42084,24.562996,SIT
57953390000000.0,2.90108060836792,4.096768379211426,2.723149538040161,8.38034725189209,0.029407303780317307,-0.031154128,0.007330383,154.60567,-16.449064,24.575478,SIT
57953395000000.0,2.906083106994629,4.092530250549316,2.7401552200317383,8.371782302856445,0.0328046977519989,-0.03268129,0.013744468000000001,154.6049,-16.484472,24.579395,SIT
57953400000000.0,2.9110915660858154,4.089020252227783,2.7580113410949707,8.362920761108398,0.03606986999511719,-0.018936822,0.016187929,154.60162,-16.517494,24.577332000000002,SIT
57953407000000.0,2.9160983562469482,4.085387706756592,2.7756853103637695,8.353240966796875,0.039633072912693024,-0.017715093,0.019547688,154.59734,-16.556079999999998,24.578306,SIT
57953410000000.0,2.921099901199341,4.080625057220459,2.7919762134552,8.34209156036377,0.04370630905032158,-0.015882496,0.02321288,154.59045,-16.594620000000003,24.575409,SIT
57953416000000.0,2.9261021614074707,4.074820518493652,2.806943416595459,8.32959270477295,0.047611303627491,-0.009162978,0.034208454,154.591,-16.64084,24.570509,SIT
57953420000000.0,2.9311044216156006,4.068360328674316,2.8206303119659424,8.316312789916992,0.05104775354266167,-0.009468411,0.036957346,154.59277,-16.688028,24.566433,SIT
57953424000000.0,2.9361183643341064,4.061272621154785,2.833204746246338,8.302301406860352,0.05426850914955139,-0.014660766,0.026572637000000003,154.5938,-16.736382,24.560085,SIT
57953432000000.0,2.9411182403564453,4.0540924072265625,2.8461670875549316,8.288565635681152,0.05689441040158272,-0.014660766,0.025045475,154.590488152087,-16.754388922150902,24.5550733878411,SIT
57953437000000.0,2.946129560470581,4.046778202056885,2.8596010208129883,8.275045394897461,0.05858278274536133,0.0012217305,0.03145956,154.58685,-16.77417,24.549568,SIT
57953440000000.0,2.95112943649292,4.039379119873047,2.873387098312378,8.261771202087402,0.05974168702960014,-0.0061086523,0.028405233999999998,154.59493999999998,-16.814972,24.536858,SIT
57953445000000.0,2.9561760425567627,4.0317702293396,2.887967824935913,8.248579978942871,0.060887660831213,-0.0012217305,0.022296581,154.60199,-16.851194,24.514985999999997,SIT
57953450000000.0,2.961176633834839,4.023918151855469,2.9050137996673584,8.23522663116455,0.06174468249082565,-0.0033597588,0.016798794,154.61055,-16.88327,24.497147000000002,SIT
57953458000000.0,2.9661731719970703,4.015720367431641,2.9249722957611084,8.221566200256348,0.06214909628033638,-0.0018325957999999999,0.025961772999999997,154.61414,-16.919464,24.474464,SIT
57953460000000.0,2.9711709022521973,4.00859260559082,2.944610834121704,8.209708213806152,0.06186458468437195,-0.0021380284,0.02107485,154.62317,-16.95459,24.451529,SIT
57953466000000.0,2.976166009902954,4.002579212188721,2.9636921882629395,8.199706077575684,0.06081392243504524,-0.00030543262000000003,0.016798794,154.62823,-16.98499,24.428938,SIT
57953470000000.0,2.9811649322509766,3.997215986251831,2.982496738433838,8.189300537109375,0.05973786860704422,0.011301007,0.018936822,154.63121,-17.028004,24.40247,SIT
57953474000000.0,2.9861598014831543,3.9923908710479736,3.0010557174682617,8.17818832397461,0.05808434262871742,0.0067195175,0.022907447,154.63558999999998,-17.063704,24.380136,SIT
57953483000000.0,2.991157054901123,3.9878580570220947,3.0191636085510254,8.167167663574219,0.056079450994729996,0.0036651915999999997,0.01863139,154.63994,-17.099695,24.354576,SIT
57953487000000.0,2.996152877807617,3.9835667610168457,3.036799669265747,8.156364440917969,0.054132573306560516,0.0027488936,0.020463986,154.64087,-17.13232,24.331087,SIT
57953490000000.0,3.0011515617370605,3.979504346847534,3.053997039794922,8.145761489868164,0.05198017880320549,0.01038471,0.009468411,154.65137,-17.168495,24.306252999999998,SIT
57953495000000.0,3.006150960922241,3.975658416748047,3.0707755088806152,8.135350227355957,0.049551837146282196,0.0076358155,0.0067195175,154.65929,-17.201763,24.285837,SIT
57953500000000.0,3.01115083694458,3.9726057052612305,3.0860908031463623,8.12511157989502,0.04725290834903717,0.004886922,0.004276057,154.66493740940902,-17.2189066708709,24.273579064864897,SIT
57953508000000.0,3.0161497592926025,3.9704830646514893,3.0996947288513184,8.115035057067871,0.044392846524715424,0.014966198,-0.005192355,154.67056000000002,-17.235975,24.261375,SIT
57953510000000.0,3.021148681640625,3.969242811203003,3.111675977706909,8.105111122131348,0.041408490389585495,0.015882496,-0.0067195175,154.67973,-17.268316,24.240545,SIT
57953516000000.0,3.026146173477173,3.968834161758423,3.1221258640289307,8.095333099365234,0.03829018399119377,0.011911871999999999,-0.005497787,154.69109,-17.300283,24.218695,SIT
57953520000000.0,3.0311806201934814,3.969543933868408,3.1304309368133545,8.085759162902832,0.0351264588534832,0.02076942,-0.012217305,154.70305,-17.331522,24.192781,SIT
57953525000000.0,3.0361745357513428,3.9710795879364014,3.136998176574707,8.076478958129883,0.0319848395884037,0.014049901000000002,-0.01282817,154.71411,-17.35988,24.17334,SIT
57953530000000.0,3.041171073913574,3.97259521484375,3.1430270671844482,8.068394660949707,0.02868509851396084,0.020158553,-0.016493361,154.72952,-17.377146,24.149742,SIT
57953537000000.0,3.046165943145752,3.9737794399261475,3.1489851474761963,8.06174373626709,0.025072889402508736,0.02321288,-0.01740966,154.74466999999999,-17.392097,24.129573999999998,SIT
57953540000000.0,3.051163911819458,3.975003242492676,3.153837203979492,8.05692195892334,0.02176712639629841,0.024740042,-0.009162978,154.759,-17.402786,24.113874,SIT
57953546000000.0,3.0561656951904297,3.9763972759246826,3.157254457473755,8.054003715515137,0.01810038462281227,0.032375857,-0.02107485,154.77812,-17.410223000000002,24.094294,SIT
57953550000000.0,3.0611696243286133,3.9779698848724365,3.159224510192871,8.052713394165039,0.013961682096123695,0.023823743999999997,-0.023823743999999997,154.78432,-17.415075,24.083986,SIT
57953554000000.0,3.0661768913269043,3.9797282218933105,3.1597421169281006,8.052839279174805,0.009457557462155819,0.03023783,-0.02443461,154.79079,-17.41873,24.067111999999998,SIT
57953562000000.0,3.071173906326294,3.9816222190856934,3.1596364974975586,8.054243087768555,0.005193470511585474,0.029626964,-0.028405233999999998,154.79959,-17.418509,24.054249,SIT
57953567000000.0,3.0761711597442627,3.983637809753418,3.1593141555786133,8.056907653808594,0.0011891830945387483,0.03023783,-0.02687807,154.806,-17.415121,24.040295,SIT
57953570000000.0,3.0811691284179688,3.9858784675598145,3.158949851989746,8.060786247253418,-0.0030249159317463636,0.023518313,-0.02687807,154.81425,-17.40639,24.028973,SIT
57953575000000.0,3.086167097091675,3.9885568618774414,3.158883810043335,8.065851211547852,-0.00763297313824296,0.029932396,-0.026267206,154.82034,-17.396818,24.014631,SIT
57953580000000.0,3.0911643505096436,3.991016149520874,3.1587233543395996,8.072064399719238,-0.011897790245711803,0.03176499,-0.021685716,154.82565,-17.386923,24.003492,SIT
57953588000000.0,3.096165895462036,3.9926087856292725,3.1580810546875,8.07941722869873,-0.016000432893633842,0.03268129,-0.029321532999999997,154.8338,-17.375061,23.990303,SIT
57953590000000.0,3.101198434829712,3.993950605392456,3.156229019165039,8.087798118591309,-0.020307645201683044,0.03145956,-0.018020526000000002,154.84023,-17.361411999999998,23.977863,SIT
57953596000000.0,3.106196880340576,3.9956867694854736,3.1528449058532715,8.096664428710938,-0.024759693071246147,0.03023783,-0.016798794,154.85161000000002,-17.350134,23.964132,SIT
57953600000000.0,3.1111984252929688,3.997974395751953,3.148169755935669,8.104660987854004,-0.029365135356783867,0.02107485,-0.01160644,154.85706000000002,-17.333965,23.951439,SIT
57953604000000.0,3.116196393966675,4.0008864402771,3.1427485942840576,8.110240936279297,-0.033334486186504364,0.018936822,-0.005497787,154.86127,-17.320023000000003,23.93799,SIT
57953613000000.0,3.1211912631988525,4.003856182098389,3.136630058288574,8.115026473999023,-0.03678302839398384,0.02076942,0.00030543262000000003,154.86317,-17.303638,23.934507,SIT
57953617000000.0,3.126188278198242,4.0061726570129395,3.1298470497131348,8.121042251586914,-0.0406012199819088,0.0125227375,0.00030543262000000003,154.86638,-17.285420000000002,23.934568,SIT
57953620000000.0,3.1311824321746826,4.0082197189331055,3.122711658477783,8.128273963928223,-0.043776437640190125,0.0125227375,0.0012217305,154.87018,-17.271826,23.938284,SIT
57953625000000.0,3.136180877685547,4.010648727416992,3.115710735321045,8.136838912963867,-0.04639178514480591,0.008857545999999999,0.008552114,154.87347,-17.255045000000003,23.945822,SIT
57953630000000.0,3.1411755084991455,4.013372421264648,3.108330011367798,8.146591186523438,-0.049014247953891754,-0.00061086525,0.007330383,154.87794,-17.236431,23.951979,SIT
57953634000000.0,3.1461734771728516,4.016219139099121,3.0989315509796143,8.157430648803711,-0.05073191970586777,0.0021380284,0.007941248,154.87906,-17.223541,23.956638,SIT
57953640000000.0,3.151167631149292,4.01924991607666,3.0877957344055176,8.168451309204102,-0.052960313856601715,0.0061086523,0.013744468000000001,154.8796,-17.201466,23.963621,SIT
57953646000000.0,3.156165361404419,4.022634506225586,3.075193166732788,8.177854537963867,-0.054776955395936966,-0.00061086525,0.012217305,154.8831,-17.188717,23.972048,SIT
57953650000000.0,3.1611621379852295,4.0262651443481445,3.0617120265960693,8.18582534790039,-0.05595963075757027,-0.0027488936,0.013439035,154.88501000000002,-17.16255,23.974536999999998,SIT
57953655000000.0,3.166161298751831,4.0299553871154785,3.048443078994751,8.192612648010254,-0.05655840411782265,0.005192355,0.018325957,154.88623,-17.138288,23.976412,SIT
57953660000000.0,3.171156644821167,4.033490180969238,3.0350403785705566,8.198776245117188,-0.05719037726521492,0.008857545999999999,0.013439035,154.89268,-17.110607,23.98369,SIT
57953667000000.0,3.1761577129364014,4.036319732666016,3.0205423831939697,8.205645561218262,-0.05769100785255432,0.002443461,0.010079277,154.89774,-17.086243,23.99213,SIT
57953670000000.0,3.1811554431915283,4.038363933563232,3.005267858505249,8.212813377380371,-0.05785568803548813,0.0012217305,0.016187929,154.9018,-17.061646,24.00064,SIT
57953676000000.0,3.1861555576324463,4.039281368255615,2.9897892475128174,8.219344139099121,-0.05739305168390274,0.011301007,0.0076358155,154.91093,-17.041922,24.006126000000002,SIT
57953680000000.0,3.1911532878875732,4.039515018463135,2.9742302894592285,8.225428581237793,-0.05695506930351257,0.00061086525,0.010690141499999998,154.92006,-17.023104,24.022083,SIT
57953684000000.0,3.1961545944213867,4.0402374267578125,2.958874225616455,8.23156452178955,-0.056312546133995056,0.0027488936,0.0125227375,154.92981,-17.009954,24.030828,SIT
57953692000000.0,3.20115327835083,4.04141092300415,2.9437243938446045,8.237740516662598,-0.055574044585227966,0.006414085,0.007330383,154.93712,-16.998613,24.044653,SIT
57953697000000.0,3.206155776977539,4.043024063110352,2.9287545680999756,8.243964195251465,-0.055167894810438156,0.0076358155,0.0030543262,154.94376,-16.986265,24.058493,SIT
57953700000000.0,3.21116042137146,4.044907569885254,2.9140830039978027,8.250213623046875,-0.05424623563885689,0.006414085,0.0021380284,154.94713000000002,-16.978783,24.074151999999998,SIT
57953705000000.0,3.2161641120910645,4.0461835861206055,2.900446653366089,8.256383895874023,-0.05334113910794258,0.0067195175,-0.0009162978999999999,154.95224,-16.968472,24.088144,SIT
57953710000000.0,3.221161365509033,4.046922206878662,2.8877856731414795,8.26250171661377,-0.052842382341623306,0.0061086523,-0.004581489,154.95934,-16.954967,24.105501,SIT
57953718000000.0,3.2261619567871094,4.047359943389893,2.876061201095581,8.268816947937012,-0.0511494018137455,0.006414085,-0.004581489,154.96622,-16.949482,24.1222,SIT
57953720000000.0,3.23116135597229,4.047586917877197,2.8652491569519043,8.275103569030762,-0.04935131594538689,0.008246681,-0.0061086523,154.97563,-16.934507,24.130344,SIT
57953726000000.0,3.236161470413208,4.048037528991699,2.855485439300537,8.280110359191895,-0.047779276967048645,0.009162978,-0.011301007,154.9862,-16.924572,24.138191,SIT
57953730000000.0,3.241180658340454,4.0486674308776855,2.846761703491211,8.283862113952637,-0.045965466648340225,0.005192355,-0.012217305,154.99542,-16.91827,24.145502,SIT
57953734000000.0,3.2461798191070557,4.048539638519287,2.8392271995544434,8.286931037902832,-0.04402043670415878,-0.0015271631,-0.017715093,155.00769,-16.912231,24.152372,SIT
57953743000000.0,3.251194953918457,4.047599792480469,2.8328797817230225,8.289290428161621,-0.04222789406776428,-0.0009162978999999999,-0.01282817,155.02823,-16.915117000000002,24.159817,SIT
57953747000000.0,3.256194829940796,4.046069622039795,2.8270840644836426,8.291096687316895,-0.040010008960962296,0.0076358155,-0.014049901000000002,155.05164,-16.922972,24.165777,SIT
57953750000000.0,3.261194944381714,4.043943405151367,2.8218231201171875,8.29235553741455,-0.03789404407143593,0.0018325957999999999,-0.011911871999999999,155.06615,-16.926693,24.176216,SIT
