timestamp,rel_time,acc_x,acc_y,acc_z,gyro_x,gyro_y,gyro_z,azimuth,pitch,roll,label
0.0,0.0,0.0,0.0,0.0,0.0,-0.03940081,-0.029932396,269.5491,170.73985,-50.670856,SIT
15998981.0,4.4749103977892446e-08,-7.162540714489296e-05,-1.8171527699450962e-05,-5.472683551488444e-05,5.984119297863799e-07,-0.055588737,0.0021380284,269.54016,170.70514,-50.72092,SIT
110995088.0,4.884572035734891e-07,-0.0004972671740688384,-0.00012620324559975415,-0.000379691191483289,3.707422820298234e-06,-0.06414085,0.035430185,269.54218,170.67764,-50.77641,SIT
391364704.0,2.321347665201756e-06,-0.0017545453738421202,-0.0004454452428035438,-0.00133883289527148,1.1641045603028033e-05,-0.08093964,0.05925392700000001,269.5504,170.65616,-50.83822,SIT
1000776192.0,7.446259132848354e-06,-0.004489648621529341,-0.0011402202071622014,-0.0034237282816320658,2.4102599127218127e-05,-0.07849618,0.08216137400000001,269.5731,170.64696999999995,-50.897274,SIT
2112135552.0,1.889136001409497e-05,-0.009481747634708881,-0.0024088548962026834,-0.007226062007248402,4.078972415300086e-05,-0.087659165,0.08368854,269.59232000000003,170.63698,-50.96205,SIT
3918201600.0,4.0939277823781595e-05,-0.017599444836378098,-0.004472546279430389,-0.01340552233159542,6.093837146181613e-05,-0.07849618,0.08399397,269.62222,170.6358,-51.020416,SIT
6621571584.0,7.913362060207874e-05,-0.02974838949739933,-0.007561563979834318,-0.02265547774732113,8.517291280440986e-05,-0.074830994,0.086132,269.6508,170.63545,-51.08081,SIT
10424734720.0,0.00014020963863004,-0.046829793602228165,-0.011904926039278507,-0.035668984055519104,0.00011248973896726966,-0.052839845,0.079107046,269.63397000000003,170.62073999999996,-51.1445,SIT
15520817152.0,0.00023199134739115834,-0.06969855725765228,-0.01771973818540573,-0.053107112646102905,0.00014273134001996368,-0.03145956,0.06719518,269.61646,170.60481,-51.20468,SIT
22085517312.0,0.00036318995989859104,-0.09912716597318649,-0.025202013552188873,-0.07557135075330734,0.000184145916136913,-0.01282817,0.048563786,269.59525,170.5843,-51.25638,SIT
30270580736.0,0.0005437538493424654,-0.13577476143836975,-0.03451874852180481,-0.10358129441738129,0.0002515051746740937,0.0030543262,0.03268129,269.5724,170.56118999999995,-51.300392,SIT
40199020544.0,0.0007827458903193474,-0.1801724135875702,-0.04580439254641533,-0.1375581920146942,0.00035173361538909376,0.020463986,0.022907447,269.54675,170.53561000000005,-51.336357,SIT
51962093568.0,0.0010899020126089454,-0.23270417749881744,-0.05915585532784462,-0.17781469225883484,0.000494381703902036,0.028099801,0.0061086523,269.5121,170.50217,-51.36761,SIT
65617989632.0,0.0014752696733921766,-0.29360222816467285,-0.07463131099939346,-0.22455032169818878,0.0006943530170246959,0.041233405,-0.01038471,269.4764,170.46568,-51.39075,SIT
81192009728.0,0.0019477009773254395,-0.3629527688026428,-0.09225184470415115,-0.27785202860832214,0.0009389957995153964,0.041233405,-0.005192355,269.4428,170.43364,-51.41488,SIT
98678022144.0,0.0025157174095511436,-0.4406997859477997,-0.11200232803821564,-0.3376992344856262,0.0012513467809185386,0.043676864,-0.006414085,269.4016,170.39061,-51.43224,SIT
118040903680.0,0.0031872582621872425,-0.5266569256782532,-0.13383449614048004,-0.4039721190929413,0.0016245413571596146,0.043676864,-0.0009162979,269.36603,170.3565,-51.45048,SIT
139219681280.0,0.003969169221818447,-0.6205236911773682,-0.15767106413841248,-0.47646239399909973,0.002029360504820943,0.03634648,-0.0018325958,269.32706,170.32083,-51.468845,SIT
162131116032.0,0.004867458716034889,-0.7219008207321167,-0.1834096908569336,-0.5548855662345886,0.0024631242267787457,0.045814894,0.005192355,269.29663,170.28676000000004,-51.482975,SIT
186673545216.0,0.005887217354029417,-0.8303079605102539,-0.21092744171619415,-0.6388940215110779,0.002907136455178261,0.05589417,0.008246681,269.26385,170.25665,-51.497906,SIT
212730642432.0,0.007032340858131647,-0.9452019929885864,-0.24008554220199585,-0.7280900478363037,0.0033478583209216595,0.06261369,0.016187929,269.2376,170.22935,-51.511505,SIT
240175169536.0,0.00830580573529005,-1.065993070602417,-0.2707333266735077,-0.8220383524894714,0.003755150595679879,0.061391957,0.015271631,269.2095,170.20425,-51.523598,SIT
268872335360.0,0.009709637612104416,-1.192059874534607,-0.3027123212814331,-0.9202779531478882,0.00415094243362546,0.06719518,0.01038471,269.18524,170.17719,-51.53182,SIT
298682941440.0,0.011244956403970718,-1.3227643966674805,-0.3358597755432129,-1.022332787513733,0.004529893398284912,0.07299839999999999,0.0061086523,269.16107,170.15515,-51.53995,SIT
329466150912.0,0.012912096455693245,-1.4574635028839111,-0.37001174688339233,-1.1277209520339966,0.004900430329144001,0.06414085,0.0030543262,269.13458,170.12979,-51.549927,SIT
361081798656.0,0.014710573479533195,-1.5955196619033813,-0.4050058424472809,-1.2359627485275269,0.005258474498987198,0.061086524,-0.00030543262000000003,269.10797,170.10516,-51.5561,SIT
393392357376.0,0.0166392270475626,-1.7363097667694092,-0.44068339467048645,-1.3465877771377563,0.0056285373866558075,0.06719518,-0.0009162979,269.08173,170.0781,-51.56187,SIT
426264494080.0,0.018696246668696404,-1.8792322874069214,-0.47689127922058105,-1.4591398239135742,0.006016793195158243,0.077579886,0.0009162979,269.05576,170.0528,-51.566917,SIT
459570479104.0,0.020879488438367844,-2.023711681365967,-0.5134830474853516,-1.5731817483901978,0.006409157998859882,0.07147124,-0.0027488936,269.0262,170.02617,-51.5741,SIT
493188939776.0,0.023186365142464638,-2.169203758239746,-0.5503202080726624,-1.688298225402832,0.006792278029024601,0.069027774,0.004276057,269.0044,170.00229,-51.57827800000001,SIT
527005712384.0,0.02561379224061966,-2.3151979446411133,-0.5872730612754822,-1.8040984869003296,0.007169613614678383,0.06658431,0.00580322,268.9782,169.97652,-51.58322,SIT
560914169856.0,0.028158577159047127,-2.46121883392334,-0.6242207288742065,-1.9202176332473755,0.007529794238507748,0.061391957,-0.0015271631,268.95093,169.95259,-51.589222,SIT
594815483904.0,0.03081732615828514,-2.6068274974823,-0.6610516905784607,-2.0363173484802246,0.007856044918298721,0.048563786,-0.00030543262000000003,268.9272,169.93153,-51.59858300000001,SIT
628618821632.0,0.03358618915081024,-2.751622200012207,-0.6976640224456787,-2.1520867347717285,0.008110025897622108,0.027488936,-0.01160644,268.89337,169.90863000000004,-51.609768,SIT
662241083392.0,0.03646128997206688,-2.895237445831299,-0.7339649200439453,-2.2672414779663086,0.00829719565808773,0.02107485,-0.00030543262000000003,268.8708,169.88998,-51.62201,SIT
695606968320.0,0.03943886235356331,-3.0373423099517822,-0.769870400428772,-2.381523847579956,0.008399532176554203,0.020158553,0.00030543262000000003,268.8372,169.8709,-51.636223,SIT
728648646656.0,0.042514972388744354,-3.177640676498413,-0.8053054213523865,-2.494701385498047,0.008394288830459118,0.002443461,-0.0009162979,268.80533,169.85468,-51.656982,SIT
761305432064.0,0.04568561911582947,-3.315868854522705,-0.8402032256126404,-2.6065661907196045,0.008265884593129158,-0.00061086525,-0.0018325958,268.7763,169.84015,-51.673447,SIT
793523322880.0,0.04894706979393959,-3.451793670654297,-0.8745047450065613,-2.7169337272644043,0.00803006999194622,-0.010079277,-0.005497787,268.74298,169.82495,-51.695496,SIT
825254936576.0,0.05229542404413223,-3.585211992263794,-0.9081586003303528,-2.825641393661499,0.0076669049449265,-0.014660766,-0.0036651916,268.71265,169.81485,-51.71668,SIT
856458854400.0,0.05572682246565819,-3.7159476280212402,-0.9411202669143677,-2.9325473308563232,0.007176910061389208,-0.01282817,-0.005497787,268.67944,169.80183,-51.73732,SIT
887099293696.0,0.059237729758024216,-3.8438491821289062,-0.9733515977859497,-3.0375289916992188,0.0065726591274142265,-0.017715093,-0.0076358155,268.64615,169.79053000000005,-51.760387,SIT
917145714688.0,0.06282442063093185,-3.968790054321289,-1.004820704460144,-3.140481948852539,0.005845010280609131,-0.024740042,-0.014966198,268.61044,169.77985,-51.78221,SIT
946572492800.0,0.06648336350917816,-4.090664863586426,-1.0355010032653809,-3.2413179874420166,0.005019688978791237,-0.032375857,-0.020463986,268.57465,169.76718,-51.804745,SIT
975358328832.0,0.07021120935678482,-4.209388256072998,-1.0653711557388306,-3.3399646282196045,0.004099232144653797,-0.040317107000000005,-0.02076942,268.53784,169.75687,-51.828327,SIT
1003486183424.0,0.074004627764225,-4.32489013671875,-1.0944147109985352,-3.4363791942596436,0.003071853891015053,-0.041233405,-0.029626964,268.49564,169.74367,-51.850094,SIT
1030942621696.0,0.07786056399345398,-4.437102794647217,-1.1226216554641724,-3.53062105178833,0.001967934425920248,-0.042455133,-0.028405234,268.45758,169.73091000000005,-51.874073,SIT
1057717682176.0,0.08177577704191208,-4.545975685119629,-1.1499857902526855,-3.622748613357544,0.0008015522034838796,-0.033292156,-0.029626964,268.40634,169.72668000000004,-51.862297,SIT
1083804483584.0,0.08574756234884262,-4.6515069007873535,-1.1764891147613525,-3.712782144546509,-0.00043398779234848917,-0.040927973,-0.03145956,268.35443,169.72292,-51.855755,SIT
1109198897152.0,0.08977299183607101,-4.753722667694092,-1.2021114826202393,-3.8007242679595947,-0.0017001372762024403,-0.03573562,-0.033292156,268.30637,169.71608,-51.843407,SIT
1133899284480.0,0.09384942799806595,-4.852656841278076,-1.226837158203125,-3.8865842819213867,-0.002974026370793581,-0.028099801,-0.03176499,268.24492999999995,169.71135,-51.82194000000001,SIT
1157906432000.0,0.09797440469264984,-4.9483489990234375,-1.2506543397903442,-3.970376968383789,-0.004247017204761505,-0.031154128,-0.033292156,268.1824,169.70473,-51.8022,SIT
1181222830080.0,0.10214526206254959,-5.040839195251465,-1.2735934257507324,-4.052116870880127,-0.005502762738615274,-0.0421497,-0.03573562,268.09338,169.69325,-51.77372,SIT
1203853066240.0,0.1063598170876503,-5.130166530609131,-1.2957173585891724,-4.1318206787109375,-0.006730036810040474,-0.036957346,-0.022296581,268.0149,169.68535,-51.7437,SIT
1225803169792.0,0.11061567813158035,-5.216444492340088,-1.3170571327209473,-4.209510326385498,-0.007918824441730976,-0.0421497,-0.024740042,267.91077,169.67463999999995,-51.70467,SIT
1247080611840.0,0.11491082608699799,-5.299884796142578,-1.3376035690307617,-4.285215377807617,-0.009056794457137585,-0.048563786,-0.022296581,267.81793,169.66766,-51.667244,SIT
1267694043136.0,0.11924321204423904,-5.380650997161865,-1.3573592901229858,-4.359001636505127,-0.010127843357622623,-0.05772676700000001,-0.016493361,267.71234,169.65712,-51.630825,SIT
1287653163008.0,0.12361086905002594,-5.45886754989624,-1.3763362169265747,-4.430962562561035,-0.011130621656775475,-0.064751714,-0.008246681,267.61118,169.64807,-51.597046,SIT
1306968588288.0,0.12801198661327362,-5.534656524658203,-1.3945469856262207,-4.5011491775512695,-0.012059804052114487,-0.06291912,-0.007941248,267.4919,169.63799,-51.559826,SIT
1325651722240.0,0.1324448436498642,-5.608135223388672,-1.4120047092437744,-4.569572925567627,-0.012925487011671066,-0.06597344599999999,-0.008857545999999999,267.3773,169.63046,-51.527367,SIT
1343714754560.0,0.13690778613090515,-5.679385185241699,-1.4287105798721313,-4.636227607727051,-0.013698075897991657,-0.06505715,0.0009162979,267.25662,169.6239,-51.491375,SIT
1361170268160.0,0.14139926433563232,-5.748459815979004,-1.444656252861023,-4.7010931968688965,-0.01439359039068222,-0.06841691,0.011301007,267.13815,169.62056,-51.458332,SIT
1378031501312.0,0.14591774344444275,-5.815400123596191,-1.4598467350006104,-4.764144420623779,-0.015037864446640015,-0.055283304000000005,-0.00061086525,266.99603,169.61426,-51.425865,SIT
1394311823360.0,0.150461807847023,-5.880232334136963,-1.4743032455444336,-4.825344085693359,-0.015608418732881546,-0.04734206,0.0030543262,266.8675,169.61185,-51.39859000000001,SIT
1410024996864.0,0.1550300121307373,-5.9429850578308105,-1.4880470037460327,-4.884665012359619,-0.01611815206706524,-0.048258353,0.009773844,266.71143,169.61032,-51.363655,SIT
1425185046528.0,0.1596212238073349,-6.003690719604492,-1.501098871231079,-4.942087650299072,-0.0165476705878973,-0.0421497,0.009773844,266.55963,169.60495,-51.32535,SIT
1439806128128.0,0.16423413157463074,-6.062384128570557,-1.5134798288345337,-4.9975996017456055,-0.016912687569856644,-0.02687807,0.0015271631,266.38837,169.59894,-51.276638,SIT
1453902397440.0,0.16886752843856812,-6.1191020011901855,-1.5252104997634888,-5.051196098327637,-0.01721017248928547,-0.022296581,0.00061086525,266.22345,169.5925,-51.230972,SIT
1467488141312.0,0.17352035641670227,-6.173868656158447,-1.5363277196884155,-5.102874279022217,-0.017462708055973053,-0.016187929,0.0009162979,266.03552,169.5844,-51.175816,SIT
1480577646592.0,0.178191676735878,-6.22668981552124,-1.5468906164169312,-5.152631759643555,-0.01766209863126278,-0.0143553335,0.004886922,265.8526,169.5752,-51.122204,SIT
1493185069056.0,0.18288038671016693,-6.277582168579102,-1.5569474697113037,-5.200448989868164,-0.01780547946691513,-0.009773844,0.00061086525,265.63934,169.56389,-51.063427,SIT
1505324564480.0,0.18758581578731537,-6.326575756072998,-1.5665349960327148,-5.246276378631592,-0.017910365015268326,-0.01160644,-0.0009162979,265.4331,169.5553,-51.00803,SIT
1517010157568.0,0.19230690598487854,-6.373710632324219,-1.5756927728652954,-5.290080547332764,-0.017966577783226967,0.004886922,-0.0009162979,265.322856117411,169.54854844957399,-50.9780784344205,SIT
1528255610880.0,0.19704288244247437,-6.419051647186279,-1.5844777822494507,-5.331844806671143,-0.017979860305786133,-0.008857545999999999,0.0067195175,265.21103,169.5417,-50.947697,SIT
1539074555904.0,0.2017938792705536,-6.462662696838379,-1.5929442644119263,-5.37155294418335,-0.017951155081391335,-0.015271631,-0.004886922,264.98312000000004,169.52556,-50.89024000000001,SIT
1549480493056.0,0.206560418009758,-6.504606246948242,-1.6011431217193604,-5.409193515777588,-0.017869289964437485,-0.014966198,0.005192355,264.7522,169.51108,-50.833046,SIT
1559486791680.0,0.2113403081893921,-6.544939994812012,-1.609110951423645,-5.444777488708496,-0.017776403576135635,-0.011301007,0.0070249503,264.51477,169.49611000000004,-50.77796,SIT
1569106296832.0,0.21613165736198425,-6.5836944580078125,-1.6168270111083984,-5.478262424468994,-0.017649631947278976,-0.013133603,0.0036651916,264.28387000000004,169.47838000000004,-50.726143,SIT
1578351853568.0,0.22093380987644196,-6.620899200439453,-1.6242713928222656,-5.5096025466918945,-0.017495445907115936,-0.0070249503,0.011301007,264.06995,169.4619,-50.682835,SIT
1587236044800.0,0.22574633359909058,-6.65659236907959,-1.6314820051193237,-5.538747787475586,-0.017301518470048904,-0.0070249503,0.01282817,263.85522000000003,169.4415,-50.641968,SIT
1595771060224.0,0.23056870698928833,-6.6908159255981445,-1.6385161876678467,-5.56565523147583,-0.017068184912204742,-0.014660766,0.014966198,263.64804,169.42463999999995,-50.603268,SIT
1603968827392.0,0.23540036380290985,-6.723576545715332,-1.6453982591629028,-5.590376377105713,-0.016796721145510674,-0.002443461,0.016798794,263.45648,169.40851,-50.567974,SIT
1611841142784.0,0.24024096131324768,-6.754866600036621,-1.6521376371383667,-5.613001346588135,-0.01645456627011299,0.005497787,0.019547688,263.26834,169.3914,-50.53691,SIT
1619399278592.0,0.24508994817733765,-6.784728050231934,-1.6587512493133545,-5.63362979888916,-0.016069963574409485,0.004581489,0.013439035,263.0999,169.37207,-50.506725,SIT
1626654375936.0,0.24994681775569916,-6.813231468200684,-1.665259838104248,-5.652363300323486,-0.015660544857382774,-0.005497787,0.003970624,262.93378,169.3505,-50.477547,SIT
1633617313792.0,0.2548111379146576,-6.840442657470703,-1.6716822385787964,-5.669299125671387,-0.01519102230668068,-0.0070249503,0.0076358155,262.77087,169.32755,-50.45224,SIT
1640298708992.0,0.25968265533447266,-6.866425514221191,-1.678036093711853,-5.684528350830078,-0.014697578735649586,0.0015271631,0.019547688,262.6106,169.31006000000005,-50.427387,SIT
1646708654080.0,0.2645607888698578,-6.891270160675049,-1.6843501329421997,-5.69817590713501,-0.014171954244375229,0.004276057,0.016187929,262.44745,169.28569,-50.4041,SIT
1652857241600.0,0.2694452106952667,-6.915091037750244,-1.6906638145446777,-5.710393905639648,-0.013631120324134827,0.00030543262000000003,0.013133603,262.2927,169.268,-50.38189000000001,SIT
1658754039808.0,0.2743377983570099,-6.937987327575684,-1.697013020515442,-5.721318244934082,-0.01309206709265709,0.0015271631,0.008246681,262.14154,169.24535,-50.36379,SIT
1664408485888.0,0.27923598885536194,-6.960024356842041,-1.7034107446670532,-5.7310638427734375,-0.012561343610286713,0.0021380284,0.004581489,261.99173,169.22314,-50.34716,SIT
1669829623808.0,0.28413936495780945,-6.981273174285889,-1.7098442316055298,-5.7397661209106445,-0.012028317898511887,0.0036651916,0.0061086523,261.84952000000004,169.1991,-50.332054,SIT
1675026235392.0,0.2890477478504181,-7.001804828643799,-1.7162666320800781,-5.747583389282227,-0.011494742706418037,0.007941248,0.004581489,261.778135813954,169.18795252606301,-50.3240495084202,SIT
1680006971392.0,0.29396069049835205,-7.021668434143066,-1.7226462364196777,-5.754651069641113,-0.010984741151332855,0.0070249503,0.0061086523,261.708,169.17700000000005,-50.316185,SIT
1684779958272.0,0.2988780736923218,-7.040862083435059,-1.7289841175079346,-5.761070728302002,-0.010503388941287994,0.016798794,-0.0015271631,261.56528,169.15013000000005,-50.29831,SIT
1689353322496.0,0.30379951000213623,-7.059401035308838,-1.7352707386016846,-5.766931533813477,-0.010049947537481785,0.00580322,-0.0076358155,261.4261,169.12848,-50.28467,SIT
1693734797312.0,0.3087250292301178,-7.077325344085693,-1.7414813041687012,-5.772312164306641,-0.00963235180824995,0.003970624,-0.0070249503,261.29166000000004,169.10815,-50.26626,SIT
1697931853824.0,0.31365421414375305,-7.094664096832275,-1.7476060390472412,-5.777298450469971,-0.009237660095095634,-0.0061086523,-0.013439035,261.15256,169.08417,-50.25553,SIT
1701951569920.0,0.3185870051383972,-7.111400604248047,-1.7537074089050293,-5.7820587158203125,-0.008862882852554321,-0.009773844,-0.016187929,261.0186,169.06287,-50.244225,SIT
1705801154560.0,0.32352322340011597,-7.1275248527526855,-1.7598129510879517,-5.786743640899658,-0.008494008332490921,-0.008857545999999999,-0.01282817,260.88788,169.04231,-50.234142,SIT
1709487161344.0,0.32846274971961975,-7.143040657043457,-1.7658497095108032,-5.79148530960083,-0.008160095661878586,-0.010690141499999998,-0.0125227375,260.75662,169.02353,-50.22555,SIT
1713016143872.0,0.33340543508529663,-7.157959938049316,-1.7717554569244385,-5.796394348144531,-0.007843720726668835,-0.011911872,-0.013744468,260.61975,168.99794,-50.20897,SIT
1716394393600.0,0.3383510708808899,-7.172314167022705,-1.7774841785430908,-5.801543712615967,-0.007546564564108849,-0.023518313,-0.020463986,260.482,168.97467,-50.195713,SIT
1719628070912.0,0.3433015048503876,-7.186135292053223,-1.7829891443252563,-5.80701208114624,-0.007270080037415028,-0.023518313,-0.014966198,260.35565,168.95824,-50.175636,SIT
1722722942976.0,0.34825432300567627,-7.1994500160217285,-1.7882412672042847,-5.812839984893799,-0.007035460788756609,-0.019242255,-0.008246681,260.22913,168.94253999999995,-50.15761,SIT
1725684514816.0,0.35320931673049927,-7.212285041809082,-1.793209195137024,-5.819077014923096,-0.006876330357044935,-0.020158553,-0.01160644,260.103,168.92738,-50.14108,SIT
1728518422528.0,0.35816654562950134,-7.224667549133301,-1.7979110479354858,-5.8256611824035645,-0.006761888507753611,-0.02565634,-0.005497787,259.98663,168.9139,-50.126534,SIT
1731229777920.0,0.36312583088874817,-7.2366228103637695,-1.8023747205734253,-5.832510471343994,-0.006710377987474203,-0.0290161,-0.010079277,259.86737,168.9029,-50.110935,SIT
1733823561728.0,0.3680870532989502,-7.248186111450195,-1.8065695762634277,-5.839641094207764,-0.006697199773043394,-0.028710667,-0.0061086523,259.75647000000004,168.9012,-50.104942,SIT
1736304623616.0,0.37305012345314026,-7.259392261505127,-1.8104569911956787,-5.847084999084473,-0.006699331570416689,-0.03023783,-0.011301007,259.642,168.89793,-50.09937,SIT
1738677682176.0,0.3780151307582855,-7.2702155113220215,-1.8140367269515991,-5.8548264503479,-0.006737732328474522,-0.034513887,-0.009468411,259.5318,168.89761,-50.09681,SIT
1740947193856.0,0.3829818069934845,-7.280622959136963,-1.8173164129257202,-5.86284065246582,-0.0067989882081747055,-0.03390302,-0.0070249503,259.4231,168.89323000000005,-50.09305,SIT
1743117484032.0,0.38795018196105957,-7.2906365394592285,-1.820285677909851,-5.871103763580322,-0.006907445378601551,-0.040927973,-0.00580322,259.3239,168.89784,-50.091454,SIT
1745192615936.0,0.3929200768470764,-7.3002824783325195,-1.8229347467422485,-5.879593372344971,-0.007014526519924402,-0.032986723,-0.010690141499999998,259.2278,168.89667,-50.085396,SIT
1747176652800.0,0.39789140224456787,-7.309584617614746,-1.8252557516098022,-5.888288974761963,-0.007134817074984312,-0.028405234,-0.01160644,259.13,168.9023,-50.077595,SIT
1749073395712.0,0.4028640389442444,-7.318565845489502,-1.8272426128387451,-5.8971710205078125,-0.007264869753271341,-0.032070424,-0.013439035,259.0323,168.90296999999995,-50.06967,SIT
1750886645760.0,0.40783804655075073,-7.327185153961182,-1.8289300203323364,-5.906137943267822,-0.0073894234374165535,-0.03176499,-0.005192355,258.9422,168.90594,-50.06052800000001,SIT
1752619810816.0,0.4128134548664093,-7.335399150848389,-1.8303557634353638,-5.915087699890137,-0.007515634410083294,-0.025045475,-0.009162978,258.849,168.90706,-50.04971,SIT
1754276298752.0,0.41779008507728577,-7.343216419219971,-1.8315551280975342,-5.923954963684082,-0.007684610318392515,-0.027794369,-0.008857545999999999,258.77286000000004,168.91792,-50.03952,SIT
1755859386368.0,0.42276811599731445,-7.350697040557861,-1.8325616121292114,-5.93271017074585,-0.00787061545997858,-0.027488936,-0.0067195175,258.69937000000004,168.92479,-50.026924,SIT
1757372219392.0,0.42774727940559387,-7.357893943786621,-1.833405613899231,-5.94132661819458,-0.008072222582995892,-0.023823744,-0.011301007,258.63297,168.93254,-50.019867,SIT
1758817812480.0,0.4327276647090912,-7.364856719970703,-1.8341150283813477,-5.9497809410095215,-0.008272494189441204,-0.023518313,-0.01038471,258.57123,168.93964,-50.014496,SIT
1760198918144.0,0.4377090334892273,-7.371604919433594,-1.8347123861312866,-5.958049774169922,-0.008457119576632977,-0.02443461,-0.007330383,258.51053,168.94627,-50.008484,SIT
1761518551040.0,0.442691445350647,-7.378120422363281,-1.8352144956588745,-5.9661078453063965,-0.008651487529277802,-0.028710667,-0.009162978,258.44946,168.95346,-50.00319,SIT
1762779201536.0,0.4476746618747711,-7.3843889236450195,-1.8356366157531738,-5.973934173583984,-0.008858371526002884,-0.02107485,-0.0030543262,258.3861,168.95937,-50.00060300000001,SIT
1763983491072.0,0.4526587426662445,-7.390397548675537,-1.8359928131103516,-5.981509685516357,-0.009060272015631199,-0.02107485,-0.003970624,258.31952,168.96356,-50.00055,SIT
1765133778944.0,0.4576435685157776,-7.396138668060303,-1.8362945318222046,-5.988790512084961,-0.009256265126168728,-0.020158553,-0.009162978,258.25677,168.96935,-49.998386,SIT
1766232424448.0,0.46262916922569275,-7.401610851287842,-1.8365510702133179,-5.995703220367432,-0.00943773239850998,-0.016493361,-0.0061086523,258.19937000000004,168.97527,-49.99618,SIT
1767281786880.0,0.4676153063774109,-7.406813144683838,-1.8367706537246704,-6.00218391418457,-0.009603929705917835,-0.02107485,-0.0009162979,258.1216,168.97801,-49.98933,SIT
1768283832320.0,0.47260215878486633,-7.411745548248291,-1.836961030960083,-6.008174896240234,-0.009728210978209972,-0.017104227,-0.00580322,258.0451,168.9771,-49.97891,SIT
1769240788992.0,0.47758957743644714,-7.416409015655518,-1.83712899684906,-6.013627052307129,-0.009817174635827541,-0.018020526,0.0027488936,257.9845,168.9827,-49.97602,SIT
1770154622976.0,0.48257774114608765,-7.420804977416992,-1.8372808694839478,-6.018496036529541,-0.009880303405225277,-0.005497787,0.0015271631,257.92218,168.98357,-49.967323,SIT
1771027169280.0,0.4875663220882416,-7.4249420166015625,-1.8374210596084595,-6.0227580070495605,-0.00992443598806858,-0.015882496,0.0033597588,257.85855,168.98713999999995,-49.97156500000001,SIT
1771860262912.0,0.4925553798675537,-7.428848743438721,-1.8375505208969116,-6.026429653167725,-0.009944478049874306,-0.0125227375,-0.0018325958,257.79688,168.98856,-49.968014,SIT
1772655607808.0,0.4975448250770569,-7.432551860809326,-1.8376699686050415,-6.0295281410217285,-0.009953281842172146,-0.016798794,0.004581489,257.7353,168.99083000000005,-49.97909,SIT
1773415038976.0,0.5025348663330078,-7.436075687408447,-1.8377801179885864,-6.032068729400635,-0.009925964288413525,-0.011911872,0.00580322,257.67322,168.98814,-49.985588,SIT
1774139998208.0,0.5075255632400513,-7.4394426345825195,-1.8378852605819702,-6.034088611602783,-0.009858543053269386,-0.009468411,0.010690141499999998,257.6166,168.98962,-49.99447,SIT
1774832058368.0,0.5125166773796082,-7.442672252655029,-1.8379985094070435,-6.035674571990967,-0.009751033037900925,-0.0012217305,0.011911872,257.56238,168.9892,-49.99995,SIT
1775492661248.0,0.5175081491470337,-7.445770263671875,-1.8381221294403076,-6.036884784698486,-0.00963739212602377,0.00061086525,0.01160644,257.52063,168.99161999999995,-50.013935,SIT
1776123117568.0,0.5225000381469727,-7.448688507080078,-1.838214635848999,-6.037674427032471,-0.009497759863734245,0.00580322,0.0067195175,257.48035,168.98988,-50.024025,SIT
1776724869120.0,0.5274924039840698,-7.45138692855835,-1.8382494449615479,-6.038014888763428,-0.009347373619675636,0.010690141499999998,0.01282817,257.44595,168.99402,-50.032993,SIT
1777299226624.0,0.5324851870536804,-7.453845977783203,-1.8382667303085327,-6.037940502166748,-0.009153078310191631,0.009773844,0.010995574,257.40732,168.99107,-50.040756,SIT
1777847369728.0,0.5374783873558044,-7.45604944229126,-1.838302731513977,-6.037482738494873,-0.008947739377617836,0.007941248,0.018936822,257.39687999999995,168.99858,-50.042213,SIT
1778370478080.0,0.5424720048904419,-7.458052635192871,-1.838374376296997,-6.03665828704834,-0.008712266571819782,0.010690141499999998,0.015577064,257.38184,168.99791000000005,-50.04155,SIT
1778869731328.0,0.5474658012390137,-7.459927558898926,-1.8384917974472046,-6.0354790687561035,-0.008440045639872551,0.0009162979,0.010079277,257.36774,169.00089,-50.045284,SIT
1779346178048.0,0.5524599552154541,-7.4616546630859375,-1.8387000560760498,-6.033969402313232,-0.008139132522046566,0.009162978,0.007330383,257.35275,168.99979,-50.04175,SIT
1779800866816.0,0.5574542284011841,-7.463202953338623,-1.8390446901321411,-6.032153606414795,-0.007841983810067177,0.0033597588,0.009468411,257.3349,168.99957,-50.04464,SIT
1780234715136.0,0.5624487400054932,-7.464570045471191,-1.8394792079925537,-6.030079364776611,-0.007505680434405804,0.00061086525,0.01282817,257.30466,168.99400000000003,-50.060413,SIT
1780648640512.0,0.5674433708190918,-7.465757846832275,-1.8399527072906494,-6.027792930603027,-0.007159528322517872,-0.0061086523,0.0033597588,257.26953,168.99216,-50.077396,SIT
1781043691520.0,0.5724381804466248,-7.466779708862305,-1.8404552936553955,-6.02538537979126,-0.006793388165533543,0.0033597588,0.007330383,257.24603,168.98512,-50.094406,SIT
1781420523520.0,0.5774331092834473,-7.467649936676025,-1.840982437133789,-6.02294397354126,-0.006424252409487963,0.002443461,0.004886922,257.21436,168.97784,-50.114048,SIT
1781780185088.0,0.5824282169342041,-7.468381881713867,-1.841530203819275,-6.020547389984131,-0.006061288062483072,-0.00061086525,-0.0012217305,257.18817,168.97252,-50.130722,SIT
1782123331584.0,0.5874232649803162,-7.468987941741943,-1.8420947790145874,-6.0182647705078125,-0.00572223449125886,-0.00030543262000000003,0.004886922,257.1671,168.97092,-50.147015,SIT
1782450749440.0,0.5924183130264282,-7.469467639923096,-1.842695951461792,-6.0161566734313965,-0.005388224963098764,0.010995574,0.003970624,257.14227,168.96478000000005,-50.159462,SIT
1782763094016.0,0.5974134206771851,-7.469820022583008,-1.8433542251586914,-6.014275550842285,-0.00508397351950407,0.003970624,0.0067195175,257.1198,168.9646,-50.177143,SIT
1783061020672.0,0.6024085879325867,-7.4700212478637695,-1.844044804573059,-6.012627601623535,-0.004785570781677961,0.00030543262000000003,0.0018325958,257.0921,168.95941000000005,-50.18315,SIT
1783345315840.0,0.6074037551879883,-7.470043659210205,-1.8447341918945312,-6.011207580566406,-0.004527955781668425,0.0012217305,0.004581489,257.06915,168.96164,-50.19047,SIT
1783616503808.0,0.6123989820480347,-7.469945907592773,-1.8454279899597168,-6.010020732879639,-0.004298086743801832,0.0015271631,-0.004276057,257.0309,168.95422,-50.192673,SIT
1783875239936.0,0.6173943281173706,-7.469793319702148,-1.8461370468139648,-6.009072780609131,-0.004085063468664885,-0.0018325958,-0.00061086525,256.99976000000004,168.95253,-50.196842,SIT
1784122179584.0,0.6223898530006409,-7.469635009765625,-1.8468711376190186,-6.008389949798584,-0.003859983989968896,-0.0018325958,0.004886922,256.96475,168.949,-50.199085,SIT
1784357715968.0,0.6273854374885559,-7.469511985778809,-1.8476390838623047,-6.008000373840332,-0.0036169313825666904,-0.0018325958,-0.003970624,256.942426510007,168.94618786518,-50.20018257572441,SIT
1784582373376.0,0.6323813199996948,-7.469462871551514,-1.848470687866211,-6.007908344268799,-0.0033957615960389376,-0.0061086523,-0.016798794,256.91974,168.94333,-50.201298,SIT
1784796807168.0,0.6373773813247681,-7.469520568847656,-1.849397897720337,-6.008110046386719,-0.0032052421011030674,0.0027488936,-0.008857545999999999,256.89188,168.9425,-50.20347,SIT
1785001410560.0,0.6423736214637756,-7.469703674316406,-1.8503841161727905,-6.008526802062988,-0.003020180156454444,0.0015271631,-0.009773844,256.85532,168.93495,-50.20615,SIT
1785196576768.0,0.6473701000213623,-7.470025062561035,-1.851380705833435,-6.009068965911865,-0.0028544145170599222,-0.00580322,-0.0009162979,256.8275,168.93438999999995,-50.209545,SIT
1785382830080.0,0.6523666977882385,-7.470455646514893,-1.8524049520492554,-6.009746551513672,-0.0026942696422338486,-0.013133603,-0.006414085,256.7912,168.92522,-50.211617,SIT
1785560432640.0,0.6573634743690491,-7.470954895019531,-1.853492259979248,-6.010599136352539,-0.002554364036768675,-0.018325957,0.0012217305,256.76437000000004,168.92365,-50.216854,SIT
1785729908736.0,0.6623603701591492,-7.471482276916504,-1.8546218872070312,-6.011649131774902,-0.002438200172036886,-0.01160644,-0.01038471,256.72968,168.91788,-50.22295,SIT
1785891651584.0,0.6673574447631836,-7.471999645233154,-1.8557591438293457,-6.012913703918457,-0.0023618615232408047,-0.020463986,-0.0070249503,256.70267,168.91898,-50.236282,SIT
1786045923328.0,0.6723546981811523,-7.47247314453125,-1.8568731546401978,-6.014407634735107,-0.0022945418022572994,-0.021991149,-0.007941248,256.67926,168.91173999999995,-50.23786,SIT
1786193248256.0,0.6773520708084106,-7.472872257232666,-1.8579362630844116,-6.016142845153809,-0.0022597857750952244,-0.02321288,-0.009468411,256.65656,168.90956,-50.241848,SIT
1786333757440.0,0.6823496222496033,-7.4732136726379395,-1.8589531183242798,-6.018061637878418,-0.002243036637082696,-0.018936822,-0.0027488936,256.63214,168.90483,-50.24044,SIT
1786467844096.0,0.6873474717140198,-7.47352933883667,-1.8599390983581543,-6.02008581161499,-0.0022311967331916094,-0.01985312,-0.011301007,256.60052,168.89796,-50.239334,SIT
1786595770368.0,0.6923455595970154,-7.473837852478027,-1.8608485460281372,-6.022149085998535,-0.002254151739180088,-0.018325957,-0.002443461,256.59213,168.90257,-50.232647,SIT
1786717929472.0,0.6973437666893005,-7.47415018081665,-1.8616161346435547,-6.024194717407227,-0.002320371102541685,-0.017715093,-0.01038471,256.57312,168.8997,-50.22449500000001,SIT
1786834583552.0,0.7023420929908752,-7.4744696617126465,-1.8622286319732666,-6.02617073059082,-0.0024008890613913536,-0.019547688,-0.009162978,256.55963,168.89934,-50.221107,SIT
1786945863680.0,0.707340657711029,-7.474787712097168,-1.8627421855926514,-6.028029918670654,-0.0024879216216504574,-0.025961773,-0.00580322,256.54367,168.8996,-50.218445,SIT
1787052163072.0,0.7123392820358276,-7.475096702575684,-1.8632066249847412,-6.029731273651123,-0.002574473386630416,-0.028405234,-0.010690141499999998,256.53073,168.90228000000005,-50.218597,SIT
1787153612800.0,0.7173381447792053,-7.4753899574279785,-1.863667368888855,-6.031238079071045,-0.002675962634384632,-0.025961773,-0.0012217305,256.52554,168.90986999999996,-50.22063,SIT
1787250475008.0,0.7223371863365173,-7.475667476654053,-1.864148736000061,-6.03253698348999,-0.002805298427119851,-0.024129177,-0.004886922,256.5127,168.91293000000005,-50.22187,SIT
1787342880768.0,0.7273363471031189,-7.4759368896484375,-1.8646538257598877,-6.033639430999756,-0.0029253934044390917,-0.028099801,-0.010995574,256.50272,168.91541999999995,-50.224567,SIT
1787431092224.0,0.7323357462882996,-7.476205348968506,-1.8651856184005737,-6.034555435180664,-0.0030637565068900585,-0.027488936,-0.013744468,256.47534,168.91513,-50.221428,SIT
1787515371520.0,0.737335205078125,-7.476478576660156,-1.8657463788986206,-6.035295486450195,-0.003209424903616309,-0.035430185,-0.017104227,256.44427,168.90912,-50.221188,SIT
1787595849728.0,0.7423347234725952,-7.476747512817383,-1.866341233253479,-6.035877704620361,-0.0033612269908189774,-0.0290161,-0.013133603,256.42386,168.90681,-50.22246,SIT
1787672788992.0,0.7473343014717102,-7.476985454559326,-1.8669781684875488,-6.036329746246338,-0.003509420668706298,-0.027794369,-0.007330383,256.40173,168.9032,-50.227016,SIT
1787746320384.0,0.7523338198661804,-7.477182865142822,-1.8676550388336182,-6.036689281463623,-0.0036765134427696466,-0.0290161,-0.0018325958,256.38107,168.9015,-50.23138,SIT
1787816574976.0,0.757333517074585,-7.477354526519775,-1.8683546781539917,-6.037008762359619,-0.0038713470567017794,-0.030543262,-0.007941248,256.35864,168.89734,-50.23485,SIT
1787883683840.0,0.762333333492279,-7.477513313293457,-1.869061827659607,-6.03733491897583,-0.004067936446517706,-0.0290161,-0.0076358155,256.3412,168.89404,-50.237087,SIT
1787947778048.0,0.7673332691192627,-7.477679252624512,-1.8697550296783447,-6.037646770477295,-0.004253396298736334,-0.028405234,-0.01160644,256.31964,168.88983000000005,-50.23898300000001,SIT
1788008988672.0,0.7723334431648254,-7.477869987487793,-1.870414137840271,-6.037919044494629,-0.00441187247633934,-0.025961773,0.002443461,256.3069,168.88814,-50.24146,SIT
1788067577856.0,0.7773337364196777,-7.478102207183838,-1.8710215091705322,-6.0381293296813965,-0.00455872667953372,-0.025961773,-0.008552114,256.2844,168.88273999999996,-50.240578,SIT
1788123545600.0,0.7823341488838196,-7.478390216827393,-1.8715612888336182,-6.038257122039795,-0.00469561479985714,-0.024129177,0.0033597588,256.2744,168.88367,-50.2415,SIT
1788177154048.0,0.787334680557251,-7.478753089904785,-1.8720334768295288,-6.038288593292236,-0.004828386940062046,-0.029932396,0.00030543262000000003,256.25287000000003,168.87994,-50.242264,SIT
1788228403200.0,0.792335033416748,-7.479208946228027,-1.8724437952041626,-6.03821325302124,-0.004943213425576687,-0.02565634,0.007941248,256.24295,168.88019,-50.241714,SIT
1788277424128.0,0.7973353266716003,-7.4797749519348145,-1.8727973699569702,-6.038021087646484,-0.005019943229854107,-0.026267206,0.01038471,256.2305,168.88132,-50.247375,SIT
1788324347904.0,0.8023356795310974,-7.480465888977051,-1.8730992078781128,-6.0377044677734375,-0.005085732787847519,-0.014660766,0.013439035,256.2241,168.88622,-50.2491,SIT
1788369174528.0,0.8073360323905945,-7.481283664703369,-1.8733750581741333,-6.0373148918151855,-0.005118975881487131,-0.025961773,0.010690141499999998,256.2226,168.88654,-50.25584,SIT
1788412166144.0,0.8123364448547363,-7.4822258949279785,-1.8736540079116821,-6.036915302276611,-0.005132496356964111,-0.011911872,0.010995574,256.2286,168.89162,-50.252995,SIT
1788453322752.0,0.8173367381095886,-7.483217716217041,-1.8738889694213867,-6.036468029022217,-0.005118760280311108,-0.01863139,0.0125227375,256.22897,168.89395,-50.261913,SIT
1788492644352.0,0.8223371505737305,-7.484169960021973,-1.8740159273147583,-6.035911560058594,-0.0050806342624127865,-0.0021380284,0.02076942,256.23737,168.899,-50.261158,SIT
1788530393088.0,0.8273375034332275,-7.485073566436768,-1.874011516571045,-6.035287857055664,-0.005004275124520063,0.010690141499999998,0.019242255,256.23978,168.8992,-50.260406,SIT
1788566568960.0,0.8323378562927246,-7.48594331741333,-1.873865008354187,-6.034666061401367,-0.0048886616714298725,0.00580322,0.010995574,256.2425,168.90038,-50.260162,SIT
1788601171968.0,0.8373382091522217,-7.486793041229248,-1.873584270477295,-6.034061431884766,-0.004737326875329018,0.00580322,0.0125227375,256.2491670005,168.903791023512,-50.261321347873896,SIT
1788634333184.0,0.8423385620117188,-7.487636089324951,-1.8731931447982788,-6.03344202041626,-0.004570021294057369,0.008857545999999999,0.013133603,256.25583,168.9072,-50.26248,SIT
1788666183680.0,0.8473389148712158,-7.488484859466553,-1.872713565826416,-6.032778263092041,-0.004375864751636982,0.010690141499999998,0.0125227375,256.26343,168.90941999999995,-50.26541,SIT
1788696723456.0,0.8523392081260681,-7.489350318908691,-1.8721652030944824,-6.032044887542725,-0.004144314676523209,0.010690141499999998,0.013744468,256.27637000000004,168.916,-50.266582,SIT
1788725952512.0,0.8573395013809204,-7.490242004394531,-1.8715661764144897,-6.0312180519104,-0.0038816435262560844,0.0021380284,0.0125227375,256.27133,168.92128,-50.274784,SIT
1788754001920.0,0.8623397350311279,-7.49116849899292,-1.8709325790405273,-6.030277729034424,-0.003591825719922781,0.011911872,0.010690141499999998,256.26913,168.92563,-50.277847,SIT
1788781002752.0,0.8673398494720459,-7.492120742797852,-1.8703067302703857,-6.029242992401123,-0.003287175204604864,0.010995574,0.007941248,256.2636,168.9301,-50.28573,SIT
1788806955008.0,0.8723399639129639,-7.493079662322998,-1.869743824005127,-6.028153419494629,-0.002992650493979454,0.0061086523,0.010690141499999998,256.26056,168.93617,-50.292194,SIT
1788831858688.0,0.8773400783538818,-7.494014739990234,-1.869274377822876,-6.027035713195801,-0.0027036999817937613,0.0015271631,0.010690141499999998,256.25348,168.93765,-50.305523,SIT
1788855844864.0,0.8823402523994446,-7.4948906898498535,-1.8689137697219849,-6.02590799331665,-0.002425770740956068,0.0015271631,0.012217305,256.25138707984,168.938886725549,-50.3115969747505,SIT
1788878913536.0,0.8873404264450073,-7.495668411254883,-1.868659257888794,-6.024791240692139,-0.0021255454048514366,0.0061086523,0.01282817,256.2493,168.94012,-50.317654,SIT
1788901064704.0,0.8923406600952148,-7.4962992668151855,-1.8684719800949097,-6.023716449737549,-0.001831345958635211,0.016187929,0.01160644,256.24036,168.94102,-50.32624000000001,SIT
1788922429440.0,0.8973408937454224,-7.49675989151001,-1.868312120437622,-6.022687911987305,-0.001545117818750441,0.009162978,0.009468411,256.22958,168.9368,-50.33368,SIT
1788942876672.0,0.9023410677909851,-7.4970598220825195,-1.868137240409851,-6.021677494049072,-0.0012668468989431858,0.0021380284,0.007330383,256.224471896431,168.935219510147,-50.335607305808296,SIT
1788962668544.0,0.9073413014411926,-7.497208118438721,-1.8679087162017822,-6.020658493041992,-0.000999967916868627,0.0036651916,0.005497787,256.21927,168.93361000000004,-50.33757,SIT
1788981673984.0,0.9123415350914001,-7.497213363647461,-1.867592453956604,-6.019608020782471,-0.0007440568879246712,0.010079277,0.004276057,256.2082,168.9318,-50.33095,SIT
1789000024064.0,0.9173418283462524,-7.49708366394043,-1.867182731628418,-6.01852560043335,-0.0004952329327352345,0.0125227375,-0.0070249503,256.1902,168.92686,-50.325806,SIT
1789017718784.0,0.9223441481590271,-7.496825218200684,-1.8667219877243042,-6.017448902130127,-0.00026647947379387915,0.0125227375,-0.006414085,256.17767000000003,168.92543,-50.320656,SIT
1789034758144.0,0.9273462891578674,-7.49644660949707,-1.8662405014038086,-6.016404151916504,-7.37132941139862e-05,0.013439035,-0.002443461,256.16782,168.92758,-50.317097,SIT
1789051273216.0,0.9323483109474182,-7.4959540367126465,-1.8657697439193726,-6.015418529510498,9.31913818931207e-05,0.014660766,-0.00030543262000000003,256.15784,168.92874,-50.31347,SIT
1789067264000.0,0.9373502135276794,-7.495362758636475,-1.8653308153152466,-6.014466762542725,0.00023470859741792083,0.014966198,-0.0067195175,256.15558,168.93091,-50.30866,SIT
1789082599424.0,0.9423519968986511,-7.494696617126465,-1.8649343252182007,-6.0134596824646,0.0003383233561180532,0.013439035,-0.0061086523,256.15714,168.93546,-50.304947,SIT
1789097541632.0,0.9473536610603333,-7.493982791900635,-1.8645938634872437,-6.012349605560303,0.0004371674149297178,0.00580322,-0.005192355,256.1552,168.93254,-50.301533,SIT
1789111959552.0,0.9523550271987915,-7.493256568908691,-1.8643335103988647,-6.011178970336914,0.0005010936874896288,0.0015271631,-0.01038471,256.15117999999995,168.93307,-50.29731,SIT
1789125853184.0,0.9573560953140259,-7.492544174194336,-1.864173173904419,-6.009980201721191,0.0005274709546938539,0.004886922,-0.01985312,256.14276,168.92786999999996,-50.296505,SIT
1789139353600.0,0.9623569846153259,-7.491859436035156,-1.864128828048706,-6.008772373199463,0.0005244571366347373,-0.009773844,-0.013133603,256.13622999999995,168.92645,-50.30266,SIT
1789152460800.0,0.9673576951026917,-7.491217613220215,-1.8641966581344604,-6.007594108581543,0.0005020496901124716,-0.008552114,-0.01863139,256.11987,168.91898,-50.30327,SIT
1789165174784.0,0.9723582863807678,-7.490643501281738,-1.8643240928649902,-6.0065412521362305,0.0004571194585878402,-0.018325957,-0.015271631,256.10706,168.91557,-50.311996,SIT
1789177495552.0,0.977358877658844,-7.490167617797852,-1.8644875288009644,-6.005706310272217,0.0003834560629911721,-0.014660766,-0.007330383,256.09988,168.91043,-50.31459,SIT
1789189423104.0,0.9823595881462097,-7.489845275878906,-1.8647336959838867,-6.005196571350098,0.0002703702193684876,-0.015577064,-0.008857545999999999,256.0884,168.90468,-50.32033,SIT
1789201088512.0,0.9873601198196411,-7.489714622497559,-1.8650943040847778,-6.005093097686768,0.00011967057798756287,-0.018936822,-0.0012217305,256.08997,168.90672,-50.32506,SIT
1789212360704.0,0.9923604726791382,-7.489729404449463,-1.8655160665512085,-6.005367279052734,-7.558962533948943e-05,-0.01282817,-0.010079277,256.08502000000004,168.90613000000005,-50.325775,SIT
1789223370752.0,0.9973608255386353,-7.489848613739014,-1.8659557104110718,-6.00598669052124,-0.00029635344981215894,-0.013439035,-0.01038471,256.0806,168.90553,-50.32613,SIT
1789234118656.0,1.0023611783981323,-7.490047931671143,-1.8664295673370361,-6.006855487823486,-0.0005350106512196362,-0.014660766,-0.008857545999999999,256.0741,168.90471000000005,-50.32444,SIT
1789244473344.0,1.007361888885498,-7.490304946899414,-1.8669531345367432,-6.007884502410889,-0.000756063440348953,-0.016493361,-0.006414085,256.0714,168.90413,-50.32242,SIT
1789254565888.0,1.0123623609542847,-7.490600109100342,-1.8675384521484375,-6.008997440338135,-0.000981529476121068,-0.01985312,-0.004581489,256.06885,168.90685,-50.3213,SIT
1789264527360.0,1.0173628330230713,-7.490915775299072,-1.8681973218917847,-6.010123252868652,-0.0012007685145363212,-0.021991149,0.0009162979,256.08044,168.90747,-50.31636,SIT
1789274226688.0,1.022363305091858,-7.491259574890137,-1.8688750267028809,-6.011264801025391,-0.0014216110575944185,-0.012217305,0.004886922,256.09296,168.91054,-50.309265,SIT
1789283663872.0,1.0273635387420654,-7.491640090942383,-1.8695170879364014,-6.012429237365723,-0.0016744922613725066,-0.0125227375,-0.00030543262000000003,256.10200000000003,168.91359,-50.30531,SIT
1789292838912.0,1.032363772392273,-7.492029190063477,-1.870108723640442,-6.013619422912598,-0.0019198040245100856,-0.019547688,-0.0036651916,256.10757,168.90991,-50.304028,SIT
1789301882880.0,1.0373637676239014,-7.492392063140869,-1.8706468343734741,-6.014835834503174,-0.0021524301264435053,-0.013133603,-0.0061086523,256.11288,168.90912,-50.29888,SIT
1789310664704.0,1.0423637628555298,-7.492696285247803,-1.8711286783218384,-6.016078948974609,-0.0023756283335387707,-0.013744468,-0.002443461,256.11304,168.91096000000005,-50.299454,SIT
1789319315456.0,1.0473637580871582,-7.492913246154785,-1.8715519905090332,-6.0173492431640625,-0.0025880078319460154,-0.01282817,-0.00030543262000000003,256.11264,168.91133,-50.29756500000001,SIT
1789327704064.0,1.052363634109497,-7.493052005767822,-1.871904969215393,-6.018646717071533,-0.0027952927630394697,-0.014966198,-0.0012217305,256.112,168.91241000000005,-50.296764,SIT
1789335961600.0,1.0573636293411255,-7.493134498596191,-1.8721733093261719,-6.019972324371338,-0.003011302324011922,-0.011911872,-0.006414085,256.11127,168.91343999999995,-50.294144,SIT
1789344088064.0,1.0623635053634644,-7.493179798126221,-1.8723446130752563,-6.021326065063477,-0.003231047885492444,-0.013133603,0.003970624,256.11707,168.91731,-50.29208,SIT
1789352083456.0,1.0673635005950928,-7.4932050704956055,-1.8724076747894287,-6.022707939147949,-0.003426626557484269,-0.0125227375,0.0009162979,256.1156,168.91638,-50.28722,SIT
1789359947776.0,1.0723634958267212,-7.49320650100708,-1.8724274635314941,-6.024093151092529,-0.003606062149628997,-0.009468411,0.0015271631,256.12708,168.92067,-50.279686,SIT
1789367681024.0,1.07736337184906,-7.493173122406006,-1.8724865913391113,-6.025451183319092,-0.0037800620775669813,-0.014049901000000002,-0.0009162979,256.13467,168.9221,-50.273785,SIT
1789375283200.0,1.082363247871399,-7.493076324462891,-1.8725793361663818,-6.026735782623291,-0.003907057922333479,-0.0143553335,0.0018325958,256.14355,168.92503,-50.26936,SIT
1789382754304.0,1.0873631238937378,-7.492882251739502,-1.8726606369018555,-6.027895450592041,-0.004008914344012737,-0.016798794,0.0018325958,256.14917,168.93102,-50.266445,SIT
1789390094336.0,1.0923629999160767,-7.492579936981201,-1.87272310256958,-6.028905868530273,-0.004075806122273207,-0.01282817,0.0027488936,256.164,168.92775,-50.259277,SIT
1789397303296.0,1.0973628759384155,-7.49216890335083,-1.8727747201919556,-6.029754638671875,-0.004088615998625755,-0.01038471,0.004581489,256.17822,168.92514,-50.253452,SIT
1789404381184.0,1.1023626327514648,-7.491649150848389,-1.872822880744934,-6.030430793762207,-0.004052918870002031,-0.018020526,0.006414085,256.18616000000003,168.92502,-50.248077,SIT
1789411328000.0,1.1073623895645142,-7.491020679473877,-1.8728740215301514,-6.030925273895264,-0.003981655463576317,-0.013744468,0.013744468,256.19882,168.92563,-50.239662,SIT
1789418143744.0,1.1123621463775635,-7.490310192108154,-1.8729264736175537,-6.031260967254639,-0.003882187884300947,-0.01160644,0.014660766,256.20795,168.92494,-50.233707,SIT
1789424959488.0,1.1173619031906128,-7.489587306976318,-1.8729650974273682,-6.031512260437012,-0.0037594595924019814,-0.011301007,0.021991149,256.2229,168.92768999999996,-50.228455,SIT
1789431644160.0,1.122361660003662,-7.488890171051025,-1.872997760772705,-6.031681060791016,-0.003594545880332589,-0.013744468,0.013439035,256.21436,168.9234,-50.22537,SIT
1789438197760.0,1.1273614168167114,-7.488231658935547,-1.8730515241622925,-6.031709671020508,-0.0034243876580148935,-0.017104227,0.012217305,256.21204,168.92587,-50.223785,SIT
1789444751360.0,1.1323612928390503,-7.487622261047363,-1.8731439113616943,-6.03156042098999,-0.003239603014662862,-0.018325957,0.013744468,256.20972,168.9251,-50.22192800000001,SIT
1789451173888.0,1.1373611688613892,-7.487070083618164,-1.873282551765442,-6.031216144561768,-0.0030439686961472034,-0.025350908,0.010690141499999998,256.20386,168.92578,-50.222115,SIT
1789457596416.0,1.1423609256744385,-7.486583232879639,-1.8734694719314575,-6.0306806564331055,-0.0028374313842505217,-0.022602014,0.009773844,256.20605,168.92442,-50.22209,SIT
1789463887872.0,1.1473606824874878,-7.486169815063477,-1.8736858367919922,-6.0300421714782715,-0.0026156362146139145,-0.018936822,0.016798794,256.2095,168.92404,-50.22407000000001,SIT
1789470179328.0,1.1523605585098267,-7.485838413238525,-1.8739147186279297,-6.029368877410889,-0.0023816637694835663,-0.016187929,0.0143553335,256.21063,168.92068,-50.22696,SIT
1789476339712.0,1.157360315322876,-7.485608100891113,-1.874140739440918,-6.028652667999268,-0.0021365743596106768,-0.024129177,0.0125227375,256.2139,168.91856,-50.232304,SIT
1789482500096.0,1.1623600721359253,-7.48549222946167,-1.8743499517440796,-6.027892589569092,-0.0018770125461742282,-0.019547688,0.007941248,256.2194,168.91681,-50.23118,SIT
1789488529408.0,1.1673598289489746,-7.485472679138184,-1.8745298385620117,-6.027129173278809,-0.0016182289691641927,-0.022602014,0.01985312,256.22888,168.91942,-50.235477,SIT
1789494558720.0,1.1723594665527344,-7.485532760620117,-1.8746696710586548,-6.026398181915283,-0.0013496008468791842,-0.026267206,0.019242255,256.2337,168.9175,-50.229942,SIT
1789500456960.0,1.1773592233657837,-7.48565673828125,-1.8747594356536865,-6.025732517242432,-0.0010781172895804048,-0.032070424,0.010690141499999998,256.23923,168.91826,-50.22634,SIT
1789506355200.0,1.182358980178833,-7.4858317375183105,-1.8747894763946533,-6.0251569747924805,-0.0008031105389818549,-0.027183503,0.015882496,256.25104,168.92078999999995,-50.22208,SIT
1789512253440.0,1.1873586177825928,-7.486047744750977,-1.8747413158416748,-6.024655342102051,-0.0005040405667386949,-0.023823744,0.014660766,256.2553,168.91904,-50.21864,SIT
1789518020608.0,1.192358374595642,-7.486295223236084,-1.8745981454849243,-6.0242133140563965,-0.00020854224567301571,-0.032375857,0.002443461,256.2595,168.92111,-50.21432,SIT
1789523787776.0,1.1973580121994019,-7.486566543579102,-1.8743458986282349,-6.023817539215088,7.424105569953099e-05,-0.03023783,0.014049901000000002,256.27487,168.92587,-50.208336,SIT
1789529554944.0,1.2023577690124512,-7.486854553222656,-1.873971700668335,-6.02345609664917,0.0003439578867983073,-0.029321533,0.019242255,256.28088,168.92747,-50.2036,SIT
1789535322112.0,1.2073575258255005,-7.487152099609375,-1.8734644651412964,-6.023118495941162,0.0006150772096589208,-0.021991149,0.008552114,256.286,168.92767,-50.196335,SIT
1789540958208.0,1.2123574018478394,-7.487453460693359,-1.8728145360946655,-6.022794723510742,0.0008537198882550001,-0.01160644,0.015882496,256.30127000000005,168.93597,-50.19014,SIT
1789546594304.0,1.2173572778701782,-7.487742900848389,-1.8720391988754272,-6.022505760192871,0.0010990109294652939,-0.014049901000000002,0.0143553335,256.30624,168.93471,-50.19265,SIT
1789552230400.0,1.2223572731018066,-7.487995624542236,-1.871178388595581,-6.0222978591918945,0.0013460940681397915,-0.01985312,0.010690141499999998,256.31418,168.93907,-50.193707,SIT
1789557866496.0,1.2273573875427246,-7.488188743591309,-1.8702740669250488,-6.022167682647705,0.0015862744767218828,-0.01863139,0.007330383,256.32788,168.94653,-50.19529,SIT
1789563371520.0,1.2323577404022217,-7.488299369812012,-1.8693760633468628,-6.02201509475708,0.0018005019519478083,-0.013133603,0.0076358155,256.34106,168.9548,-50.197197,SIT
1789568876544.0,1.2373583316802979,-7.488307476043701,-1.8685288429260254,-6.021750450134277,0.0020012701861560345,-0.018020526,0.004886922,256.3473,168.95847,-50.213264,SIT
1789574381568.0,1.2423590421676636,-7.488195896148682,-1.8677711486816406,-6.02129602432251,0.002171188360080123,-0.0067195175,0.008246681,256.35900000000004,168.96646,-50.22353,SIT
1789579886592.0,1.2473620176315308,-7.487922191619873,-1.8671345710754395,-6.020559310913086,0.002345070708543062,-0.013439035,0.004581489,256.3634,168.96837,-50.238785,SIT
1789585391616.0,1.2523647546768188,-7.487449645996094,-1.866629958152771,-6.0194854736328125,0.0025090002454817295,-0.01038471,0.007941248,256.37488,168.97646,-50.24883,SIT
1789590765568.0,1.2573672533035278,-7.4867682456970215,-1.8662617206573486,-6.018057346343994,0.0026843631640076637,-0.011301007,0.006414085,256.36295,168.97003,-50.257126,SIT
1789596139520.0,1.2623695135116577,-7.485928535461426,-1.8660167455673218,-6.016349792480469,0.002878149738535285,-0.017104227,0.008246681,256.35394,168.96675,-50.266216,SIT
1789601513472.0,1.267371416091919,-7.484975814819336,-1.8658829927444458,-6.014430046081543,0.0030792236793786287,-0.020158553,0.005192355,256.33307,168.95808,-50.27643,SIT
1789606887424.0,1.272373080253601,-7.483951568603516,-1.8658491373062134,-6.012359142303467,0.0032853903248906136,-0.021380283,0.0012217305,256.31253,168.94873,-50.287384,SIT
1789612261376.0,1.277374505996704,-7.4829230308532715,-1.8659135103225708,-6.010207176208496,0.0034920659381896257,-0.017715093,0.010690141499999998,256.29724,168.94258,-50.298298,SIT
1789617635328.0,1.2823758125305176,-7.482021331787109,-1.8660941123962402,-6.008073806762695,0.0036908036563545465,-0.0030543262,0.014660766,256.27972,168.93478000000005,-50.305313,SIT
1789622878208.0,1.2873767614364624,-7.48132848739624,-1.8663865327835083,-6.006062984466553,0.0038905369583517313,-0.01985312,0.0033597588,256.26236,168.9264,-50.31874000000001,SIT
1789628121088.0,1.2923775911331177,-7.480865955352783,-1.8667511940002441,-6.004302978515625,0.004078451078385115,-0.012217305,0.018936822,256.2636,168.92682,-50.323917,SIT
1789633363968.0,1.2973781824111938,-7.480646133422852,-1.8671553134918213,-6.002858638763428,0.004268250428140163,-0.010690141499999998,0.008552114,256.25024,168.91714,-50.332882,SIT
1789638606848.0,1.3023786544799805,-7.4806718826293945,-1.8675734996795654,-6.001687526702881,0.004467874765396118,-0.015882496,0.008246681,256.24802,168.91432,-50.343456,SIT
1789643849728.0,1.3073790073394775,-7.4809441566467285,-1.8679829835891724,-6.00075101852417,0.004645376931875944,-0.013744468,0.015577064,256.23734,168.91565,-50.356705,SIT
1789649092608.0,1.312379240989685,-7.481463432312012,-1.868363380432129,-6.000014305114746,0.004799945279955864,-0.016798794,0.013133603,256.22144,168.91249,-50.371384,SIT
1789654335488.0,1.317379355430603,-7.482228755950928,-1.8686952590942383,-5.99944543838501,0.004928315058350563,-0.011301007,0.0125227375,256.21124,168.91345,-50.38342700000001,SIT
1789659578368.0,1.322379469871521,-7.483238220214844,-1.8689574003219604,-5.999016284942627,0.005023297853767872,-0.003970624,0.009773844,256.19934,168.91382,-50.394882,SIT
1789664821248.0,1.327379584312439,-7.484480857849121,-1.8691363334655762,-5.9987006187438965,0.005089822690933943,-0.010995574,0.0018325958,256.1729,168.91515,-50.413425,SIT
1789669933056.0,1.332379698753357,-7.485875129699707,-1.8692668676376343,-5.998474597930908,0.005141062196344137,-0.013439035,0.0030543262,256.1516,168.91794,-50.42874000000001,SIT
1789675044864.0,1.337380290031433,-7.4873480796813965,-1.8693811893463135,-5.998311996459961,0.005174119491130114,-0.008857545999999999,-0.0036651916,256.13242,168.92053,-50.455555,SIT
1789680156672.0,1.3423808813095093,-7.488847732543945,-1.8695067167282104,-5.998154163360596,0.005199461709707975,-0.014660766,0.0021380284,256.11795,168.92468,-50.486023,CSO
1789685268480.0,1.347381830215454,-7.490325450897217,-1.869669795036316,-5.997945785522461,0.005217817611992359,-0.022296581,-0.008857545999999999,256.09174,168.92168,-50.511005,CSO
1789690380288.0,1.3523826599121094,-7.4917402267456055,-1.8698922395706177,-5.997640609741211,0.005209040362387896,-0.018936822,-0.00061086525,256.07757999999995,168.92508,-50.53581,CSO
1789695492096.0,1.3573840856552124,-7.493049621582031,-1.8701924085617065,-5.99719762802124,0.005184644367545843,-0.022602014,-0.011911872,256.05606,168.92018000000004,-50.563946,CSO
1789700603904.0,1.3623852729797363,-7.494203090667725,-1.8705499172210693,-5.996644020080566,0.00511595793068409,-0.022296581,-0.010995574,256.04477,168.9236,-50.59086,CSO
1789705715712.0,1.3673862218856812,-7.495151519775391,-1.8709453344345093,-5.996005058288574,0.005024253390729427,-0.019547688,-0.009468411,256.02222,168.91548,-50.616505,CSO
1789710827520.0,1.3723870515823364,-7.495924472808838,-1.8713159561157227,-5.995382785797119,0.004878347739577293,-0.018325957,-0.006414085,256.0012,168.91304,-50.64172,CSO
1789715939328.0,1.3773876428604126,-7.496565341949463,-1.8715962171554565,-5.994884490966797,0.004684278275817633,-0.02107485,-0.01282817,255.9772,168.90578,-50.665676,CSO
1789721051136.0,1.3823883533477783,-7.497278213500977,-1.8717869520187378,-5.994508743286133,0.004438918549567461,-0.025045475,-0.0033597588,255.95322,168.90521,-50.675793,CSO
1789726162944.0,1.3873889446258545,-7.498279571533203,-1.8719037771224976,-5.994229793548584,0.004130070097744465,-0.03940081,-0.008857545999999999,255.91914,168.90051,-50.687298,CSO
1789731274752.0,1.3923892974853516,-7.499764919281006,-1.871960997581482,-5.994025230407715,0.003710546065121889,-0.08735373,-0.002443461,255.90851,168.91008,-50.70571500000001,CSO
1789736386560.0,1.3973894119262695,-7.501905918121338,-1.8719713687896729,-5.993873596191406,0.003147044451907277,-0.18570304,0.006414085,255.8881,168.91946000000004,-50.741245,CSO
1789741498368.0,1.402389407157898,-7.505093574523926,-1.871964931488037,-5.993792533874512,0.0023797659669071436,-0.35063666,0.011911872,255.85385,168.93468,-50.80758,CSO
1789746610176.0,1.4073891639709473,-7.509698867797852,-1.871970534324646,-5.993802070617676,0.001303645665757358,-0.5140431,0.026267206,255.81491,168.95973,-50.90026,CSO
1789751721984.0,1.412388801574707,-7.515746593475342,-1.8719782829284668,-5.994107246398926,-0.00018674848251976073,-0.6924158,0.02443461,255.74805,168.99121,-51.053223,CSO
1789756833792.0,1.4173884391784668,-7.523214817047119,-1.8719747066497803,-5.994913578033447,-0.0021526378113776445,-0.79229224,0.049785517,255.68973,169.03741000000005,-51.227955,CSO
1789761945600.0,1.422387957572937,-7.532375812530518,-1.871755838394165,-5.99580192565918,-0.0046466742642223835,-0.9419542,0.05009095,255.58038,169.08844,-51.473392,CSO
1789767057408.0,1.4273874759674072,-7.5435357093811035,-1.8710969686508179,-5.9962663650512695,-0.0076867882162332535,-1.0925325,0.051923547,255.47205,169.14941000000005,-51.740856,CSO
1789772169216.0,1.4323869943618774,-7.556784152984619,-1.8694630861282349,-5.995853424072266,-0.01123631838709116,-1.2651019,0.041233405,255.34506,169.2144,-52.041306,CSO
1789777149952.0,1.437386393547058,-7.572087287902832,-1.8661754131317139,-5.994160175323486,-0.015274840407073498,-1.4504995,0.021380283,255.19572,169.28192,-52.375824,CSO
1789782261760.0,1.4423857927322388,-7.589232444763184,-1.8605049848556519,-5.99088716506958,-0.019775720313191414,-1.5894713,-0.030848695,255.03644,169.3606,-52.77950300000001,CSO
1789787242496.0,1.4473851919174194,-7.6079277992248535,-1.8517391681671143,-5.985804557800293,-0.024661723524332047,-1.6917913,-0.08368854,100.550896,169.43195,-53.208830000000006,CSO
1789792223232.0,1.4523845911026,-7.627209186553955,-1.8392101526260376,-5.978824615478516,-0.02981049008667469,-1.7461584,-0.15882497,100.452,169.53593,-53.68581,CSO
1789797203968.0,1.4573838710784912,-7.645660400390625,-1.8222999572753906,-5.969964027404785,-0.03503093495965004,-1.8359555,-0.3115413,100.39343,169.60101,-54.175064,CSO
1789802184704.0,1.4623830318450928,-7.66190242767334,-1.8008869886398315,-5.959621906280518,-0.04024093598127365,-1.8793269,-0.49357912,100.29795,169.70723,-54.679836,CSO
1789807296512.0,1.4673824310302734,-7.674623966217041,-1.775087833404541,-5.948365211486816,-0.045365191996097565,-1.8774943,-0.68844515,100.25578,169.76282,-55.168255,CSO
1789812277248.0,1.4723817110061646,-7.683325290679932,-1.7455050945281982,-5.936613082885742,-0.05035119876265526,-1.8387043,-0.8588764999999999,100.204254,169.8326,-55.609913,CSO
1789817257984.0,1.4773811101913452,-7.687891960144043,-1.7129485607147217,-5.924703121185303,-0.05510632321238518,-1.7421877,-0.9611965,100.19351,169.86485,-56.01096,CSO
1789822238720.0,1.4823806285858154,-7.68951416015625,-1.6781169176101685,-5.913140296936035,-0.05953257903456688,-1.6056591999999998,-0.9966267,100.16428,169.88545,-56.30916600000001,CSO
1789827219456.0,1.4873803853988647,-7.690151214599609,-1.641623854637146,-5.902520656585693,-0.06363242864608765,-1.412015,-0.9621128,100.03877,169.89882,-56.55275,CSO
1789832200192.0,1.4923800230026245,-7.691482067108154,-1.6039905548095703,-5.8930253982543945,-0.06735783070325851,-1.067487,-0.8408559999999999,99.9787,169.88837,-56.69977,CSO
1789837180928.0,1.4973796606063843,-7.694995880126953,-1.5656731128692627,-5.884616374969482,-0.0704941526055336,-0.8246681,-0.7244862,99.93592,169.87639,-56.81869,CSO
1789842292736.0,1.502379298210144,-7.702144622802734,-1.526973009109497,-5.877503395080566,-0.07303895801305771,-0.6301074999999999,-0.6221663000000001,99.83042,169.89935,-56.877308,CSO
1789847273472.0,1.5073789358139038,-7.714316368103027,-1.4880539178848267,-5.872106552124023,-0.07504638284444809,-0.46089783,-0.55741453,99.7646645799078,169.92271093844,-56.868802619610996,CSO
1789852254208.0,1.512378454208374,-7.7323431968688965,-1.449069619178772,-5.868547439575195,-0.07661592960357666,-0.36102137,-0.50885075,99.69883,169.9461,-56.860287,CSO
1789857234944.0,1.5173779726028442,-7.756662845611572,-1.4101626873016357,-5.866745948791504,-0.07774344831705093,-0.17684549,-0.50488013,99.596794,169.98306000000005,-56.85214000000001,CSO
1789862215680.0,1.5223772525787354,-7.787710666656494,-1.3710956573486328,-5.866976737976074,-0.07841955870389938,-0.13897185,-0.5488624,99.42779,170.0542,-56.87128000000001,CSO
1789867327488.0,1.5273767709732056,-7.8259968757629395,-1.3311089277267456,-5.870010852813721,-0.07855731248855591,-0.10842858,-0.61269784,99.29498,170.1117,-56.84186999999999,CSO
1789872308224.0,1.5323761701583862,-7.871252536773682,-1.289636254310608,-5.876335144042969,-0.07807250320911407,-0.017715093,-0.6591236,99.16925,170.16566,-56.82896,CSO
1789877288960.0,1.537375807762146,-7.922149658203125,-1.2462828159332275,-5.886134624481201,-0.07667284458875656,-0.029321533,-0.7107416999999999,99.12626,170.18106,-56.82916,CSO
1789882269696.0,1.5423752069473267,-7.977280139923096,-1.2009412050247192,-5.899636745452881,-0.07399572432041168,-0.06261369,-0.73639804,98.97831,170.25415,-56.82092700000001,CSO
1789887250432.0,1.5473746061325073,-8.034908294677734,-1.153920292854309,-5.9172444343566895,-0.06976142525672913,-0.12889257,-0.754724,98.9024,170.29398999999995,-56.82097,CSO
1789892231168.0,1.5523738861083984,-8.093494415283203,-1.1057226657867432,-5.939138889312744,-0.06375662982463837,-0.12461651,-0.76174897,98.812904,170.34415,-56.8026,CSO
1789897211904.0,1.5573731660842896,-8.151658058166504,-1.05748450756073,-5.964993476867676,-0.055876731872558594,-0.031154128,-0.77518797,98.78906,170.36526,-56.77539,CSO
1789902192640.0,1.5623724460601807,-8.208163261413574,-1.0102540254592896,-5.9942851066589355,-0.0460992194712162,0.09468412,-0.79351395,98.828094,170.35678,-56.689262,CSO
1789907173376.0,1.5673717260360718,-8.261889457702637,-0.9650574922561646,-6.025986671447754,-0.03446830064058304,0.24281894,-0.80664754,98.91158,170.33012,-56.572735,CSO
1789912154112.0,1.572371006011963,-8.312043190002441,-0.9226477742195129,-6.059237957000732,-0.02112601138651371,0.39584067,-0.8405505999999999,99.16215,170.22086000000004,-56.371563,CSO
1789917265920.0,1.577370285987854,-8.358404159545898,-0.8833165168762207,-6.0934157371521,-0.006227072793990374,0.5363397,-0.8594874,99.43939,170.10368,-56.1383,CSO
1789922246656.0,1.5823695659637451,-8.400784492492676,-0.8473166823387146,-6.127958297729492,0.010126199573278427,0.6768387,-0.8717046999999999,99.90707,169.89684,-55.857334,CSO
1789927358464.0,1.587369680404663,-8.439469337463379,-0.8147125840187073,-6.161925315856934,0.027831900864839554,0.77091193,-0.8949176,100.403145,169.68257,-55.554080000000006,CSO
1789932470272.0,1.5923715829849243,-8.474761962890625,-0.785567581653595,-6.194518566131592,0.046784449368715286,0.8323039000000001,-0.8906415000000001,100.69069,169.46976,-55.22975,CSO
1789937451008.0,1.597373366355896,-8.506928443908691,-0.7601004838943481,-6.225910663604736,0.06685791164636612,0.8268061,-0.9272934000000002,100.94187,169.19925,-54.891373,CSO
1789942562816.0,1.6024173498153687,-8.536272048950195,-0.7402361631393433,-6.2566914558410645,0.08788419514894485,0.88361657,-0.9370673,251.56313,168.01897,-53.710777,CSO
1789947674624.0,1.607499122619629,-8.563018798828125,-0.7260108590126038,-6.286975860595703,0.10971514135599136,0.9969321,-0.9773844,251.35564,167.69563,-53.415344,CSO
1789952786432.0,1.6126147508621216,-8.587172508239746,-0.7174772024154663,-6.3169074058532715,0.13231110572814941,1.1053606000000002,-1.0033462,251.12486,167.33781000000005,-53.090496,CSO
1789958029312.0,1.617760181427002,-8.608665466308594,-0.7146571278572083,-6.346625328063965,0.155643031001091,1.1899655,-1.035722,250.8976,166.97346000000005,-52.743786,CSO
1789963272192.0,1.6229320764541626,-8.627508163452148,-0.7175449132919312,-6.376009464263916,0.17972099781036377,1.2843441999999998,-1.0491611,250.67221,166.57373,-52.334446,CSO
1789968515072.0,1.6281269788742065,-8.64375114440918,-0.7260931134223938,-6.404853343963623,0.20452499389648438,1.3439035,-1.0769554,250.44598,166.16447,-51.915413,CSO
1789973757952.0,1.6333421468734741,-8.657179832458496,-0.7404003739356995,-6.432565212249756,0.23006539046764374,1.3878858,-1.1023063999999998,250.20413,165.70988,-51.4509,CSO
1789979000832.0,1.6385746002197266,-8.667494773864746,-0.7605894804000854,-6.458436965942383,0.25625571608543396,1.391551,-1.1294898000000002,249.96552000000003,165.25394,-50.9875,CSO
1789984243712.0,1.643822193145752,-8.67453670501709,-0.7863060235977173,-6.481780529022217,0.28302180767059326,1.3933836000000002,-1.1417072,249.68747,164.75388,-50.515644,CSO
1789989486592.0,1.6490825414657593,-8.67821979522705,-0.8170386552810669,-6.501981258392334,0.3103051483631134,1.4037683,-1.1530081,249.41495,164.2517,-50.046806,CSO
1789994860544.0,1.6543534994125366,-8.678339004516602,-0.8521170616149902,-6.51869010925293,0.3380439579486847,1.4135422,-1.1328496,249.07196,163.6965,-49.590336,CSO
1790000234496.0,1.6596332788467407,-8.674657821655273,-0.8908494114875793,-6.531670093536377,0.36608532071113586,1.3930782,-1.1249083,248.73146,163.14615,-49.144405,CSO
1790005608448.0,1.6649223566055298,-8.66689395904541,-0.9325862526893616,-6.540644645690918,0.3943216800689697,1.3891076,-1.087951,248.38101,162.58553,-48.72991,CSO
1790010982400.0,1.6702169179916382,-8.654983520507812,-0.9767784476280212,-6.545539855957031,0.42267081141471863,1.4013249,-1.0403035,248.05124,162.03853,-48.326073,CSO
1790016356352.0,1.6755152940750122,-8.638604164123535,-1.0230127573013306,-6.546239852905273,0.45104658603668213,1.4104879,-1.0079277,247.72841,161.5047,-47.938763,CSO
1790021730304.0,1.6808162927627563,-8.617345809936523,-1.0709739923477173,-6.5426483154296875,0.4794064164161682,1.3973542,-0.9795224,247.43207,160.98568999999995,-47.56669,CSO
1790027104256.0,1.686118721961975,-8.590977668762207,-1.120606780052185,-6.534919738769531,0.5077746510505676,1.3720033,-0.960891,247.12575,160.45789,-47.210155,CSO
1790032478208.0,1.691421627998352,-8.559354782104492,-1.1719788312911987,-6.523314476013184,0.5362259745597839,1.3405437,-0.94225967,246.83575,159.93771,-46.868317,CSO
1790037852160.0,1.6967241764068604,-8.522393226623535,-1.2252780199050903,-6.507872104644775,0.564777672290802,1.3127494,-0.9263771,246.51976,159.3989,-46.51664,CSO
1790043226112.0,1.7020255327224731,-8.480048179626465,-1.280734896659851,-6.4885334968566895,0.59340500831604,1.2605205,-0.9166033,246.20604,158.86244,-46.18573,CSO
1790048468992.0,1.7073249816894531,-8.432284355163574,-1.3386732339859009,-6.465407371520996,0.6220223307609558,1.215011,-0.88178396,245.89104,158.299,-45.827953,CSO
1790053711872.0,1.7126219272613525,-8.379083633422852,-1.3994381427764893,-6.438684463500977,0.6504522562026978,1.1276573,-0.8512407,245.56682,157.74588,-45.498634,CSO
1790058954752.0,1.717915654182434,-8.320573806762695,-1.463046908378601,-6.408640384674072,0.6785449981689453,1.0341948,-0.79320854,245.19933,157.15335,-45.169983,CSO
1790064197632.0,1.7232060432434082,-8.256994247436523,-1.529255986213684,-6.375616550445557,0.7061256170272827,0.9505063,-0.7284568,244.83673,156.58473,-44.868866,CSO
1790069440512.0,1.728492259979248,-8.188591003417969,-1.5978310108184814,-6.339930534362793,0.73307865858078,0.8891144,-0.6704246,244.43922,155.96501,-44.54227,CSO
1790074683392.0,1.7337740659713745,-8.115588188171387,-1.668560266494751,-6.301872253417969,0.7593753933906555,0.8454375,-0.6249151,244.0537,155.36694,-44.241505,CSO
1790079926272.0,1.7390509843826294,-8.038445472717285,-1.7410920858383179,-6.261834144592285,0.7851107120513916,0.84116143,-0.57635134,243.68907,154.78613,-43.95133,CSO
1790085169152.0,1.7443227767944336,-7.957852840423584,-1.814934492111206,-6.220311641693115,0.8103538751602173,0.8390234000000001,-0.5644395000000001,243.32642,154.21584,-43.67368,CSO
1790090412032.0,1.749589204788208,-7.874439239501953,-1.8896435499191284,-6.1777520179748535,0.8351302146911621,0.8622363000000001,-0.54000485,242.9973,153.60623,-43.332985,CSO
1790095654912.0,1.7548500299453735,-7.788776874542236,-1.9648189544677734,-6.134559154510498,0.8594759702682495,0.89461213,-0.5198463,242.68057,152.99808000000004,-42.994312,CSO
1790100897792.0,1.7601051330566406,-7.701389789581299,-2.0402305126190186,-6.090638160705566,0.8833076357841492,0.9486737,-0.47586402,242.3913,152.41023,-42.65169,CSO
1790106140672.0,1.7653543949127197,-7.612756729125977,-2.1157548427581787,-6.045613765716553,0.9065614342689514,0.9807441,-0.41874814,242.12207,151.83142,-42.31581,CSO
1790111383552.0,1.7705978155136108,-7.523438930511475,-2.191211462020874,-5.999096393585205,0.9291366934776306,0.9575313,-0.36346483,241.91508,151.29723,-41.98424,CSO
1790116626432.0,1.7758351564407349,-7.434075355529785,-2.2663660049438477,-5.950690746307373,0.9509104490280151,0.88361657,-0.30634892,241.7254,150.78717,-41.67178,CSO
1790121869312.0,1.7810664176940918,-7.345195770263672,-2.3410162925720215,-5.900346279144287,0.9719005823135376,0.7974846,-0.2519819,241.46307,150.26949,-41.41157000000001,CSO
1790127112192.0,1.786291480064392,-7.257229804992676,-2.4149909019470215,-5.848323345184326,0.9921140074729919,0.74281216,-0.19975294,241.21109,149.77868999999995,-41.173004,CSO
1790132355072.0,1.7915103435516357,-7.170716285705566,-2.488349199295044,-5.79496431350708,1.0115278959274292,0.70096785,-0.13897185,240.83408,149.30042,-41.033478,CSO
1790137597952.0,1.7967232465744019,-7.086694240570068,-2.5618906021118164,-5.740942478179932,1.0300530195236206,0.66675943,-0.07513642,240.47003,148.84616,-40.911835,CSO
1790142840832.0,1.8019299507141113,-7.005887985229492,-2.6363441944122314,-5.686634063720703,1.0476031303405762,0.6765333,-0.037873644,240.07472,148.41365,-40.823963,CSO
1790148083712.0,1.8071306943893433,-6.928645133972168,-2.7124710083007812,-5.631977081298828,1.0641731023788452,0.7733554,-0.008857545999999999,239.72052,148.00275,-40.731434,CSO
1790153326592.0,1.812326192855835,-6.855025768280029,-2.7906041145324707,-5.577216625213623,1.0796111822128296,0.77763146,-0.028405234,239.30226,147.59225,-40.658745,CSO
1790158569472.0,1.8175158500671387,-6.784667015075684,-2.8704049587249756,-5.523041248321533,1.0938026905059814,0.7669413,-0.0009162979,238.93925,147.20827,-40.58038,CSO
1790163812352.0,1.8226995468139648,-6.717211723327637,-2.9515786170959473,-5.470155239105225,1.1065789461135864,0.7812967,0.05925392700000001,238.53874,146.79326,-40.49179,CSO
1790169055232.0,1.8278776407241821,-6.652280807495117,-3.0338871479034424,-5.419384956359863,1.1178919076919556,0.7669413,0.1020145,238.14578,146.39476000000005,-40.409027,CSO
1790174298112.0,1.8330498933792114,-6.589488506317139,-3.1169822216033936,-5.370761394500732,1.1277378797531128,0.81581056,0.13439035,237.88045,146.0324,-40.27839,CSO
1790179409920.0,1.8382165431976318,-6.528334140777588,-3.200199842453003,-5.322454452514648,1.1360799074172974,0.86070913,0.16279559,237.6286,145.69786000000005,-40.159298,CSO
1790184521728.0,1.843377709388733,-6.468582630157471,-3.28302001953125,-5.273097515106201,1.1429539918899536,0.83016586,0.20158553,237.51056,145.389,-39.995483,CSO
1790189633536.0,1.8485335111618042,-6.410550594329834,-3.3651468753814697,-5.222048759460449,1.1483722925186157,0.7965683000000001,0.24495697,237.41406,145.10448,-39.83408,CSO
1790194745344.0,1.8536839485168457,-6.354465961456299,-3.446363687515259,-5.1688079833984375,1.1522761583328247,0.68600166,0.2724459,237.1168,144.7991,-39.763287,CSO
1790199857152.0,1.8588292598724365,-6.300207614898682,-3.5267982482910156,-5.113305568695068,1.1546303033828735,0.5354234,0.3203988,236.8223,144.51996,-39.718605,CSO
1790204968960.0,1.8639694452285767,-6.247676372528076,-3.606562852859497,-5.055586338043213,1.155368447303772,0.44165558,0.35185838,236.52994,144.25851,-39.712063,CSO
1790210080768.0,1.8691048622131348,-6.197050094604492,-3.6857223510742188,-4.997445583343506,1.154421091079712,0.36285394,0.36743546,236.21432,144.02142,-39.734295,CSO
1790215192576.0,1.87423574924469,-6.1484375,-3.7643117904663086,-4.940366268157959,1.1517220735549927,0.408058,0.3885103,235.95276,143.7832,-39.74371,CSO
1790220304384.0,1.879361867904663,-6.101484775543213,-3.8421199321746826,-4.884423732757568,1.1473826169967651,0.4025602,0.44043383,235.67032000000003,143.56436000000005,-39.784126,CSO
1790225416192.0,1.8844833374023438,-6.055866718292236,-3.918959140777588,-4.82968282699585,1.141588807106018,0.36896262,0.51343226,235.3933,143.3981,-39.826614,CSO
1790230528000.0,1.889600396156311,-6.011373996734619,-3.9952547550201416,-4.776234149932861,1.134468913078308,0.38423425,0.59528816,235.14957,143.25644,-39.87172,CSO
1790235639808.0,1.8947131633758545,-5.967838764190674,-4.07152795791626,-4.724164009094238,1.1261286735534668,0.4465425,0.6722571999999999,234.93188,143.13403,-39.926346,CSO
1790240751616.0,1.8998218774795532,-5.924958229064941,-4.148053169250488,-4.673183441162109,1.1166472434997559,0.47036624,0.7538077,234.78024,143.0313,-39.981186,CSO
1790245863424.0,1.9049264192581177,-5.882431507110596,-4.225022792816162,-4.622956275939941,1.106091856956482,0.5311473000000001,0.78984874,234.66692,142.94131000000004,-40.02342,CSO
1790250975232.0,1.9100271463394165,-5.840089797973633,-4.302363395690918,-4.573356628417969,1.0945336818695068,0.5919284,0.8940013000000001,234.60039,142.84436000000005,-40.05074000000001,CSO
1790256087040.0,1.9151239395141602,-5.7978081703186035,-4.3799543380737305,-4.524310111999512,1.0819551944732666,0.63621616,0.98990715,234.55374,142.76568999999995,-40.075974,CSO
1790261198848.0,1.9202171564102173,-5.755484104156494,-4.457433700561523,-4.4759016036987305,1.0682966709136963,0.68386364,1.103528,234.50272,142.67215,-40.09000800000001,CSO
1790266310656.0,1.9253066778182983,-5.713036060333252,-4.5343732833862305,-4.428271293640137,1.0535155534744263,0.66920286,1.1899655,234.46223,142.60529,-40.122295,CSO
1790271422464.0,1.9303950071334839,-5.670137405395508,-4.610281944274902,-4.380926132202148,1.037630558013916,0.74036866,1.2803736,234.50969,142.55565,-40.144238,CSO
1790276534272.0,1.9354796409606934,-5.626585960388184,-4.684804439544678,-4.333454132080078,1.020581841468811,0.67256266,1.3326025,234.52052,142.53441,-40.20322,CSO
1790281646080.0,1.9405606985092163,-5.582263469696045,-4.757393836975098,-4.286083698272705,1.0023963451385498,0.602924,1.378112,234.61281,142.54617,-40.265373,CSO
1790286757888.0,1.9456385374069214,-5.537110328674316,-4.827486991882324,-4.23928689956665,0.9831300377845764,0.5369505,1.430341,234.69598,142.58257,-40.35106,CSO
1790291869696.0,1.9507131576538086,-5.490918159484863,-4.8944244384765625,-4.193745136260986,0.9628404378890991,0.4990769000000001,1.4795157,234.74088,142.62105,-40.457893,CSO
1790296981504.0,1.955784797668457,-5.443447113037109,-4.957564353942871,-4.150155067443848,0.9416019916534424,0.50426924,1.5409076000000002,234.79102000000003,142.67914,-40.581036,CSO
1790302093312.0,1.9608536958694458,-5.394607067108154,-5.016447067260742,-4.109004497528076,0.9194493889808655,0.5186246,1.6218473,234.92984,142.79417,-40.716904,CSO
1790307205120.0,1.9659206867218018,-5.344343185424805,-5.070676326751709,-4.070706844329834,0.8964380621910095,0.5342017,1.7058412,235.08154,142.92593,-40.86373,CSO
1790312316928.0,1.970984935760498,-5.292952060699463,-5.120170593261719,-4.035377025604248,0.8726790547370911,0.5705481,1.8148806,235.3793,143.13217,-41.010452,CSO
1790317297664.0,1.9760464429855347,-5.240866661071777,-5.1649394035339355,-4.003029823303223,0.8482809662818909,0.602924,1.8894062,235.68774,143.35153,-41.16278,CSO
1790322278400.0,1.9811054468154907,-5.188729286193848,-5.205358982086182,-3.973637104034424,0.8233429789543152,0.602924,1.9517145,236.10431,143.63703999999996,-41.326797,CSO
1790327259136.0,1.9861620664596558,-5.137312889099121,-5.242068767547607,-3.947134494781494,0.7979225516319275,0.6218608,1.988061,236.54385,143.93272,-41.487705,CSO
1790332239872.0,1.9912161827087402,-5.087465763092041,-5.275279998779297,-3.9231715202331543,0.7720456123352051,0.6020076999999999,2.0418172,237.02248,144.28287,-41.688526,CSO
1790337220608.0,1.9962680339813232,-5.040024280548096,-5.305006504058838,-3.901284694671631,0.7457549571990967,0.5540548000000001,2.0772474,237.49945,144.63431,-41.88895,CSO
1790342201344.0,2.0013175010681152,-4.995752811431885,-5.33198356628418,-3.880793333053589,0.7191247940063477,0.5513059,2.0842721,237.9816,144.99875,-42.103878,CSO
1790347313152.0,2.0063648223876953,-4.9553542137146,-5.357297897338867,-3.860924482345581,0.6922174096107483,0.48808134,2.1007655,238.43922,145.3723,-42.341785,CSO
1790352293888.0,2.0114102363586426,-4.9188714027404785,-5.381336212158203,-3.8414700031280518,0.6650416851043701,0.4428773,2.130698,238.89188,145.79721,-42.64779,CSO
1790357274624.0,2.016453742980957,-4.886015892028809,-5.4041218757629395,-3.822509765625,0.6376523375511169,0.3744604,2.1423044,239.31613,146.21509,-42.961697,CSO
1790362255360.0,2.0214953422546387,-4.8564772605896,-5.425512790679932,-3.8043036460876465,0.6100131273269653,0.30757064,2.1633792,239.61658,146.60672,-43.330673,CSO
1790367236096.0,2.0265352725982666,-4.829944133758545,-5.445287704467773,-3.787193536758423,0.5821582078933716,0.23365596,2.172237,239.89267,146.9913,-43.70544,CSO
1790372216832.0,2.031573534011841,-4.806196212768555,-5.463078022003174,-3.7716548442840576,0.5540710687637329,0.18600847,2.1887302,240.18497,147.39389,-44.087563,CSO
1790377197568.0,2.0366101264953613,-4.785097122192383,-5.478370189666748,-3.7582943439483643,0.5257905125617981,0.13500121,2.2021692,240.45438,147.79251000000005,-44.477005,CSO
1790382178304.0,2.041645050048828,-4.767006874084473,-5.4905853271484375,-3.7480409145355225,0.497344970703125,0.13469578,2.2351558,240.7909,148.23001000000005,-44.859375,CSO
1790387159040.0,2.0466785430908203,-4.752606391906738,-5.499115943908691,-3.7420132160186768,0.46877941489219666,0.14172074,2.2412646,241.11,148.65977,-45.238262,CSO
1790392270848.0,2.051710605621338,-4.742180347442627,-5.503436088562012,-3.7411906719207764,0.44015011191368103,0.09162979,2.2461514,241.53166,149.15945,-45.63457,CSO
1790397251584.0,2.056741237640381,-4.735448360443115,-5.503120422363281,-3.7463839054107666,0.41156062483787537,0.05009095,2.252871,241.96027,149.65256000000005,-46.01979,CSO
1790402232320.0,2.061770439147949,-4.732189655303955,-5.498099327087402,-3.7573277950286865,0.383127897977829,0.04153884,2.283109,242.56546,150.28787,-46.44871,CSO
1790407344128.0,2.066798448562622,-4.732235908508301,-5.488584518432617,-3.7728936672210693,0.35496675968170166,0.13347405,2.324953,243.19627000000003,150.91458,-46.855587,CSO
1790412324864.0,2.0718250274658203,-4.735419750213623,-5.474790096282959,-3.7920777797698975,0.32725563645362854,0.15332718,2.3383923,243.95613,151.61282,-47.26213,CSO
1790417305600.0,2.076850652694702,-4.741590976715088,-5.456904888153076,-3.81394362449646,0.30012544989585876,0.20677789,2.3634377,244.77235,152.3091,-47.637238,CSO
1790422286336.0,2.0818750858306885,-4.7511091232299805,-5.4351701736450195,-3.8375909328460693,0.27365195751190186,0.2773328,2.4336872000000005,245.62277000000003,153.00224,-48.001118,CSO
1790427267072.0,2.0868983268737793,-4.764888763427734,-5.409873008728027,-3.8621232509613037,0.2479463368654251,0.20066923,2.463314,246.44324,153.67091000000005,-48.36565,CSO
1790432247808.0,2.0919203758239746,-4.783594131469727,-5.381333351135254,-3.886904239654541,0.22305743396282196,0.17470746,2.4755313,247.28662000000003,154.37595,-48.783504,CSO
1790437228544.0,2.0969417095184326,-4.807657718658447,-5.349916458129883,-3.9115757942199707,0.19895125925540924,0.14660765,2.4846945,248.12013,155.0733,-49.206352,CSO
1790442209280.0,2.101962089538574,-4.837369441986084,-5.315889835357666,-3.9359309673309326,0.17559772729873657,0.092240654,2.4853053,248.89064,155.80042,-49.739,CSO
1790447190016.0,2.1069815158843994,-4.872823715209961,-5.2793660163879395,-3.960007905960083,0.15294690430164337,0.013744468,2.468201,249.6502,156.51453999999995,-50.262844,CSO
1790452170752.0,2.111999750137329,-4.914093017578125,-5.240451335906982,-3.983841896057129,0.1309017390012741,-0.060170225999999986,2.4266622000000004,250.36504,157.24666000000005,-50.854538,CSO
1790457282560.0,2.1170175075531006,-4.960803985595703,-5.199291229248047,-4.007361888885498,0.10943598300218582,-0.038179077,2.414445,251.09796,157.96646,-51.42315,CSO
1790462263296.0,2.1220340728759766,-5.012477874755859,-5.1560444831848145,-4.0304789543151855,0.08843078464269638,-0.014966198,2.4077253,251.8067,158.67398,-51.981075,CSO
1790467244032.0,2.1270499229431152,-5.068819999694824,-5.110960960388184,-4.05354642868042,0.06774187833070755,-0.053145275,2.39337,252.53229,159.42141999999996,-52.588795,CSO
1790472224768.0,2.1320650577545166,-5.129570484161377,-5.064293384552002,-4.0769548416137695,0.04725554585456848,-0.055588737,2.3564126,253.27312,160.15198,-53.154934,CSO
1790477205504.0,2.1370794773101807,-5.194399356842041,-5.016014099121094,-4.1009907722473145,0.026912663131952286,-0.08827003,2.314874,254.01459,160.89078,-53.73814399999999,CSO
1790482186240.0,2.1420931816101074,-5.26297664642334,-4.966044902801514,-4.125889778137207,0.006704944651573896,-0.11575896,2.2766948,254.75409,161.61108000000004,-54.292484,CSO
1790487166976.0,2.147106170654297,-5.335039138793945,-4.914155006408691,-4.1519455909729,-0.013369348831474781,-0.16523905,2.230269,255.52647,162.33106999999995,-54.82782,CSO
1790492278784.0,2.152118682861328,-5.4103569984436035,-4.8600850105285645,-4.179449081420898,-0.0332895964384079,-0.17073683,2.1774292,256.29303,163.02611000000005,-55.33051999999999,CSO
1790497259520.0,2.157130479812622,-5.488165855407715,-4.80377721786499,-4.208786487579346,-0.0530577152967453,-0.19150625,2.125811,257.1084,163.74048,-55.829266,CSO
1790502240256.0,2.1621415615081787,-5.567567348480225,-4.745247840881348,-4.240348815917969,-0.0726732462644577,-0.22052236,2.1126773,257.9221,164.43674,-56.307888,CSO
1790507220992.0,2.167152166366577,-5.648457050323486,-4.684665203094482,-4.2739081382751465,-0.0921631008386612,-0.13439035,2.0781636000000003,258.84048,165.1629,-56.741825,CSO
1790512201728.0,2.1721620559692383,-5.730855464935303,-4.622218132019043,-4.309149265289307,-0.11151879280805588,-0.07971791,2.0418172,259.74286,165.8693,-57.16669,CSO
1790517182464.0,2.177171468734741,-5.814778804779053,-4.55828857421875,-4.345250129699707,-0.13071055710315704,-0.07147124,2.0143282,260.73392,166.58038,-57.513447,CSO
1790522163200.0,2.182180404663086,-5.900234222412109,-4.493279457092285,-4.381332874298096,-0.1497052162885666,-0.106901415,2.0073032,261.72058,167.27333000000004,-57.835953,CSO
1790527275008.0,2.1871891021728516,-5.9872846603393555,-4.427619934082031,-4.416927814483643,-0.16852392256259918,-0.21135938,2.0167716,262.72113,167.97693,-58.185635,CSO
1790532255744.0,2.192197322845459,-6.075998306274414,-4.361714839935303,-4.451709270477295,-0.18726074695587158,-0.19700404,1.9709567,107.01442,168.6535,-58.48690799999999,CSO
1790537236480.0,2.197205066680908,-6.166112899780273,-4.295660018920898,-4.485342502593994,-0.20591780543327332,-0.20280726,1.9343048,106.60101,169.31717,-58.867344,CSO
1790542217216.0,2.2022125720977783,-6.257307052612305,-4.2294721603393555,-4.517517566680908,-0.22447901964187622,-0.23151793,1.8964312,106.20081,169.96007,-59.22567,CSO
1790547197952.0,2.2072196006774902,-6.348509311676025,-4.163356304168701,-4.54768180847168,-0.24302130937576294,-0.27702740000000003,1.844813,105.81785,170.57956,-59.605526,CSO
1790552178688.0,2.212226152420044,-6.438502788543701,-4.097559928894043,-4.575253486633301,-0.26151567697525024,-0.37782016,1.8515326,105.46095,171.18715,-59.991325,CSO
1790557290496.0,2.2172324657440186,-6.526838302612305,-4.03171443939209,-4.600511074066162,-0.2798989415168762,-0.36835176,1.8209893,105.113235,171.77983,-60.369823,CSO
1790562271232.0,2.222238540649414,-6.613384246826172,-3.9652609825134277,-4.624031066894531,-0.29820331931114197,-0.33169982,1.772731,104.7733,172.36182,-60.74823000000001,CSO
1790567251968.0,2.2272446155548096,-6.697989463806152,-3.897794485092163,-4.646366596221924,-0.31645262241363525,-0.301462,1.7397442,104.46948,172.91255,-61.118935,CSO
1790572232704.0,2.232250213623047,-6.780506134033203,-3.829010248184204,-4.668028354644775,-0.33465802669525146,-0.26022860000000003,1.7137824000000002,104.17612,173.44475,-61.457138,CSO
1790577213440.0,2.237255573272705,-6.860908031463623,-3.7588539123535156,-4.689316749572754,-0.35281312465667725,-0.24617869,1.6869043999999995,103.88068,174.01872,-61.76176,CSO
1790582194176.0,2.242260694503784,-6.939226150512695,-3.6873867511749268,-4.710423469543457,-0.3708776533603668,-0.2611449,1.6581936999999998,103.6027,174.57518000000005,-62.04548000000001,CSO
1790587174912.0,2.247265577316284,-7.015528678894043,-3.6147000789642334,-4.7314276695251465,-0.3888287842273712,-0.28008172,1.6212363,103.32672,175.15714,-62.28215400000001,CSO
1790592286720.0,2.252270221710205,-7.089904308319092,-3.5408949851989746,-4.752347946166992,-0.4066429138183594,-0.30879238,1.5900823,103.07234,175.7218,-62.509537,CSO
1790597267456.0,2.257274627685547,-7.162341594696045,-3.4659996032714844,-4.773286819458008,-0.4242134094238281,-0.35094208,1.5512923,102.85609,176.2856,-62.724712,CSO
1790602248192.0,2.2622787952423096,-7.232781887054443,-3.3900039196014404,-4.794384479522705,-0.44150522351264954,-0.38515055,1.5173893,102.65414,176.8349,-62.930367,CSO
1790607228928.0,2.267282724380493,-7.3009514808654785,-3.312814712524414,-4.815805435180664,-0.45848342776298523,-0.40591997,1.4679091999999998,102.48019,177.37483,-63.13296,CSO
1790612209664.0,2.2722864151000977,-7.366471767425537,-3.234302043914795,-4.8377180099487305,-0.4751453399658203,-0.4260785,1.4269812,102.32472,177.89824,-63.330757,CSO
1790617190400.0,2.277289867401123,-7.4291300773620605,-3.1543526649475098,-4.860269069671631,-0.4914747178554535,-0.43310347,1.385137,101.6004,178.4227,-63.505615,CSO
1790622171136.0,2.2822930812835693,-7.4888458251953125,-3.072876453399658,-4.883581161499023,-0.5074440240859985,-0.453262,1.3362677,100.83006,178.92447,-63.676437,CSO
1790627282944.0,2.2872962951660156,-7.545685768127441,-2.9898788928985596,-4.907666206359863,-0.522996723651886,-0.47036624,1.3023646999999998,100.0797,179.44347,-63.807114,CSO
1790632263680.0,2.292299270629883,-7.599839687347412,-2.905449628829956,-4.932441234588623,-0.5380841493606567,-0.47678033,1.273654,99.37772,179.94075,-63.92846,CSO
1790637244416.0,2.297302007675171,-7.6514434814453125,-2.8198025226593018,-4.957730770111084,-0.5526883006095886,-0.47769663,1.260215,98.67958,-179.5435,-64.01836,CSO
1790642225152.0,2.30230450630188,-7.7005767822265625,-2.7332818508148193,-4.983257293701172,-0.5667406320571899,-0.4718934,1.2229522,98.03865,-179.05534,-64.09751999999999,CSO
1790647205888.0,2.307307004928589,-7.747274398803711,-2.6460025310516357,-5.008542537689209,-0.5802038908004761,-0.48563787,1.1814133999999998,97.403946,-178.55878,-64.16936,CSO
1790652186624.0,2.3123092651367188,-7.791473865509033,-2.557626247406006,-5.03264045715332,-0.5930479764938354,-0.49968776,1.1551461,96.80824,-178.0805,-64.22991,CSO
1790657298432.0,2.3173115253448486,-7.833189010620117,-2.4679746627807617,-5.054811954498291,-0.6052460074424744,-0.5384777,1.1218541000000002,96.25473,-177.62093000000004,-64.3096,CSO
1790662279168.0,2.3223137855529785,-7.872654914855957,-2.3773298263549805,-5.074801921844482,-0.6167722344398499,-0.5839871999999999,1.0873401000000005,95.72937,-177.17944,-64.38674,CSO
1790667259904.0,2.3273158073425293,-7.910088062286377,-2.285947799682617,-5.092389106750488,-0.6276341080665588,-0.6227771,1.0708468,95.179344,-176.69746,-64.51756999999999,CSO
1790672240640.0,2.33231782913208,-7.945689678192139,-2.194059133529663,-5.107378005981445,-0.6378462910652161,-0.7174611999999999,1.0338894,94.658005,-176.24062,-64.66741999999999,CSO
1790677221376.0,2.3373196125030518,-7.979644298553467,-2.101872682571411,-5.119604587554932,-0.6474359631538391,-0.79412484,1.0091494,94.1527,-175.79256,-64.81364,CSO
1790682202112.0,2.3423213958740234,-8.012123107910156,-2.009575128555298,-5.1289238929748535,-0.6564490795135498,-0.9266826,0.97494096,93.666,-175.36485,-64.99294,CSO
1790687182848.0,2.347322940826416,-8.043251991271973,-1.9173084497451782,-5.135427474975586,-0.664829671382904,-1.0152581,0.9282097,93.208984,-174.95873999999995,-65.17275,CSO
1790692163584.0,2.3523244857788086,-8.073067665100098,-1.8251200914382935,-5.139756202697754,-0.6725475192070007,-1.131017,0.86559606,92.7668,-174.57217,-65.38851,CSO
1790697144320.0,2.357325553894043,-8.101698875427246,-1.7329031229019165,-5.142541408538818,-0.6795549392700195,-1.248914,0.81397796,92.33859,-174.17955,-65.70823,CSO
1790702256128.0,2.3623266220092773,-8.12946605682373,-1.64020574092865,-5.144505977630615,-0.6857495903968811,-1.3408492,0.786489,91.94269,-173.81015,-66.03921,CSO
1790707236864.0,2.367327928543091,-8.156658172607422,-1.5466033220291138,-5.146142959594727,-0.6910437941551208,-1.3646729,0.7486154,91.55758,-173.45512,-66.34334,CSO
1790712217600.0,2.3723292350769043,-8.18354320526123,-1.4516410827636719,-5.147440433502197,-0.6953233480453491,-1.3295482,0.7339545999999999,91.20271,-173.11583000000005,-66.641136,CSO
1790717198336.0,2.3773305416107178,-8.21068000793457,-1.355261206626892,-5.148282051086426,-0.6985893845558167,-1.2986995,0.7519751,90.798546,-172.73549,-66.89331999999999,CSO
1790722310144.0,2.3823320865631104,-8.239564895629883,-1.2584692239761353,-5.148232460021973,-0.7008267641067505,-1.2825116,0.77946407,90.42171,-172.37157,-67.12515,CSO
1790727290880.0,2.387333393096924,-8.271646499633789,-1.162290334701538,-5.146902084350586,-0.7021063566207886,-1.2892311,0.7641924,89.982086,-171.96326000000005,-67.3385,CSO
1790732271616.0,2.3923346996307373,-8.309731483459473,-1.0688515901565552,-5.143758773803711,-0.7025889754295349,-1.3060299,0.7440339,89.53323,-171.55775,-67.531586,CSO
1790737383424.0,2.3973379135131836,-8.356800079345703,-0.9802995920181274,-5.1383209228515625,-0.7024461030960083,-1.4013249,0.5491679,89.23642,-171.26731999999996,-67.85418,CSO
1790742364160.0,2.402340888977051,-8.415029525756836,-0.8979334235191345,-5.131043434143066,-0.7020692229270935,-1.4523321000000002,0.45081854,88.87406999999997,-170.95386000000005,-68.14423000000001,CSO
1790747344896.0,2.4073433876037598,-8.486788749694824,-0.8231143951416016,-5.1223673820495605,-0.7015869617462158,-1.5711454,0.19914207,88.92819,-170.92117,-68.70734,CSO
1790752325632.0,2.4123456478118896,-8.572433471679688,-0.7545129060745239,-5.114026069641113,-0.7011130452156067,-1.6071864,-0.096516706,88.980194,-170.91896,-69.25960500000001,CSO
1790757306368.0,2.4173479080200195,-8.671882629394531,-0.6904208064079285,-5.107826232910156,-0.7005490660667419,-1.4633276000000002,-0.3747658,89.11546,-170.98509,-69.80636,CSO
1790762287104.0,2.4223499298095703,-8.782395362854004,-0.6273024678230286,-5.105747699737549,-0.6997359991073608,-1.1407908000000002,-0.5635232,89.52297,-171.27084,-70.463844,CSO
1790767267840.0,2.427351713180542,-8.900364875793457,-0.5611444711685181,-5.109703063964844,-0.6985623240470886,-0.6469063,-0.59681535,89.92283,-171.58075,-71.02915,CSO
1790772248576.0,2.4323534965515137,-9.020613670349121,-0.4890662133693695,-5.120177268981934,-0.6971129775047302,-0.11301007,-0.4596761,90.177795,-171.81578000000005,-71.379425,CSO
1790777229312.0,2.437354803085327,-9.137589454650879,-0.4088585376739502,-5.136998653411865,-0.6955690383911133,0.398895,-0.21960606,90.36742,-172.0209,-71.58341999999998,CSO
1790782210048.0,2.4423561096191406,-9.246783256530762,-0.320345938205719,-5.158356189727783,-0.6941728591918945,0.7877107,0.01282817,90.13683,-171.91371,-71.38387,CSO
1790787190784.0,2.447357177734375,-9.344427108764648,-0.22419176995754242,-5.181906223297119,-0.6931012868881226,0.9468411,0.22052236,89.81916,-171.74868999999995,-71.09389,CSO
1790792171520.0,2.4523582458496094,-9.42842960357666,-0.12193121016025543,-5.20529842376709,-0.6922933459281921,0.6780604,0.38515055,89.16933,-171.32172,-70.59643,CSO
1790797152256.0,2.4573590755462646,-9.497502326965332,-0.015337164513766766,-5.226339817047119,-0.691548764705658,0.13836098,0.5143485,88.45546999999998,-170.85801999999995,-70.11908000000001,CSO
1790802264064.0,2.462359666824341,-9.552197456359863,0.09308326244354248,-5.243898391723633,-0.6903495192527771,-0.4352415,0.5849035,87.66739,-170.31898,-69.6959,CSO
1790807244800.0,2.467360496520996,-9.593795776367188,0.20065614581108093,-5.257330417633057,-0.6880956292152405,-0.8341365,0.6038403,86.889565,-169.77696,-69.35249,CSO
1790812356608.0,2.472362756729126,-9.62413501739502,0.30535072088241577,-5.2669830322265625,-0.6843979954719543,-1.0458013000000002,0.569021,86.19458,-169.26561,-69.168205,CSO
1790817337344.0,2.477365016937256,-9.644950866699219,0.4058174788951874,-5.273431301116943,-0.6791471838951111,-1.1117748,0.48624873,85.56175999999998,-168.7789,-69.03755,CSO
1790822318080.0,2.4823668003082275,-9.657662391662598,0.5012301206588745,-5.2775349617004395,-0.6724532246589661,-1.0830641,0.41813725,314.01334,-168.43257,-69.029785,CSO
1790827298816.0,2.48736834526062,-9.663370132446289,0.5912927985191345,-5.280386924743652,-0.6646436452865601,-1.0595458,0.408058,315.2882,-168.09624,-69.03166999999999,CSO
1790832279552.0,2.4923696517944336,-9.663119316101074,0.6759589314460754,-5.28305721282959,-0.6560168862342834,-1.0070114,0.42485678,316.22778,-167.88689,-69.079666,CSO
1790837260288.0,2.497370719909668,-9.657879829406738,0.7553007006645203,-5.286545753479004,-0.6469415426254272,-0.9550878,0.50335294,317.1823,-167.65724,-69.10661,CSO
1790842241024.0,2.5023717880249023,-9.648821830749512,0.8296878337860107,-5.291377544403076,-0.6376391649246216,-0.82741696,0.62125,317.94113,-167.4509,-69.07595,CSO
1790847221760.0,2.5073726177215576,-9.637202262878418,0.8996694684028625,-5.297755718231201,-0.6282802820205688,-0.6441574000000001,0.7672467,318.7018700000001,-167.21066000000005,-68.99781,CSO
1790852202496.0,2.512373447418213,-9.624685287475586,0.9656989574432373,-5.3054280281066895,-0.6188660860061646,-0.50823987,0.92149025,319.3406,-166.96393,-68.84878,CSO
1790857183232.0,2.517374038696289,-9.613147735595703,1.0281630754470825,-5.3138747215271,-0.6092937588691711,-0.42638394,1.0332786,319.9620700000001,-166.69167,-68.651184,CSO
1790862295040.0,2.5223746299743652,-9.60433292388916,1.087489366531372,-5.32269811630249,-0.5993232131004333,-0.3885103,1.1087204,320.59454,-166.39331,-68.40812,CSO
1790867275776.0,2.5273752212524414,-9.599954605102539,1.144256353378296,-5.331728935241699,-0.5888315439224243,-0.3475823,1.1676688999999998,321.2207,-166.07501000000005,-68.13006999999999,CSO
1790872256512.0,2.5323758125305176,-9.600834846496582,1.1990631818771362,-5.341219902038574,-0.5777629017829895,-0.2489276,1.2437216,321.91843,-165.75725,-67.87909,CSO
1790877237248.0,2.5373761653900146,-9.606897354125977,1.2525418996810913,-5.35186767578125,-0.5660299062728882,-0.12644911,1.3213016000000002,322.59546,-165.43536,-67.604454,CSO
1790882217984.0,2.5423765182495117,-9.617770195007324,1.3053112030029297,-5.364170551300049,-0.5535587072372437,-0.05375614,1.3652838,323.32355,-165.11278,-67.349655,CSO
1790887198720.0,2.5473766326904297,-9.632322311401367,1.3580759763717651,-5.378256320953369,-0.5403798222541809,-0.046120327,1.38025,324.0258,-164.78601,-67.07629399999999,CSO
1790892179456.0,2.5523767471313477,-9.649374961853027,1.4115267992019653,-5.394244194030762,-0.5266170501708984,-0.010690141499999998,1.3903292,324.67804,-164.4291,-66.73028599999999,CSO
1790897160192.0,2.5573766231536865,-9.66751766204834,1.4664167165756226,-5.412259101867676,-0.5124039053916931,0.04062254,1.3994923,325.3029,-164.07771,-66.38214,CSO
1790902140928.0,2.5623762607574463,-9.685526847839355,1.5233526229858398,-5.432361602783203,-0.49783438444137573,0.05955936,1.4315627,325.98196,-163.67027,-65.97265,CSO
1790907252736.0,2.567375898361206,-9.702498435974121,1.5825711488723755,-5.454377174377441,-0.48300421237945557,0.112704635,1.4844025,326.60895,-163.26215,-65.54644,CSO
1790912233472.0,2.572375535964966,-9.71784782409668,1.6440939903259277,-5.478141784667969,-0.4679313600063324,0.18661933,1.5940529,327.3153,-162.75949,-65.011635,CSO
1790917214208.0,2.5773749351501465,-9.731725692749023,1.707377552986145,-5.503497123718262,-0.45267167687416077,0.29077184,1.6847663,327.9671600000001,-162.25668000000005,-64.46158,CSO
1790922194944.0,2.582374334335327,-9.74433422088623,1.7718523740768433,-5.530219078063965,-0.43730786442756653,0.32559118,1.7373008,328.67868,-161.69641,-63.85465600000001,CSO
1790927175680.0,2.587373733520508,-9.756219863891602,1.8365576267242432,-5.55765438079834,-0.4219047427177429,0.36346483,1.7602082,329.3353600000001,-161.13277,-63.22391,CSO
1790932156416.0,2.5923728942871094,-9.767616271972656,1.900744080543518,-5.585235118865967,-0.40655264258384705,0.3885103,1.8090774,329.9631,-160.56799999999996,-62.585697,CSO
1790937137152.0,2.597372055053711,-9.778042793273926,1.9640308618545532,-5.612495422363281,-0.3913609981536865,0.41783184,1.8454239,330.54874,-160.01134,-61.947636,CSO
1790942248960.0,2.6023855209350586,-9.786576271057129,2.0258283615112305,-5.638648986816406,-0.3764925003051758,0.4633413,1.8640553,331.60693,-158.98831,-60.77925,CSO
1790947360768.0,2.6074130535125732,-9.792820930480957,2.085847854614258,-5.663338661193848,-0.3620842397212982,0.5338961999999999,1.8322903,332.0418,-158.5012,-60.196697,CSO
1790952472576.0,2.6124520301818848,-9.796041488647461,2.144036293029785,-5.6864848136901855,-0.34816497564315796,0.5687156,1.7974709,332.4594,-158.02501,-59.62378,CSO
1790957584384.0,2.6175012588500977,-9.79555606842041,2.200357675552368,-5.708028316497803,-0.3347122073173523,0.57879484,1.7806721999999997,332.8835,-157.55104,-59.071484,CSO
1790962696192.0,2.622559070587158,-9.791051864624023,2.254905939102173,-5.728122711181641,-0.32163336873054504,0.6001751000000001,1.7595973000000005,333.25943,-157.09825,-58.52735,CSO
1790967808000.0,2.627624750137329,-9.782241821289062,2.307771921157837,-5.746910572052002,-0.3088599741458893,0.6771441,1.7391333999999998,333.59616,-156.641,-57.95868000000001,CSO
1790972919808.0,2.6326966285705566,-9.769453048706055,2.3591060638427734,-5.764441967010498,-0.29632723331451416,0.75777835,1.711339,333.9019,-156.20349,-57.399876,CSO
1790978031616.0,2.6377739906311035,-9.753085136413574,2.4090933799743652,-5.7807841300964355,-0.28395384550094604,0.8151997,1.6786577,334.16876,-155.785,-56.845158,CSO
1790983143424.0,2.6428563594818115,-9.733473777770996,2.458249568939209,-5.7963547706604,-0.27171674370765686,0.8582656999999999,1.6371188,334.39215,-155.3649,-56.261963,CSO
1790988255232.0,2.647942543029785,-9.710906028747559,2.507035970687866,-5.811473369598389,-0.2595576345920563,0.9257663,1.600467,334.5868,-154.957,-55.67315,CSO
1790993367040.0,2.653032064437866,-9.685351371765137,2.5559144020080566,-5.825796127319336,-0.2474101334810257,1.0439687,1.5683966,334.73053,-154.56975,-55.08385500000001,CSO
1790998478848.0,2.6581249237060547,-9.656755447387695,2.605314254760742,-5.838950157165527,-0.23524421453475952,1.1517864,1.5219707,334.85107,-154.17851000000005,-54.46955500000001,CSO
1791003590656.0,2.663219928741455,-9.624863624572754,2.6555392742156982,-5.850009918212891,-0.2230607569217682,1.1441506,1.4743233,334.96008,-153.80759,-53.87232,CSO
1791008702464.0,2.6683175563812256,-9.589387893676758,2.7069051265716553,-5.858063697814941,-0.21089966595172882,0.9935723,1.4202617,335.13837,-153.4117,-53.278404,CSO
1791013814272.0,2.6734161376953125,-9.54999828338623,2.7596094608306885,-5.862549781799316,-0.1987723410129547,0.89552844,1.3634512,335.28284,-153.04016,-52.697372,CSO
1791018926080.0,2.678515672683716,-9.506357192993164,2.813856363296509,-5.862917423248291,-0.18682162463665009,0.6835581999999999,1.3164146,335.62503,-152.61542,-52.17953,CSO
1791024037888.0,2.6836159229278564,-9.457965850830078,2.8699183464050293,-5.859429359436035,-0.17515161633491516,0.46395215,1.303281,335.98752,-152.20602,-51.694794,CSO
1791029149696.0,2.688716173171997,-9.404391288757324,2.9280312061309814,-5.85243034362793,-0.16387563943862915,0.20708331,1.2956451999999998,336.4133,-151.80795,-51.27287000000001,CSO
1791034261504.0,2.6938161849975586,-9.345232963562012,2.988452196121216,-5.842747688293457,-0.1530282199382782,0.002443461,1.3087788,337.0139200000001,-151.33803,-50.867233,CSO
1791039373312.0,2.698915719985962,-9.28016185760498,3.0514044761657715,-5.831239223480225,-0.14261391758918762,-0.12889257,1.3451253,337.66333,-150.86693,-50.494854,CSO
1791044485120.0,2.704014778137207,-9.209457397460938,3.1169939041137695,-5.8187432289123535,-0.13262343406677246,-0.19547687,1.3909402,338.39832,-150.32684,-50.078526,CSO
1791049596928.0,2.7091128826141357,-9.133492469787598,3.1852805614471436,-5.806011199951172,-0.12305159866809845,-0.2144137,1.4385877,339.14926,-149.78314,-49.66932,CSO
1791054708736.0,2.714210033416748,-9.053003311157227,3.2562336921691895,-5.793428421020508,-0.11388476938009262,-0.23151793,1.4782939,339.90894,-149.18318,-49.172165,CSO
1791059820544.0,2.719305992126465,-8.968740463256836,3.329793691635132,-5.781277179718018,-0.10504449903964996,-0.23487769,1.5149458999999998,340.65768,-148.58263,-48.667294,CSO
1791064932352.0,2.724400520324707,-8.88167667388916,3.4057164192199707,-5.769566535949707,-0.09645261615514755,-0.23090707,1.5632042,341.3874,-147.94791999999995,-48.09246,CSO
1791070044160.0,2.7294938564300537,-8.79277229309082,3.4837207794189453,-5.758233070373535,-0.08807653188705444,-0.23518312,1.6132951000000002,342.10608,-147.31421,-47.51436,CSO
1791075155968.0,2.734585762023926,-8.7028226852417,3.5634493827819824,-5.747270584106445,-0.07981788367033005,-0.27458394,1.6484199000000002,342.8258,-146.67035,-46.915573,CSO
1791080267776.0,2.739675998687744,-8.612508773803711,3.6445257663726807,-5.736701011657715,-0.07161247730255127,-0.3286455,1.6878206999999998,343.5402,-146.0242,-46.312428,CSO
1791085379584.0,2.7447643280029297,-8.522565841674805,3.726606845855713,-5.7265305519104,-0.06336445361375809,-0.35155296,1.7415768,344.2548,-145.38495,-45.722057,CSO
1791090491392.0,2.7498509883880615,-8.433695793151855,3.809382438659668,-5.716760158538818,-0.05504440516233444,-0.36743546,1.7867808,344.96655,-144.75056,-45.137577,CSO
1791095603200.0,2.7549357414245605,-8.346563339233398,3.8925423622131348,-5.70709228515625,-0.04659322276711464,-0.37140608,1.8161024,345.6638200000001,-144.13477,-44.56454,CSO
1791100715008.0,2.7600183486938477,-8.261773109436035,3.975797414779663,-5.6971540451049805,-0.037935737520456314,-0.36651915,1.8396207,346.34726,-143.52538,-43.989384,CSO
1791105826816.0,2.765099048614502,-8.179713249206543,4.058953762054443,-5.686345100402832,-0.028986088931560516,-0.35308012,1.8558086,347.00345,-142.9433,-43.43979,CSO
1791110938624.0,2.7701778411865234,-8.100658416748047,4.1418633460998535,-5.674030303955078,-0.019761838018894196,-0.310625,1.8894062,347.6339,-142.36433,-42.8817,CSO
1791116050432.0,2.775254726409912,-8.0247802734375,4.224223613739014,-5.6594390869140625,-0.010340223088860512,-0.30634892,1.91323,348.26556,-141.8096,-42.373634,CSO
1791121162240.0,2.780329704284668,-7.9521803855896,4.305668830871582,-5.641780853271484,-0.0007927684346213937,-0.35124752,1.9226984,348.87997,-141.26407,-41.868435,CSO
1791126274048.0,2.785402536392212,-7.8829569816589355,4.385831832885742,-5.621092796325684,0.008837752044200897,-0.4578435,1.933083,349.52844,-140.71005,-41.41338,CSO
1791131385856.0,2.790473222732544,-7.817198753356934,4.4643635749816895,-5.597849369049072,0.018483273684978485,-0.54092115,1.9294178,350.15686,-140.16647,-40.967007,CSO
1791136497664.0,2.795542001724243,-7.754940986633301,4.540903091430664,-5.572597503662109,0.02808014675974846,-0.5665775,1.9263636,350.8258,-139.6099,-40.58506,CSO
1791141609472.0,2.8006088733673096,-7.696169853210449,4.615079402923584,-5.545948505401611,0.03757059574127197,-0.5308419,1.9159788,351.46793,-139.0675,-40.209637,CSO
1791146721280.0,2.805673599243164,-7.640711307525635,4.686669826507568,-5.518353462219238,0.046890128403902054,-0.49327368,1.8930714,352.0642,-138.57286000000002,-39.86062,CSO
1791151833088.0,2.8107364177703857,-7.588299751281738,4.755547046661377,-5.490154266357422,0.05600658804178238,-0.44257188,1.8591684,352.6152,-138.09444,-39.511765,CSO
1791156944896.0,2.8157973289489746,-7.538686275482178,4.821600914001465,-5.461662292480469,0.06484314799308777,-0.3717115,1.8362609,353.0852,-137.6656,-39.171825,CSO
1791162056704.0,2.8208563327789307,-7.491642475128174,4.884744644165039,-5.433154582977295,0.07334129512310028,-0.29810223,1.8139644,353.51395,-137.25348,-38.83614,CSO
1791167168512.0,2.825913667678833,-7.446760177612305,4.944892883300781,-5.404707908630371,0.08144260942935944,-0.25686884,1.7968601000000002,353.91083,-136.85052,-38.50325,CSO
1791172280320.0,2.8309693336486816,-7.403491973876953,5.001967430114746,-5.376233100891113,0.08913922309875488,-0.22693644,1.7910568999999998,354.2711,-136.45795,-38.16849000000001,CSO
1791177261056.0,2.8360230922698975,-7.361264228820801,5.055963039398193,-5.34757137298584,0.09640615433454514,-0.23426682,1.7730363999999998,354.58423,-136.10553000000002,-37.840107,CSO
1791182241792.0,2.8410749435424805,-7.319486618041992,5.106933116912842,-5.318509578704834,0.10325519740581512,-0.2733622000000001,1.7525723999999998,354.88632,-135.76288,-37.519012,CSO
1791187222528.0,2.8461251258850098,-7.277589797973633,5.154897212982178,-5.288817882537842,0.1096503958106041,-0.34391713,1.7226400000000002,355.1833,-135.41997,-37.201878,CSO
1791192203264.0,2.8511736392974854,-7.23497200012207,5.1998114585876465,-5.258205890655518,0.11555301398038864,-0.4447099,1.6917913,355.48914,-135.08809,-36.904133,CSO
1791197184000.0,2.8562204837799072,-7.191156387329102,5.241706371307373,-5.226371765136719,0.12090890854597092,-0.48197266,1.6737707999999998,355.79218,-134.73413,-36.591557,CSO
1791202164736.0,2.8612656593322754,-7.1457719802856445,5.280680179595947,-5.192995548248291,0.12567371129989624,-0.5335908,1.6337591,356.11246,-134.3963,-36.3115,CSO
1791207276544.0,2.86630916595459,-7.0986223220825195,5.316919326782227,-5.157876968383789,0.12977983057498932,-0.6545420999999999,1.5916093999999998,356.46237,-134.03429,-36.031807,CSO
1791212257280.0,2.8713510036468506,-7.049666404724121,5.35068416595459,-5.120925426483154,0.1331442892551422,-0.77488256,1.5775595,356.81555,-133.6761,-35.764606,CSO
1791217238016.0,2.8763914108276367,-6.998981475830078,5.3821187019348145,-5.082262992858887,0.13570868968963623,-0.8295549999999999,1.5815301000000002,357.17004,-133.29532,-35.493813,CSO
1791222218752.0,2.8814306259155273,-6.946767807006836,5.411252021789551,-5.042226314544678,0.1375279277563095,-0.9089675,1.5839735,357.55508,-132.92375,-35.247078,CSO
1791227199488.0,2.8864684104919434,-6.893199443817139,5.4381232261657715,-5.001036643981934,0.13863077759742737,-1.0146471,1.5839735,357.9528200000001,-132.51968,-34.997562,CSO
1791232180224.0,2.8915047645568848,-6.838406085968018,5.462786674499512,-4.958663463592529,0.13897737860679626,-1.1166617,1.5665639999999998,358.35828,-132.12285,-34.76167,CSO
1791237160960.0,2.8965396881103516,-6.782583236694336,5.48531436920166,-4.915277481079102,0.1384647935628891,-1.1985176000000002,1.5696182,358.7757,-131.73041,-34.525692,CSO
1791242272768.0,2.9015731811523438,-6.726009368896484,5.505796909332275,-4.871294021606445,0.13701270520687103,-1.2305881,1.557401,359.1905,-131.34863,-34.304802,CSO
1791247253504.0,2.9066054821014404,-6.668951511383057,5.524418354034424,-4.826943397521973,0.134616881608963,-1.246776,1.5460999,359.59448,-130.9643,-34.093452,CSO
1791252234240.0,2.9116365909576416,-6.611675262451172,5.541504383087158,-4.782203674316406,0.13127706944942474,-1.2721269,1.5216653,359.99365,-130.58606,-33.89307,CSO
1791257214976.0,2.916666269302368,-6.554396629333496,5.557406902313232,-4.736997127532959,0.1269480288028717,-1.3017538999999998,1.5039502,0.39522272,-130.21828,-33.69267,CSO
1791262195712.0,2.921694755554199,-6.497264862060547,5.572549819946289,-4.691140174865723,0.12154081463813782,-1.3405437,1.496009,0.7924585,-129.85411000000002,-33.500029999999995,CSO
1791267176448.0,2.9267220497131348,-6.440378665924072,5.587296485900879,-4.644641876220703,0.11503604054450989,-1.3973542,1.4822645,1.1732439,-129.49104,-33.322063,CSO
1791272288256.0,2.931748390197754,-6.383767127990723,5.601947784423828,-4.597801208496094,0.1074194461107254,-1.4883732,1.4660766,1.5629058,-129.12909,-33.15399,CSO
1791277268992.0,2.9367735385894775,-6.32745885848999,5.616762161254883,-4.550883769989014,0.0987013652920723,-1.564426,1.4450017,1.916097,-128.75864,-32.99371,CSO
1791282380800.0,2.941798210144043,-6.271472930908203,5.631989479064941,-4.504133701324463,0.08885600417852402,-1.6261233,1.42973,2.2796795,-128.39212,-32.842213,CSO
1791287361536.0,2.946821689605713,-6.215653896331787,5.647775650024414,-4.457465648651123,0.07787040621042252,-1.6728544,1.4220943,2.6481633,-128.03365,-32.69847,CSO
1791292342272.0,2.9518442153930664,-6.1592936515808105,5.664100646972656,-4.4098801612854,0.06576047092676163,-1.7055358,1.4257594,3.0183215,-127.67995,-32.5584,CSO
1791297323008.0,2.9568657875061035,-6.101892948150635,5.6808953285217285,-4.360509872436523,0.05255492404103279,-1.7788396,1.3814718,3.4398413,-127.303055,-32.391376,CSO
1791302303744.0,2.961886405944824,-6.043363094329834,5.697943210601807,-4.3085455894470215,0.038236651569604874,-1.922393,1.3200798,3.8775582,-126.93238999999998,-32.236618,CSO
1791307284480.0,2.9669065475463867,-5.983693599700928,5.715044975280762,-4.2533464431762695,0.022737083956599236,-2.1013765,1.244638,4.377431,-126.506485,-32.05875,CSO
1791312265216.0,2.971925735473633,-5.923158645629883,5.732010841369629,-4.19471549987793,0.006058843340724707,-2.1838431000000003,1.1829406,4.8694324,-126.10044,-31.895426,CSO
1791317245952.0,2.9769442081451416,-5.862040996551514,5.748657703399658,-4.132530212402344,-0.011735117994248867,-2.295937,1.1578951000000002,5.5703835,-125.6417,-31.731688,CSO
1791322226688.0,2.981961965560913,-5.800722122192383,5.76478385925293,-4.066921234130859,-0.030703185126185417,-2.417194,1.1108584,6.2744045,-125.204254,-31.592909,CSO
1791327207424.0,2.9869790077209473,-5.739588737487793,5.780220985412598,-3.998093843460083,-0.050833627581596375,-2.5515842,1.0870347,7.061696,-124.76062,-31.46505,CSO
1791332188160.0,2.991995334625244,-5.679250717163086,5.794844627380371,-3.926591157913208,-0.07196950167417526,-2.6572638,1.0598511999999998,7.8574185,-124.339264,-31.350487,CSO
1791337168896.0,2.9970109462738037,-5.620249271392822,5.8086256980896,-3.8529112339019775,-0.09403061866760254,-2.7311785,1.061073,8.7015505,-123.92587,-31.253489,CSO
1791342280704.0,3.002025842666626,-5.563055515289307,5.821892261505127,-3.77752423286438,-0.11679846793413162,-2.778826,1.0644327,9.55299,-123.53701,-31.159986,CSO
1791347261440.0,3.007040023803711,-5.5080790519714355,5.834934234619141,-3.7008557319641113,-0.1400856226682663,-2.8087585,1.0735956,10.401834,-123.19278,-31.097826,CSO
1791352373248.0,3.012053966522217,-5.455698490142822,5.84846305847168,-3.623551368713379,-0.16366972029209137,-2.8393016,1.0827587,11.25028,-122.86467,-31.028923,CSO
1791357353984.0,3.0170676708221436,-5.40622615814209,5.863166809082031,-3.5462276935577393,-0.18730029463768005,-2.8918362,1.0824533,12.09916,-122.5526,-30.954742,CSO
1791362334720.0,3.022080898284912,-5.3596930503845215,5.879981517791748,-3.469933032989502,-0.21064862608909607,-2.8747318,1.0934488000000002,12.950437,-122.26781,-30.883587,CSO
1791367315456.0,3.0270936489105225,-5.316029071807861,5.899825572967529,-3.395756483078003,-0.23336541652679443,-2.7421741,1.1487321,13.766864000000002,-121.98803999999998,-30.790138,CSO
1791372296192.0,3.0321056842803955,-5.275038719177246,5.923391342163086,-3.3251256942749023,-0.2551541030406952,-2.543643,1.2253957,14.518629,-121.7206,-30.677074,CSO
1791377276928.0,3.0371172428131104,-5.236472129821777,5.951209545135498,-3.25954270362854,-0.2757125496864319,-2.254398,1.3115277,15.183437,-121.45304,-30.533186,CSO
1791382257664.0,3.042128324508667,-5.199896812438965,5.9831953048706055,-3.1997737884521484,-0.2947031259536743,-1.8723019,1.4037683,15.668943,-121.15585,-30.31019,CSO
1791387369472.0,3.047140598297119,-5.164837837219238,6.019183158874512,-3.146486759185791,-0.31184765696525574,-1.4086553,1.4773777,16.021387,-120.85472,-30.057453,CSO
1791392350208.0,3.052152156829834,-5.130794525146484,6.058819770812988,-3.0993313789367676,-0.32699060440063477,-0.9950995,1.5045611,16.079073,-120.56856,-29.760845,CSO
1791397330944.0,3.0571632385253906,-5.097175121307373,6.10174560546875,-3.057659387588501,-0.3400155305862427,-0.6270532,1.4789047,16.00006,-120.29133,-29.449461,CSO
1791402311680.0,3.06217360496521,-5.063302516937256,6.147591590881348,-3.0198755264282227,-0.3508449196815491,-0.32314770000000004,1.4193454,15.83797,-119.97832,-29.07078,CSO
1791407292416.0,3.067183494567871,-5.028514385223389,6.19600772857666,-2.984182357788086,-0.3595699965953827,-0.17470746,1.3408492,15.611820000000002,-119.689316,-28.703978000000006,CSO
1791412273152.0,3.072192907333374,-4.992365837097168,6.2467498779296875,-2.948560953140259,-0.3663296401500702,-0.15393804,1.2959507,15.365938,-119.370605,-28.29667,CSO
1791417253888.0,3.0772018432617188,-4.954501628875732,6.299619197845459,-2.9110536575317383,-0.3713015913963318,-0.18387043,1.2632693000000002,15.095152,-119.08031499999998,-27.910784000000003,CSO
1791422234624.0,3.0822103023529053,-4.914799213409424,6.354750156402588,-2.870086193084717,-0.37471967935562134,-0.3295618,1.2284501,14.950520499999998,-118.7222,-27.490864,CSO
1791427215360.0,3.0872182846069336,-4.873228549957275,6.41239070892334,-2.824314594268799,-0.37689587473869324,-0.54305923,1.1960741,14.839151,-118.37822,-27.091381,CSO
1791432196096.0,3.092226028442383,-4.830008506774902,6.473141193389893,-2.773575782775879,-0.37818095088005066,-0.786489,1.185384,14.975282,-117.9238,-26.647226,CSO
1791437176832.0,3.0972330570220947,-4.785420894622803,6.537654876708984,-2.7180845737457275,-0.3788953721523285,-1.0241156,1.1597277,15.169171,-117.4868,-26.233648,CSO
1791442157568.0,3.1022398471832275,-4.739825248718262,6.606906414031982,-2.6588151454925537,-0.3793087899684906,-1.1972959,1.1646146000000002,15.511189000000002,-116.96236,-25.784695000000006,CSO
1791447269376.0,3.107246160507202,-4.693628311157227,6.682049751281738,-2.5972633361816406,-0.3796577453613281,-1.2635747,1.1820242,15.883371,-116.44584,-25.351587,CSO
1791452250112.0,3.1122519969940186,-4.647301197052002,6.763609409332275,-2.53481125831604,-0.38007110357284546,-1.2431108,1.2024882,16.296469000000002,-115.88087,-24.88316,CSO
1791457230848.0,3.117257833480835,-4.601326942443848,6.851824760437012,-2.4727444648742676,-0.3805757164955139,-1.142318,1.219287,16.693260000000002,-115.32269,-24.418112,CSO
1791462211584.0,3.122263193130493,-4.5561299324035645,6.946119785308838,-2.411963939666748,-0.38106614351272583,-1.0115929,1.2388347,17.035965,-114.739624,-23.905884,CSO
1791467192320.0,3.1272683143615723,-4.512091636657715,7.045529365539551,-2.353149175643921,-0.38137850165367126,-0.8518515999999999,1.2522738000000002,17.327415,-114.17054,-23.398321,CSO
1791472173056.0,3.1322731971740723,-4.469660758972168,7.148606777191162,-2.296550750732422,-0.3813403844833374,-0.70554936,1.2669345,17.539198000000006,-113.617744,-22.880665,CSO
1791477284864.0,3.137277841567993,-4.429315567016602,7.253643989562988,-2.242140054702759,-0.3807644844055176,-0.57696223,1.2495248,17.69904,-113.09102,-22.37842,CSO
1791482265600.0,3.142282247543335,-4.3915181159973145,7.3589630126953125,-2.189702272415161,-0.37954339385032654,-0.4810564000000001,1.2351695,17.793732000000006,-112.61166,-21.905685,CSO
1791487246336.0,3.1472866535186768,-4.356704235076904,7.462949275970459,-2.138897180557251,-0.37768852710723877,-0.4184427,1.1930199,17.854013000000005,-112.16108,-21.455872,CSO
1791492227072.0,3.1522908210754395,-4.325234413146973,7.564198970794678,-2.0894811153411865,-0.3752492070198059,-0.37018433,1.1502593,17.888643,-111.79307,-21.083204,CSO
1791497207808.0,3.157294750213623,-4.2973785400390625,7.661534786224365,-2.0413475036621094,-0.37232163548469543,-0.32711834,1.0855075,17.901773000000006,-111.45204,-20.735867,CSO
1791502188544.0,3.1622984409332275,-4.27311372756958,7.7542405128479,-1.9942941665649414,-0.36893096566200256,-0.23915374,1.0164797,17.891973,-111.20891,-20.487959,CSO
1791507300352.0,3.167302131652832,-4.252163410186768,7.841985702514648,-1.9480278491973877,-0.3651478588581085,-0.17043139999999998,0.95203346,17.871817,-110.985504,-20.261307,CSO
1791512281088.0,3.1723058223724365,-4.2340240478515625,7.9247727394104,-1.90224289894104,-0.3610784411430359,-0.15210545,0.9324858,17.849234,-110.82922,-20.103775,CSO
1791517261824.0,3.177309274673462,-4.217972755432129,8.002893447875977,-1.8566035032272339,-0.35674920678138733,-0.13347405,0.91629785,17.803766,-110.69382,-19.964146,CSO
1791522242560.0,3.1823127269744873,-4.203366279602051,8.076531410217285,-1.8109334707260132,-0.3522549271583557,-0.13164146,0.9285152,17.774642999999994,-110.56277,-19.83819,CSO
1791527223296.0,3.1873159408569336,-4.189621925354004,8.145744323730469,-1.7652207612991333,-0.34768015146255493,-0.15974127,0.9477574,17.748413,-110.436806,-19.717123,CSO
1791532204032.0,3.192318916320801,-4.176300048828125,8.210505485534668,-1.7195286750793457,-0.3430297374725342,-0.18875736,0.97158116,17.74101,-110.26704,-19.558903,CSO
1791537184768.0,3.197321653366089,-4.163132190704346,8.270623207092285,-1.6740400791168213,-0.3383421003818512,-0.20799962,1.0027353,17.738714,-110.090836,-19.396362,CSO
1791542165504.0,3.2023239135742188,-4.149941444396973,8.325891494750977,-1.6289342641830444,-0.3337003290653229,-0.1957823,1.0366384,17.741224,-109.87993,-19.200848,CSO
1791547146240.0,3.2073261737823486,-4.136667728424072,8.376047134399414,-1.5843989849090576,-0.32912498712539673,-0.15332718,1.0552697,17.739243,-109.66953999999998,-19.004,CSO
1791552126976.0,3.2123279571533203,-4.1232380867004395,8.420933723449707,-1.540597915649414,-0.3246091604232788,-0.096516706,1.0668761999999998,17.735054,-109.44978,-18.795603,CSO
1791557238784.0,3.217329740524292,-4.109482765197754,8.460686683654785,-1.497668981552124,-0.3201621174812317,-0.059864793,1.0839803,17.723413,-109.22681,-18.583527,CSO
1791562219520.0,3.2223312854766846,-4.095320701599121,8.495448112487793,-1.4557358026504517,-0.31578588485717773,-0.05009095,1.0815369,17.6954,-109.02195,-18.38515,CSO
1791567331328.0,3.227332830429077,-4.080807209014893,8.52534008026123,-1.4149219989776611,-0.31152284145355225,-0.06719518,1.0815369,17.664285999999993,-108.81451,-18.184608,CSO
