timestamp,rel_time,acc_x,acc_y,acc_z,gyro_x,gyro_y,gyro_z,azimuth,pitch,roll,label
0.0,0.0,0.0,0.0,0.0,0.0,-0.014966198,-0.01282817,36.871272999999995,4.355012,16.760612,SIT
170727800000.0,1.5071785128384363e-05,0.009378473274409771,0.00028960368945263326,0.027251509949564934,-0.00012058955326210707,-0.0033597588,-0.0036651915999999997,36.849154999999996,4.314997,16.829197,SIT
509642300000.0,7.460101915057749e-05,0.027900906279683113,0.0009051829692907631,0.08136247843503952,-0.0003818012773990631,-0.0030543262,-0.0027488936,36.829547999999996,4.2766155999999995,16.895851,SIT
1011753000000.0,0.00020718330051749945,0.05520007014274597,0.0018781661055982113,0.1615496128797531,-0.0006901749293319881,0.01038471,0.008552114,36.805115,4.2372084,16.953854,SIT
1669797100000.0,0.00043951653060503304,0.09083586931228638,0.003267613472416997,0.26663559675216675,-0.0011337475152686238,0.026572637000000003,0.013133603,36.776463,4.208469999999999,17.013310999999998,SIT
2474490500000.0,0.0007959775975905359,0.13434141874313354,0.005182449705898762,0.3950687050819397,-0.0018314201151952147,0.020158553,0.015271631,36.74568,4.180287399999999,17.0741,SIT
3414837200000.0,0.001299580791965127,0.1848735213279724,0.00782552920281887,0.541853666305542,-0.002441573655232787,0.017104227,0.027488936000000002,36.71261,4.148097,17.123358,SIT
4478478000000.0,0.0019676005467772484,0.2413579523563385,0.011488382704555988,0.6994211077690125,-0.003168049966916442,0.029626964,0.02687807,36.683690000000006,4.121862,17.169320000000003,SIT
5652061600000.0,0.0028307700995355844,0.3034687340259552,0.015551154501736164,0.872026264667511,-0.0035880086943507195,0.037873644,0.028710667000000002,36.641533,4.0971255,17.221928,SIT
6921612000000.0,0.003872944274917245,0.37096619606018066,0.019330725073814392,1.0649000406265259,-0.003763331798836589,0.039095376,0.038789943,36.598343,4.0750475,17.271852,SIT
8272886600000.0,0.005114320199936628,0.4423026740550995,0.02304777130484581,1.278793215751648,-0.004073366988450289,0.030543262,0.043982297000000004,36.555298,4.047004,17.336966,SIT
9691700000000.0,0.006566549651324749,0.5154010653495789,0.02722807414829731,1.5146148204803467,-0.004594232887029648,0.03359759,0.04062254,36.513165,4.0167227,17.397651999999997,SIT
11164211000000.0,0.008226031437516212,0.5900910496711731,0.03179599717259407,1.7599412202835083,-0.00479314336553216,0.029626964,0.04276056599999999,36.457012,4.0089135,17.462189000000002,SIT
12677162000000.0,0.010098576545715332,0.6666720509529114,0.03664962947368622,1.994216799736023,-0.004927067551761866,0.0290161,0.045814894,36.403236,4.004580000000001,17.52375,SIT
14218073000000.0,0.012175215408205986,0.7443251013755798,0.04150940850377083,2.225330114364624,-0.005031668581068516,0.022907447,0.055588737,36.357265000000005,3.9966996,17.556427,SIT
15775381000000.0,0.014459177851676941,0.822116494178772,0.045904938131570816,2.4688780307769775,-0.004915436264127493,0.025961772999999997,0.047647487,36.316914000000004,3.9855873999999996,17.586403,SIT
17338538000000.0,0.016937268897891045,0.899334728717804,0.049938127398490906,2.7188355922698975,-0.004740973003208637,0.02687807,0.04642576,36.265038,3.9774833,17.644348,SIT
18898064000000.0,0.019609816372394562,0.9750398397445679,0.0538666807115078,2.96392560005188,-0.0045069861225783825,0.02565634,0.053450707,36.21438,3.9674034,17.701105,SIT
20445570000000.0,0.02246084436774254,1.0488351583480835,0.057670220732688904,3.2028634548187256,-0.004126254003494978,0.03390302,0.05375614,36.169907,3.9662411,17.74266,SIT
21973736000000.0,0.025491198524832726,1.1202763319015503,0.061323948204517365,3.4342129230499268,-0.003724797861650586,0.029321532999999997,0.05131268,36.124935,3.9655544999999996,17.787312,SIT
23476293000000.0,0.02867821604013443,1.189616322517395,0.06508711725473404,3.659665107727051,-0.0035523034166544676,0.02321288,0.057726767000000005,36.07842,3.9658937000000005,17.82903,SIT
24947949000000.0,0.03202396258711815,1.2577441930770874,0.06962842494249344,3.8843305110931396,-0.0030757032800465822,0.032375857,0.049785517,36.038193,3.9609919000000002,17.867268,SIT
26384336000000.0,0.03554992005228996,1.3243069648742676,0.07417159527540207,4.107458114624023,-0.0025832178071141243,0.03145956,0.041233405,35.99945,3.9638032999999995,17.91108,SIT
27781933000000.0,0.03917006030678749,1.3889296054840088,0.07773732393980026,4.326696872711182,-0.002340443665161729,0.03359759,0.04886922,35.959334999999996,3.9667152999999997,17.950557999999997,SIT
29137980000000.0,0.0429084450006485,1.4514611959457397,0.08017776161432266,4.541965961456299,-0.0019069722620770335,0.025350908,0.04520403,35.92759,3.9609553999999996,17.989647,SIT
30450410000000.0,0.046765606850385666,1.5115925073623657,0.08208838105201721,4.7544331550598145,-0.0015304823173210025,0.03268129,0.04337143,35.894127000000005,3.9586964,18.022884,SIT
31717755000000.0,0.050724562257528305,1.5692050457000732,0.08370678871870041,4.964133262634277,-0.0013558927457779646,0.032070424,0.047647487,35.860287,3.9561782,18.060053,SIT
32939084000000.0,0.05478464066982269,1.6244350671768188,0.08574298024177551,5.170369625091553,-0.0009376037633046508,0.032375857,0.044593163,35.8304,3.9570288999999996,18.09038,SIT
34113923000000.0,0.05892975628376007,1.6773345470428467,0.08838656544685364,5.372636795043945,-0.0007730620563961565,0.024129177,0.04153884,35.799774,3.961735,18.12264,SIT
35242195000000.0,0.06316263973712921,1.727170705795288,0.0909200981259346,5.569156169891357,-0.0006450526998378336,0.025350908,0.040011674,35.7718,3.9642494,18.144466,SIT
36324153000000.0,0.06746220588684082,1.7738151550292969,0.09312041848897934,5.759212970733643,-0.0006584915099665523,0.024129177,0.0421497,35.744076,3.9683422999999993,18.168758,SIT
37360327000000.0,0.07183478772640228,1.8174644708633423,0.09551892429590225,5.942551136016846,-0.0002749211562331766,0.025350908,0.03726278,35.72135,3.9658900000000004,18.186697,SIT
38351480000000.0,0.07626562565565109,1.8582884073257446,0.09827763587236404,6.119084358215332,-0.0002303999790456146,0.021685716,0.03634648,35.697227000000005,3.9684574999999995,18.205889000000003,SIT
39298556000000.0,0.08075480163097382,1.8963414430618286,0.10139142721891403,6.288961887359619,-0.00038864658563397825,0.020158553,0.033292156,35.668034000000006,3.9694447999999998,18.214922,SIT
40202655000000.0,0.0852946862578392,1.931715726852417,0.10483990609645844,6.452320098876953,-0.0004620637628249824,0.022296581,0.016798794,35.643833,3.9692168,18.224102,SIT
41064988000000.0,0.08987866342067719,1.9644972085952759,0.10813217610120773,6.608377456665039,-0.0006101173930801451,0.01740966,0.02321288,35.614113,3.9724882000000004,18.235135999999997,SIT
41886850000000.0,0.09451199322938919,1.9947365522384644,0.11101903766393661,6.75685977935791,-0.0005944817094132304,0.016798794,0.013439035,35.594879999999996,3.971031,18.244851999999998,SIT
42669600000000.0,0.09917597472667694,2.0227322578430176,0.11384657025337219,6.898034572601318,-0.0003592909488361329,0.01160644,0.015271631,35.56677,3.9729116,18.249155,SIT
43414633000000.0,0.10387255996465683,2.0486340522766113,0.11678623408079147,7.032159328460693,-0.0006723272381350398,0.020158553,0.017715093,35.542225,3.9770190000000003,18.249863,SIT
44123378000000.0,0.10860451310873032,2.072511672973633,0.11983686685562134,7.157824516296387,-0.001049319515004754,0.005497787,0.00580322,35.521747999999995,3.9775807999999997,18.255608,SIT
44797264000000.0,0.11336034536361694,2.094475269317627,0.12298397719860077,7.27459716796875,-0.0009788586758077145,0.010995574,0.005192355,35.498302,3.9793705999999998,18.252914,SIT
45437717000000.0,0.11814204603433609,2.115697145462036,0.12590904533863068,7.382851600646973,-0.0014852223685011268,0.0076358155,-0.0018325957999999999,35.475708000000004,3.988312,18.256392,SIT
46046156000000.0,0.1229463666677475,2.136759042739868,0.12846264243125916,7.4829912185668945,-0.002189739141613245,0.0076358155,-0.0125227375,35.4643203360721,3.9906416095992006,18.2577180021042,SIT
46623967000000.0,0.12776929140090942,2.157019853591919,0.13112479448318481,7.575018882751465,-0.0028108120895922184,0.0015271631,-0.0061086523,35.45301,3.9929553999999996,18.259035,SIT
47172520000000.0,0.1326102912425995,2.175704002380371,0.13447803258895874,7.658807277679443,-0.0031440574675798416,0.0033597588,-0.014355333500000001,35.434338000000004,3.9965777,18.260923000000002,SIT
47693140000000.0,0.13746696710586548,2.193758249282837,0.13790324330329895,7.735879421234131,-0.0034603357780724764,0.002443461,-0.017104227,35.414387,4.000661,18.269848,SIT
48187130000000.0,0.142339289188385,2.2117655277252197,0.14102795720100403,7.807255268096924,-0.0039372374303638935,-0.0070249503,-0.018020526000000002,35.396645,4.0034614,18.280576999999997,SIT
48655734000000.0,0.14722192287445068,2.229712963104248,0.14386850595474243,7.873232841491699,-0.0045988596975803375,0.0015271631,-0.010690141499999998,35.38239,3.999764,18.285702,SIT
49100170000000.0,0.15211759507656097,2.2476139068603516,0.1464369297027588,7.934048652648926,-0.0053069209679961205,-0.01038471,-0.0125227375,35.370740000000005,3.9953985,18.299393,SIT
49521600000000.0,0.15702873468399048,2.265329360961914,0.14896449446678162,7.9895782470703125,-0.006123505067080259,-0.0033597588,-0.008246681,35.352043,3.9960245999999997,18.305353,SIT
49921156000000.0,0.1619483083486557,2.282742738723755,0.151607945561409,8.039877891540527,-0.006913839839398861,-0.010690141499999998,-0.017104227,35.33763,3.994905,18.318895,SIT
50299910000000.0,0.1668749749660492,2.2998669147491455,0.15436069667339325,8.085212707519531,-0.007824619300663471,-0.0067195175,-0.01740966,35.322796000000004,3.992178,18.334349,SIT
50658896000000.0,0.1718088835477829,2.3167173862457275,0.15721778571605682,8.125825881958008,-0.008526155725121498,-0.010995574,-0.011301007,35.30863,3.9875662000000003,18.35393,SIT
50999110000000.0,0.17674827575683594,2.3338048458099365,0.16016577184200287,8.161859512329102,-0.009029178880155087,-0.019242255,-0.012217305,35.290924,3.9838648,18.371677,SIT
51321490000000.0,0.18169398605823517,2.351639747619629,0.1631939858198166,8.1934232711792,-0.009845873340964317,-0.010995574,-0.005192355,35.269740000000006,3.983051,18.38535,SIT
51626950000000.0,0.1866442710161209,2.3698995113372803,0.16617876291275024,8.221421241760254,-0.01076550129801035,-0.010995574,-0.0018325957999999999,35.251670000000004,3.9778926,18.414285999999997,SIT
51916350000000.0,0.19160115718841553,2.387993335723877,0.16887424886226654,8.247417449951172,-0.011539523489773273,-0.01740966,0.00030543262000000003,35.232327000000005,3.973608,18.4421,SIT
52190510000000.0,0.19656164944171906,2.405921697616577,0.17129658162593842,8.271520614624023,-0.012126848101615906,-0.01160644,-0.0036651915999999997,35.212868,3.968018,18.475077,SIT
52450216000000.0,0.20152592658996582,2.423694372177124,0.17345964908599854,8.29382610321045,-0.012958986684679985,-0.014049901000000002,0.0012217305,35.190296000000004,3.9648693,18.511343,SIT
52696216000000.0,0.20649278163909912,2.4413561820983887,0.17538024485111237,8.315763473510742,-0.01343887485563755,-0.019242255,0.0021380284,35.170624,3.9571085,18.546284,SIT
52929220000000.0,0.21146515011787415,2.458970069885254,0.1770729273557663,8.338944435119629,-0.01387717667967081,-0.014049901000000002,0.0076358155,35.148765999999995,3.9529107000000003,18.578132999999998,SIT
53149900000000.0,0.21643544733524323,2.4765143394470215,0.17855297029018402,8.363239288330078,-0.014584578573703766,-0.021991148999999998,0.0015271631,35.125774,3.9499106,18.621498000000003,SIT
53358904000000.0,0.2214144766330719,2.494028091430664,0.17982640862464905,8.38868522644043,-0.01475104782730341,-0.029321532999999997,0.010079277,35.097477000000005,3.9443147000000005,18.662062,SIT
53556837000000.0,0.22638867795467377,2.5112271308898926,0.1808624118566513,8.414955139160156,-0.015461046248674393,-0.018936822,0.006414085,35.073994,3.946064,18.700958,SIT
53744285000000.0,0.2313709557056427,2.5277698040008545,0.18158851563930511,8.441872596740723,-0.01616591587662697,-0.017715093,0.0070249503,35.046974,3.9434017999999997,18.74346,SIT
53921790000000.0,0.23635029792785645,2.543680429458618,0.18203093111515045,8.469325065612793,-0.016735898330807686,-0.017715093,0.011301007,35.025459999999995,3.9435344,18.786125,SIT
54089883000000.0,0.24133682250976562,2.5590016841888428,0.18219518661499023,8.497358322143555,-0.017616981640458107,-0.027794369,0.014966198,35.004257,3.945646,18.830379999999998,SIT
54249050000000.0,0.24631862342357635,2.5737464427948,0.18225149810314178,8.526211738586426,-0.01827247440814972,-0.02687807,0.010690141499999998,34.98493,3.9438752999999998,18.870673999999998,SIT
54399762000000.0,0.2513064742088318,2.5879387855529785,0.18253527581691742,8.55675983428955,-0.018990712240338326,-0.023823743999999997,0.011911871999999999,34.96321,3.9456506,18.912088,SIT
54542473000000.0,0.25629881024360657,2.601682662963867,0.18291957676410675,8.588821411132812,-0.019524449482560158,-0.03023783,0.009162978,34.941116,3.9471805,18.952375,SIT
54677600000000.0,0.2612902522087097,2.61582088470459,0.18215864896774292,8.621429443359375,-0.020159926265478134,-0.022602014,0.012217305,34.917866,3.9508061000000003,18.986769,SIT
54805544000000.0,0.2662837505340576,2.630061388015747,0.18044942617416382,8.654483795166016,-0.020842943340539932,-0.022602014,0.010079277,34.898179999999996,3.9512258,19.021616,SIT
54926690000000.0,0.27127805352211,2.643665313720703,0.1782287210226059,8.687708854675293,-0.021408317610621452,-0.016187929,0.014049901000000002,34.876564,3.9518923999999997,19.051441,SIT
55041390000000.0,0.27630355954170227,2.65667986869812,0.17545481026172638,8.721314430236816,-0.021927358582615852,-0.016187929,0.009468411,34.85735,3.9549086000000004,19.08326,SIT
55149990000000.0,0.28129664063453674,2.6691083908081055,0.17229719460010529,8.75483226776123,-0.02235371805727482,-0.018936822,0.013133603,34.835075,3.957997,19.113066,SIT
55252810000000.0,0.28629955649375916,2.680943727493286,0.168721541762352,8.788488388061523,-0.02243201807141304,-0.019547688,0.01038471,34.81949,3.9499730000000004,19.135786,SIT
55350158000000.0,0.29129305481910706,2.691558599472046,0.16521801054477692,8.821298599243164,-0.02248988300561905,-0.009468411,0.014660766,34.801296,3.9440727,19.155525,SIT
55442328000000.0,0.29630541801452637,2.700953960418701,0.16177000105381012,8.853409767150879,-0.022870076820254326,-0.008246681,0.014355333500000001,34.785070000000005,3.9415166,19.173342,SIT
55529590000000.0,0.30129995942115784,2.7092764377593994,0.15839098393917084,8.88472843170166,-0.022969694808125496,-0.01863139,0.015577064,34.767509999999994,3.9363657999999995,19.191187,SIT
55612210000000.0,0.3062918484210968,2.716550350189209,0.15507075190544128,8.915348052978516,-0.023177912458777428,-0.013744468000000001,0.015577064,34.74536,3.936172,19.203209,SIT
55690430000000.0,0.31128689646720886,2.7228987216949463,0.15214040875434875,8.944007873535156,-0.02353776805102825,-0.008857545999999999,0.005497787,34.726265000000005,3.9339101000000003,19.218082,SIT
55764484000000.0,0.3162788450717926,2.7283947467803955,0.14962324500083923,8.970626831054688,-0.023374002426862717,-0.0015271631,0.013133603,34.702553,3.9303532,19.230232,SIT
55834596000000.0,0.3212752044200897,2.7318854331970215,0.14678840339183807,8.99506664276123,-0.023251503705978394,-0.005497787,0.01160644,34.69032,3.929364,19.239126000000002,SIT
55900975000000.0,0.3262665569782257,2.7334210872650146,0.14359912276268005,9.017447471618652,-0.023119255900382996,-0.010995574,0.010690141499999998,34.67607,3.9263208,19.246128,SIT
55963820000000.0,0.3312634527683258,2.734501838684082,0.1412460207939148,9.037400245666504,-0.022928955033421516,-0.0027488936,0.017715093,34.66086,3.9232129999999996,19.24914,SIT
56023314000000.0,0.3362559676170349,2.7352797985076904,0.13975423574447632,9.05506420135498,-0.023058004677295685,-0.008552114,0.015577064,34.648575,3.920953,19.257832,SIT
56079640000000.0,0.34125426411628723,2.737032890319824,0.13822180032730103,9.069755554199219,-0.022984882816672325,-0.0076358155,0.008552114,34.636745,3.9184697,19.256823,SIT
56132966000000.0,0.34628358483314514,2.739988327026367,0.13651180267333984,9.081331253051758,-0.02263898029923439,-0.012217305,0.0125227375,34.62233,3.9178767,19.258863,SIT
56183453000000.0,0.35127875208854675,2.7426183223724365,0.13503970205783844,9.089838027954102,-0.02247425727546215,-0.012217305,0.008857545999999999,34.607445,3.9158154,19.259264,SIT
56231250000000.0,0.356275349855423,2.7445647716522217,0.13391777873039246,9.094902992248535,-0.022106727585196495,-0.007330383,0.006414085,34.591427,3.9109230000000004,19.259506,SIT
56276503000000.0,0.36127176880836487,2.746098518371582,0.13311481475830078,9.097474098205566,-0.021726228296756744,-0.005192355,0.013439035,34.57245,3.908446,19.266823000000002,SIT
56319344000000.0,0.36626261472702026,2.7472989559173584,0.1326061487197876,9.097896575927734,-0.021366000175476074,-0.0018325957999999999,0.01038471,34.557823,3.9037967000000005,19.272537,SIT
56359903000000.0,0.37126055359840393,2.7475509643554688,0.13196535408496857,9.095603942871094,-0.02095986157655716,-0.005497787,0.011301007,34.538146999999995,3.9004946000000005,19.281275,SIT
56398300000000.0,0.3762553930282593,2.746798276901245,0.13111086189746857,9.090706825256348,-0.020705571398139,0.0009162978999999999,0.015271631,34.51925,3.898021,19.286026,SIT
56434654000000.0,0.38125288486480713,2.7456674575805664,0.1310611367225647,9.084667205810547,-0.020432276651263237,0.0067195175,0.017104227,34.50486,3.8912997000000003,19.29301,SIT
56469070000000.0,0.38624927401542664,2.74434232711792,0.13203229010105133,9.077930450439453,-0.020840875804424286,0.004276057,0.022602014,34.488495,3.8895120000000003,19.300287,SIT
56501650000000.0,0.39124760031700134,2.742830991744995,0.1333659291267395,9.068486213684082,-0.021032385528087616,-0.0009162978999999999,0.01985312,34.474304,3.883829,19.306265,SIT
56532494000000.0,0.3962440490722656,2.741147518157959,0.1348813772201538,9.056004524230957,-0.020660286769270897,-0.0012217305,0.032070424,34.454409999999996,3.881538,19.311076999999997,SIT
56561695000000.0,0.40124189853668213,2.739105701446533,0.1371585577726364,9.043045997619629,-0.020877698436379433,0.0021380284,0.03970624,34.436695,3.8791997000000005,19.31608,CSO
56589340000000.0,0.40624234080314636,2.7366716861724854,0.14031635224819183,9.030277252197266,-0.020790545269846916,-0.0030543262,0.034513887,34.41944,3.8696797,19.323629999999998,CSO
56615512000000.0,0.41124117374420166,2.733208417892456,0.14372855424880981,9.020648002624512,-0.020724311470985413,0.007941248,0.04734206,34.402634,3.8661904000000002,19.331045,CSO
56640292000000.0,0.4162387549877167,2.728543281555176,0.14719001948833466,9.014998435974121,-0.021394066512584686,0.0067195175,0.05375614,34.389214,3.8637898,19.343510000000002,CSO
56663750000000.0,0.42123568058013916,2.720823287963867,0.15072186291217804,9.013175964355469,-0.02267920784652233,0.016187929,0.051923547,34.376156,3.8585403,19.349068,CSO
56685960000000.0,0.426233172416687,2.708545684814453,0.15434154868125916,9.015039443969727,-0.024742266163229942,0.02565634,0.050396382999999996,34.3614,3.8586135,19.354757,CSO
56706986000000.0,0.43123000860214233,2.6890485286712646,0.15614725649356842,9.016220092773438,-0.028355641290545464,0.03940081,0.044898596,34.350322999999996,3.8679976000000003,19.349472,CSO
56726890000000.0,0.4362267553806305,2.6613547801971436,0.1553606390953064,9.01484203338623,-0.033013515174388885,0.04550946,0.016493361,34.347008,3.8769934,19.344246,CSO
56745737000000.0,0.44122374057769775,2.627537250518799,0.15386316180229187,9.010723114013672,-0.03812308609485626,0.070554934,-0.016798794,34.350640000000006,3.8920974999999998,19.31145,CSO
56763580000000.0,0.44622135162353516,2.588838577270508,0.15267594158649445,9.003828048706055,-0.04419742524623871,0.094989546,-0.059253927000000005,34.365845,3.9122464999999997,19.278294,CSO
56780470000000.0,0.45121875405311584,2.5467450618743896,0.15364386141300201,8.99620532989502,-0.04892260208725929,0.16065755,-0.083383106,34.38797,3.9371674,19.19791,CSO
56796463000000.0,0.4562186896800995,2.503044843673706,0.15924684703350067,8.990494728088379,-0.053607575595378876,0.20311269,-0.11789699,34.425728,3.9691949999999996,19.119389,CSO
56811600000000.0,0.4612169861793518,2.4578816890716553,0.16916729509830475,8.986572265625,-0.058531198650598526,0.21013765,-0.15485434,34.474422,3.9978763999999996,19.013342,CSO
56825932000000.0,0.4662153720855713,2.4121580123901367,0.18369823694229126,8.97961139678955,-0.06573167443275452,0.183565,-0.19608775,34.53422,4.0344467,18.907564,CSO
56839500000000.0,0.4712143838405609,2.367489814758301,0.20353227853775024,8.96086597442627,-0.072580985724926,0.16798794,-0.19822577,34.592705,4.061053,18.79852,CSO
56852348000000.0,0.4762127101421356,2.3258187770843506,0.2280835211277008,8.934781074523926,-0.07908156514167786,0.16279559,-0.18600847,34.667324,4.079852,18.680487,CSO
56864510000000.0,0.4812109172344208,2.2890028953552246,0.25683459639549255,8.905535697937012,-0.08380331844091415,0.13561209,-0.17104226,34.73961,4.0914454,18.574856,CSO
56876025000000.0,0.486217200756073,2.258714199066162,0.2892640233039856,8.874424934387207,-0.08558769524097443,0.08704830000000001,-0.12461651,34.801548,4.0816419999999995,18.487517999999998,CSO
56886926000000.0,0.49121612310409546,2.2371561527252197,0.3241824805736542,8.84365463256836,-0.08511210978031158,0.02321288,-0.052534412999999995,34.84915,4.0711026,18.412657,CSO
56897244000000.0,0.4962143003940582,2.2276968955993652,0.3649502694606781,8.82039737701416,-0.08352246135473251,-0.032986722999999996,0.03481932,34.878547999999995,4.0377693,18.367369,CSO
56907012000000.0,0.5012115240097046,2.233602285385132,0.41487976908683777,8.811980247497559,-0.08115483075380325,-0.09987647,0.15271631,34.87486,4.004608,18.341720000000002,CSO
56916260000000.0,0.5062132477760315,2.254577398300171,0.47695809602737427,8.823465347290039,-0.0797109603881836,-0.14782938,0.2855795,34.842155,3.966827,18.353346,CSO
56925020000000.0,0.5112117528915405,2.289634943008423,0.5537153482437134,8.859418869018555,-0.08111117780208588,-0.19822577,0.41935900000000004,34.7727,3.9458879999999996,18.3821,CSO
56933310000000.0,0.5162098407745361,2.33394455909729,0.6402628421783447,8.914480209350586,-0.08678281307220459,-0.23304509,0.52687126,34.675888,3.9028894999999997,18.462568,CSO
56941160000000.0,0.5212122797966003,2.3823864459991455,0.7314388751983643,8.9830904006958,-0.09737721085548401,-0.258396,0.61117065,34.5468,3.8889155,18.551098,CSO
56948590000000.0,0.5262143015861511,2.4356613159179688,0.825921356678009,9.059005737304688,-0.1115577220916748,-0.25411993,0.6924158,34.397156,3.8370919999999997,18.67491,CSO
56955624000000.0,0.5312125086784363,2.494873523712158,0.9221197962760925,9.134251594543457,-0.12830309569835663,-0.23304509,0.7519751,34.23125,3.8142245000000004,18.7969,CSO
56962285000000.0,0.5362088680267334,2.5601305961608887,1.016270399093628,9.205799102783203,-0.14596284925937653,-0.18753563,0.7831292,34.05904,3.7787945,18.918264,CSO
56968593000000.0,0.5412070751190186,2.6332616806030273,1.0877718925476074,9.256627082824707,-0.16305585205554962,-0.11209377,0.7791585999999999,33.88384,3.7559667,19.021156,CSO
56974560000000.0,0.5462076663970947,2.713463068008423,1.137984275817871,9.288276672363281,-0.17857055366039276,-0.08643743400000001,0.75869465,33.711395,3.7106638,19.156643,CSO
56980215000000.0,0.5512053370475769,2.790677070617676,1.172868013381958,9.313093185424805,-0.19280266761779785,-0.016187929,0.7706065,33.536133,3.6723464,19.25384,CSO
56985567000000.0,0.5562068819999695,2.8650951385498047,1.192922830581665,9.331311225891113,-0.20518574118614197,0.050701816,0.7846564,33.357983000000004,3.6781178,19.391945,CSO
56990634000000.0,0.5612056255340576,2.933288812637329,1.197633147239685,9.344118118286133,-0.21516720950603485,0.09468412,0.79320854,33.182438,3.678782,19.513077,CSO
56995432000000.0,0.566201388835907,2.993978977203369,1.1870989799499512,9.352131843566895,-0.22194725275039673,0.13286320000000001,0.7809911999999999,33.013752000000004,3.6685445,19.614207999999998,CSO
56999975000000.0,0.5712012648582458,3.046628475189209,1.1638708114624023,9.357115745544434,-0.2270800620317459,0.15943582,0.77457714,32.833622,3.707808,19.710173,CSO
57004274000000.0,0.5762053728103638,3.091071605682373,1.13009774684906,9.360361099243164,-0.23119057714939117,0.19456059,0.7556403,32.665928,3.732714,19.791142999999998,CSO
57008347000000.0,0.5812046527862549,3.1261448860168457,1.08798348903656,9.362337112426758,-0.23513086140155792,0.20708331,0.7315111,32.49324,3.809712,19.856108,CSO
57012200000000.0,0.58620285987854,3.150386095046997,1.039150595664978,9.363439559936523,-0.2397889643907547,0.21777347,0.72173727,32.32721,3.8840148,19.909893,CSO
57015850000000.0,0.5912019610404968,3.164311408996582,0.9849475622177124,9.361726760864258,-0.24574516713619232,0.20708331,0.70646566,32.166775,4.001894,19.946129,CSO
57019306000000.0,0.5962010622024536,3.1684961318969727,0.926751971244812,9.355340957641602,-0.25293031334877014,0.19608775,0.70432764,32.01027,4.120348,19.977587,CSO
57022578000000.0,0.6012434363365173,3.1648669242858887,0.8660928010940552,9.343904495239258,-0.26132771372795105,0.17928895,0.68936145,31.860825,4.2758193,19.98254,CSO
57025673000000.0,0.6062412858009338,3.1571638584136963,0.8056792616844177,9.32923698425293,-0.27028679847717285,0.17989981,0.6872234,31.713271999999996,4.431435,19.983784,CSO
57028605000000.0,0.6112380027770996,3.1445224285125732,0.7448114156723022,9.312836647033691,-0.27967995405197144,0.17531833,0.68111473,31.568147999999997,4.616793,19.965510000000002,CSO
57031380000000.0,0.6162349581718445,3.126941204071045,0.6833846569061279,9.296405792236328,-0.28932127356529236,0.16798794,0.6621779000000001,31.432572999999998,4.798478,19.946793,CSO
57034010000000.0,0.6212334632873535,3.1046552658081055,0.6214097142219543,9.279940605163574,-0.29952308535575867,0.16584991,0.6545420999999999,31.289558000000003,5.0012550000000005,19.914604,CSO
57036500000000.0,0.6262356042861938,3.0839011669158936,0.5639495253562927,9.26212215423584,-0.31030434370040894,0.14966199,0.65270954,31.154907,5.200126999999999,19.887583,CSO
57038856000000.0,0.6312294006347656,3.0665602684020996,0.5123714208602905,9.24268913269043,-0.3217155635356903,0.15118915,0.6536258,31.026875,5.397861499999999,19.85504,CSO
57041087000000.0,0.6362266540527344,3.0517871379852295,0.4643327295780182,9.224902153015137,-0.3328116536140442,0.15027285,0.64721173,30.89687,5.6146708,19.800386,CSO
57043200000000.0,0.6412227749824524,3.0392260551452637,0.4190916121006012,9.209487915039062,-0.34370705485343933,0.15485434,0.6435465,30.770922,5.831546,19.742819,CSO
57045200000000.0,0.6462185978889465,3.029369592666626,0.3751351237297058,9.196758270263672,-0.3537288308143616,0.17684549,0.6426301999999999,30.651059999999998,6.029946,19.691431,CSO
57047094000000.0,0.6512160897254944,3.022400140762329,0.33168429136276245,9.186805725097656,-0.3633141815662384,0.19608775,0.63316184,30.539299,6.2249894,19.639215,CSO
57048885000000.0,0.6562124490737915,3.016843318939209,0.28785181045532227,9.179433822631836,-0.3726654052734375,0.21319197,0.62888575,30.411312,6.4268956,19.586988,CSO
57050583000000.0,0.6612092852592468,3.0120952129364014,0.2432798445224762,9.174505233764648,-0.3822019398212433,0.23609942,0.61178154,30.295465000000004,6.6232204,19.528059,CSO
57052190000000.0,0.6662062406539917,3.0072708129882812,0.19305971264839172,9.171379089355469,-0.3915395140647888,0.25686884,0.60231316,30.172496999999996,6.8281083,19.472157,CSO
57053712000000.0,0.671229362487793,3.0019710063934326,0.13452816009521484,9.169883728027344,-0.4009491503238678,0.2742785,0.58459806,30.062346999999995,7.0291885999999995,19.41131,CSO
57055155000000.0,0.6762221455574036,2.994356632232666,0.07161703705787659,9.169280052185059,-0.41005265712738037,0.28955013,0.57360244,29.959284000000004,7.2327027,19.343752,CSO
57056520000000.0,0.6812147498130798,2.981581926345825,0.005542024038732052,9.16911506652832,-0.41924071311950684,0.29840767,0.54428095,29.871557,7.4313270000000005,19.274258,CSO
57057810000000.0,0.6862087845802307,2.9638893604278564,-0.06356614083051682,9.169368743896484,-0.4276786744594574,0.30665436,0.52412236,29.778570000000002,7.6645117,19.192766,CSO
57059035000000.0,0.6912040710449219,2.941542148590088,-0.13554450869560242,9.170019149780273,-0.4363831579685211,0.31337386,0.49541172,29.701252,7.8948083,19.110432,CSO
57060192000000.0,0.6961988806724548,2.9163553714752197,-0.2100171595811844,9.171266555786133,-0.445242315530777,0.30970868,0.46792278,29.623213,8.127713,19.034102999999998,CSO
57061290000000.0,0.7011930346488953,2.8892695903778076,-0.2867542803287506,9.173195838928223,-0.45421531796455383,0.30909783,0.43188173,29.560285999999998,8.353582000000001,18.95636,CSO
57062330000000.0,0.7061882615089417,2.860795259475708,-0.36512744426727295,9.177523612976074,-0.463344931602478,0.3115413,0.40622538,29.492628000000003,8.627856,18.839315,CSO
57063317000000.0,0.7111836671829224,2.831282138824463,-0.444691926240921,9.185199737548828,-0.4729321002960205,0.30573806,0.3744604,29.44077,8.894836999999999,18.72685,CSO
57064250000000.0,0.7161790728569031,2.801175117492676,-0.5245966911315918,9.194270133972168,-0.4834733009338379,0.30268374,0.34391713,29.392265000000002,9.185012,18.60029,CSO
57065130000000.0,0.7211767435073853,2.770725965499878,-0.6043797135353088,9.203587532043457,-0.49483630061149597,0.30848694,0.32009340000000003,29.354675,9.469108,18.474377,CSO
57065964000000.0,0.7261747121810913,2.7408363819122314,-0.6836725473403931,9.213265419006348,-0.5058379173278809,0.32314770000000004,0.28588495,29.327322,9.764364,18.33514,CSO
57066757000000.0,0.731172502040863,2.712294578552246,-0.7621704339981079,9.223407745361328,-0.5175391435623169,0.32498032,0.2501493,29.310071999999998,10.0612335,18.199764000000002,CSO
57067507000000.0,0.7361690998077393,2.684903144836426,-0.8392398357391357,9.232521057128906,-0.5291213393211365,0.33200526,0.22357668,29.296024,10.369181,18.054335000000002,CSO
57068216000000.0,0.7411757111549377,2.6584110260009766,-0.9141634702682495,9.238627433776855,-0.5411605834960938,0.34788775,0.1908954,29.297441,10.674247,17.908832999999998,CSO
57068887000000.0,0.7461737990379333,2.632567882537842,-0.9872297644615173,9.244048118591309,-0.5530628561973572,0.35338554,0.17379116,29.303209999999996,10.978513000000001,17.760395000000003,CSO
57069525000000.0,0.7511707544326782,2.607128620147705,-1.058835506439209,9.250396728515625,-0.5652098059654236,0.37293324,0.15821409,29.321806,11.279206,17.606223999999997,CSO
57070130000000.0,0.7561712265014648,2.5823891162872314,-1.1282042264938354,9.256340026855469,-0.5769047141075134,0.38973203,0.12705997,29.335058,11.590274,17.457815,CSO
57070700000000.0,0.7611696124076843,2.5587077140808105,-1.1943964958190918,9.260404586791992,-0.5874229669570923,0.40011674,0.10323623,29.35349,11.892774000000001,17.307137,CSO
57071240000000.0,0.7661650776863098,2.53593111038208,-1.2577755451202393,9.262568473815918,-0.5980968475341797,0.4288274,0.0720821,29.387021999999998,12.198201,17.143356,CSO
57071750000000.0,0.7711648941040039,2.513904333114624,-1.3187053203582764,9.262760162353516,-0.6081693172454834,0.44990227,0.048258353,29.426890999999998,12.487751,16.981133,CSO
57072240000000.0,0.7761625051498413,2.4925878047943115,-1.377724051475525,9.261497497558594,-0.6173632144927979,0.46792278,0.02076942,29.479324,12.770791000000001,16.815174,CSO
57072700000000.0,0.7811633348464966,2.471907615661621,-1.4360965490341187,9.259801864624023,-0.6262787580490112,0.48502702,-0.008857545999999999,29.541393,13.047225,16.646847,CSO
57073136000000.0,0.7861626148223877,2.451890707015991,-1.4938222169876099,9.257974624633789,-0.6335146427154541,0.5122104999999999,-0.03176499,29.605082,13.336275,16.487118,CSO
57073547000000.0,0.7911643981933594,2.432687759399414,-1.5510001182556152,9.257002830505371,-0.6399742364883423,0.5204572000000001,-0.061086524,29.679325,13.620116000000001,16.331598,CSO
57073937000000.0,0.7961635589599609,2.414484977722168,-1.6076157093048096,9.257099151611328,-0.6447548270225525,0.51251596,-0.095294975,29.756186,13.901039,16.177475,CSO
57074306000000.0,0.8011631369590759,2.3982644081115723,-1.6637442111968994,9.259467124938965,-0.6487923264503479,0.52473325,-0.124311075,29.841922999999998,14.17526,16.018593,CSO
57074660000000.0,0.8061656951904297,2.384099245071411,-1.718918800354004,9.26379108428955,-0.651800811290741,0.5381723,-0.15332718,29.936259999999997,14.437629999999999,15.861489,CSO
57074990000000.0,0.8111674189567566,2.372682571411133,-1.7706546783447266,9.268880844116211,-0.654274582862854,0.5476406999999999,-0.1685988,30.034826000000002,14.6922035,15.704734,CSO
57075304000000.0,0.8161676526069641,2.3634750843048096,-1.8189908266067505,9.274396896362305,-0.6563560366630554,0.5543602,-0.18203785,30.136497,14.949273999999999,15.552964000000001,CSO
57075602000000.0,0.8211694955825806,2.353532552719116,-1.8630350828170776,9.278148651123047,-0.658359169960022,0.56321776,-0.19150625,30.241238,15.198924,15.400385,CSO
57075883000000.0,0.8261822462081909,2.3429224491119385,-1.903117299079895,9.280049324035645,-0.6606787443161011,0.56107974,-0.20005837,30.345901,15.443498000000002,15.260402,CSO
57076150000000.0,0.8311822414398193,2.3326406478881836,-1.941537857055664,9.278764724731445,-0.6622235774993896,0.55955255,-0.21135938,30.453492999999998,15.675996,15.1201935,CSO
57076408000000.0,0.836200475692749,2.3226816654205322,-1.9783207178115845,9.274252891540527,-0.6639628410339355,0.5815437,-0.21533000000000002,30.556948,15.913251,14.976569,CSO
57076647000000.0,0.841200053691864,2.3139188289642334,-2.010925531387329,9.270425796508789,-0.6651210784912109,0.6007859999999999,-0.20922135,30.659157,16.137856,14.835707000000001,CSO
57076873000000.0,0.8461980819702148,2.3063313961029053,-2.0394318103790283,9.267274856567383,-0.6658431887626648,0.6246096999999999,-0.20616703,30.766603000000003,16.368662,14.695792,CSO
57077090000000.0,0.8511961102485657,2.3002703189849854,-2.063209295272827,9.264575004577637,-0.6648339629173279,0.65179324,-0.19822577,30.871613,16.585983,14.550374,CSO
57077297000000.0,0.8561962246894836,2.295753002166748,-2.082300901412964,9.262263298034668,-0.6638134121894836,0.6627888000000001,-0.18600847,30.973978000000002,16.805609,14.403981,CSO
57077490000000.0,0.8611958622932434,2.2925658226013184,-2.0949156284332275,9.260330200195312,-0.6630426049232483,0.68569624,-0.17745635,31.078020000000002,17.004904,14.252107999999998,CSO
57077674000000.0,0.8661912083625793,2.290576457977295,-2.1006903648376465,9.258757591247559,-0.6610106825828552,0.711658,-0.15424347,31.17455,17.194124,14.096094,CSO
57077850000000.0,0.8711934089660645,2.2879679203033447,-2.1014392375946045,9.257728576660156,-0.6577197313308716,0.74128497,-0.13836098,31.274418,17.374481,13.946114999999999,CSO
57078014000000.0,0.8761898279190063,2.2842538356781006,-2.098165988922119,9.257251739501953,-0.6542460918426514,0.768163,-0.12308934,31.368988,17.551609,13.790089000000002,CSO
57078170000000.0,0.881188690662384,2.2787535190582275,-2.092560052871704,9.252864837646484,-0.6499320864677429,0.7987063,-0.1133155,31.464527,17.696074,13.63349,CSO
57078316000000.0,0.8861877918243408,2.27134370803833,-2.0852949619293213,9.243327140808105,-0.64503413438797,0.83108217,-0.110872045,31.55945,17.837870000000002,13.4709425,CSO
57078460000000.0,0.8911899924278259,2.260054111480713,-2.078833818435669,9.232340812683105,-0.6383299827575684,0.8521569999999999,-0.11362094,31.656288,17.95648,13.305435000000001,CSO
57078593000000.0,0.8961889743804932,2.244218111038208,-2.074261426925659,9.22168254852295,-0.6305344104766846,0.8622363000000001,-0.112399206,31.752237,18.072641,13.136470000000001,CSO
57078720000000.0,0.9011900424957275,2.2259674072265625,-2.0707356929779053,9.211167335510254,-0.6219823360443115,0.8561276,-0.11545353400000001,31.85438,18.175086999999998,12.966623,CSO
57078840000000.0,0.906195342540741,2.2062153816223145,-2.067892551422119,9.20071792602539,-0.61292564868927,0.8365799999999999,-0.1160644,31.953857,18.270044,12.800402,CSO
57078954000000.0,0.911198079586029,2.1863064765930176,-2.0652151107788086,9.189997673034668,-0.6039609909057617,0.83016586,-0.10903945,32.053802000000005,18.371216,12.618369,CSO
57079063000000.0,0.9161972999572754,2.1669466495513916,-2.062424421310425,9.178825378417969,-0.5945299863815308,0.8200866,-0.0888809,32.14675,18.464104000000003,12.444579,CSO
57079167000000.0,0.9211975336074829,2.14741849899292,-2.0601143836975098,9.167372703552246,-0.5849830508232117,0.8151997,-0.07238753,32.24788,18.561708,12.270275999999999,CSO
57079264000000.0,0.9262394309043884,2.127121925354004,-2.0586812496185303,9.15562629699707,-0.5751147270202637,0.80970186,-0.04734206,32.338786999999996,18.653925,12.099266,CSO
57079356000000.0,0.9312379956245422,2.106583833694458,-2.057875871658325,9.143843650817871,-0.5652677416801453,0.81214535,-0.03359759,32.42759,18.74413,11.928897000000001,CSO
57079444000000.0,0.9362377524375916,2.085569143295288,-2.0577681064605713,9.131903648376465,-0.5552618503570557,0.8011498,-0.009468411,32.50379,18.830172,11.763365,CSO
57079530000000.0,0.9412367939949036,2.0609755516052246,-2.06044864654541,9.118904113769531,-0.5446009635925293,0.8023715,0.0030543262,32.586933,18.909855,11.599203,CSO
57079608000000.0,0.946233868598938,2.031923770904541,-2.066497564315796,9.104591369628906,-0.5339385271072388,0.80848014,0.016798794,32.661663,18.989704,11.43726,CSO
57079683000000.0,0.9512356519699097,1.9983406066894531,-2.0748956203460693,9.089357376098633,-0.5230304598808289,0.79901177,0.025961772999999997,32.733006,19.068668,11.270739,CSO
57079755000000.0,0.9562364816665649,1.9605247974395752,-2.085104465484619,9.073429107666016,-0.511564314365387,0.77824235,0.03756821,32.798656,19.142927,11.107234,CSO
57079820000000.0,0.9612374901771545,1.9202288389205933,-2.0968782901763916,9.058785438537598,-0.4994884133338928,0.75869465,0.04642576,32.86907,19.227983,10.928896,CSO
57079890000000.0,0.9662359356880188,1.8782931566238403,-2.110044479370117,9.046184539794922,-0.4867701530456543,0.74097955,0.06078109,32.932303999999995,19.306667,10.757313,CSO
57079950000000.0,0.9712350368499756,1.833501935005188,-2.123823881149292,9.032959938049316,-0.47406232357025146,0.7293731,0.07360926,32.993815999999995,19.393572,10.569436999999999,CSO
57080010000000.0,0.9762350916862488,1.7854312658309937,-2.13785457611084,9.017976760864258,-0.46170616149902344,0.7134906,0.07971791,33.050625,19.474954999999998,10.390188,CSO
57080065000000.0,0.9812336564064026,1.7346172332763672,-2.1537058353424072,9.00143814086914,-0.4485435485839844,0.6908886,0.0888809,33.110546,19.554049,10.205487,CSO
57080120000000.0,0.9862323999404907,1.6813740730285645,-2.1723082065582275,8.983469009399414,-0.4351383149623871,0.6780604,0.08582657,33.17111,19.632808999999998,10.026481,CSO
57080170000000.0,0.9912317991256714,1.6216709613800049,-2.200512170791626,8.964017868041992,-0.4216661751270294,0.66156703,0.077579886,33.23087,19.711721,9.836522,CSO
57080220000000.0,0.9962751865386963,1.5514194965362549,-2.244448661804199,8.942682266235352,-0.40808185935020447,0.63621616,0.06872234,33.289078,19.784319,9.656288,CSO
57080266000000.0,1.0012712478637695,1.4818583726882935,-2.292564630508423,8.92247200012207,-0.3932681977748871,0.6038403,0.044898596,33.358090000000004,19.858217,9.468675,CSO
57080310000000.0,1.0062719583511353,1.4157410860061646,-2.3431174755096436,8.90439224243164,-0.3787882328033447,0.5748241999999999,0.016798794,33.428005,19.934155,9.291762,CSO
57080350000000.0,1.0112683773040771,1.3533557653427124,-2.394162893295288,8.887962341308594,-0.36304527521133423,0.53878313,-0.007330383,33.503166,20.048270000000002,9.081723,CSO
57080390000000.0,1.0162650346755981,1.2947900295257568,-2.4447147846221924,8.872902870178223,-0.3475390374660492,0.49449542,-0.021991148999999998,33.579193,20.165112,8.88724,CSO
57080426000000.0,1.0212600231170654,1.2406947612762451,-2.4938526153564453,8.858162879943848,-0.33191508054733276,0.44409904,-0.03940081,33.66697,20.276670000000003,8.706699,CSO
57080463000000.0,1.0262563228607178,1.1915593147277832,-2.54089093208313,8.842910766601562,-0.31671684980392456,0.40103304,-0.040317107000000005,33.749653,20.386482,8.538993,CSO
57080497000000.0,1.0312520265579224,1.1469154357910156,-2.5860681533813477,8.82962703704834,-0.3016774654388428,0.35979962,-0.03268129,33.830463,20.490438,8.386009,CSO
57080530000000.0,1.0362472534179688,1.1063838005065918,-2.629580497741699,8.820022583007812,-0.2874070107936859,0.34238997,-0.029321532999999997,33.90979,20.593764999999998,8.241162,CSO
57080560000000.0,1.0412436723709106,1.0703264474868774,-2.6710026264190674,8.815317153930664,-0.2731646001338959,0.2941316,-0.02443461,33.97809,20.69142,8.125294,CSO
57080590000000.0,1.0462405681610107,1.039034128189087,-2.709958791732788,8.816549301147461,-0.2581511437892914,0.2443461,-0.017104227,34.04201,20.783257,8.015721000000001,CSO
57080620000000.0,1.0512356758117676,1.0144261121749878,-2.7473840713500977,8.822441101074219,-0.2430262565612793,0.20677789,-0.008552114,34.107494,20.868351,7.923112,CSO
57080650000000.0,1.0562362670898438,0.998217761516571,-2.7840805053710938,8.832069396972656,-0.22802376747131348,0.18448131,0.00580322,34.16494,20.94564,7.8395767,CSO
57080673000000.0,1.061233401298523,0.9895308017730713,-2.82519793510437,8.844586372375488,-0.21312087774276733,0.1695151,0.01985312,34.215256,21.00835,7.7729029999999995,CSO
57080700000000.0,1.0662498474121094,0.9883058667182922,-2.876826047897339,8.85954761505127,-0.19865410029888153,0.1255328,0.018020526000000002,34.259890000000006,21.067976,7.72095,CSO
57080724000000.0,1.071248173713684,0.9916791915893555,-2.9323577880859375,8.874290466308594,-0.18477925658226013,0.07147124,0.0070249503,34.30295,21.114092000000003,7.698417999999999,CSO
57080745000000.0,1.076244831085205,0.9972720742225647,-2.985196590423584,8.885581970214844,-0.1707323044538498,0.028099801,0.0021380284,34.340515,21.153479,7.684279400000001,CSO
57080765000000.0,1.0812411308288574,1.0012950897216797,-3.0354666709899902,8.89242172241211,-0.15679913759231567,-0.0061086523,0.010079277,34.38122,21.223665,7.7030983,CSO
57080786000000.0,1.0862367153167725,0.9997275471687317,-3.0832817554473877,8.893744468688965,-0.14313645660877228,-0.019242255,0.03848451,34.413883,21.287582,7.7238940000000005,CSO
57080807000000.0,1.091231346130371,0.9922056198120117,-3.1280677318573,8.88847827911377,-0.1295345276594162,-0.038179077,0.0571159,34.44193,21.347761,7.763584,CSO
57080830000000.0,1.096228837966919,0.976167619228363,-3.167015314102173,8.871124267578125,-0.1163644939661026,-0.059253927000000005,0.09407325,34.454674,21.406392999999998,7.799767500000001,CSO
57080845000000.0,1.1012234687805176,0.9512048363685608,-3.2010786533355713,8.842803955078125,-0.10308246314525604,-0.08155051,0.11911872,34.464484999999996,21.466942,7.8174,CSO
57080860000000.0,1.1062240600585938,0.915886402130127,-3.2312943935394287,8.80405330657959,-0.0896618440747261,-0.10812314599999999,0.14049901,34.46242,21.524601,7.8366137,CSO
57080880000000.0,1.1112182140350342,0.8703081011772156,-3.256972074508667,8.757007598876953,-0.07537754625082016,-0.11575896,0.16157386,34.46767,21.566626,7.8234034,CSO
57080896000000.0,1.1162166595458984,0.8126843571662903,-3.2763702869415283,8.703680992126465,-0.05986865982413292,-0.14446963,0.16218472,34.467503,21.600603,7.822073,CSO
57080912000000.0,1.1212128400802612,0.7459318041801453,-3.2899794578552246,8.647454261779785,-0.043021395802497864,-0.1826487,0.16187929,34.461529999999996,21.63941,7.7841053,CSO
57080930000000.0,1.1262115240097046,0.6739625930786133,-3.298100233078003,8.593722343444824,-0.024304822087287903,-0.22204952,0.16035213,34.45295,21.663755,7.7544856,CSO
57080946000000.0,1.1312071084976196,0.5984575748443604,-3.301988363265991,8.542289733886719,-0.004209212958812714,-0.24373524,0.15088372,34.45019,21.677269,7.682121799999999,CSO
57080960000000.0,1.1362221240997314,0.5221555233001709,-3.3037943840026855,8.492794036865234,0.015531649813055992,-0.35521814,0.129198,34.43776,21.684725,7.646638,CSO
57080970000000.0,1.1412179470062256,0.44544509053230286,-3.305347204208374,8.44607162475586,0.034415796399116516,-0.37384954,0.113926366,34.43265,21.674665,7.5630635999999996,CSO
57080984000000.0,1.1462159156799316,0.36713868379592896,-3.3109512329101562,8.404422760009766,0.05274932086467743,-0.40683624,0.07696902,34.4262,21.658344,7.518409299999999,CSO
57080996000000.0,1.1512128114700317,0.2883404791355133,-3.3187777996063232,8.36758804321289,0.07049645483493805,-0.4728097,0.03268129,34.42292,21.637842000000003,7.4743056,CSO
57081010000000.0,1.1562148332595825,0.2116648405790329,-3.324341058731079,8.335485458374023,0.08736290782690048,-0.5207626000000001,-0.0061086523,34.426853,21.616188,7.438215700000001,CSO
57081020000000.0,1.1612290143966675,0.1372268944978714,-3.3274428844451904,8.307880401611328,0.10324911028146744,-0.5946773,-0.05009095,34.436714,21.606218,7.408878,CSO
57081034000000.0,1.166228175163269,0.06834220141172409,-3.3253562450408936,8.283596992492676,0.11799570173025131,-0.655153,-0.09010262,34.452273999999996,21.59618,7.3927309999999995,CSO
57081046000000.0,1.1712260246276855,0.006274592597037554,-3.317704439163208,8.262519836425781,0.13182619214057922,-0.6954701,-0.13530666,34.473915000000005,21.57784,7.388828999999999,CSO
57081060000000.0,1.1762259006500244,-0.043001893907785416,-3.303027629852295,8.244359970092773,0.14470800757408142,-0.7309003000000001,-0.16890424,34.497040000000005,21.560807999999998,7.402310400000001,CSO
57081070000000.0,1.1812245845794678,-0.08081822842359543,-3.2818150520324707,8.22873306274414,0.1571149230003357,-0.75716746,-0.17073683,34.517395,21.52541,7.4335694000000005,CSO
57081080000000.0,1.1862211227416992,-0.11012371629476547,-3.254565477371216,8.214611053466797,0.1682746559381485,-0.7877107,-0.17928895,34.54392,21.494410000000002,7.4785642999999995,CSO
57081090000000.0,1.1912188529968262,-0.13129596412181854,-3.2215168476104736,8.201921463012695,0.17934425175189972,-0.79351395,-0.18509217,34.564890000000005,21.425646,7.5616136,CSO
57081097000000.0,1.1962171792984009,-0.14157606661319733,-3.182034492492676,8.181392669677734,0.19114238023757935,-0.8197812,-0.18570304,34.581066,21.356524,7.656637700000001,CSO
57081105000000.0,1.2012149095535278,-0.1413211226463318,-3.1364169120788574,8.152719497680664,0.2030767947435379,-0.7993172,-0.19303341,34.604675,21.288211999999998,7.7401233,CSO
57081114000000.0,1.206214189529419,-0.1290004998445511,-3.083677291870117,8.134481430053711,0.21502628922462463,-0.7724390999999999,-0.20647246,34.62542,21.180355,7.858713000000001,CSO
57081120000000.0,1.211211085319519,-0.10517575591802597,-3.024174928665161,8.128340721130371,0.22746209800243378,-0.7816021,-0.18081611,34.6358,21.069038,7.975778599999999,CSO
57081130000000.0,1.2162095308303833,-0.07740438729524612,-2.9635009765625,8.128572463989258,0.23923516273498535,-0.79259765,-0.1685988,34.651337,20.935978,8.131507000000001,CSO
57081140000000.0,1.2212071418762207,-0.04650759696960449,-2.9021823406219482,8.134366989135742,0.24992504715919495,-0.795652,-0.18478674,34.66737,20.801517,8.285081,CSO
57081147000000.0,1.2262064218521118,-0.012303490191698074,-2.8368029594421387,8.143514633178711,0.2612823247909546,-0.77671516,-0.20280726,34.673553000000005,20.613316,8.480642,CSO
57081156000000.0,1.2312021255493164,0.024995051324367523,-2.7670400142669678,8.155370712280273,0.27211570739746094,-0.7715228,-0.204029,34.67795,20.436594,8.677166999999999,CSO
57081164000000.0,1.2361997365951538,0.06686648726463318,-2.696671485900879,8.173052787780762,0.28302285075187683,-0.763887,-0.21074851,34.689265999999996,20.229162,8.885694500000001,CSO
57081172000000.0,1.241195797920227,0.113425113260746,-2.626840829849243,8.19708251953125,0.29499274492263794,-0.7440339,-0.23854288,34.708459999999995,20.018477999999998,9.088144999999999,CSO
57081180000000.0,1.2461951971054077,0.16454365849494934,-2.557462453842163,8.227250099182129,0.30803385376930237,-0.7498371,-0.23426682,34.71642,19.776676000000002,9.313536000000001,CSO
57081190000000.0,1.2511919736862183,0.21983154118061066,-2.4885809421539307,8.26307201385498,0.3215356469154358,-0.7877107,-0.22143865,34.728590000000004,19.532415,9.540301,CSO
57081197000000.0,1.256197452545166,0.2780870497226715,-2.4274537563323975,8.304547309875488,0.3353596329689026,-0.81183994,-0.22632557,34.740947999999996,19.284166,9.7612095,CSO
57081206000000.0,1.2611967325210571,0.3382761478424072,-2.3767435550689697,8.350972175598145,0.35020485520362854,-0.83108217,-0.24678956,34.751194,19.030248999999998,9.987428999999999,CSO
57081214000000.0,1.2661956548690796,0.39690500497817993,-2.3369271755218506,8.400466918945312,0.3660168945789337,-0.8518515999999999,-0.28924468,34.76352,18.727919,10.271608,CSO
57081223000000.0,1.271195650100708,0.45317837595939636,-2.307691812515259,8.4524507522583,0.3817675709724426,-0.86620694,-0.33139440000000003,34.78086,18.426079,10.555889,CSO
57081230000000.0,1.2761956453323364,0.5092845559120178,-2.2884838581085205,8.504528999328613,0.39759039878845215,-0.8772025,-0.37995818,34.808594,18.129223,10.853473,CSO
57081240000000.0,1.2811933755874634,0.565713107585907,-2.278707981109619,8.55612564086914,0.4122769832611084,-0.88270026,-0.42455134,34.84599,17.838420000000003,11.1510515,CSO
57081248000000.0,1.2861919403076172,0.6218936443328857,-2.274087905883789,8.605348587036133,0.4269784688949585,-0.8622363000000001,-0.4529566,34.890274,17.567004999999998,11.437841,CSO
57081256000000.0,1.2911924123764038,0.6777103543281555,-2.273447275161743,8.651863098144531,0.44146618247032166,-0.84696466,-0.48747048,34.946712,17.300776000000003,11.725858,CSO
57081260000000.0,1.2961937189102173,0.7331737875938416,-2.2765612602233887,8.69581413269043,0.4551818072795868,-0.8219192,-0.5152648,35.004696,17.060104,12.00496,CSO
57081265000000.0,1.3011938333511353,0.7882829308509827,-2.2832016944885254,8.73733901977539,0.4686710834503174,-0.7870999,-0.54702985,35.073772,16.816463,12.274411,CSO
57081273000000.0,1.3061959743499756,0.8430869579315186,-2.2932238578796387,8.776566505432129,0.4821251332759857,-0.7318166,-0.5919284,35.15623,16.574276,12.528957,CSO
57081277000000.0,1.3111968040466309,0.897570788860321,-2.3064029216766357,8.813619613647461,0.4956597685813904,-0.6924158,-0.65209866,35.251278000000006,16.3308,12.776571,CSO
57081280000000.0,1.3161972761154175,0.9549745321273804,-2.319411277770996,8.856310844421387,0.5090590715408325,-0.68477994,-0.7134906,35.358765000000005,16.086933,13.016211,CSO
57081286000000.0,1.321224331855774,1.0168272256851196,-2.331225872039795,8.90773868560791,0.5212071537971497,-0.70463306,-0.77671516,35.48183,15.845869,13.252494,CSO
57081290000000.0,1.3262239694595337,1.0787451267242432,-2.3362739086151123,8.9558687210083,0.5316986441612244,-0.72509706,-0.8295549999999999,35.599304,15.641356,13.507038,CSO
57081300000000.0,1.331223726272583,1.1388256549835205,-2.3296194076538086,8.993058204650879,0.5409636497497559,-0.72021013,-0.8756753,35.72915,15.437645999999999,13.758215,CSO
57081302000000.0,1.3362232446670532,1.1971650123596191,-2.311899423599243,9.019899368286133,0.5489047169685364,-0.70829827,-0.895223,35.859978000000005,15.226841,14.028582,CSO
57081307000000.0,1.3412233591079712,1.2538601160049438,-2.2836718559265137,9.036921501159668,0.5552994608879089,-0.68508536,-0.93309665,36.005990000000004,15.020209,14.292388,CSO
57081310000000.0,1.3462215662002563,1.3072025775909424,-2.248875379562378,9.04577350616455,0.5621347427368164,-0.6450737,-0.96883225,36.154872999999995,14.810317999999999,14.542692,CSO
57081315000000.0,1.351220726966858,1.3565232753753662,-2.2093310356140137,9.04731559753418,0.569208025932312,-0.57360244,-0.9957103999999999,36.311745,14.608578,14.773487,CSO
57081320000000.0,1.3562204837799072,1.3991730213165283,-2.1632518768310547,9.046391487121582,0.5774181485176086,-0.50671273,-1.0231993000000001,36.50482,14.337079000000001,15.036214999999999,CSO
57081328000000.0,1.3612204790115356,1.4327517747879028,-2.109023332595825,9.047420501708984,0.5867695808410645,-0.41538838,-1.0418307,36.705795,14.065980999999999,15.267368,CSO
57081330000000.0,1.3662199974060059,1.4597272872924805,-2.048383951187134,9.046158790588379,0.5975922346115112,-0.3387248,-1.0671816,36.924040000000005,13.77028,15.488949,CSO
57081336000000.0,1.371220588684082,1.4815765619277954,-1.9823694229125977,9.040292739868164,0.6089938282966614,-0.29046643,-1.0980303,37.148987,13.474764000000002,15.689520000000002,CSO
57081340000000.0,1.3762205839157104,1.4970061779022217,-1.9154455661773682,9.033369064331055,0.6212853193283081,-0.22449298,-1.1441506000000001,37.4115,13.136804999999999,15.844954000000001,CSO
57081344000000.0,1.3812203407287598,1.505043864250183,-1.8510370254516602,9.028128623962402,0.6331333518028259,-0.17440203,-1.1902708999999998,37.680275,12.803951,15.988921,CSO
57081353000000.0,1.3862197399139404,1.512748122215271,-1.790489673614502,9.027052879333496,0.6460428237915039,-0.15577064,-1.2544118,37.980965000000005,12.431149000000001,16.120592000000002,CSO
57081357000000.0,1.391233205795288,1.5247024297714233,-1.7346338033676147,9.031893730163574,0.6609175205230713,-0.18203785,-1.3295482,38.293602,12.054889,16.250220000000002,CSO
57081360000000.0,1.3962314128875732,1.5402055978775024,-1.683070182800293,9.041739463806152,0.6765132546424866,-0.28405234,-1.4101825000000001,38.62525,11.677077,16.373549,CSO
57081365000000.0,1.401229977607727,1.5593146085739136,-1.6356475353240967,9.056632041931152,0.6916685104370117,-0.3866777,-1.4721853,38.966442,11.29434,16.503521,CSO
57081370000000.0,1.406229853630066,1.5827046632766724,-1.5929065942764282,9.074115753173828,0.7066509127616882,-0.44257188,-1.5430456,39.336464,10.899572000000001,16.651415,CSO
57081378000000.0,1.4112292528152466,1.6107463836669922,-1.5551468133926392,9.092388153076172,0.7227556109428406,-0.48075095,-1.5897768,39.706944,10.500397999999999,16.819565,CSO
57081380000000.0,1.4162286520004272,1.6408828496932983,-1.5213873386383057,9.114852905273438,0.7408668398857117,-0.5183192,-1.6111571000000002,40.07912,10.096256,17.020597,CSO
57081386000000.0,1.4212297201156616,1.670688271522522,-1.4907020330429077,9.144790649414062,0.7605358958244324,-0.5861251999999999,-1.6019941999999998,40.445816,9.690608000000001,17.235111,CSO
57081390000000.0,1.4262290000915527,1.6988025903701782,-1.4624202251434326,9.179377555847168,0.781761109828949,-0.6200281999999999,-1.5897768,40.810534999999994,9.279699,17.463739999999998,CSO
57081395000000.0,1.4312282800674438,1.7238808870315552,-1.4359019994735718,9.215965270996094,0.8029457330703735,-0.6918049,-1.5848898999999999,41.162464,8.872021,17.714836,CSO
57081403000000.0,1.436226725578308,1.7462224960327148,-1.4104909896850586,9.252735137939453,0.8231967091560364,-0.73548174,-1.5662584,41.500492,8.467224,17.954397,CSO
57081407000000.0,1.4412274360656738,1.7660963535308838,-1.385540246963501,9.287928581237793,0.8431985974311829,-0.7156286000000001,-1.5454891000000002,41.829547999999996,8.062619999999999,18.18862,CSO
57081410000000.0,1.4462248086929321,1.78365957736969,-1.3610432147979736,9.321621894836426,0.862622857093811,-0.6621779000000001,-1.5225816,42.163784,7.662480400000001,18.407695999999998,CSO
57081416000000.0,1.4512240886688232,1.7990117073059082,-1.3369591236114502,9.353901863098145,0.8808491826057434,-0.6291912,-1.4953982,42.48403,7.2720213000000005,18.619165,CSO
57081420000000.0,1.456220030784607,1.8138701915740967,-1.3130159378051758,9.385666847229004,0.8978274464607239,-0.6059783000000001,-1.4779885,42.812527,6.884172400000001,18.814304,CSO
57081430000000.0,1.461220383644104,1.8301867246627808,-1.2888487577438354,9.417988777160645,0.9128265976905823,-0.5696318,-1.4471397,43.12409,6.5131836,18.989152999999998,CSO
57081432000000.0,1.4662179946899414,1.84561288356781,-1.2628679275512695,9.450211524963379,0.9267008304595947,-0.5580254,-1.423316,43.44656,6.1358333,19.14775,CSO
57081437000000.0,1.4712190628051758,1.8566306829452515,-1.232459545135498,9.481459617614746,0.940193772315979,-0.58459806,-1.4019357,43.753853,5.7712564,19.301348,CSO
57081440000000.0,1.4762146472930908,1.8635920286178589,-1.1980490684509277,9.511759757995605,0.9524793028831482,-0.6072,-1.3787228999999999,44.057674,5.4125514,19.451155,CSO
57081445000000.0,1.4812146425247192,1.866585612297058,-1.1596431732177734,9.541189193725586,0.9639148116111755,-0.6062838,-1.3582588,44.3493,5.060233599999999,19.596874,CSO
57081450000000.0,1.4862098693847656,1.8665279150009155,-1.116715669631958,9.570784568786621,0.9737967848777771,-0.6200281999999999,-1.3698653,44.6493,4.7149019999999995,19.747857999999997,CSO
57081458000000.0,1.4912105798721313,1.8659241199493408,-1.0653674602508545,9.604843139648438,0.9830544590950012,-0.61911196,-1.3942999,44.941097,4.3745627,19.889975,CSO
57081460000000.0,1.4962053298950195,1.8654403686523438,-1.0077190399169922,9.641571044921875,0.9920954704284668,-0.6792821,-1.3942999,45.263529999999996,3.9979233999999995,20.023256,CSO
57081466000000.0,1.5012050867080688,1.8665374517440796,-0.9466639161109924,9.677896499633789,0.9999710321426392,-0.7623598,-1.3747523000000001,45.580740000000006,3.634201,20.159115,CSO
57081470000000.0,1.5062026977539062,1.8699257373809814,-0.8825680017471313,9.712652206420898,1.0066618919372559,-0.83199847,-1.3643675,45.923190000000005,3.2373703,20.299576000000002,CSO
57081474000000.0,1.511203646659851,1.8774768114089966,-0.8155006766319275,9.743256568908691,1.011091709136963,-0.895223,-1.3384056999999998,46.247807,2.8611142999999997,20.456488,CSO
57081483000000.0,1.5162010192871094,1.8875913619995117,-0.7458510994911194,9.769706726074219,1.0134786367416382,-0.9450084999999999,-1.3038919,46.57849,2.4710546,20.628328,CSO
57081487000000.0,1.521203637123108,1.8969093561172485,-0.673733651638031,9.791399955749512,1.0139315128326416,-0.97585726,-1.2764030000000002,46.897459999999995,2.1000695,20.807064,CSO
57081490000000.0,1.5262023210525513,1.904950499534607,-0.5994207859039307,9.807904243469238,1.013676643371582,-1.0005972,-1.2568552,47.221233000000005,1.7134111,21.009966,CSO
57081495000000.0,1.531208872795105,1.910229206085205,-0.5225852727890015,9.817046165466309,1.0130935907363892,-1.0461067,-1.2574661,47.537403000000005,1.3420491,21.221394,CSO
57081500000000.0,1.5362074375152588,1.9124280214309692,-0.44349363446235657,9.819768905639648,1.0111091136932373,-1.0809261000000001,-1.2565498,47.86314,0.96234965,21.434082,CSO
57081508000000.0,1.54120671749115,1.9097373485565186,-0.36133286356925964,9.816821098327637,1.0074399709701538,-1.1074986,-1.2721269,48.189304,0.59143317,21.651003,CSO
57081510000000.0,1.5462054014205933,1.9021563529968262,-0.27597519755363464,9.80829906463623,1.0030221939086914,-1.1117748,-1.3014483000000001,48.53669,0.20196655,21.865679999999998,CSO
57081516000000.0,1.5512058734893799,1.888779640197754,-0.18623881042003632,9.793535232543945,0.9990840554237366,-1.1010846,-1.3350459,48.885635,-0.17985877,22.076810000000002,CSO
57081520000000.0,1.5562083721160889,1.8698784112930298,-0.09292248636484146,9.772931098937988,0.9960557222366333,-1.0873401000000003,-1.3939945,49.273315000000004,-0.5880255,22.274214,CSO
57081525000000.0,1.561208963394165,1.8456741571426392,0.00027480622520670295,9.747357368469238,0.9939538240432739,-1.0793989,-1.4654657,49.670673,-0.9959190999999998,22.463099,CSO
57081533000000.0,1.5662094354629517,1.8165831565856934,0.0935838520526886,9.716894149780273,0.9939497709274292,-1.070236,-1.5659530000000002,50.115759999999995,-1.4500681999999998,22.629845,CSO
57081537000000.0,1.571210503578186,1.7861948013305664,0.19072213768959045,9.678994178771973,0.9968107342720032,-1.0564915000000001,-1.6746869999999998,50.580593,-1.9139416,22.784985,CSO
57081540000000.0,1.5762120485305786,1.7554463148117065,0.29170680046081543,9.63461971282959,1.0019608736038208,-1.0235047,-1.7873917000000001,51.092037,-2.4108727,22.90971,CSO
57081546000000.0,1.5812128782272339,1.7346625328063965,0.39901119470596313,9.590810775756836,1.0095710754394531,-1.003957,-1.883603,51.626453000000005,-2.9257436,23.025333,CSO
57081550000000.0,1.5862088203430176,1.7231839895248413,0.512117862701416,9.547563552856445,1.0194451808929443,-0.9975429,-1.9349157,52.197857,-3.4857013,23.13115,CSO
57081560000000.0,1.5912092924118042,1.7338587045669556,0.6333785057067871,9.508728981018066,1.0306487083435059,-1.0073168,-1.9404134999999998,52.77861,-4.051952399999999,23.226702,CSO
57081562000000.0,1.5962045192718506,1.7679343223571777,0.7624088525772095,9.474960327148438,1.0439897775650024,-1.0268645,-1.9104811000000002,53.357727000000004,-4.628272,23.314632,CSO
57081567000000.0,1.6012051105499268,1.8246842622756958,0.8952493667602539,9.441302299499512,1.058263897895813,-1.0256428,-1.8338174999999999,53.943282999999994,-5.245605,23.427868,CSO
57081570000000.0,1.6062034368515015,1.9021259546279907,1.0303531885147095,9.406563758850098,1.0732423067092896,-1.044885,-1.7437148,54.509678,-5.860443599999999,23.544771,CSO
57081575000000.0,1.6112046241760254,1.9905625581741333,1.1652013063430786,9.364076614379883,1.0893757343292236,-1.0418307,-1.6493362,55.05925799999999,-6.5191693,23.727406,CSO
57081580000000.0,1.6162000894546509,2.084972381591797,1.298460602760315,9.311640739440918,1.1052190065383911,-1.0146471,-1.5683966,55.5778,-7.1579923999999995,23.90139,CSO
57081588000000.0,1.621201515197754,2.183211088180542,1.4293997287750244,9.249740600585938,1.1216015815734863,-0.96974856,-1.520749,56.068718000000004,-7.8290854,24.148172,CSO
57081590000000.0,1.6262004375457764,2.283932685852051,1.5575933456420898,9.179437637329102,1.1392759084701538,-0.9550878,-1.5085316999999998,56.538677,-8.489097000000001,24.386805,CSO
57081596000000.0,1.6312010288238525,2.3778207302093506,1.6702754497528076,9.1038236618042,1.1570826768875122,-0.9419542,-1.4657712,56.984024,-9.158698,24.656614,CSO
57081600000000.0,1.6362024545669556,2.461174249649048,1.762622356414795,9.024446487426758,1.1759425401687622,-0.91721416,-1.4340062,57.420635,-9.830569,24.908472,CSO
57081604000000.0,1.6412018537521362,2.541384220123291,1.8448059558868408,8.937599182128906,1.1962389945983887,-0.90469146,-1.4135422,57.85004,-10.518632,25.193478,CSO
57081613000000.0,1.6462453603744507,2.622878313064575,1.9217759370803833,8.83926010131836,1.2172279357910156,-0.88270026,-1.4019357,58.26367,-11.197848,25.459515,CSO
57081617000000.0,1.6512430906295776,2.702157735824585,1.9982044696807861,8.742130279541016,1.2391818761825562,-0.88270026,-1.3912456,58.634494999999994,-11.83162,25.709823999999998,CSO
57081620000000.0,1.6562403440475464,2.778400421142578,2.0778205394744873,8.650835990905762,1.26076340675354,-0.8677341000000001,-1.3665055,58.988617000000005,-12.453232,25.9433,CSO
57081625000000.0,1.661237120628357,2.8517677783966064,2.1604528427124023,8.565067291259766,1.2823505401611328,-0.87781334,-1.3494013999999999,59.332775,-13.083803999999999,26.212996,CSO
57081630000000.0,1.6662349700927734,2.9224202632904053,2.2459843158721924,8.484533309936523,1.3034708499908447,-0.8588764999999999,-1.3148874,59.655178,-13.699814000000002,26.465435,CSO
57081638000000.0,1.6712325811386108,2.9872236251831055,2.3328375816345215,8.410224914550781,1.323660969734192,-0.84696466,-1.2913691,59.974022,-14.313131,26.704759999999997,CSO
57081640000000.0,1.6762316226959229,3.044787645339966,2.4202678203582764,8.34247875213623,1.3432633876800537,-0.8576548,-1.2638801000000002,60.276385999999995,-14.9153805,26.940953999999998,CSO
57081646000000.0,1.6812305450439453,3.092654228210449,2.5085089206695557,8.279271125793457,1.361690878868103,-0.8622363000000001,-1.2589933,60.632369999999995,-15.567743,27.156755,CSO
57081650000000.0,1.6862295866012573,3.128427267074585,2.597823143005371,8.21867847442627,1.3785666227340698,-0.8723155999999999,-1.2470814,60.973198,-16.203802,27.372367999999998,CSO
57081655000000.0,1.691222906112671,3.152740001678467,2.686615228652954,8.160150527954102,1.3935174942016602,-0.8738427,-1.255328,61.344612,-16.855059,27.550836999999998,CSO
57081663000000.0,1.6962171792984009,3.165693759918213,2.7732629776000977,8.10301685333252,1.4072484970092773,-0.86590147,-1.2730431999999998,61.708504000000005,-17.49407,27.722519000000002,CSO
57081667000000.0,1.7012099027633667,3.1707592010498047,2.861661672592163,8.046016693115234,1.4188803434371948,-0.8512407,-1.2922854,62.11226,-18.147972,27.848335,CSO
57081670000000.0,1.706204891204834,3.169687032699585,2.953768014907837,7.988482475280762,1.4296156167984009,-0.8613200000000001,-1.3081678999999997,62.514644999999994,-18.795002,27.97059,CSO
57081676000000.0,1.711199402809143,3.1658124923706055,3.050813674926758,7.932940483093262,1.4391276836395264,-0.883922,-1.3090841999999998,62.935140000000004,-19.442614000000003,28.052675,CSO
57081680000000.0,1.7161967754364014,3.1608591079711914,3.153484582901001,7.880615711212158,1.447270154953003,-0.9126327,-1.29198,63.349003,-20.075985,28.133454999999998,CSO
57081684000000.0,1.7211931943893433,3.154052972793579,3.2592670917510986,7.829645156860352,1.4537253379821777,-0.9202684999999999,-1.2797627,63.790043000000004,-20.733232,28.189596,CSO
57081692000000.0,1.7261912822723389,3.145012378692627,3.36696720123291,7.779029846191406,1.4590063095092773,-0.9456194,-1.2693780000000001,64.224525,-21.374874,28.253365999999996,CSO
57081697000000.0,1.7311893701553345,3.136115312576294,3.476093053817749,7.729515552520752,1.4626222848892212,-0.95539325,-1.2592987,64.67687,-22.035213,28.2979,CSO
57081700000000.0,1.736186146736145,3.1297719478607178,3.5861623287200928,7.681860446929932,1.4645317792892456,-0.9462303,-1.2406673000000001,65.11621,-22.676835999999998,28.339968,CSO
57081705000000.0,1.7411847114562988,3.1253108978271484,3.6960644721984863,7.636914253234863,1.4646466970443726,-0.93462384,-1.2247848999999997,65.573975,-23.334513,28.367186,CSO
57081710000000.0,1.7461844682693481,3.1221234798431396,3.8047711849212646,7.595399379730225,1.463241696357727,-0.91446525,-1.2116512,66.01609,-23.972364000000002,28.385640000000002,CSO
57081718000000.0,1.7512158155441284,3.1189029216766357,3.9115865230560303,7.559546947479248,1.4613580703735352,-0.9074403,-1.2018773999999999,66.46338,-24.618898,28.400513,CSO
57081720000000.0,1.7562164068222046,3.1149728298187256,4.015132904052734,7.52957010269165,1.4593470096588135,-0.88422745,-1.1921035,66.89265400000001,-25.246702,28.402278999999997,CSO
57081726000000.0,1.7612128257751465,3.113102674484253,4.119959831237793,7.502806186676025,1.457198977470398,-0.89827734,-1.1847731000000001,67.32734,-25.875505,28.402424,CSO
57081730000000.0,1.7662094831466675,3.116194009780884,4.230458736419678,7.476189136505127,1.4546607732772827,-0.88514376,-1.1591167,67.737206,-26.486534000000002,28.388945,CSO
57081734000000.0,1.7712070941925049,3.122736692428589,4.343212127685547,7.4492082595825195,1.4527299404144287,-0.8918633,-1.1362093999999998,68.14406600000001,-27.092764000000003,28.364939,CSO
57081743000000.0,1.7762049436569214,3.1312289237976074,4.454808712005615,7.421367168426514,1.4515693187713623,-0.9166033000000001,-1.1184943,68.53734,-27.683388,28.341022,CSO
57081747000000.0,1.781200885772705,3.1405563354492188,4.565444469451904,7.39420223236084,1.4506007432937622,-0.93431836,-1.105666,68.94160500000001,-28.296934000000004,28.323365999999996,CSO
57081750000000.0,1.786197304725647,3.149634838104248,4.675395965576172,7.369229316711426,1.4498791694641113,-0.9596693000000001,-1.0952813999999997,69.338425,-28.899757,28.311342,CSO
57081755000000.0,1.7911951541900635,3.1582601070404053,4.785708904266357,7.34556770324707,1.4488378763198853,-0.9957103999999999,-1.0815369,69.74034,-29.506961999999998,28.307170000000003,CSO
57081760000000.0,1.79619300365448,3.1661674976348877,4.89763069152832,7.322134017944336,1.4483729600906372,-1.0259482,-1.0705414,70.13499499999999,-30.106040000000004,28.304209999999998,CSO
57081770000000.0,1.8011897802352905,3.1721653938293457,5.011033058166504,7.297814846038818,1.4479166269302368,-1.0564915000000001,-1.0522153,70.532326,-30.70348,28.300603999999996,CSO
57081772000000.0,1.806189775466919,3.174821615219116,5.12594747543335,7.271265983581543,1.4480705261230469,-1.0748174,-1.0320568,70.92089,-31.292146999999996,28.298766999999998,CSO
57081776000000.0,1.8111857175827026,3.1756834983825684,5.2410688400268555,7.243777751922607,1.4487371444702148,-1.0958921999999998,-1.0256428,71.32629,-31.895689,28.292885,CSO
57081780000000.0,1.8161838054656982,3.1767590045928955,5.354984760284424,7.216975688934326,1.4499379396438599,-1.1426234,-1.0277808000000002,71.72848499999999,-32.48835,28.294190999999998,CSO
57081785000000.0,1.8212003707885742,3.1799590587615967,5.46708869934082,7.193667888641357,1.4507980346679688,-1.17897,-1.0100657,72.14495,-33.098267,28.286123,CSO
57081793000000.0,1.8262008428573608,3.186882972717285,5.575967311859131,7.176413059234619,1.4512866735458374,-1.1997393,-0.9960158000000001,72.560265,-33.699333,28.278923,CSO
57081797000000.0,1.8311970233917236,3.1993467807769775,5.6827216148376465,7.165448188781738,1.4509191513061523,-1.2559388999999999,-0.9950995,72.991936,-34.300979999999996,28.279885999999998,CSO
57081800000000.0,1.8361948728561401,3.221116781234741,5.789270401000977,7.161299228668213,1.4495295286178589,-1.2968669,-0.97341377,73.4074,-34.882675,28.283112,CSO
57081806000000.0,1.8411933183670044,3.2501583099365234,5.894282341003418,7.163139343261719,1.4467326402664185,-1.3170254,-0.9263771000000001,73.8076,-35.43815,28.29389,CSO
57081810000000.0,1.8461929559707642,3.2819621562957764,5.994204998016357,7.169444561004639,1.441496729850769,-1.3310753,-0.8622363000000001,74.197334,-35.96624,28.31482,CSO
57081814000000.0,1.8511922359466553,3.3154139518737793,6.086490631103516,7.177616119384766,1.434667944908142,-1.3439035,-0.8072583999999999,74.56648,-36.467659999999995,28.357403,CSO
57081822000000.0,1.8561935424804688,3.3475849628448486,6.162936687469482,7.180456638336182,1.4257452487945557,-1.3607023,-0.79351395,74.926445,-36.940804,28.403503000000004,CSO
57081827000000.0,1.861193299293518,3.37853741645813,6.224524021148682,7.178310871124268,1.4147588014602661,-1.3790283,-0.7696901999999999,75.25646,-37.37328,28.464934999999997,CSO
57081830000000.0,1.8661925792694092,3.4083375930786133,6.272012233734131,7.171430587768555,1.4023231267929077,-1.4291192,-0.7678576,75.59273,-37.78942,28.530508,CSO
57081835000000.0,1.8711934089660645,3.4409894943237305,6.308918476104736,7.1614766120910645,1.3880271911621094,-1.4404203000000002,-0.79443026,75.92370600000001,-38.186671999999994,28.585496999999997,CSO
57081840000000.0,1.8761930465698242,3.497157335281372,6.351007461547852,7.156320095062256,1.373418927192688,-1.4092661,-0.83199847,76.25193,-38.57477,28.635942,CSO
57081848000000.0,1.8812130689620972,3.5776267051696777,6.398581027984619,7.156049728393555,1.3585798740386963,-1.3558153999999998,-0.8753699,76.542816,-38.908283000000004,28.704784000000004,CSO
57081850000000.0,1.8862130641937256,3.6773641109466553,6.45028829574585,7.159773826599121,1.3397949934005737,-1.1963795,-0.79168135,76.775764,-39.1992,28.76127,CSO
57081856000000.0,1.8912084102630615,3.7967123985290527,6.506296634674072,7.167510509490967,1.3132376670837402,-0.9486737,-0.6365215999999999,76.968956,-39.459927,28.79137,CSO
57081860000000.0,1.8962088823318481,3.979811668395996,6.584658145904541,7.224954128265381,1.273478627204895,-0.6948592,-0.38484509999999994,77.077835,-39.638465999999994,28.825113,CSO
57081864000000.0,1.9012051820755005,4.235984802246094,6.6894659996032715,7.343342304229736,1.2149546146392822,-0.5687156,-0.00580322,77.09236999999999,-39.699276,28.894009000000004,CSO
57081873000000.0,1.9062094688415527,4.5297160148620605,6.809723377227783,7.446726322174072,1.1436628103256226,-0.47922380000000003,0.5128214,76.88396,-39.582912,29.146559999999997,CSO
57081877000000.0,1.9112048149108887,4.844430923461914,6.939772129058838,7.511950969696045,1.0741682052612305,-0.68233645,0.7690793,76.69797,-39.42273,29.448147,CSO
57081880000000.0,1.9162055253982544,5.1185126304626465,7.052161693572998,7.541100025177002,1.0217734575271606,-1.0509937,0.7058548000000001,76.40454,-39.116409999999995,29.903053000000003,CSO
57081885000000.0,1.921204686164856,5.335138320922852,7.139386177062988,7.537446022033691,0.9919642210006714,-1.14018,0.6542366999999999,76.05176,-38.802094,30.374802000000003,CSO
57081890000000.0,1.9262056350708008,5.500406742095947,7.205296039581299,7.535433292388916,0.9719310998916626,-1.1270463,0.5873469,75.92067,-38.61289,30.957003000000004,CSO
57081900000000.0,1.9312058687210083,5.619533538818359,7.252811908721924,7.554675102233887,0.9625855088233948,-0.9233228000000001,0.4886922,75.79016,-38.53109,31.476896000000004,CSO
57081902000000.0,1.9362045526504517,5.688320159912109,7.2890119552612305,7.576467514038086,0.9512475728988647,-0.7141015000000001,0.26847526,75.691696,-38.5027,31.893091,CSO
57081906000000.0,1.9412040710449219,5.705769062042236,7.317373275756836,7.5921735763549805,0.9344586730003357,-0.42180246,-0.11056661,75.58871500000001,-38.551109999999994,32.18379,CSO
57081910000000.0,1.946205735206604,5.678942680358887,7.337674617767334,7.598424434661865,0.9217060208320618,-0.10934488,-0.46028697,75.41251,-38.623946999999994,32.295612,CSO
57081915000000.0,1.9512041807174683,5.660993576049805,7.343861103057861,7.555933952331543,0.9160951375961304,0.069027774,-0.61483586,75.24715,-38.723957,32.334796999999995,CSO
57081923000000.0,1.9562044143676758,5.653575897216797,7.335994243621826,7.4739508628845215,0.908536970615387,0.04795292,-0.65393126,75.21906,-38.912838,32.183018,CSO
57081927000000.0,1.9612034559249878,5.664943695068359,7.312966346740723,7.388929843902588,0.899200439453125,-0.089186326,-0.63621616,75.197075,-39.141502,32.00357,CSO
57081930000000.0,1.966202974319458,5.689815998077393,7.277225971221924,7.301362991333008,0.8911590576171875,-0.22388211,-0.55833083,75.199875,-39.396797,31.914831,CSO
57081936000000.0,1.9712101221084595,5.708556652069092,7.236715316772461,7.212855815887451,0.8845065832138062,-0.29901853,-0.47128254,75.21479000000001,-39.634113,31.849209000000002,CSO
57081940000000.0,1.9762089252471924,5.719167709350586,7.195160388946533,7.12493371963501,0.8771343231201172,-0.34819320000000004,-0.4120286,75.18743,-39.800715999999994,31.885790000000004,CSO
57081944000000.0,1.9812071323394775,5.712913990020752,7.163205623626709,7.041442394256592,0.8684784173965454,-0.35155296,-0.38056904,75.15648,-39.95466,31.939766,CSO
57081952000000.0,1.9862045049667358,5.691953659057617,7.140549659729004,6.958813190460205,0.8573050498962402,-0.30665436,-0.35277468,75.123085,-40.086994,32.005688,CSO
57081957000000.0,1.9912035465240479,5.661405563354492,7.127565383911133,6.864903450012207,0.842592716217041,-0.29871312,-0.33261612,75.09650400000001,-40.20172,32.082786999999996,CSO
57081960000000.0,1.9962016344070435,5.62302827835083,7.1239190101623535,6.762545108795166,0.8265972137451172,-0.3115413,-0.31031954,75.10424,-40.34666,32.11247,CSO
57081965000000.0,2.001199245452881,5.5833306312561035,7.130563735961914,6.663273334503174,0.8106565475463867,-0.33169982,-0.2764165,75.104485,-40.471645,32.14873,CSO
57081973000000.0,2.006232738494873,5.541924476623535,7.148326873779297,6.566601276397705,0.7942469120025635,-0.34697145,-0.22388211,75.15876999999999,-40.636959999999995,32.177692,CSO
57081978000000.0,2.011230707168579,5.49977970123291,7.173979759216309,6.473008155822754,0.7755865454673767,-0.36621370000000003,-0.16554448,75.209,-40.781246,32.219303000000004,CSO
57081980000000.0,2.016228675842285,5.4565229415893555,7.20766019821167,6.38215446472168,0.7566998600959778,-0.37323865,-0.11484267,75.24886,-40.915974,32.270590000000006,CSO
57081986000000.0,2.021226167678833,5.412383079528809,7.240159034729004,6.295406818389893,0.7374361157417297,-0.39645153,-0.090713486,75.2899,-41.02944,32.334244,CSO
57081990000000.0,2.0262317657470703,5.367303371429443,7.27155876159668,6.212522506713867,0.7183851003646851,-0.4089743,-0.049785517,75.36435999999999,-41.187546000000005,32.37925,CSO
57081994000000.0,2.031229257583618,5.321522235870361,7.301882266998291,6.133338928222656,0.6986077427864075,-0.41416663,-0.01863139,75.43808,-41.33125,32.428925,CSO
57082003000000.0,2.036226272583008,5.274992942810059,7.331202507019043,6.0576395988464355,0.678500771522522,-0.4111123,0.014966198,75.50285,-41.4628,32.4864,CSO
57082007000000.0,2.0412285327911377,5.2311601638793945,7.352747917175293,5.9860334396362305,0.6570563316345215,-0.40042216,0.053450707,75.55776999999999,-41.574290000000005,32.549957,CSO
57082010000000.0,2.0462236404418945,5.1901535987854,7.366653919219971,5.918365955352783,0.6341503262519836,-0.39095375,0.07941248,75.60633,-41.673542,32.616287,CSO
57082015000000.0,2.0512213706970215,5.1518402099609375,7.3730902671813965,5.854431629180908,0.6098281145095825,-0.38789943,0.10231992599999999,75.65428,-41.76826,32.672955,CSO
57082020000000.0,2.0562191009521484,5.1160712242126465,7.372519016265869,5.79403018951416,0.5845884084701538,-0.35979962,0.13316862,75.68460999999999,-41.84641,32.72971,CSO
57082030000000.0,2.0612170696258545,5.084349632263184,7.3658928871154785,5.736657619476318,0.5580405592918396,-0.32070425,0.16554448,75.70450600000001,-41.907387,32.7872,CSO
57082032000000.0,2.066211700439453,5.056683540344238,7.353707790374756,5.682106018066406,0.5320285558700562,-0.26175576,0.19425514,75.70483,-41.960182,32.841034,CSO
57082036000000.0,2.071211338043213,5.029196739196777,7.335870742797852,5.628790378570557,0.5068005323410034,-0.22785273,0.22082779,75.66768,-41.96601,32.912365,CSO
57082040000000.0,2.0762383937835693,5.000247955322266,7.312066555023193,5.575921535491943,0.48340529203414917,-0.18661933,0.23701571,75.60871999999999,-41.968906,32.974937,CSO
57082045000000.0,2.08123517036438,4.970095634460449,7.28563928604126,5.524809837341309,0.46150103211402893,-0.13347405,0.23701571,75.52199999999999,-41.94917,33.043785,CSO
57082053000000.0,2.086231231689453,4.938292980194092,7.257112503051758,5.475670337677002,0.44097569584846497,-0.07147124,0.22327125,75.42175999999999,-41.931206,33.10301,CSO
57082057000000.0,2.09122896194458,4.904630661010742,7.228487014770508,5.427737712860107,0.4224883019924164,-0.024129177,0.19486602,75.30756,-41.91275,33.153564,CSO
57082060000000.0,2.096226453781128,4.869050025939941,7.201121807098389,5.3805036544799805,0.40653249621391296,0.01282817,0.16462818,75.18366,-41.9012,33.19061,CSO
57082066000000.0,2.101224660873413,4.831327438354492,7.177052974700928,5.335869312286377,0.39437323808670044,0.021991148999999998,0.11209377,75.061356,-41.907246,33.207522999999995,CSO
57082070000000.0,2.106222629547119,4.791435718536377,7.157140254974365,5.294658660888672,0.3857593238353729,0.034208454,0.049480084,74.93778,-41.92753,33.20798,CSO
57082074000000.0,2.111220598220825,4.749813556671143,7.142844200134277,5.260215759277344,0.38048556447029114,0.029626964,-0.01038471,74.83294000000001,-41.976196,33.191765000000004,CSO
57082082000000.0,2.116218090057373,4.706684112548828,7.134525299072266,5.233569145202637,0.3771531581878662,0.0061086523,-0.043982297000000004,74.73819,-42.037945,33.168820000000004,CSO
57082087000000.0,2.121216297149658,4.664429187774658,7.131398677825928,5.2156662940979,0.3746819794178009,-0.027794369,-0.13194689,74.67823,-42.14018,33.108643,CSO
57082090000000.0,2.1262147426605225,4.624176502227783,7.132932662963867,5.206707000732422,0.3740841746330261,-0.07544186,-0.20128010000000002,74.631546,-42.253963,33.052315,CSO
57082095000000.0,2.1312129497528076,4.583951950073242,7.138734817504883,5.202345848083496,0.3745437264442444,-0.16340645,-0.2742785,74.625336,-42.392540000000004,32.966415000000005,CSO
57082100000000.0,2.1362104415893555,4.542611122131348,7.1484904289245605,5.199972152709961,0.37553220987319946,-0.23823744,-0.35277468,74.6428,-42.54912,32.870678000000005,CSO
57082108000000.0,2.141209125518799,4.499724388122559,7.160843372344971,5.195457935333252,0.3764517307281494,-0.2855795,-0.42180246,74.68224000000001,-42.71508,32.75714,CSO
57082110000000.0,2.1462275981903076,4.4547648429870605,7.174989223480225,5.185736656188965,0.37784311175346375,-0.31856623,-0.4886922,74.751595,-42.897987,32.638009999999994,CSO
57082116000000.0,2.1512250900268555,4.409479141235352,7.190485954284668,5.17069149017334,0.38021838665008545,-0.31123585,-0.5516113,74.82861,-43.10585,32.487114,CSO
57082120000000.0,2.1562249660491943,4.364315986633301,7.2074480056762695,5.149320602416992,0.3834925591945648,-0.3036,-0.59498274,74.92115,-43.32158,32.333059999999996,CSO
57082124000000.0,2.1612226963043213,4.320282459259033,7.226638317108154,5.123434543609619,0.3879595100879669,-0.2959642,-0.6346890000000001,75.030846,-43.570941999999995,32.157734000000005,CSO
57082133000000.0,2.166220188140869,4.278083324432373,7.2486491203308105,5.094316482543945,0.3930511176586151,-0.28405234,-0.66920286,75.141235,-43.825657,31.974188,CSO
57082137000000.0,2.1712186336517334,4.23876953125,7.273736000061035,5.063884735107422,0.39858758449554443,-0.28924468,-0.6798930000000001,75.27105,-44.10465,31.790740000000003,CSO
57082140000000.0,2.1762173175811768,4.203063488006592,7.3020243644714355,5.033561706542969,0.40361738204956055,-0.30024028,-0.6789767,75.39957,-44.383086999999996,31.603687,CSO
57082145000000.0,2.181215524673462,4.170486927032471,7.333155632019043,5.004030227661133,0.4089651107788086,-0.31337386,-0.66553766,75.536835,-44.679237,31.419659999999997,CSO
57082150000000.0,2.1862130165100098,4.140634536743164,7.366825580596924,4.975825786590576,0.41383251547813416,-0.33139440000000003,-0.64568454,75.67282,-44.964928,31.24257,CSO
57082160000000.0,2.191211700439453,4.114006519317627,7.40226411819458,4.947630882263184,0.4183591604232788,-0.34910949999999996,-0.6062838,75.80906999999999,-45.252876,31.076708,CSO
57082162000000.0,2.1962103843688965,4.09111213684082,7.438643455505371,4.91810941696167,0.42210739850997925,-0.36926803,-0.5662721,75.94293,-45.528862,30.921390000000002,CSO
57082166000000.0,2.2012100219726562,4.0702223777771,7.475261211395264,4.886849880218506,0.42536288499832153,-0.3924809,-0.5235115,76.07680500000001,-45.800205,30.77967,CSO
57082170000000.0,2.2062089443206787,4.049694061279297,7.5114312171936035,4.853496551513672,0.42875415086746216,-0.3998113,-0.48563787,76.20144,-46.05939,30.649015000000002,CSO
57082175000000.0,2.21120548248291,4.025522708892822,7.543029308319092,4.814579486846924,0.432339072227478,-0.40317106,-0.44898596,76.327354,-46.312065000000004,30.539009999999998,CSO
57082183000000.0,2.2162065505981445,3.993051528930664,7.565322399139404,4.76593542098999,0.4362863600254059,-0.38240165,-0.4343252,76.44198,-46.558437,30.431648,CSO
57082187000000.0,2.2212066650390625,3.954824447631836,7.57960319519043,4.712428569793701,0.44101622700691223,-0.36071593,-0.41355577,76.550606,-46.807938,30.33222,CSO
57082190000000.0,2.226206064224243,3.9144935607910156,7.587429046630859,4.6615142822265625,0.4459986090660095,-0.34819320000000004,-0.40744713,76.6525,-47.05297,30.23237,CSO
57082196000000.0,2.2312023639678955,3.872529983520508,7.590561866760254,4.612705230712891,0.45229437947273254,-0.32925636,-0.41813725,76.75693000000001,-47.32329,30.121984,CSO
57082200000000.0,2.2362005710601807,3.829472541809082,7.591386795043945,4.565308094024658,0.45932891964912415,-0.31642818,-0.41905355,76.8534,-47.58565,30.015735999999997,CSO
57082204000000.0,2.241198778152466,3.785459041595459,7.590019226074219,4.519207954406738,0.4662327468395233,-0.3191771,-0.42241332,76.9408,-47.844390000000004,29.901169,CSO
57082213000000.0,2.246199131011963,3.7407076358795166,7.586482048034668,4.474162578582764,0.473224401473999,-0.32131509999999996,-0.4334089,77.02278000000001,-48.105064,29.784028999999997,CSO
57082217000000.0,2.2511959075927734,3.6957359313964844,7.581607341766357,4.431168079376221,0.4801201820373535,-0.33017266,-0.44073927,77.10668000000001,-48.365241999999995,29.663704,CSO
57082220000000.0,2.2561962604522705,3.6511378288269043,7.576486587524414,4.391729354858398,0.48638802766799927,-0.33933565,-0.44959682,77.19032,-48.623295,29.542272999999998,CSO
57082225000000.0,2.2611920833587646,3.60703182220459,7.571487903594971,4.354599475860596,0.4922078847885132,-0.34086279999999997,-0.45723262,77.26858,-48.884583,29.41273,CSO
57082230000000.0,2.2661917209625244,3.5634896755218506,7.56726598739624,4.317661762237549,0.49716416001319885,-0.35796702,-0.47311515,77.35367600000001,-49.142506,29.284306,CSO
57082238000000.0,2.2711899280548096,3.5209295749664307,7.564583778381348,4.2809038162231445,0.5003424882888794,-0.37293324,-0.49541172,77.434784,-49.39658,29.145359999999997,CSO
57082240000000.0,2.2761898040771484,3.48016619682312,7.5651092529296875,4.244218826293945,0.5024073719978333,-0.37965274,-0.51893,77.5182,-49.649895,29.005398,CSO
57082246000000.0,2.281186580657959,3.4412808418273926,7.568935871124268,4.207752227783203,0.5023601055145264,-0.38973203,-0.5174029,77.60644,-49.898773,28.863525,CSO
57082250000000.0,2.2861850261688232,3.4052417278289795,7.577976226806641,4.172196865081787,0.5015828609466553,-0.38362336,-0.5161811,77.69272600000001,-50.149359999999994,28.716623,CSO
57082254000000.0,2.29118275642395,3.371852159500122,7.591599464416504,4.1372833251953125,0.5004563927650452,-0.3747658,-0.5174029,77.78503,-50.403793,28.566257,CSO
57082263000000.0,2.296189546585083,3.340771198272705,7.607934951782227,4.101585388183594,0.4978598952293396,-0.3735441,-0.5112942,77.87335999999999,-50.64521,28.420567,CSO
57082267000000.0,2.3011882305145264,3.3120763301849365,7.626805782318115,4.065557479858398,0.49450650811195374,-0.36041048,-0.49021935,77.9567,-50.89412,28.271318,CSO
57082270000000.0,2.3061888217926025,3.2868874073028564,7.649118900299072,4.030460834503174,0.4900459349155426,-0.3472769,-0.46883908,78.03571,-51.130264000000004,28.125992,CSO
57082275000000.0,2.311187744140625,3.264981746673584,7.674636363983154,3.9962964057922363,0.4853021800518036,-0.33017266,-0.462425,78.11494,-51.37164,27.982053999999998,CSO
57082280000000.0,2.3161871433258057,3.2460620403289795,7.703210353851318,3.963433027267456,0.4803066551685333,-0.2947425,-0.44409904,78.1773,-51.59704,27.844648,CSO
57082290000000.0,2.3211865425109863,3.2301604747772217,7.734448432922363,3.931833505630493,0.47390076518058777,-0.27488935,-0.42760566,78.24141999999999,-51.82144,27.708689,CSO
57082292000000.0,2.326188564300537,3.2186248302459717,7.766534805297852,3.9016668796539307,0.46713635325431824,-0.24862215,-0.39858958,78.28641999999999,-52.0366,27.577463,CSO
57082296000000.0,2.331223726272583,3.211474657058716,7.799441337585449,3.8730149269104004,0.4596906900405884,-0.22479841,-0.36193767,78.32019,-52.243034,27.45021,CSO
57082300000000.0,2.3362231254577637,3.2070937156677246,7.831589221954346,3.846487045288086,0.45226743817329407,-0.20586158,-0.33994650000000004,78.343704,-52.442257,27.326277,CSO
57082305000000.0,2.3412206172943115,3.205664873123169,7.863156318664551,3.822052478790283,0.44416549801826477,-0.19058995,-0.3286455,78.35266999999999,-52.62506,27.215078000000002,CSO
57082310000000.0,2.3462185859680176,3.2068793773651123,7.894075870513916,3.7996668815612793,0.4360395669937134,-0.18112154,-0.30970868,78.352135,-52.798805,27.11195,CSO
57082317000000.0,2.351214647293091,3.2105391025543213,7.924351692199707,3.7792272567749023,0.42776069045066833,-0.17134771,-0.30390546,78.34609,-52.96533,27.008515999999997,CSO
57082320000000.0,2.356215715408325,3.215749979019165,7.952795028686523,3.760859489440918,0.4194835424423218,-0.15821409,-0.30879238,78.32648,-53.121277,26.912464,CSO
57082326000000.0,2.361210823059082,3.2221686840057373,7.979227542877197,3.7444608211517334,0.4114033281803131,-0.16157386,-0.30024028,78.30524399999999,-53.268769999999996,26.824127,CSO
57082330000000.0,2.366217851638794,3.2281737327575684,8.003944396972656,3.7269675731658936,0.40416067838668823,-0.16768251,-0.30573806,78.27539,-53.414019999999994,26.735360999999997,CSO
57082334000000.0,2.3712158203125,3.233395576477051,8.027112007141113,3.7078588008880615,0.3976295590400696,-0.17348573,-0.3145956,78.24526999999999,-53.55426,26.65025,CSO
57082343000000.0,2.376216173171997,3.2367889881134033,8.048617362976074,3.686803102493286,0.3918534219264984,-0.17165314,-0.33078352,78.21018000000001,-53.691309999999994,26.565619,CSO
57082347000000.0,2.381214141845703,3.237959146499634,8.068466186523438,3.6638057231903076,0.386759489774704,-0.17806722,-0.34788775,78.18026,-53.82885400000001,26.482126,CSO
57082350000000.0,2.386213779449463,3.236480236053467,8.0877103805542,3.6394739151000977,0.3828648328781128,-0.17134771,-0.37384954,78.154785,-53.978977,26.393202000000002,CSO
57082355000000.0,2.3912127017974854,3.232285976409912,8.106818199157715,3.614152669906616,0.3798288404941559,-0.17562376,-0.39614612,78.13559000000001,-54.129546999999995,26.30479,CSO
57082360000000.0,2.3962130546569824,3.225496530532837,8.125804901123047,3.5878746509552,0.37728017568588257,-0.16432275,-0.41508293,78.11426999999999,-54.29687,26.201147,CSO
57082368000000.0,2.4012351036071777,3.216033935546875,8.144744873046875,3.560513973236084,0.37494874000549316,-0.15332718,-0.43768495,78.097015,-54.467983,26.09358,CSO
57082370000000.0,2.4062352180480957,3.2047131061553955,8.16528606414795,3.533053159713745,0.37402746081352234,-0.1518,-0.45081854,78.07974,-54.643215000000005,25.985643,CSO
57082376000000.0,2.4112348556518555,3.191516637802124,8.188202857971191,3.505568504333496,0.3729762136936188,-0.14813483,-0.44929138,78.05903,-54.811962,25.876495000000002,CSO
57082380000000.0,2.416233539581299,3.1778881549835205,8.215360641479492,3.4788522720336914,0.37183451652526855,-0.14874569,-0.45234573,78.050095,-55.0143,25.743288,CSO
57082384000000.0,2.421231269836426,3.164625644683838,8.24767780303955,3.453319549560547,0.37080249190330505,-0.14263703,-0.45173484,78.03644,-55.2116,25.613098,CSO
57082393000000.0,2.4262290000915527,3.1517081260681152,8.284905433654785,3.428906202316284,0.3698417544364929,-0.15302174,-0.44318274,78.03206,-55.4204,25.475346,CSO
57082397000000.0,2.4312262535095215,3.139117956161499,8.326769828796387,3.4055533409118652,0.3684113323688507,-0.17501289,-0.4334089,78.027855,-55.622917,25.341747,CSO
57082400000000.0,2.436222553253174,3.126347064971924,8.372212409973145,3.384458303451538,0.36663392186164856,-0.19700404,-0.41233405,78.01698,-55.818245,25.214845999999998,CSO
57082405000000.0,2.441220998764038,3.1126205921173096,8.419869422912598,3.3674874305725098,0.3649349510669708,-0.21746802,-0.39461896,78.01017,-56.007915000000004,25.094769,CSO
57082410000000.0,2.446218729019165,3.098360776901245,8.467329978942871,3.3534412384033203,0.36353814601898193,-0.23060162,-0.37568212,78.01624,-56.218376,24.964684,CSO
57082420000000.0,2.4512181282043457,3.0839295387268066,8.512447357177734,3.341261386871338,0.3621669411659241,-0.26389378,-0.35063666,78.02960999999999,-56.41826999999999,24.848352,CSO
57082422000000.0,2.456216335296631,3.0693445205688477,8.555344581604004,3.3308377265930176,0.36117807030677795,-0.3005457,-0.31306845,78.039345,-56.61516999999999,24.731234,CSO
57082426000000.0,2.4612176418304443,3.052532434463501,8.592154502868652,3.317822217941284,0.360469788312912,-0.32162055,-0.30298916,78.05314,-56.807903,24.61816,CSO
57082430000000.0,2.466212272644043,3.033083915710449,8.622112274169922,3.3011529445648193,0.36115026473999023,-0.32375857,-0.29016098,78.0657,-56.992855000000006,24.520004,CSO
57082435000000.0,2.4712376594543457,3.0133280754089355,8.645946502685547,3.281914472579956,0.3625432550907135,-0.32498032,-0.28313604,78.07496,-57.173331999999995,24.418436,CSO
57082440000000.0,2.476231575012207,2.9937431812286377,8.664982795715332,3.2610554695129395,0.36487120389938354,-0.32314770000000004,-0.28405234,78.08221,-57.354477,24.320332999999998,CSO
57082447000000.0,2.481228828430176,2.974839925765991,8.683996200561523,3.2366726398468018,0.368426114320755,-0.31306845,-0.2779437,78.08633,-57.5407,24.223015,CSO
57082450000000.0,2.4862241744995117,2.956691026687622,8.703767776489258,3.208780527114868,0.37324023246765137,-0.310625,-0.25381452,78.08898,-57.7231,24.133055,CSO
57082456000000.0,2.491222381591797,2.9379310607910156,8.72097110748291,3.183023691177368,0.3787907361984253,-0.30604348,-0.22968534,78.07958,-57.90578000000001,24.045220999999998,CSO
57082460000000.0,2.4962167739868164,2.9184257984161377,8.735262870788574,3.160135269165039,0.3852173984050751,-0.25778514,-0.23823744,78.05691,-58.092180000000006,23.952182999999998,CSO
57082464000000.0,2.5012152194976807,2.900923252105713,8.748884201049805,3.1424551010131836,0.391448050737381,-0.23915374,-0.2443461,78.04863,-58.282740000000004,23.871230999999998,CSO
57082473000000.0,2.506213426589966,2.8858156204223633,8.762266159057617,3.130103349685669,0.3974117636680603,-0.22510384,-0.23487769,78.025925,-58.4715,23.789407999999998,CSO
57082477000000.0,2.5112133026123047,2.8762035369873047,8.776860237121582,3.1221776008605957,0.40343204140663147,-0.20830505,-0.23548855,77.98909,-58.662277,23.692705,CSO
57082480000000.0,2.5162088871002197,2.872680902481079,8.793000221252441,3.1181600093841553,0.40854549407958984,-0.1994475,-0.22174409,77.947334,-58.84092,23.603949,CSO
57082485000000.0,2.521206855773926,2.8768410682678223,8.811188697814941,3.1169440746307373,0.4124423563480377,-0.20616703,-0.20280726,77.88924,-59.00362,23.517231,CSO
57082490000000.0,2.5262057781219482,2.889470338821411,8.831666946411133,3.1176939010620117,0.41564321517944336,-0.22204952,-0.17959438,77.82955,-59.158480000000004,23.437668,CSO
57082498000000.0,2.5312042236328125,2.907729148864746,8.849798202514648,3.1191282272338867,0.417892187833786,-0.24068089999999998,-0.15821409,77.75797,-59.284411999999996,23.379417,CSO
57082500000000.0,2.5362021923065186,2.9303712844848633,8.863903045654297,3.120741128921509,0.4200538694858551,-0.25534168,-0.13775012,77.6884,-59.40385,23.330063,CSO
57082506000000.0,2.5412087440490723,2.9559757709503174,8.87318229675293,3.119710922241211,0.4219375550746918,-0.26572640000000003,-0.13103059,77.59718000000001,-59.500774,23.29999,CSO
57082510000000.0,2.5462074279785156,2.9836463928222656,8.877801895141602,3.115304946899414,0.42375341057777405,-0.29657507,-0.116675265,77.51527,-59.59035,23.282038,CSO
57082515000000.0,2.55120587348938,3.0081844329833984,8.875718116760254,3.1071364879608154,0.42659562826156616,-0.30298916,-0.09254608,77.40786999999999,-59.661159999999995,23.283064000000003,CSO
57082523000000.0,2.5562052726745605,3.0274384021759033,8.866289138793945,3.0951783657073975,0.43163031339645386,-0.29260445,-0.056505035999999995,77.3046,-59.729133999999995,23.292961,CSO
57082527000000.0,2.561204195022583,3.0418033599853516,8.849334716796875,3.0776500701904297,0.4378291070461273,-0.2443461,-0.05467244,77.18298,-59.79093,23.31237,CSO
57082530000000.0,2.5662031173706055,3.0515825748443604,8.82487964630127,3.0536704063415527,0.4444625973701477,-0.20372356,-0.06872234,77.06184,-59.853019999999994,23.336592,CSO
57082535000000.0,2.571202039718628,3.0584607124328613,8.797163963317871,3.0251834392547607,0.4520447552204132,-0.17867808,-0.05681047,76.93049,-59.921402,23.360020000000002,CSO
57082540000000.0,2.5762014389038086,3.0634422302246094,8.768630027770996,2.9933695793151855,0.4608505666255951,-0.16065755,-0.04734206,76.79459,-59.995872,23.375938,CSO
57082550000000.0,2.581200122833252,3.066494941711426,8.741537094116211,2.9623732566833496,0.47045671939849854,-0.13561209,-0.04153884,76.65478,-60.080783999999994,23.390596,CSO
57082552000000.0,2.586198329925537,3.0676379203796387,8.71713638305664,2.9345264434814453,0.48130887746810913,-0.11881329,-0.03359759,76.51430500000001,-60.168209999999995,23.407770000000003,CSO
57082556000000.0,2.5911977291107178,3.067685604095459,8.698904037475586,2.911489486694336,0.4931453466415405,-0.094989546,-0.03268129,76.37716,-60.26694499999999,23.422808,CSO
57082560000000.0,2.5961968898773193,3.0672192573547363,8.689062118530273,2.894285202026367,0.5049858093261719,-0.095294975,-0.013133603,76.24240999999999,-60.359997,23.446047,CSO
57082565000000.0,2.6011955738067627,3.0664174556732178,8.685042381286621,2.8819916248321533,0.5174812078475952,-0.112704635,-0.006414085,76.09799,-60.469414,23.448782,CSO
57082570000000.0,2.606196165084839,3.065401315689087,8.685093879699707,2.8739538192749023,0.5295711159706116,-0.13469578,-0.0036651915999999997,75.9568,-60.571594,23.456885999999997,CSO
57082577000000.0,2.611192464828491,3.06419038772583,8.689315795898438,2.8654396533966064,0.5409678816795349,-0.16493362,-0.0027488936,75.82084,-60.6799,23.453089000000002,CSO
57082580000000.0,2.6161913871765137,3.062790870666504,8.697871208190918,2.853327512741089,0.5515294075012207,-0.18875736,-0.007941248,75.69273000000001,-60.786728000000004,23.450611,CSO
57082586000000.0,2.621190071105957,3.05993914604187,8.708531379699707,2.835132360458374,0.5613815784454346,-0.19883664,-0.023518313,75.56864,-60.895633999999994,23.43755,CSO
57082590000000.0,2.626190185546875,3.05469012260437,8.719643592834473,2.8089842796325684,0.5708552002906799,-0.17348573,-0.01282817,75.44156,-60.997344999999996,23.43013,CSO
57082594000000.0,2.6311895847320557,3.0470659732818604,8.7314453125,2.776660919189453,0.5792542099952698,-0.17623462,-0.017104227,75.338875,-61.11716,23.413551000000002,CSO
57082603000000.0,2.6361887454986572,3.0370898246765137,8.744123458862305,2.7395401000976562,0.5870916843414307,-0.1695151,-0.002443461,75.22494499999999,-61.22896,23.403053,CSO
57082607000000.0,2.641186237335205,3.0246129035949707,8.75907039642334,2.697845697402954,0.5945928692817688,-0.14660765,0.004886922,75.13023000000001,-61.364433,23.384548000000002,CSO
57082610000000.0,2.646183729171753,3.0094738006591797,8.777570724487305,2.651719093322754,0.6020198464393616,-0.14080444,0.02076942,75.0375,-61.49134399999999,23.374174,CSO
57082615000000.0,2.6511826515197754,2.992610454559326,8.79824447631836,2.602726936340332,0.6090184450149536,-0.14049901,0.04428773,74.95300999999999,-61.633309999999994,23.358347,CSO
57082624000000.0,2.656221866607666,2.974616050720215,8.820136070251465,2.551706075668335,0.6159859299659729,-0.14569137,0.07360926,74.8671,-61.768303,23.349306,CSO
57082628000000.0,2.661217451095581,2.9563424587249756,8.84121036529541,2.5002598762512207,0.6220449209213257,-0.15027285,0.10140363,74.79343,-61.917767000000005,23.334882999999998,CSO
57082630000000.0,2.666213035583496,2.937793493270874,8.860411643981934,2.4480574131011963,0.6280414462089539,-0.17104226,0.11911872,74.72463,-62.061676,23.328075,CSO
57082636000000.0,2.6712095737457275,2.9188506603240967,8.878405570983887,2.395434617996216,0.6332138180732727,-0.17745635,0.13439035,74.65527,-62.206880000000005,23.320452,CSO
57082640000000.0,2.676206111907959,2.8993797302246094,8.895953178405762,2.34279727935791,0.636922299861908,-0.19364429,0.1337795,74.59491,-62.346171999999996,23.31609,CSO
57082645000000.0,2.6812028884887695,2.8778834342956543,8.913529396057129,2.2899506092071533,0.6396843791007996,-0.19914207,0.13958271,74.53359,-62.486736,23.312693,CSO
57082653000000.0,2.686199903488159,2.8526628017425537,8.93166732788086,2.236673593521118,0.6395158171653748,-0.20616703,0.13927728,74.47803,-62.61594,23.30904,CSO
57082660000000.0,2.6914641857147217,2.8190393447875977,8.951837539672852,2.1797380447387695,0.6339521408081055,-0.19822577,0.14110987,74.370026,-62.865448,23.29855,CSO
57082666000000.0,2.6967148780822754,2.781848192214966,8.971597671508789,2.120944023132324,0.626406192779541,-0.1872302,0.12675454,74.31957,-62.99385,23.276587,CSO
57082670000000.0,2.7019565105438232,2.7403812408447266,8.989554405212402,2.057523727416992,0.6175206899642944,-0.16890424,0.12767084,74.26201999999999,-63.110893000000004,23.2574,CSO
57082680000000.0,2.7071847915649414,2.695892572402954,9.00676441192627,1.9896568059921265,0.6079530119895935,-0.17837265,0.10903945,74.22251,-63.251495,23.213207,CSO
57082682000000.0,2.712397813796997,2.65055251121521,9.025287628173828,1.9172271490097046,0.5974953770637512,-0.16676621,0.098043874,74.16999,-63.381744,23.169373,CSO
57082686000000.0,2.717599391937256,2.6036953926086426,9.045282363891602,1.841600775718689,0.5843396186828613,-0.14263703,0.10170906,74.13266,-63.527919999999995,23.111786,CSO
57082690000000.0,2.7228286266326904,2.552752733230591,9.067646026611328,1.7657116651535034,0.569068968296051,-0.14355333,0.10354166,74.09952,-63.671623,23.052418,CSO
57082695000000.0,2.7280080318450928,2.4998700618743896,9.09233283996582,1.692451000213623,0.5522193312644958,-0.19303341,0.10781772,74.08766999999999,-63.826756,22.989265,CSO
57082700000000.0,2.7331764698028564,2.445302724838257,9.122708320617676,1.6270971298217773,0.5365769267082214,-0.26694809999999997,0.12736541,74.08140999999999,-63.974087,22.933222,CSO
57082707000000.0,2.7383370399475098,2.388057231903076,9.158092498779297,1.570142388343811,0.5229564309120178,-0.3747658,0.16676621,74.11152,-64.130196,22.873644,CSO
57082710000000.0,2.7434887886047363,2.3241817951202393,9.196431159973145,1.5245835781097412,0.511070966720581,-0.48991394,0.1957823,74.16417,-64.281075,22.821949,CSO
57082716000000.0,2.7486331462860107,2.2539892196655273,9.237587928771973,1.4898483753204346,0.49908646941185,-0.59040123,0.21410827,74.23524499999999,-64.43706999999999,22.757618,CSO
57082720000000.0,2.7537693977355957,2.1818878650665283,9.283565521240234,1.463181972503662,0.4840945303440094,-0.6954701,0.20586158,74.34037,-64.58468,22.701214,CSO
57082730000000.0,2.7589197158813477,2.1082799434661865,9.3345365524292,1.443770408630371,0.4651322662830353,-0.82558435,0.19486602,74.48021999999999,-64.7209,22.656264999999998,CSO
57082733000000.0,2.764040470123291,2.036268949508667,9.384271621704102,1.4239133596420288,0.4425252377986908,-0.990518,0.1908954,74.65384,-64.86894000000001,22.57491,CSO
57082737000000.0,2.769155740737915,1.9655542373657227,9.43297290802002,1.4034972190856934,0.4179977476596832,-1.1459832,0.1957823,74.85850500000001,-65.01948,22.477365,CSO
57082740000000.0,2.774264097213745,1.8990470170974731,9.4768648147583,1.3844125270843506,0.3915707767009735,-1.2754866000000002,0.19914207,75.10226,-65.158035,22.3868,CSO
57082745000000.0,2.779367446899414,1.8373490571975708,9.515129089355469,1.367103934288025,0.36318275332450867,-1.3652838,0.18906279,75.377716,-65.28902,22.300713000000002,CSO
57082750000000.0,2.78446364402771,1.7876287698745728,9.551640510559082,1.3517911434173584,0.33165228366851807,-1.4373658999999999,0.16554448,75.68316,-65.42189,22.20813,CSO
57082758000000.0,2.789555788040161,1.751718282699585,9.587631225585938,1.3384815454483032,0.29644691944122314,-1.5268576999999999,0.16187929,76.01593000000001,-65.54089,22.124498000000003,CSO
57082760000000.0,2.7946388721466064,1.7340953350067139,9.618399620056152,1.321515440940857,0.2589018940925598,-1.572978,0.14660765,76.350746,-65.65149,22.039246,CSO
57082766000000.0,2.7997212409973145,1.738071084022522,9.640828132629395,1.297078013420105,0.22138819098472595,-1.670411,0.13805555,76.723114,-65.75251999999999,21.96278,CSO
57082770000000.0,2.8047990798950195,1.7620970010757446,9.65159797668457,1.2605770826339722,0.1848970651626587,-1.7913622999999999,0.13561209,77.095505,-65.81769,21.918865,CSO
57082775000000.0,2.809873104095459,1.8051013946533203,9.64999771118164,1.2108913660049438,0.14870664477348328,-1.9117028000000003,0.11575896,77.49332,-65.88228000000001,21.873034,CSO
57082783000000.0,2.8149425983428955,1.8635568618774414,9.635257720947266,1.14943528175354,0.11387520283460617,-2.0259346999999996,0.084910266,77.88515,-65.90886,21.88406,CSO
57082787000000.0,2.8200128078460693,1.936147928237915,9.60735034942627,1.076794147491455,0.07946760952472687,-2.1365013,0.06566802,78.30654,-65.931435,21.897799,CSO
57082790000000.0,2.825075626373291,2.021486759185791,9.567198753356934,0.9957814812660217,0.04630771279335022,-2.2452352,0.053450707,78.72644,-65.91311999999999,21.982212,CSO
57082796000000.0,2.830136299133301,2.119166851043701,9.515111923217773,0.9073147773742676,0.013710474595427513,-2.346028,0.039095376,79.171936,-65.89662,22.062532,CSO
57082800000000.0,2.835193157196045,2.223843812942505,9.456244468688965,0.8186718225479126,-0.017833217978477478,-2.4465152999999997,0.02321288,79.59804,-65.83834,22.207766,CSO
57082810000000.0,2.8402485847473145,2.3333730697631836,9.392690658569336,0.7326193451881409,-0.04935614764690399,-2.5326473999999997,0.010690141499999998,80.04494,-65.780594,22.348522,CSO
57082812000000.0,2.8452982902526855,2.447009563446045,9.327693939208984,0.6500481367111206,-0.07991533726453781,-2.6062564999999998,-0.010690141499999998,80.43605,-65.679,22.546572,CSO
57082816000000.0,2.8503496646881104,2.5645246505737305,9.263677597045898,0.5716014504432678,-0.10946448147296906,-2.656653,-0.014966198,80.843094,-65.57757,22.740783999999998,CSO
57082820000000.0,2.8553974628448486,2.682650566101074,9.200431823730469,0.49523308873176575,-0.13887128233909607,-2.6957482999999995,-0.032375857,81.17177,-65.443565,22.960047,CSO
57082825000000.0,2.860441207885742,2.79994535446167,9.137824058532715,0.41995421051979065,-0.16755732893943787,-2.7284296,-0.028099801,81.51561,-65.31203000000001,23.176529000000002,CSO
57082833000000.0,2.8654913902282715,2.9159598350524902,9.075745582580566,0.3454633951187134,-0.19492623209953308,-2.7507262000000003,-0.027183502999999998,81.76697,-65.15814,23.405672,CSO
57082837000000.0,2.8705339431762695,3.0301270484924316,9.014326095581055,0.271811306476593,-0.21984364092350006,-2.7623327,-0.019547688,82.034424,-65.01141,23.628141,CSO
57082840000000.0,2.875570297241211,3.1410274505615234,8.955130577087402,0.19894395768642426,-0.241691455245018,-2.7550022999999997,0.009468411,82.29049,-64.85414,23.864256,CSO
57082846000000.0,2.8806047439575195,3.247610330581665,8.8993558883667,0.12677471339702606,-0.2600635588169098,-2.751337,0.03268129,82.55966,-64.70752,24.090899,CSO
57082850000000.0,2.885636568069458,3.346628189086914,8.848209381103516,0.05444188788533211,-0.2741359770298004,-2.7345382999999996,0.06505715,82.90934,-64.56321,24.327642,CSO
57082854000000.0,2.8906688690185547,3.4363036155700684,8.802330017089844,-0.01860998198390007,-0.2842843532562256,-2.6978865,0.09773844,83.25081999999999,-64.42188,24.559525,CSO
57082863000000.0,2.895698070526123,3.5144102573394775,8.760494232177734,-0.09180048853158951,-0.2907829284667969,-2.6600127000000002,0.1282817,83.61809000000001,-64.28317,24.793903,CSO
57082867000000.0,2.9007246494293213,3.5796940326690674,8.721878051757812,-0.16480201482772827,-0.29353320598602295,-2.6380215,0.124005646,83.97707,-64.15473,25.01608,CSO
57082870000000.0,2.9057579040527344,3.633453607559204,8.689657211303711,-0.2382226437330246,-0.29494866728782654,-2.5885415000000003,0.13072516,84.24519000000001,-64.02904000000001,25.227484,CSO
57082875000000.0,2.910783529281616,3.677422523498535,8.665831565856934,-0.3121826946735382,-0.2937494218349457,-2.5402832,0.17409660000000002,84.50896999999999,-63.904194,25.437714,CSO
57082880000000.0,2.915806531906128,3.7122244834899902,8.646113395690918,-0.39002180099487305,-0.2898632287979126,-2.4813347,0.20799962,84.834274,-63.8053,25.621225,CSO
57082888000000.0,2.9208314418792725,3.7384445667266846,8.62669849395752,-0.47467541694641113,-0.2839866876602173,-2.438574,0.21105394,85.14733000000001,-63.707269999999994,25.798191,CSO
57082890000000.0,2.925852060317993,3.757786989212036,8.607444763183594,-0.5676733255386353,-0.2779187262058258,-2.382069,0.20005837,85.54052,-63.625397,25.958067,CSO
57082896000000.0,2.93087100982666,3.7718873023986816,8.588164329528809,-0.6712443828582764,-0.27158817648887634,-2.312125,0.16798794,85.90925,-63.551277,26.10281,CSO
57082900000000.0,2.9358882904052734,3.784961700439453,8.57028579711914,-0.7810244560241699,-0.26474857330322266,-2.1933117,0.116675265,86.33534,-63.497616,26.226425,CSO
57082905000000.0,2.9409067630767822,3.8008241653442383,8.555102348327637,-0.8931682705879211,-0.2584850788116455,-2.0454822,0.071776666,86.72126,-63.45016999999999,26.332684999999998,CSO
57082913000000.0,2.945919990539551,3.8213865756988525,8.54366683959961,-1.0028982162475586,-0.2526856064796448,-1.9562959999999998,0.007330383,87.15612,-63.429188,26.411620000000003,CSO
57082917000000.0,2.9509358406066895,3.8493077754974365,8.537452697753906,-1.1047307252883911,-0.2492786943912506,-1.9230038,-0.06352998,87.553246,-63.419613,26.467108000000003,CSO
57082920000000.0,2.9559478759765625,3.8836333751678467,8.534048080444336,-1.1983574628829956,-0.2480228990316391,-1.8967366,-0.14721853,87.92832,-63.422104000000004,26.503821999999996,CSO
57082926000000.0,2.9609627723693848,3.923722743988037,8.530579566955566,-1.2830755710601807,-0.2488524317741394,-1.8762726000000003,-0.23151793,88.28636,-63.44150500000001,26.513956,CSO
57082930000000.0,2.9659738540649414,3.969017744064331,8.526482582092285,-1.3579005002975464,-0.2519816756248474,-1.8573358,-0.31490102,88.60368000000001,-63.467827,26.508345000000002,CSO
57082940000000.0,2.9709906578063965,4.019336700439453,8.520478248596191,-1.4197057485580444,-0.2571416199207306,-1.8402314999999998,-0.36560285,88.907585,-63.50581999999999,26.484098,CSO
57082942000000.0,2.97599720954895,4.072057247161865,8.51306438446045,-1.4691987037658691,-0.2641589045524597,-1.8341229,-0.4089743,89.1317,-63.550137,26.447053999999998,CSO
57082947000000.0,2.9810080528259277,4.123504161834717,8.504765510559082,-1.5055582523345947,-0.2735530734062195,-1.8231273000000001,-0.45356745,89.345055,-63.60618,26.393744,CSO
57082950000000.0,2.9860143661499023,4.172843933105469,8.49552059173584,-1.5301638841629028,-0.2854090929031372,-1.8072448,-0.50701815,89.56701,-116.32954,26.328651,CSO
57082955000000.0,2.991025447845459,4.218290328979492,8.48499870300293,-1.5441044569015503,-0.2973657548427582,-1.772731,-0.5326744999999999,89.77595500000001,-116.26308999999999,26.25863,CSO
57082960000000.0,2.9960312843322754,4.260047912597656,8.47286319732666,-1.5484975576400757,-0.31016644835472107,-1.7486018,-0.56413406,90.00652,-116.17204,26.162764000000003,CSO
57082967000000.0,3.0010411739349365,4.298131942749023,8.457754135131836,-1.5442081689834595,-0.32313138246536255,-1.7076738,-0.5748241999999999,90.2161,-116.08275,26.067263,CSO
57082970000000.0,3.0060513019561768,4.333978176116943,8.440546035766602,-1.5315603017807007,-0.33553558588027954,-1.6471981,-0.59864795,90.44986999999999,-115.97478000000001,25.953008999999998,CSO
57082976000000.0,3.0110602378845215,4.376124858856201,8.425996780395508,-1.509385585784912,-0.3485158085823059,-1.6175711000000002,-0.59773165,90.6743,-115.873795,25.84535,CSO
57082980000000.0,3.016071081161499,4.424591541290283,8.413677215576172,-1.4779865741729736,-0.360706627368927,-1.6077974,-0.5717699,90.9234,-115.763916,25.729187,CSO
57082984000000.0,3.02108097076416,4.481677532196045,8.400232315063477,-1.437058448791504,-0.3715803921222687,-1.6077974,-0.54702985,91.15924,-115.65746999999999,25.616322,CSO
57082993000000.0,3.026087760925293,4.547140598297119,8.386299133300781,-1.3874911069869995,-0.3809468448162079,-1.6050483999999998,-0.52748215,91.44725,-115.56106000000001,25.514355,CSO
57082997000000.0,3.031094789505005,4.624321460723877,8.3788423538208,-1.3333359956741333,-0.38875612616539,-1.564426,-0.5012149,91.7151,-115.47653000000001,25.424166,CSO
57083000000000.0,3.0361149311065674,4.7132463455200195,8.37817096710205,-1.2741843461990356,-0.39452147483825684,-1.4770721000000002,-0.46914452,91.995384,-115.41559,25.359179,CSO
57083005000000.0,3.041120767593384,4.810744762420654,8.387643814086914,-1.207584261894226,-0.3986285626888275,-1.3771957000000001,-0.41905355,92.25126,-115.36948999999998,25.309283999999998,CSO
57083010000000.0,3.0461313724517822,4.9168477058410645,8.407973289489746,-1.1327552795410156,-0.4019958972930908,-1.2971723,-0.37568212,92.53818000000001,-115.34591999999999,25.283003,CSO
57083018000000.0,3.0511631965637207,5.026017665863037,8.44615650177002,-1.043973445892334,-0.4043048024177551,-1.2247848999999997,-0.33658674,92.78948000000001,-115.33710500000001,25.271854,CSO
57083020000000.0,3.056166410446167,5.136612415313721,8.498032569885254,-0.9450232982635498,-0.40505826473236084,-1.1618657,-0.2947425,93.01419,-115.35083,25.286373,CSO
57083026000000.0,3.061169385910034,5.235487937927246,8.554502487182617,-0.8455948233604431,-0.40407872200012207,-1.0943651,-0.26389378,93.209496,-115.37375,25.310451999999998,CSO
57083030000000.0,3.066168785095215,5.320774078369141,8.613347053527832,-0.7477946877479553,-0.4016864001750946,-1.0433578000000001,-0.21594086,93.38580999999999,-115.4143,25.352222,CSO
57083035000000.0,3.0711722373962402,5.386359214782715,8.668965339660645,-0.648987889289856,-0.39833101630210876,-1.0088439,-0.17898351,93.54290999999999,-115.446304,25.3902,CSO
57083043000000.0,3.076169967651367,5.4319915771484375,8.719949722290039,-0.5487683415412903,-0.394031286239624,-0.98624194,-0.15302174,93.68445600000001,-115.48993,25.43927,CSO
57083047000000.0,3.081172466278076,5.4576826095581055,8.763077735900879,-0.4468890428543091,-0.38974910974502563,-0.99387777,-0.13683382,93.81708,-115.51516000000001,25.47075,CSO
57083050000000.0,3.0861752033233643,5.464568138122559,8.797240257263184,-0.34351596236228943,-0.38654157519340515,-1.0439687,-0.11575896,93.95355,-115.54987,25.51105,CSO
57083056000000.0,3.0911777019500732,5.457350254058838,8.819622993469238,-0.24608132243156433,-0.3851489722728729,-1.1224649,-0.09193522,94.05988,-115.555275,25.52346,CSO
57083060000000.0,3.0961766242980957,5.438529014587402,8.829544067382812,-0.15743562579154968,-0.3859140872955322,-1.1575897,-0.08032878,94.16669499999999,-115.56452,25.539165,CSO
57083070000000.0,3.1011784076690674,5.409215450286865,8.829118728637695,-0.08541175723075867,-0.3869476914405823,-1.2009611,-0.08032878,94.29965,-115.5373,25.518372,CSO
57083072000000.0,3.1061835289001465,5.370498180389404,8.820100784301758,-0.0349804125726223,-0.38833314180374146,-1.2104294,-0.11484267,94.43079,-115.50643000000001,25.493267000000003,CSO
57083077000000.0,3.1111855506896973,5.3270792961120605,8.81202220916748,-0.0006470257067121565,-0.38914015889167786,-1.1936307,-0.14477506,94.57275,-115.46481999999999,25.45585,CSO
57083080000000.0,3.1161885261535645,5.281557559967041,8.81035041809082,0.020684482529759407,-0.38695797324180603,-1.1456778,-0.15241088,94.705025,-115.42370600000001,25.417942,CSO
57083085000000.0,3.121199369430542,5.231605052947998,8.820590019226074,0.040643226355314255,-0.3814575672149658,-1.0778716999999998,-0.14141529999999997,94.85533000000001,-115.36968,25.365242000000002,CSO
57083090000000.0,3.1262004375457764,5.176746845245361,8.844158172607422,0.06483578681945801,-0.37262043356895447,-1.0586295000000001,-0.09162979,95.00247,-115.32803,25.32447,CSO
57083098000000.0,3.1312007904052734,5.1161909103393555,8.875718116760254,0.09421494603157043,-0.36124294996261597,-1.0421360999999998,-0.028405233999999998,95.13575,-115.28766,25.28415,CSO
57083100000000.0,3.1362013816833496,5.049849510192871,8.912548065185547,0.12898099422454834,-0.3491370677947998,-1.0653489999999999,0.018020526000000002,95.27271,-115.258835,25.255163,CSO
57083106000000.0,3.1412014961242676,4.977175235748291,8.949830055236816,0.1608000099658966,-0.3385227620601654,-1.0818423000000001,0.055283304000000005,95.44646,-115.207726,25.2042,CSO
57083110000000.0,3.146200656890869,4.898165702819824,8.985623359680176,0.18644152581691742,-0.3319411873817444,-1.0827586999999999,0.08399397,95.617935,-115.169876,25.16659,CSO
57083114000000.0,3.1512012481689453,4.816355228424072,9.017355918884277,0.19937032461166382,-0.3285263478755951,-1.0913107,0.08735373,95.805626,-115.11493,25.112238,CSO
57083123000000.0,3.156203508377075,4.733590126037598,9.043853759765625,0.19667859375476837,-0.32887452840805054,-1.1087204,0.0693332,95.991264,-115.06483500000002,25.062939,CSO
57083127000000.0,3.1612024307250977,4.652426242828369,9.06617259979248,0.173103466629982,-0.3324759006500244,-1.1050552,0.0720821,96.1928,-115.010544,25.009245,CSO
57083130000000.0,3.1662027835845947,4.574149131774902,9.084904670715332,0.12560570240020752,-0.3379688262939453,-1.026559,0.08399397,96.3701,-114.95708,24.956415,CSO
57083135000000.0,3.171203374862671,4.498789310455322,9.098799705505371,0.0655137449502945,-0.34199705719947815,-0.9166033000000001,0.09987647,96.565895,-114.90316000000001,24.90261,CSO
57083140000000.0,3.176203966140747,4.4263763427734375,9.106607437133789,0.003812608541920781,-0.34387362003326416,-0.83108217,0.10598512,96.738495,-114.85247,24.852104,CSO
57083148000000.0,3.181204319000244,4.35663366317749,9.105533599853516,-0.05157317593693733,-0.3440224230289459,-0.79626286,0.10018189999999999,96.93267,-114.80221599999999,24.801346,CSO
57083150000000.0,3.1862049102783203,4.289329528808594,9.093780517578125,-0.09531616419553757,-0.34367498755455017,-0.78954333,0.074830994,97.10329,-114.74953000000001,24.748007,CSO
57083156000000.0,3.19122052192688,4.221031665802002,9.07542896270752,-0.1261448711156845,-0.34385067224502563,-0.79259765,0.018020526000000002,97.26486,-114.69018,24.687582,CSO
57083160000000.0,3.1962201595306396,4.150411128997803,9.054000854492188,-0.14507520198822021,-0.34504246711730957,-0.7806858,-0.0076358155,97.414825,-114.63383999999999,24.62998,CSO
57083165000000.0,3.2012195587158203,4.078796863555908,9.03242015838623,-0.14994758367538452,-0.3475543260574341,-0.7855727,-0.06994407,97.59952,-114.54997,24.545189,CSO
57083173000000.0,3.206221580505371,4.007404804229736,9.013015747070312,-0.13966946303844452,-0.35025784373283386,-0.8197812,-0.11911872,97.7841,-114.464775,24.458944,CSO
57083177000000.0,3.21122145652771,3.9378502368927,8.995794296264648,-0.1210000291466713,-0.3546403646469116,-0.8723155999999999,-0.17501289,97.975334,-114.349304,24.343548000000002,CSO
57083180000000.0,3.2162210941314697,3.8712422847747803,8.980757713317871,-0.09876548498868942,-0.36041706800460815,-0.9428705,-0.2302962,98.177086,-114.22381599999999,24.218020000000003,CSO
57083186000000.0,3.2212209701538086,3.8112142086029053,8.966964721679688,-0.07442343235015869,-0.36665093898773193,-1.0173961,-0.28496864,98.39954,-114.0745,24.069763000000002,CSO
57083190000000.0,3.2262210845947266,3.7605738639831543,8.953659057617188,-0.0491507351398468,-0.3716736137866974,-1.0858128999999999,-0.3359759,98.63548,-113.91608400000001,23.912164999999998,CSO
57083200000000.0,3.2312204837799072,3.7227396965026855,8.94117259979248,-0.0245516374707222,-0.375826358795166,-1.1301007,-0.39003745,98.89621,-113.73798000000001,23.735044,CSO
57083202000000.0,3.2362191677093506,3.7012481689453125,8.929845809936523,-0.002251520985737443,-0.37988799810409546,-1.151481,-0.42546764,99.16317,-113.55736,23.55519,CSO
57083207000000.0,3.2412190437316895,3.6966872215270996,8.918865203857422,0.015881942585110664,-0.384335458278656,-1.1508701000000001,-0.4538729,99.44351,-113.37501999999999,23.373552,CSO
57083210000000.0,3.2462170124053955,3.7098097801208496,8.907187461853027,0.02740650251507759,-0.389978289604187,-1.1267409,-0.47158796,99.71458,-113.192825,23.191983999999998,CSO
57083215000000.0,3.251216173171997,3.740463972091675,8.895299911499023,0.034914787858724594,-0.3956785202026367,-1.0855075,-0.49663344,99.98631999999999,-113.02355,23.023144,CSO
57083220000000.0,3.2562179565429688,3.788581371307373,8.883797645568848,0.041526909917593,-0.40131911635398865,-1.0800097,-0.5015204000000001,100.25356,-112.86178600000001,22.861675,CSO
