timestamp,rel_time,acc_x,acc_y,acc_z,gyro_x,gyro_y,gyro_z,azimuth,pitch,roll,label
0.0,0.0,0.0,0.0,0.0,0.0,0.7480045,0.03145956,295.99377000000004,-83.87473,5.790709,SIT
13897808000.0,1.5083748621691484e-05,-0.007258064579218626,0.020062150433659554,0.019617091864347458,-0.003500751219689846,0.75961095,0.03359759,296.02283,-83.88237,5.790982700000001,SIT
41486600000.0,7.347544305957854e-05,-0.02164732851088047,0.059875182807445526,0.058625053614377975,-0.01055928599089384,0.76052725,0.035430185,295.65722999999997,-83.7839,5.480591,SIT
82360160000.0,0.00020431917801033705,-0.04301033169031143,0.11899402737617493,0.11641635745763779,-0.021011266857385635,0.743423,0.034208454,295.29535,-83.536674,5.1741676,SIT
135927276000.0,0.0004343269974924624,-0.07104276865720749,0.19673199951648712,0.1922263205051422,-0.03458370268344879,0.7370089,0.032375857,294.90857,-83.171646,4.8588705,SIT
201432220000.0,0.0007878282340243459,-0.10525240749120712,0.2924942970275879,0.2853509783744812,-0.05084816738963127,0.77518797,0.03359759,294.5161,-82.70444499999999,4.548779,SIT
277979960000.0,0.0012884719762951136,-0.14516451954841614,0.40506163239479065,0.3945613503456116,-0.07062764465808868,0.75991637,0.03756821,294.11435,-82.16096,4.229754,SIT
364564380000.0,0.0019536397885531187,-0.19030974805355072,0.5324668884277344,0.5180909633636475,-0.09272205829620361,0.7348709,0.032986722999999996,293.70758,-81.57625,3.9150727,SIT
460098630000.0,0.0027981791645288467,-0.24012136459350586,0.6731292009353638,0.6543890237808228,-0.11668455600738525,0.72326446,0.034513887,293.26993,-80.94884,3.592878,SIT
563445100000.0,0.003835973795503378,-0.2946527898311615,0.8261424899101257,0.8017402291297913,-0.14168666303157806,0.752586,0.03634648,292.83112,-80.29720999999999,3.2772758,SIT
673444300000.0,0.0050747087225317955,-0.35354211926460266,0.9900953769683838,0.9584556221961975,-0.16935144364833832,0.75686204,0.044898596,292.40518,-79.60622,2.9737837000000003,SIT
788941640000.0,0.006521461997181177,-0.4163307547569275,1.1624959707260132,1.1232577562332153,-0.19957983493804932,0.77366084,0.052839845,291.9209,-78.93337,2.6562639999999997,SIT
908810260000.0,0.008177248761057854,-0.48251962661743164,1.3412750959396362,1.2947359085083008,-0.23202472925186157,0.7602218000000001,0.054061572999999995,291.44788,-78.239716,2.3508492000000003,SIT
1031971100000.0,0.01004362478852272,-0.5513849854469299,1.5248123407363892,1.470257043838501,-0.26532042026519775,0.7470882,0.057726767000000005,290.91547,-77.5685,2.0269432000000003,SIT
1157408100000.0,0.012118492275476456,-0.6223112940788269,1.7115837335586548,1.6477606296539307,-0.29899823665618896,0.73975784,0.06383542,290.3904,-76.88363000000001,1.7170131000000002,SIT
1284180000000.0,0.01439812034368515,-0.6944395899772644,1.8998918533325195,1.8264943361282349,-0.33318978548049927,0.7199047,0.07422013,289.79507,-76.22891,1.3926436000000002,SIT
1411428300000.0,0.01687704585492611,-0.7670115232467651,2.0882160663604736,2.0057265758514404,-0.3675212860107422,0.70066243,0.090713486,289.20905,-75.57405,1.0873084,SIT
1538381200000.0,0.019543873146176338,-0.8396976590156555,2.275538206100464,2.1847317218780518,-0.40203672647476196,0.66950834,0.10140363,288.61053,-74.93568,0.78271276,SIT
1664355700000.0,0.02239198051393032,-0.9122471809387207,2.4609925746917725,2.362992525100708,-0.435394823551178,0.61178154,0.10720685,288.03094,-74.30518000000001,0.49629449999999997,SIT
1788756200000.0,0.025412358343601227,-0.9842902421951294,2.6430160999298096,2.5390312671661377,-0.46552038192749023,0.5354234,0.112704635,287.44122000000004,-73.69959,0.21800481,SIT
1911072100000.0,0.02859889715909958,-1.05552077293396,2.8204092979431152,2.7117247581481934,-0.4905525743961334,0.4709771,0.10995574,286.87012000000004,-73.11336,-0.048531912,SIT
2030872700000.0,0.031948819756507874,-1.1255974769592285,2.9930360317230225,2.8806817531585693,-0.5091309547424316,0.398895,0.10720685,286.3028,-72.56415600000001,-0.30394655,SIT
2147802500000.0,0.03542981296777725,-1.1942039728164673,3.160898208618164,3.0455896854400635,-0.5213930010795593,0.34300083,0.10354166,285.75403,-72.04651,-0.5493008,SIT
2261574700000.0,0.039044495671987534,-1.2610496282577515,3.323115825653076,3.205686092376709,-0.5280811786651611,0.30879238,0.08093964,285.2022,-71.57412,-0.7959185000000001,SIT
2371965000000.0,0.04283914342522621,-1.3259080648422241,3.478729248046875,3.3602592945098877,-0.5317855477333069,0.0842994,0.050396382999999996,284.72317999999996,-71.124664,-1.0172291,SIT
2478804300000.0,0.046689651906490326,-1.3883867263793945,3.6285645961761475,3.5095574855804443,-0.514382541179657,-0.021380282999999996,0.020463986,284.1984,-70.82989,-1.2540219,SIT
2581974000000.0,0.05065060406923294,-1.4480115175247192,3.772545337677002,3.6534910202026367,-0.4871114492416382,0.0027488936,0.021380282999999996,283.70328,-70.48838,-1.4767289,SIT
2681397800000.0,0.05470620095729828,-1.5046695470809937,3.910822868347168,3.7919673919677734,-0.46318385004997253,0.01863139,0.01985312,283.21375,-70.20721999999999,-1.7065667000000002,SIT
2777037400000.0,0.058848027139902115,-1.5582419633865356,4.043604850769043,3.924940586090088,-0.4412669837474823,0.008857545999999999,0.021685716,282.73004,-69.99425500000001,-1.9290289,SIT
2868886000000.0,0.06307097524404526,-1.608981728553772,4.171103000640869,4.053144931793213,-0.41919854283332825,0.0015271631,0.014966198,282.2668,-69.76907,-2.149307,SIT
2956965000000.0,0.06737062335014343,-1.6571869850158691,4.293592929840088,4.177441596984863,-0.39782413840293884,0.010079277,0.01282817,281.80502,-69.53235,-2.3643055,SIT
3041316800000.0,0.07173529267311096,-1.7026276588439941,4.411218643188477,4.29734468460083,-0.3779335916042328,0.0070249503,0.014966198,281.40417,-69.274956,-2.570389,SIT
3122004000000.0,0.07616223394870758,-1.7448322772979736,4.524238109588623,4.4120378494262695,-0.35872307419776917,0.0070249503,0.015271631,281.0026,-69.02372,-2.7760434,SIT
3199103400000.0,0.0806468278169632,-1.784631609916687,4.633061408996582,4.521812915802002,-0.3401505649089813,-0.00061086525,0.009773844,280.656,-68.744736,-2.9740159999999998,SIT
3272704300000.0,0.0852096900343895,-1.8230794668197632,4.73831033706665,4.627060890197754,-0.3222966492176056,0.0018325957999999999,0.015271631,280.3066,-68.46862,-3.1684810000000003,SIT
3342905000000.0,0.08979106694459915,-1.8600319623947144,4.839692115783691,4.72772741317749,-0.3052363395690918,0.008246681,0.01282817,279.95367000000005,-68.19848,-3.3608413,SIT
3409811600000.0,0.09441960602998734,-1.8944932222366333,4.936063289642334,4.822912693023682,-0.2886945903301239,0.00580322,0.016493361,279.6024,-67.93294499999999,-3.5476446000000004,SIT
3473534000000.0,0.09908046573400497,-1.9265542030334473,5.02768611907959,4.912807464599609,-0.27328625321388245,0.00061086525,0.02107485,279.24985,-67.66715,-3.7345839,SIT
3534186600000.0,0.10377407819032669,-1.9559822082519531,5.115547180175781,4.997282981872559,-0.2589992880821228,0.010995574,0.012217305,278.8961,-67.4044,-3.9234216,SIT
3591885000000.0,0.10849697887897491,-1.9828858375549316,5.1997833251953125,5.076552867889404,-0.2449488639831543,0.0125227375,0.019547688,278.54517000000004,-67.14988000000001,-4.1017528,SIT
3646745700000.0,0.11325065046548843,-2.0078766345977783,5.279997825622559,5.1517205238342285,-0.23073168098926544,0.015271631,0.022602014,278.19385,-66.89705,-4.282639499999999,SIT
3698885100000.0,0.1180262342095375,-2.0311644077301025,5.3562331199646,5.223159313201904,-0.21725167334079742,0.016798794,0.017104227,277.8438,-66.6441,-4.4616537,SIT
3748418300000.0,0.12282693386077881,-2.052417516708374,5.4281158447265625,5.291568279266357,-0.20446151494979858,0.027794369,0.028099801,277.49252,-66.40459,-4.629997,SIT
3795458500000.0,0.1276511251926422,-2.071545362472534,5.495588302612305,5.357325553894043,-0.1925710290670395,0.024129177,0.023518313,277.14838,-66.164665,-4.800218599999999,SIT
3840116800000.0,0.13249149918556213,-2.08910870552063,5.559842109680176,5.42047643661499,-0.18091414868831635,0.011301007,0.02076942,276.8103,-65.92917,-4.961538,SIT
3882501500000.0,0.13734778761863708,-2.105302333831787,5.621300220489502,5.4811248779296875,-0.1698186695575714,0.018936822,0.019547688,276.46936,-65.69272600000001,-5.123486499999999,SIT
3922718000000.0,0.14222611486911774,-2.1201975345611572,5.680391788482666,5.539529800415039,-0.15895332396030426,0.022602014,0.01740966,276.13482999999997,-65.45857,-5.2787866999999995,SIT
3960868700000.0,0.14711102843284607,-2.133889675140381,5.7373223304748535,5.595808982849121,-0.14853359758853912,0.028405233999999998,0.018020526000000002,275.79883,-65.22599,-5.4327602,SIT
3997051700000.0,0.15205085277557373,-2.1466119289398193,5.79146671295166,5.649837970733643,-0.13887691497802734,0.034208454,0.017104227,275.47205,-64.99077,-5.5845400000000005,SIT
4031362000000.0,0.15695300698280334,-2.1586756706237793,5.8422675132751465,5.701251029968262,-0.13005876541137695,0.035430185,0.015882496,275.14606000000003,-64.758255,-5.7343297,SIT
4063891600000.0,0.1618671715259552,-2.170228958129883,5.889808654785156,5.7501020431518555,-0.12160155922174454,0.029626964,0.017715093,274.82086,-64.52866999999999,-5.878014599999999,SIT
4094727800000.0,0.16678966581821442,-2.1824049949645996,5.934629917144775,5.795430660247803,-0.11334224790334702,0.029626964,0.022296581,274.49484,-64.30099,-6.020074,SIT
4123955000000.0,0.17173640429973602,-2.1951751708984375,5.976855278015137,5.837455749511719,-0.10522288829088211,0.030848695,0.018936822,274.17017000000004,-64.07548,-6.1592107,SIT
4151654000000.0,0.17667433619499207,-2.2076563835144043,6.0166826248168945,5.877472400665283,-0.09757673740386963,0.03268129,0.024740042,273.8449,-63.853145999999995,-6.292814,SIT
4177901400000.0,0.1816161721944809,-2.219882011413574,6.054224014282227,5.915591239929199,-0.09070369601249695,0.02321288,0.021380282999999996,273.51505,-63.63888000000001,-6.429056,SIT
4202771300000.0,0.18657810986042023,-2.2323641777038574,6.089925289154053,5.951809883117676,-0.08372164517641068,0.032070424,0.03390302,273.1787,-63.432743,-6.5600314,SIT
4226333800000.0,0.19154959917068481,-2.245479106903076,6.124178886413574,5.986124515533447,-0.0774470865726471,0.025350908,0.029932396,272.8529,-63.221436,-6.690892,SIT
4248656000000.0,0.19651006162166595,-2.258967876434326,6.157007694244385,6.018680572509766,-0.07143804430961609,0.027794369,0.03573562,272.52283,-63.01635,-6.818137599999999,SIT
4269801500000.0,0.20147722959518433,-2.2717456817626953,6.1883416175842285,6.049992084503174,-0.06564846634864807,0.027794369,0.02321288,272.19952,-62.810413,-6.9478602,SIT
4289831400000.0,0.20644204318523407,-2.283849000930786,6.218250274658203,6.080107688903809,-0.06065129488706589,0.026572637000000003,0.03481932,271.87384,-62.60568000000001,-7.0748878,SIT
4308803300000.0,0.21141518652439117,-2.2959909439086914,6.247503280639648,6.1084465980529785,-0.055739570409059525,0.022296581,0.029932396,271.55438,-62.40506,-7.206644,SIT
4326772200000.0,0.21638627350330353,-2.3082056045532227,6.276162624359131,6.135048866271973,-0.05099015310406685,0.025961772999999997,0.032986722999999996,271.2324,-62.20536,-7.3320765,SIT
4343790300000.0,0.2213916927576065,-2.3199081420898438,6.304073810577393,6.159608840942383,-0.04655705764889717,0.021685716,0.032375857,270.90887000000004,-62.009693000000006,-7.452435,SIT
4359907400000.0,0.22636711597442627,-2.33099102973938,6.3310651779174805,6.182310104370117,-0.04208257049322128,0.014355333500000001,0.027794369,270.58716,-61.81844,-7.5710163,SIT
4375170800000.0,0.23134969174861908,-2.342029094696045,6.357006072998047,6.2031025886535645,-0.03797520324587822,0.02443461,0.03176499,270.25818,-61.63095,-7.691407000000001,SIT
4389625000000.0,0.236332505941391,-2.353778123855591,6.3815717697143555,6.222014427185059,-0.03450817987322807,0.02687807,0.029932396,269.9364,-61.44465,-7.810327,SIT
4403312500000.0,0.2413315773010254,-2.365354061126709,6.404963493347168,6.239238739013672,-0.031062552705407143,0.028405233999999998,0.024740042,269.6202,-61.264480000000006,-7.928785,SIT
4416274000000.0,0.24631711840629578,-2.3758366107940674,6.4273529052734375,6.255069732666016,-0.02788110077381134,0.02687807,0.024740042,269.30566,-61.083263,-8.044242,SIT
4428547500000.0,0.2513010501861572,-2.3854806423187256,6.449115753173828,6.269947052001953,-0.0249173641204834,0.022907447,0.024129177,268.98737,-60.90870699999999,-8.162241999999999,SIT
4440169000000.0,0.2562853693962097,-2.3946125507354736,6.470694541931152,6.284422874450684,-0.022403758019208908,0.01740966,0.024129177,268.67175,-60.73444,-8.277574000000001,SIT
4451173000000.0,0.2612709701061249,-2.403259038925171,6.492102146148682,6.298519611358643,-0.020007459446787834,0.03023783,0.02076942,268.3662,-60.56045,-8.398143,SIT
4461593000000.0,0.26626303791999817,-2.4118850231170654,6.512113094329834,6.312378406524658,-0.018340306356549263,0.029626964,0.017715093,268.06726000000003,-60.383883999999995,-8.514052000000001,SIT
4471459000000.0,0.2712484300136566,-2.4205634593963623,6.530549049377441,6.3260111808776855,-0.01622503437101841,0.022296581,0.014049901000000002,267.7691,-60.214969999999994,-8.6297245,SIT
4480800700000.0,0.2762382924556732,-2.428218364715576,6.5479350090026855,6.338146209716797,-0.014466256834566593,0.019547688,0.017104227,267.4658,-60.04447,-8.740608,SIT
4489645400000.0,0.28123778104782104,-2.4347238540649414,6.564395904541016,6.34864616394043,-0.012833570130169392,0.016187929,0.025350908,267.16617,-59.879936,-8.848061,SIT
4498020000000.0,0.2862285375595093,-2.4405791759490967,6.5795369148254395,6.358527660369873,-0.011369092389941216,0.01740966,0.02107485,266.8671,-59.713280000000005,-8.955603,SIT
4505949000000.0,0.2912451922893524,-2.445906400680542,6.593222618103027,6.368099689483643,-0.009787308052182198,0.025350908,0.004886922,266.56967000000003,-59.549459999999996,-9.062773,SIT
4513456500000.0,0.29623350501060486,-2.450679302215576,6.60553503036499,6.377307891845703,-0.008322249166667461,0.020158553,0.007941248,266.2777,-59.39066999999999,-9.158936,SIT
4520565000000.0,0.3012290596961975,-2.4543955326080322,6.615854263305664,6.386025905609131,-0.0069839865900576115,0.022602014,0.0076358155,265.98642,-59.23293,-9.2604475,SIT
4527294500000.0,0.3062191307544708,-2.457353115081787,6.624660968780518,6.394279956817627,-0.005391530692577362,0.025350908,0.007330383,265.69827000000004,-59.076733,-9.358719,SIT
4533666000000.0,0.3112126886844635,-2.4603562355041504,6.633202075958252,6.40209436416626,-0.0036397730000317097,0.02321288,0.010690141499999998,265.41222999999997,-58.92203000000001,-9.454169,SIT
4539699000000.0,0.3162139356136322,-2.4634058475494385,6.6414947509765625,6.4094929695129395,-0.0021277465857565403,0.020158553,0.00030543262000000003,265.13135,-58.76484,-9.551304,SIT
4545411300000.0,0.3212068974971771,-2.463902473449707,6.649116516113281,6.40252161026001,-0.00027313013561069965,0.016187929,0.006414085,264.85034,-58.615402,-9.641553,SIT
4550819300000.0,0.32620519399642944,-2.460681200027466,6.655898094177246,6.374858379364014,0.0012711582239717245,0.02107485,0.0033597588,264.5727,-58.462006,-9.73594,SIT
4555939500000.0,0.33119678497314453,-2.456207036972046,6.662228584289551,6.351609230041504,0.0028471173718571663,0.0070249503,0.0030543262,264.30557000000005,-58.313324,-9.827044500000001,SIT
4560787000000.0,0.3361916244029999,-2.4560420513153076,6.668984889984131,6.393462181091309,0.004404234234243631,0.011301007,0.010995574,264.0338,-58.1656,-9.918644,SIT
4565376700000.0,0.3411896228790283,-2.4598639011383057,6.675373554229736,6.468552112579346,0.005666837561875582,0.016187929,0.016187929,263.73706,-58.108143000000005,-9.997152,SIT
4569722500000.0,0.34618860483169556,-2.4671759605407715,6.6793107986450195,6.497428894042969,0.0062600066885352135,0.009468411,0.020158553,263.44434,-58.04908399999999,-10.071928999999999,SIT
4573837000000.0,0.3511808216571808,-2.476133108139038,6.682056903839111,6.50244140625,0.006919228471815586,0.011911871999999999,0.010995574,263.21664,-57.771225,-10.152445,SIT
4577732600000.0,0.3561752438545227,-2.4832284450531006,6.686041355133057,6.526051998138428,0.007885117083787918,0.007941248,0.016187929,262.99124,-57.499325,-10.225083999999999,SIT
4581421000000.0,0.3611719310283661,-2.488560199737549,6.69119930267334,6.567285060882568,0.00868561677634716,0.0061086523,0.018936822,262.7248,-57.359215,-10.323822999999999,SIT
4584912700000.0,0.3661915063858032,-2.4941229820251465,6.696386814117432,6.602169990539551,0.009052847512066364,0.0015271631,0.020463986,262.4616,-57.22126,-10.419044,SIT
4588219000000.0,0.3711891770362854,-2.5023446083068848,6.700066566467285,6.6009650230407715,0.009107544086873531,0.009773844,0.022602014,262.1974,-57.08497,-10.513561,SIT
4591349000000.0,0.37618526816368103,-2.510187864303589,6.702892780303955,6.573663234710693,0.009110498242080212,-0.002443461,0.026267206,261.97402999999997,-56.861885,-10.589628,SIT
4594312700000.0,0.38118496537208557,-2.513721227645874,6.705745220184326,6.534725189208984,0.009194675832986832,0.008857545999999999,0.01740966,261.74597,-56.64123000000001,-10.671646,SIT
4597118700000.0,0.3861936628818512,-2.5130937099456787,6.7086262702941895,6.484499454498291,0.008916287682950497,0.0015271631,0.02565634,261.47836,-56.53805500000001,-10.762647,SIT
4599776000000.0,0.39120838046073914,-2.512336015701294,6.710885524749756,6.460460186004639,0.00840858556330204,0.0070249503,0.020463986,261.21082,-56.43428,-10.861180000000001,SIT
4602291300000.0,0.3962073028087616,-2.5139997005462646,6.712158679962158,6.484023094177246,0.008172085508704185,0.00030543262000000003,0.01863139,260.9489,-56.332874,-10.952511999999999,SIT
4604673000000.0,0.401199609041214,-2.517186403274536,6.712605953216553,6.535977840423584,0.00807840097695589,-0.007330383,0.016798794,260.6693,-56.298126,-11.031462,SIT
4606928000000.0,0.40625298023223877,-2.519663095474243,6.712489604949951,6.567337989807129,0.007615343201905489,0.0067195175,0.023823743999999997,260.38855,-56.261814,-11.109932,SIT
4609063500000.0,0.41126370429992676,-2.5216023921966553,6.712024688720703,6.584409713745117,0.0077792019583284855,0.0012217305,0.008552114,260.18777,-56.040535,-11.184403999999999,SIT
4611085000000.0,0.4162655770778656,-2.5223379135131836,6.711584568023682,6.580764293670654,0.007657622918486595,-0.0061086523,0.01038471,259.98163,-55.819644999999994,-11.253664,SIT
4612999300000.0,0.4212541878223419,-2.5219545364379883,6.711167812347412,6.557878017425537,0.007005384657531977,-0.011911871999999999,0.010690141499999998,259.76465,-55.65623000000001,-11.329259,SIT
4614812000000.0,0.42624610662460327,-2.5206079483032227,6.710938930511475,6.531266212463379,0.006811103783547878,-0.011911871999999999,0.016493361,259.65608656642104,-55.57742043019321,-11.366237350926099,SIT
4616528000000.0,0.4312380254268646,-2.5184237957000732,6.710949420928955,6.507209300994873,0.006708560977131128,-0.010995574,0.01282817,259.54877,-55.499516,-11.402791,SIT
4618152600000.0,0.43623098731040955,-2.5152010917663574,6.711534023284912,6.481707572937012,0.006611482705920935,-0.0076358155,0.016798794,259.33484,-55.340252,-11.474254,SIT
4619691400000.0,0.4412376582622528,-2.510672092437744,6.713072776794434,6.45042085647583,0.0065846857614815235,-0.009162978,0.007330383,259.1021,-55.259969999999996,-11.549627000000001,SIT
4621148400000.0,0.44623076915740967,-2.5052597522735596,6.715505599975586,6.417136192321777,0.006412823218852282,-0.010079277,0.009773844,258.8719,-55.177246,-11.617649,SIT
4622528000000.0,0.451224148273468,-2.4994113445281982,6.719016075134277,6.38779878616333,0.00626639649271965,-0.015271631,0.007941248,258.6474,-55.094784,-11.687172,SIT
4623834300000.0,0.4562174379825592,-2.493381977081299,6.723482608795166,6.361371040344238,0.00630682148039341,-0.004886922,0.012217305,258.41033999999996,-55.042305000000006,-11.750802,SIT
4625071000000.0,0.46121564507484436,-2.488126754760742,6.728616714477539,6.334313869476318,0.006572972517460585,-0.013744468000000001,0.0061086523,258.1838,-54.988777,-11.812828,SIT
4626242300000.0,0.46621090173721313,-2.4835917949676514,6.734357833862305,6.306717872619629,0.006824939977377653,-0.008246681,0.01160644,257.95617999999996,-54.931835,-11.870322999999999,SIT
4627351700000.0,0.47120562195777893,-2.479520320892334,6.740418434143066,6.284052848815918,0.007030925247818232,-0.016187929,0.014966198,257.73773,-54.87505,-11.925636,SIT
4628402000000.0,0.47625216841697693,-2.475905179977417,6.7468743324279785,6.267383098602295,0.007209656294435263,-0.010690141499999998,0.021685716,257.51566,-54.819283,-11.981160000000001,SIT
4629396500000.0,0.48124468326568604,-2.4723916053771973,6.7529826164245605,6.254823684692383,0.007330030668526888,-0.016798794,0.018325957,257.2952,-54.772693999999994,-12.039093,SIT
4630338000000.0,0.4862404465675354,-2.4685630798339844,6.758012294769287,6.246950626373291,0.007020781747996807,-0.016187929,0.0076358155,257.07455,-54.72385,-12.098407,SIT
4631230000000.0,0.4912380278110504,-2.4646735191345215,6.762486457824707,6.244624614715576,0.006597795058041811,-0.014049901000000002,0.007941248,256.8612,-54.661903,-12.154538,SIT
4632074500000.0,0.4962332248687744,-2.461214780807495,6.767393112182617,6.2497992515563965,0.0058718048967421055,-0.018325957,0.008857545999999999,256.6532,-54.596115000000005,-12.21142,SIT
4632874600000.0,0.5012364387512207,-2.4581897258758545,6.772642612457275,6.261868953704834,0.005526327062398195,-0.01038471,0.005497787,256.45148,-54.51797,-12.266955000000001,SIT
4633632000000.0,0.5062302350997925,-2.455742835998535,6.777195453643799,6.274755001068115,0.0046783871948719025,-0.01985312,0.00580322,256.25622999999996,-54.435109999999995,-12.317343,SIT
4634350000000.0,0.5112231373786926,-2.4538564682006836,6.781075477600098,6.288459300994873,0.003957022447139025,-0.01282817,0.007330383,256.06625,-54.331996999999994,-12.368623,SIT
4635029400000.0,0.5162220001220703,-2.4522085189819336,6.78381872177124,6.302391052246094,0.003729865187779069,-0.009468411,0.005497787,255.8815,-54.229293999999996,-12.417935,SIT
4635672700000.0,0.5212149024009705,-2.450648307800293,6.785313129425049,6.316242218017578,0.0029451081063598394,-0.008552114,0.0030543262,255.69702,-54.123385999999996,-12.467152,SIT
4636282500000.0,0.5262126326560974,-2.449557065963745,6.785916805267334,6.330597877502441,0.0023161135613918304,-0.008246681,0.01038471,255.51517,-54.017723,-12.513943,SIT
4636859700000.0,0.5312110781669617,-2.4494130611419678,6.786132335662842,6.346144199371338,0.002111295238137245,-0.0030543262,0.0009162978999999999,255.33646000000002,-53.91011999999999,-12.565543,SIT
4637406500000.0,0.5362072587013245,-2.4501559734344482,6.785984992980957,6.362796783447266,0.002226661192253232,-0.004276057,0.01038471,255.15285,-53.803180000000005,-12.608609,SIT
4637924500000.0,0.5412158966064453,-2.4512569904327393,6.78525447845459,6.382602691650391,0.0022870469838380814,-0.011911871999999999,0.01038471,254.9742,-53.695896,-12.655292999999999,SIT
4638415000000.0,0.5462101697921753,-2.4522993564605713,6.783878326416016,6.406372547149658,0.002213996136561036,-0.024740042,0.0009162978999999999,254.79861,-53.591159999999995,-12.700328,SIT
4638880000000.0,0.5512087941169739,-2.4535939693450928,6.782160758972168,6.432944297790527,0.001916955690830946,-0.019242255,0.00061086525,254.62532000000002,-53.475834,-12.750583,SIT
4639320000000.0,0.5562036633491516,-2.455507755279541,6.780534744262695,6.460394382476807,0.0014892492908984423,-0.02443461,-0.0061086523,254.46164,-53.360330000000005,-12.800032,SIT
4639737000000.0,0.561201274394989,-2.457854747772217,6.778894901275635,6.487663745880127,0.0013447738019749522,-0.026572637000000003,-0.00030543262000000003,254.30386000000001,-53.22854,-12.846969,SIT
4640132300000.0,0.5661962628364563,-2.4600765705108643,6.776934623718262,6.511438846588135,0.0010452244896441698,-0.032070424,0.004276057,254.15059,-53.095319999999994,-12.893666,SIT
4640506600000.0,0.5711925029754639,-2.4621801376342773,6.774664878845215,6.531877040863037,0.0007616389193572104,-0.027794369,0.0030543262,253.9978,-52.958153,-12.942007,SIT
4640861000000.0,0.5761888027191162,-2.4653172492980957,6.772035598754883,6.548634052276611,0.0004117796488571912,-0.029626964,-0.009468411,253.85003999999998,-52.82139,-12.989397,SIT
4641197000000.0,0.5811836123466492,-2.469783306121826,6.769047737121582,6.561755180358887,0.0003247254353482276,-0.023823743999999997,0.002443461,253.69655,-52.691013,-13.032678,SIT
4641515400000.0,0.5861896872520447,-2.4748520851135254,6.766078948974609,6.573826789855957,0.0008445722050964832,-0.023518313,0.002443461,253.625251777031,-52.625337030638505,-13.0592014328919,SIT
4641817000000.0,0.591190755367279,-2.4801926612854004,6.76326847076416,6.58579683303833,0.0011251094983890653,-0.027183502999999998,-0.01038471,253.55798,-52.56336999999999,-13.084227,SIT
4642102600000.0,0.5962105393409729,-2.4858274459838867,6.760607719421387,6.597697734832764,0.0008698211750015616,-0.021380282999999996,-0.004886922,253.41168,-52.437675,-13.130503,SIT
4642373600000.0,0.6012056469917297,-2.491391181945801,6.7580885887146,6.608964443206787,0.0005793058662675321,-0.019242255,-0.0027488936,253.26215,-52.324253000000006,-13.181279,SIT
4642630500000.0,0.6061984896659851,-2.4969077110290527,6.755703926086426,6.619630813598633,0.0006623744848184288,-0.016798794,0.0012217305,253.1069,-52.211197,-13.233178,SIT
4642874000000.0,0.6111981272697449,-2.5019404888153076,6.753869533538818,6.628035545349121,0.001034008339047432,-0.008246681,-0.002443461,252.95181000000002,-52.09872,-13.2869835,SIT
4643104500000.0,0.6162136793136597,-2.5064659118652344,6.75261116027832,6.6340789794921875,0.0015811650082468987,-0.0018325957999999999,0.004276057,252.79543999999999,-51.990734,-13.336773999999998,SIT
4643323000000.0,0.6212127208709717,-2.510690450668335,6.7521538734436035,6.634253978729248,0.0021642716601490974,0.00030543262000000003,0.004886922,252.64072000000002,-51.88387,-13.390867000000002,SIT
4643530000000.0,0.6262104511260986,-2.5146899223327637,6.752623558044434,6.6269731521606445,0.002520974725484848,0.004886922,0.00061086525,252.4849,-51.778416,-13.445214000000002,SIT
4643727000000.0,0.6313145160675049,-2.5178892612457275,6.753592491149902,6.614580154418945,0.002761004026979208,-0.004276057,-0.0012217305,252.32422000000003,-51.685368,-13.490770000000001,SIT
4643913000000.0,0.6363077759742737,-2.5204851627349854,6.754509449005127,6.601982116699219,0.002792913233861327,0.0021380284,0.005497787,252.15952000000001,-51.59252,-13.53805,SIT
4644089600000.0,0.6416212320327759,-2.521291732788086,6.755377769470215,6.586677074432373,0.0025626844726502895,0.017715093,0.006414085,251.99196,-51.525673,-13.590229999999998,SIT
4644257000000.0,0.646696925163269,-2.5217134952545166,6.756199836730957,6.571286678314209,0.00234472518786788,0.017715093,0.006414085,251.82755,-51.460243,-13.638863,SIT
4644415700000.0,0.6516684889793396,-2.520860195159912,6.7569780349731445,6.553414344787598,0.002138381591066718,0.014966198,0.005192355,251.766572482877,-51.436914679794505,-13.6574078938356,SIT
4644566000000.0,0.6566444635391235,-2.518024444580078,6.757714748382568,6.531148433685303,0.001682596979662776,0.008857545999999999,-0.00030543262000000003,251.66786000000002,-51.39915,-13.687429000000002,SIT
4644709000000.0,0.6616194844245911,-2.5133633613586426,6.758427143096924,6.505102157592773,0.0013324891915544868,0.010690141499999998,-0.0070249503,251.50753999999998,-51.340134,-13.737185,SIT
4644844000000.0,0.6666120886802673,-2.507052421569824,6.759372711181641,6.4799017906188965,0.001001039519906044,0.010995574,-0.014660766,251.425641296186,-51.3075673700834,-13.763110105035802,SIT
4644972500000.0,0.6715924739837646,-2.4994654655456543,6.76045036315918,6.455678939819336,0.0005244803032837808,0.013133603,-0.013439035,251.35211,-51.278328,-13.786386499999999,SIT
4645094700000.0,0.6765603423118591,-2.491753339767456,6.760941028594971,6.4338059425354,0.0005290840053930879,0.014660766,-0.024740042,251.19287000000003,-51.244377,-13.829188,SIT
4645210600000.0,0.6815295219421387,-2.4839024543762207,6.7610063552856445,6.413747310638428,0.0007613252382725477,0.0036651915999999997,-0.026572637000000003,251.04192999999998,-51.211304,-13.865042,SIT
4645320000000.0,0.6864991784095764,-2.475951671600342,6.761327266693115,6.39346170425415,0.0008998029516078532,0.00061086525,-0.033292156,250.89359,-51.17707,-13.905782,SIT
4645424500000.0,0.6914700865745544,-2.467913866043091,6.761669158935547,6.373197555541992,0.0010309007484465837,-0.0030543262,-0.03390302,250.75137,-51.14073,-13.945210000000001,SIT
4645523600000.0,0.6964442133903503,-2.4598214626312256,6.761268615722656,6.353771686553955,0.0018386606825515628,-0.0027488936,-0.030848695,250.6112,-51.107124,-13.984987,SIT
4645617400000.0,0.701419472694397,-2.45186185836792,6.760140895843506,6.335428237915039,0.0026847596745938063,0.005192355,-0.027183502999999998,250.46497000000002,-51.077442,-14.020595000000002,SIT
4645706500000.0,0.706394374370575,-2.445573091506958,6.758075714111328,6.320555686950684,0.0032253300305455923,0.0021380284,-0.034513887,250.32467999999997,-51.048386,-14.055832,SIT
4645791000000.0,0.7113731503486633,-2.4408960342407227,6.75516414642334,6.308892250061035,0.0035905959084630013,-0.0015271631,-0.031154128,250.18157999999997,-51.021359999999994,-14.090758,SIT
4645871000000.0,0.716354489326477,-2.4378702640533447,6.752174377441406,6.298785209655762,0.0043433294631540775,0.0070249503,-0.03604105,250.0409,-50.993977,-14.130381,SIT
4645947700000.0,0.721335232257843,-2.436392068862915,6.749112606048584,6.2901411056518555,0.004746677819639444,-0.0018325957999999999,-0.029932396,249.91168,-50.95077,-14.166493,SIT
4646020600000.0,0.7263281941413879,-2.436627149581909,6.747439384460449,6.284788608551025,0.00485181575641036,-0.004581489,-0.017104227,249.78024,-50.910152000000004,-14.204128,SIT
4646090000000.0,0.731344997882843,-2.438581943511963,6.747340202331543,6.282938480377197,0.004511862527579069,0.0021380284,-0.01740966,249.65142999999998,-50.866634000000005,-14.243003,SIT
4646155300000.0,0.7363268733024597,-2.4421164989471436,6.747859954833984,6.283194541931152,0.004613237455487251,0.00061086525,-0.013744468000000001,249.51744,-50.825043,-14.278039000000001,SIT
4646217700000.0,0.7413238286972046,-2.4476287364959717,6.748833656311035,6.285603046417236,0.004758041817694902,0.004581489,-0.009773844,249.3822,-50.779675,-14.314741,SIT
4646277000000.0,0.7463090419769287,-2.4548802375793457,6.750574588775635,6.2896881103515625,0.0052695078775286674,0.0018325957999999999,-0.0027488936,249.24579,-50.73295,-14.350601000000001,SIT
4646333600000.0,0.7512950897216797,-2.463968276977539,6.753612041473389,6.295222759246826,0.005802548490464687,-0.0018325957999999999,0.011911871999999999,249.10825,-50.686485,-14.383853,SIT
4646387000000.0,0.7562801837921143,-2.4748613834381104,6.757214069366455,6.302112579345703,0.006160685792565346,0.002443461,0.012217305,248.9682,-50.634190000000004,-14.4266615,SIT
4646438000000.0,0.761268138885498,-2.487558126449585,6.760862827301025,6.310304164886475,0.006369518116116524,-0.0021380284,0.011301007,248.83053999999998,-50.58405,-14.463731,SIT
4646486700000.0,0.7662553787231445,-2.502025604248047,6.764133930206299,6.321162223815918,0.006306783761829138,-0.0030543262,0.004886922,248.69397,-50.52877,-14.508994,SIT
4646533000000.0,0.7712451219558716,-2.518333673477173,6.7664475440979,6.33666467666626,0.006784545257687569,0.00061086525,0.009162978,248.55733999999998,-50.478333,-14.551333999999999,SIT
4646577000000.0,0.7762411236763,-2.5354509353637695,6.767359733581543,6.356739521026611,0.006732247769832611,-0.016187929,0.0036651915999999997,248.43252999999999,-50.412247,-14.602860999999999,SIT
4646619000000.0,0.7812328934669495,-2.5521867275238037,6.766453742980957,6.381053924560547,0.006796678528189659,-0.020158553,0.008246681,248.30289,-50.35407,-14.652964,SIT
4646658600000.0,0.7862240076065063,-2.568568468093872,6.763803482055664,6.409449577331543,0.006727457046508789,-0.014049901000000002,-0.00030543262000000003,248.18326000000002,-50.27142,-14.712363,SIT
4646697000000.0,0.7912293672561646,-2.583648920059204,6.760286331176758,6.4382452964782715,0.006938639562577009,-0.016187929,0.00030543262000000003,248.06537000000003,-50.193999999999996,-14.765506,SIT
4646733000000.0,0.7962290644645691,-2.5969932079315186,6.756490230560303,6.465273380279541,0.006617692299187183,-0.017715093,-0.0036651915999999997,247.94957999999997,-50.111626,-14.821762,SIT
4646767700000.0,0.8012600541114807,-2.6086862087249756,6.751882076263428,6.490276336669922,0.0063626812770962715,-0.028099801,-0.01038471,247.84782,-50.00447,-14.8767,SIT
4646800700000.0,0.8062485456466675,-2.6191189289093018,6.746457576751709,6.513309478759766,0.006121260579675436,-0.023518313,-0.011301007,247.74347999999998,-49.896595,-14.932552,SIT
4646832000000.0,0.8112379312515259,-2.6286730766296387,6.740609645843506,6.533533573150635,0.006022924557328224,-0.021685716,-0.008857545999999999,247.6449,-49.791509999999995,-14.987329999999998,SIT
4646862600000.0,0.816229522228241,-2.6379618644714355,6.735073566436768,6.549998760223389,0.005962383933365345,-0.025045475,-0.007941248,247.54771000000002,-49.687484999999995,-15.041526000000001,SIT
4646891400000.0,0.8212202191352844,-2.6466729640960693,6.730076789855957,6.563318729400635,0.006393390242010355,-0.03023783,-0.004581489,247.45448,-49.587246,-15.094769,SIT
4646919000000.0,0.8262196183204651,-2.6541497707366943,6.726116180419922,6.57438850402832,0.006654930766671896,-0.025961772999999997,-0.010995574,247.36218,-49.484759999999994,-15.150094000000001,SIT
4646946000000.0,0.8312996625900269,-2.6602976322174072,6.723400592803955,6.5817670822143555,0.006886255461722612,-0.020463986,-0.006414085,247.26822,-49.39567,-15.205629,SIT
4646971000000.0,0.8362914323806763,-2.665654420852661,6.721409320831299,6.5864338874816895,0.007251748349517584,-0.022907447,0.0009162978999999999,247.17657000000003,-49.30769,-15.260252,SIT
4646995000000.0,0.8412984013557434,-2.670011281967163,6.720417022705078,6.5872802734375,0.007483821827918291,-0.014355333500000001,0.0036651915999999997,247.07947000000001,-49.227158,-15.313647,SIT
4647018300000.0,0.8462875485420227,-2.6737396717071533,6.719933032989502,6.585778713226318,0.007654695305973291,-0.018020526000000002,-0.00030543262000000003,246.98657000000003,-49.148920000000004,-15.363401000000001,SIT
4647040300000.0,0.8512778282165527,-2.6774680614471436,6.7190775871276855,6.584158897399902,0.00739325163885951,-0.012217305,-0.0027488936,246.88962999999998,-49.06994,-15.414481,SIT
4647062000000.0,0.856277585029602,-2.6812024116516113,6.717857837677002,6.582420349121094,0.0072922371327877045,-0.013133603,0.0036651915999999997,246.79044,-49.013535,-15.4563465,SIT
4647082300000.0,0.861268937587738,-2.683107614517212,6.7164435386657715,6.57949686050415,0.007489598356187344,-0.017715093,0.005497787,246.69312000000002,-48.955690000000004,-15.499366,SIT
4647101700000.0,0.8662609457969666,-2.6825010776519775,6.714885234832764,6.574975967407227,0.007513667922466993,-0.022296581,0.009773844,246.59543,-48.898052,-15.539485999999998,SIT
4647120500000.0,0.8712522983551025,-2.679537057876587,6.713078498840332,6.5690107345581055,0.007455068174749613,-0.014966198,0.010690141499999998,246.49462999999997,-48.842663,-15.580797,SIT
4647139000000.0,0.8762471675872803,-2.674320697784424,6.710832595825195,6.561756610870361,0.007350759115070105,-0.010995574,0.010690141499999998,246.39623999999998,-48.787636,-15.619304000000001,SIT
4647156000000.0,0.8812395930290222,-2.6671626567840576,6.708301067352295,6.553220272064209,0.007398505229502916,-0.018325957,0.01985312,246.30536,-48.74057,-15.649386999999999,SIT
4647173000000.0,0.8862321972846985,-2.6583216190338135,6.705646514892578,6.543332576751709,0.007459984160959721,-0.01282817,0.013133603,246.21462999999997,-48.691307,-15.685528,SIT
4647189000000.0,0.8912413120269775,-2.6483187675476074,6.703384876251221,6.532087326049805,0.008071616291999817,-0.014966198,0.008246681,246.13132000000002,-48.650787,-15.70752,SIT
4647205000000.0,0.8962382674217224,-2.6378955841064453,6.701958656311035,6.519773483276367,0.007820508442819118,-0.019242255,0.010690141499999998,246.04811,-48.604079999999996,-15.729731,SIT
4647220000000.0,0.9012313485145569,-2.626824378967285,6.701488494873047,6.506032466888428,0.007843220606446266,-0.0076358155,0.016798794,245.95856,-48.573406,-15.747919,SIT
4647234300000.0,0.9062259197235107,-2.6148059368133545,6.702141284942627,6.4903883934021,0.008092604577541351,-0.005497787,0.007941248,245.87555,-48.537357,-15.766376000000001,SIT
4647248500000.0,0.9112244248390198,-2.6020286083221436,6.7039666175842285,6.47301721572876,0.008084538392722607,-0.010690141499999998,0.008246681,245.78883,-48.5101,-15.778085,SIT
4647262000000.0,0.9162190556526184,-2.5899322032928467,6.707753658294678,6.454970359802246,0.008304785005748272,-0.0009162978999999999,0.014355333500000001,245.69988999999998,-48.48602,-15.793497,SIT
4647275000000.0,0.9212391972541809,-2.5784804821014404,6.713626861572266,6.436105728149414,0.008383074775338173,-0.004581489,0.009468411,245.61452999999997,-48.471985,-15.802047,SIT
4647288000000.0,0.9262380599975586,-2.565951108932495,6.719225883483887,6.416739463806152,0.008554857224225998,-0.003970624,0.006414085,245.52582999999998,-48.460915,-15.811445,SIT
4647300000000.0,0.9312320947647095,-2.552259922027588,6.724526405334473,6.396804332733154,0.009043031372129917,-0.009468411,0.01038471,245.4367,-48.461548,-15.816659,SIT
4647311400000.0,0.9362252950668335,-2.5383388996124268,6.729150772094727,6.378355979919434,0.009554021060466766,-0.00580322,0.007330383,245.34862,-48.459742999999996,-15.825941,SIT
4647323000000.0,0.9412575364112854,-2.524508476257324,6.732877254486084,6.362410545349121,0.009647122584283352,-0.0021380284,0.018936822,245.25968999999998,-48.459194000000004,-15.830186,SIT
4647334000000.0,0.9462835788726807,-2.5108962059020996,6.735951900482178,6.348909854888916,0.010272415354847908,-0.0021380284,0.007941248,245.21707448063302,-48.462622834891604,-15.834488960546599,SIT
4647345000000.0,0.9512984752655029,-2.49776291847229,6.739109516143799,6.339578628540039,0.01063650194555521,-0.0027488936,-0.0036651915999999997,245.1753,-48.465984000000006,-15.838707000000001,SIT
4647355400000.0,0.9563082456588745,-2.4852161407470703,6.742290496826172,6.334331035614014,0.011209067888557911,-0.00030543262000000003,0.0061086523,245.08261000000002,-48.475136,-15.838834,SIT
4647365400000.0,0.9612990617752075,-2.474700689315796,6.744847774505615,6.333451747894287,0.0114418501034379,0.0061086523,0.0070249503,244.99627999999998,-48.47384,-15.8445,SIT
4647375300000.0,0.9663085341453552,-2.4663097858428955,6.7467474937438965,6.337311744689941,0.011922664940357208,0.0015271631,0.007941248,244.91766,-48.467471999999994,-15.845770000000002,SIT
4647385000000.0,0.9712909460067749,-2.4598259925842285,6.748780250549316,6.343663215637207,0.012508074752986431,-0.00030543262000000003,0.007941248,244.83803999999998,-48.45884,-15.848823999999999,SIT
4647394000000.0,0.9762926697731018,-2.455307960510254,6.750942707061768,6.352806568145752,0.01231352798640728,-0.0012217305,0.0018325957999999999,244.76134,-48.44643,-15.852538000000001,SIT
4647403000000.0,0.9812759757041931,-2.451030731201172,6.752571105957031,6.363555431365967,0.012682778760790825,-0.007330383,-0.00030543262000000003,244.6823,-48.428375,-15.857406,SIT
4647412000000.0,0.9862594604492188,-2.446981430053711,6.753664493560791,6.375972747802734,0.013439284637570381,-0.007330383,0.0015271631,244.60247999999999,-48.397705,-15.863160999999998,SIT
4647421000000.0,0.9912431240081787,-2.4448421001434326,6.754201412200928,6.389467239379883,0.014025256037712097,-0.0021380284,0.005497787,244.52374,-48.367435,-15.868851000000001,SIT
4647429300000.0,0.9962297081947327,-2.4451684951782227,6.754187107086182,6.403810501098633,0.014775327406823635,-0.0021380284,0.0033597588,244.485494352518,-48.353648743105495,-15.871953549760198,SIT
4647437700000.0,1.0012153387069702,-2.4466192722320557,6.753259658813477,6.417952537536621,0.015404039062559605,-0.0009162978999999999,0.0027488936,244.44778,-48.340053999999995,-15.875013000000001,SIT
4647446000000.0,1.0062029361724854,-2.4487791061401367,6.751332759857178,6.431602954864502,0.01635734550654888,0.013439035,0.003970624,244.36876,-48.30614,-15.879207999999998,SIT
4647454000000.0,1.0111916065216064,-2.450974225997925,6.748721599578857,6.447508811950684,0.01724357157945633,-0.0027488936,0.004276057,244.29369,-48.26432,-15.884279999999999,SIT
4647462000000.0,1.0161831378936768,-2.453052520751953,6.745518684387207,6.466222763061523,0.017594248056411743,0.0036651915999999997,0.0009162978999999999,244.21142999999998,-48.22215,-15.896522500000001,SIT
4647469700000.0,1.0211719274520874,-2.4558727741241455,6.742955207824707,6.483983039855957,0.017616964876651764,-0.0021380284,-0.00580322,244.13937,-48.175865,-15.905801,SIT
4647477000000.0,1.0261658430099487,-2.4597933292388916,6.741528511047363,6.499296188354492,0.017605917528271675,-0.008246681,0.004581489,244.06412000000003,-48.130775,-15.913104999999998,SIT
4647484400000.0,1.031229019165039,-2.4656214714050293,6.740119934082031,6.513672351837158,0.017888450995087624,-0.0033597588,0.0012217305,243.99585,-48.071979999999996,-15.92756,SIT
4647491700000.0,1.0362187623977661,-2.4725148677825928,6.738442420959473,6.527626037597656,0.01813964918255806,-0.003970624,0.012217305,243.92621,-48.015353999999995,-15.934470000000001,SIT
4647499000000.0,1.0412086248397827,-2.480435371398926,6.737068176269531,6.541332721710205,0.01787286251783371,-0.006414085,0.010690141499999998,243.85466,-47.962944,-15.948773000000001,SIT
4647506000000.0,1.0462054014205933,-2.488757610321045,6.736865520477295,6.554858207702637,0.017245914787054062,-0.014966198,0.00580322,243.78400000000002,-47.91267,-15.960145,SIT
4647512700000.0,1.0511969327926636,-2.497338056564331,6.737026214599609,6.566964626312256,0.015903621912002563,-0.01740966,0.0033597588,243.70623999999998,-47.856102,-15.977904,SIT
4647519500000.0,1.0562235116958618,-2.506190061569214,6.736935615539551,6.576481819152832,0.015072351321578026,-0.013439035,0.004276057,243.63003999999998,-47.804134000000005,-15.995501500000001,SIT
4647526300000.0,1.0612118244171143,-2.515296459197998,6.7366533279418945,6.584239959716797,0.014480709098279476,-0.012217305,0.007330383,243.55393999999998,-47.749203,-16.014324,SIT
4647533000000.0,1.0662026405334473,-2.5256359577178955,6.736099720001221,6.591298580169678,0.014311254024505615,-0.01282817,0.0033597588,243.47935,-47.69743,-16.034712,SIT
4647539400000.0,1.0711920261383057,-2.53617000579834,6.735072612762451,6.5966668128967285,0.013825282454490662,-0.010995574,0.0033597588,243.40112000000002,-47.64845,-16.055418,SIT
4647545700000.0,1.0761878490447998,-2.545236587524414,6.733194351196289,6.598577976226807,0.013234990648925304,-0.014049901000000002,0.007941248,243.32497999999998,-47.602955,-16.074749,SIT
4647552000000.0,1.0811922550201416,-2.5529444217681885,6.730648517608643,6.597505569458008,0.013083091005682945,-0.008552114,0.013744468000000001,243.24652000000003,-47.557762,-16.10351,SIT
4647558300000.0,1.0861878395080566,-2.5597054958343506,6.728595733642578,6.596132755279541,0.013102060183882713,-0.005497787,0.015577064,243.17017,-47.51141,-16.130735,SIT
4647564600000.0,1.0911825895309448,-2.56555438041687,6.727020263671875,6.594465255737305,0.012957245111465454,-0.008246681,0.0015271631,243.08975,-47.474117,-16.156872,SIT
4647571000000.0,1.0961824655532837,-2.570631504058838,6.725699424743652,6.5920634269714355,0.012836424633860588,-0.006414085,0.004276057,243.00513999999998,-47.440952,-16.179981,SIT
4647577000000.0,1.1011834144592285,-2.575193405151367,6.7242045402526855,6.588078022003174,0.012884817086160183,-0.0070249503,-0.0012217305,242.92702000000003,-47.405388,-16.206636,SIT
4647583500000.0,1.1061772108078003,-2.5790607929229736,6.722693920135498,6.582658767700195,0.013467783108353615,-0.0125227375,0.0015271631,242.85315,-47.37512,-16.226728,SIT
4647589000000.0,1.1111799478530884,-2.581449270248413,6.721688270568848,6.575831413269043,0.013905739411711693,0.004886922,0.004886922,242.77612000000002,-47.342155,-16.251667,SIT
4647595000000.0,1.1161741018295288,-2.582517147064209,6.721133708953857,6.567776679992676,0.014190137386322021,0.01038471,-0.004886922,242.70221,-47.315403,-16.271393,SIT
4647601000000.0,1.1211711168289185,-2.5816752910614014,6.7212724685668945,6.560128211975098,0.014996531419456005,0.01282817,0.007941248,242.62125,-47.294487,-16.287853,SIT
4647606600000.0,1.1262239217758179,-2.578397750854492,6.722305774688721,6.553564071655273,0.015922723338007927,0.015271631,0.00061086525,242.54596,-47.26763,-16.311607000000002,SIT
4647612300000.0,1.1312319040298462,-2.573695182800293,6.723879337310791,6.54775857925415,0.017092548310756683,0.016493361,0.008246681,242.46392999999998,-47.25605,-16.323866,SIT
4647618000000.0,1.136228084564209,-2.5694096088409424,6.725535869598389,6.541762828826904,0.018346525728702545,0.0125227375,0.010079277,242.38641,-47.242805,-16.338364000000002,SIT
4647624000000.0,1.1412233114242554,-2.565525770187378,6.7272772789001465,6.535567283630371,0.019598785787820816,0.007941248,0.008246681,242.30884,-47.23496,-16.338259,SIT
4647629600000.0,1.146226406097412,-2.561990737915039,6.729067325592041,6.529276371002197,0.021240074187517166,0.01863139,0.0036651915999999997,242.23026000000002,-47.22935,-16.340723,SIT
4647635400000.0,1.1512199640274048,-2.55846905708313,6.730587005615234,6.523845672607422,0.02279389463365078,0.012217305,0.0009162978999999999,242.15793,-47.221573,-16.339478,SIT
4647641000000.0,1.1562135219573975,-2.5549538135528564,6.731844902038574,6.519248008728027,0.023255711421370506,0.009773844,0.0067195175,242.08622999999997,-47.21144,-16.335601999999998,SIT
4647647000000.0,1.1612071990966797,-2.5517382621765137,6.733209609985352,6.515425205230713,0.02318831905722618,-0.006414085,0.011911871999999999,242.02106,-47.203102,-16.329071,SIT
4647652700000.0,1.1662148237228394,-2.549720525741577,6.735785007476807,6.512319087982178,0.022994300350546837,-0.006414085,0.018325957,241.95259,-47.192284,-16.323917,SIT
4647658000000.0,1.1712102890014648,-2.548609495162964,6.739277362823486,6.509920597076416,0.022696679458022118,-0.014049901000000002,0.01160644,241.89186,-47.176025,-16.315329000000002,SIT
4647663000000.0,1.176208257675171,-2.5477449893951416,6.74314546585083,6.508586406707764,0.022593971341848373,-0.0036651915999999997,0.008246681,241.82626000000002,-47.161617,-16.30846,SIT
4647668400000.0,1.1812059879302979,-2.547111988067627,6.747364044189453,6.508251190185547,0.021943306550383568,-0.01740966,0.008246681,241.76573,-47.145058,-16.302013,SIT
4647673700000.0,1.1862010955810547,-2.5464279651641846,6.751675605773926,6.50865364074707,0.02085527405142784,-0.0125227375,0.009773844,241.70004,-47.129456,-16.301584,SIT
4647679000000.0,1.1911982297897339,-2.545323610305786,6.7557573318481445,6.509491443634033,0.019515955820679665,-0.018936822,0.017715093,241.63983,-47.112667,-16.295427,SIT
4647684000000.0,1.1961936950683594,-2.544037103652954,6.759654521942139,6.510691165924072,0.019029326736927032,-0.020158553,0.008246681,241.581,-47.095524,-16.292607999999998,SIT
4647689400000.0,1.2011903524398804,-2.5435972213745117,6.763538360595703,6.512021541595459,0.01778731867671013,-0.0125227375,0.004886922,241.51987000000003,-47.07093,-16.287607,SIT
4647694600000.0,1.206185221672058,-2.543950080871582,6.767407417297363,6.513473033905029,0.016888216137886047,-0.0070249503,0.0036651915999999997,241.46274,-47.053688,-16.28213,SIT
4647700000000.0,1.2111815214157104,-2.5442261695861816,6.771020889282227,6.514798164367676,0.01675323210656643,0.003970624,0.008552114,241.40297,-47.035236,-16.27884,SIT
4647705000000.0,1.2161775827407837,-2.543708324432373,6.774182319641113,6.5157928466796875,0.017064929008483887,0.010995574,0.008857545999999999,241.34486,-47.016212,-16.2774,SIT
4647710400000.0,1.2211748361587524,-2.5426061153411865,6.777624130249023,6.517043590545654,0.017327461391687393,0.014966198,0.009468411,241.27693,-47.000267,-16.278044,SIT
4647715600000.0,1.2261775732040405,-2.5410687923431396,6.781869888305664,6.518968105316162,0.01804804615676403,0.013744468000000001,0.009773844,241.20981,-46.988823,-16.279226,CSO
4647721000000.0,1.2312804460525513,-2.54024600982666,6.786163806915283,6.52116060256958,0.01910460740327835,-0.003970624,0.004276057,241.15627999999998,-46.97359,-16.274513,CSO
4647726000000.0,1.236278772354126,-2.5401053428649902,6.790069580078125,6.523236274719238,0.020625736564397812,0.0015271631,0.0125227375,241.09605,-46.962982000000004,-16.271112,CSO
4647731300000.0,1.2412668466567993,-2.540602207183838,6.793955326080322,6.525627136230469,0.021968135610222816,0.004276057,0.010079277,241.05118,-46.947765000000004,-16.261053,CSO
4647736600000.0,1.2462584972381592,-2.541313648223877,6.7983574867248535,6.528854846954346,0.023011112585663795,0.0009162978999999999,0.01038471,241.00512999999998,-46.935688,-16.248993,CSO
4647742000000.0,1.2512508630752563,-2.5421500205993652,6.803013324737549,6.532311916351318,0.022810259833931923,0.012217305,0.01282817,240.95192000000003,-46.917496,-16.242252,CSO
4647747000000.0,1.256240963935852,-2.5429418087005615,6.8074212074279785,6.534805774688721,0.021643470972776413,0.018325957,0.010690141499999998,240.90236000000002,-46.898697,-16.235317000000002,CSO
4647752300000.0,1.2612345218658447,-2.543691396713257,6.811594009399414,6.53637170791626,0.019562222063541412,0.016798794,0.010079277,240.85717999999997,-46.87281,-16.232944,CSO
4647757500000.0,1.2662605047225952,-2.5429747104644775,6.814118385314941,6.538044452667236,0.01723378710448742,0.029626964,0.014966198,240.8074,-46.84582,-16.233921,CSO
4647763000000.0,1.2712551355361938,-2.540797233581543,6.815009117126465,6.540056228637695,0.014313236810266972,0.030543262,0.011301007,240.76307999999997,-46.81158,-16.234682,CSO
4647768000000.0,1.2762477397918701,-2.53808856010437,6.814788341522217,6.541728973388672,0.010832127183675766,0.014049901000000002,0.021685716,240.71725,-46.779823,-16.228022,CSO
4647773300000.0,1.2812457084655762,-2.5355241298675537,6.813881874084473,6.5426154136657715,0.008155074901878834,0.011911871999999999,0.02687807,240.67036000000002,-46.750454,-16.226435000000002,CSO
4647778500000.0,1.2862417697906494,-2.5335915088653564,6.813266754150391,6.544275283813477,0.006027624011039734,0.021380282999999996,0.028099801,240.63895,-46.709515,-16.220407,CSO
4647784000000.0,1.291239619255066,-2.533057928085327,6.814412593841553,6.549087047576904,0.003346179611980915,0.04337143,0.022296581,240.60576,-46.666737,-16.217203,CSO
4647789000000.0,1.2962522506713867,-2.533849000930786,6.817305088043213,6.55693244934082,-0.00034805512405000627,0.0571159,0.023823743999999997,240.57234,-46.624584000000006,-16.214409,CSO
4647794000000.0,1.301249384880066,-2.5349435806274414,6.821599006652832,6.565915584564209,-0.0052289883606135845,0.06566802,0.02687807,240.53625,-46.578125,-16.215908,CSO
4647799500000.0,1.3062388896942139,-2.5363352298736572,6.827263832092285,6.576019763946533,-0.01001257635653019,0.06811147,0.033292156,240.50082,-46.526524,-16.219206,CSO
4647804700000.0,1.3112374544143677,-2.5374717712402344,6.8338093757629395,6.586339950561523,-0.016168968752026558,0.08216137400000001,0.026572637000000003,240.46301,-46.46073,-16.22869,CSO
4647810000000.0,1.3162353038787842,-2.5364654064178467,6.839381217956543,6.593611717224121,-0.02342967689037323,0.07880162,0.03481932,240.42463999999998,-46.398537,-16.23098,CSO
4647815000000.0,1.321230411529541,-2.5334460735321045,6.844036102294922,6.598015785217285,-0.030726652592420578,0.09040806,0.03481932,240.38876000000002,-46.330036,-16.238236999999998,CSO
4647820500000.0,1.326224446296692,-2.5282206535339355,6.846754550933838,6.598692417144775,-0.037927743047475815,0.08002335,0.04550946,240.35495,-46.25863,-16.237003,CSO
4647825700000.0,1.3312196731567383,-2.520801067352295,6.8473052978515625,6.5955119132995605,-0.04380098357796669,0.06719518,0.047036625,240.32095,-46.191466999999996,-16.23977,CSO
4647831000000.0,1.336230754852295,-2.511841058731079,6.844754695892334,6.590017318725586,-0.048856623470783234,0.07574729,0.053450707,240.28317,-46.13165,-16.236332,CSO
4647836000000.0,1.3412295579910278,-2.5021729469299316,6.838783264160156,6.583867073059082,-0.05273130536079407,0.069027774,0.054367005999999996,240.2526,-46.079006,-16.22897,CSO
4647841400000.0,1.3462234735488892,-2.4918973445892334,6.830419540405273,6.578155040740967,-0.05441365763545036,0.08460484,0.05222898,240.20777999999999,-46.04636,-16.22709,CSO
4647846700000.0,1.351220726966858,-2.481137275695801,6.820953369140625,6.574295520782471,-0.05522504076361656,0.09437868,0.0571159,240.16463,-46.013714,-16.221584,CSO
4647852000000.0,1.3562136888504028,-2.470803737640381,6.811241626739502,6.571392059326172,-0.05498398467898369,0.10079276599999999,0.061391957000000004,240.12299,-45.98534,-16.219904,CSO
4647856600000.0,1.361208438873291,-2.462026596069336,6.802298545837402,6.568391799926758,-0.054593004286289215,0.12156218,0.05497787,240.07764,-45.956326000000004,-16.22431,CSO
4647862000000.0,1.3662033081054688,-2.459613800048828,6.791601657867432,6.566745758056641,-0.05396242067217827,0.15210545,0.04795292,240.03113,-45.92628,-16.227684,CSO
4647867000000.0,1.371205449104309,-2.4713172912597656,6.775166988372803,6.568752765655518,-0.052860844880342484,0.20219639,0.0580322,239.97406,-45.899826000000004,-16.236616,CSO
4647872000000.0,1.3762024641036987,-2.4875895977020264,6.7593536376953125,6.5721516609191895,-0.05277833715081215,0.19394971,0.02321288,239.93506000000002,-45.861216999999996,-16.253704,CSO
4647877000000.0,1.3812552690505981,-2.499098062515259,6.751341342926025,6.574812889099121,-0.05232584848999977,0.19547687,0.020158553,239.87527000000003,-45.83667,-16.272966,CSO
4647882000000.0,1.386244773864746,-2.5080480575561523,6.74774169921875,6.577091693878174,-0.05202769488096237,0.17928895,0.013133603,239.82425,-45.76354,-16.339697,CSO
4647886500000.0,1.3912357091903687,-2.5154776573181152,6.748246669769287,6.579248905181885,-0.051924481987953186,0.16982053,0.003970624,239.77289,-45.692417,-16.407675,CSO
4647892000000.0,1.3962284326553345,-2.5222394466400146,6.7518229484558105,6.581291198730469,-0.051712825894355774,0.15699236,0.004886922,239.73424,-45.642548,-16.453653,CSO
4647897000000.0,1.4012231826782227,-2.530221700668335,6.756337642669678,6.583224773406982,-0.05196821689605713,0.13897185,-0.007941248,239.70366,-45.58715,-16.500704000000002,CSO
4647901700000.0,1.4062206745147705,-2.5393640995025635,6.761744022369385,6.585148334503174,-0.05255182087421417,0.1255328,-0.01038471,239.66797000000003,-45.547973999999996,-16.537285,CSO
4647907000000.0,1.411220908164978,-2.5495951175689697,6.767988204956055,6.589446067810059,-0.053771693259477615,0.112704635,-0.005192355,239.63747999999998,-45.504979999999996,-16.570864,CSO
4647911700000.0,1.416214942932129,-2.560805320739746,6.774988651275635,6.59591007232666,-0.0555613711476326,0.09437868,-0.01282817,239.60918999999998,-45.462734000000005,-16.610981,CSO
4647917000000.0,1.4212075471878052,-2.5709149837493896,6.783132553100586,6.6029839515686035,-0.05784165859222412,0.08093964,-0.011911871999999999,239.5802,-45.419697,-16.645854999999997,CSO
4647921600000.0,1.4262057542800903,-2.5792040824890137,6.792551517486572,6.610108375549316,-0.06079801172018051,0.06963864,-0.0125227375,239.55673,-45.372158,-16.678848000000002,CSO
4647927000000.0,1.4312011003494263,-2.586573600769043,6.80115270614624,6.616600036621094,-0.06568031758069992,0.07238753,-0.016493361,239.53479,-45.31041,-16.715826,CSO
4647931600000.0,1.4361988306045532,-2.5948424339294434,6.804385662078857,6.620936870574951,-0.072809137403965,0.06352998,-0.022602014,239.51838999999998,-45.243362,-16.748344,CSO
4647937000000.0,1.4411920309066772,-2.602853536605835,6.802976131439209,6.622745990753174,-0.0803719162940979,0.040317107000000005,-0.016493361,239.50186000000002,-45.183085999999996,-16.770266,CSO
4647941600000.0,1.4461908340454102,-2.608102321624756,6.7977495193481445,6.62082576751709,-0.08805252611637115,0.023518313,-0.013439035,239.48748999999998,-45.11221,-16.793251,CSO
4647947000000.0,1.451233148574829,-2.6083004474639893,6.790868282318115,6.615113258361816,-0.09475410729646683,0.017104227,-0.00061086525,239.46954,-45.036922,-16.8196,CSO
4647951500000.0,1.4562259912490845,-2.602985382080078,6.785521030426025,6.607203960418701,-0.10038234293460846,0.006414085,0.0061086523,239.45647999999997,-44.961000000000006,-16.84219,CSO
4647957000000.0,1.4612218141555786,-2.5911989212036133,6.781891822814941,6.596645832061768,-0.10416427999734879,0.013133603,0.03176499,239.43132000000003,-44.899105,-16.85765,CSO
4647962000000.0,1.4662227630615234,-2.5812251567840576,6.774001598358154,6.586664199829102,-0.10710985213518143,0.010079277,0.027488936000000002,239.41512999999998,-44.834763,-16.873978,CSO
4647966700000.0,1.4712198972702026,-2.574899911880493,6.760765075683594,6.577993869781494,-0.10770100355148315,-0.005192355,0.021380282999999996,239.39531000000002,-44.789429999999996,-16.884197,CSO
4647972000000.0,1.4762810468673706,-2.5728321075439453,6.740981578826904,6.570765495300293,-0.106112040579319,0.0036651915999999997,0.030848695,239.3666,-44.773815,-16.870062,CSO
4647976700000.0,1.4812778234481812,-2.5726842880249023,6.721135139465332,6.566635608673096,-0.10327301919460297,0.010690141499999998,0.036957346,239.34375,-44.764145,-16.855125,CSO
4647982000000.0,1.4862722158432007,-2.574605703353882,6.702346324920654,6.567106246948242,-0.09983653575181961,0.019547688,0.032986722999999996,239.31902999999997,-44.762108000000005,-16.842869,CSO
4647987000000.0,1.4912749528884888,-2.5775225162506104,6.6852641105651855,6.569708347320557,-0.09619253873825073,0.033292156,0.03359759,239.28925,-44.732494,-16.855057000000002,CSO
4647992000000.0,1.496274471282959,-2.5807206630706787,6.6701836585998535,6.572826862335205,-0.09220558404922485,0.0290161,0.025045475,239.26439,-44.706127,-16.868141,CSO
4647996600000.0,1.5012667179107666,-2.584125280380249,6.657336711883545,6.576531887054443,-0.08821950107812881,0.037873644,0.021685716,239.23187000000001,-44.669342,-16.890182,CSO
4648002000000.0,1.5062624216079712,-2.5876104831695557,6.647533416748047,6.581088066101074,-0.08478767424821854,0.035430185,0.014660766,239.20547000000002,-44.631584000000004,-16.911472,CSO
4648006600000.0,1.5112521648406982,-2.5905160903930664,6.639974594116211,6.585770606994629,-0.08191311359405518,0.030543262,0.0067195175,239.17645,-44.596226,-16.9334,CSO
4648012000000.0,1.5162532329559326,-2.5913515090942383,6.633365631103516,6.589108943939209,-0.07994050532579422,0.019242255,0.0015271631,239.1505,-44.557377,-16.954144,CSO
4648017000000.0,1.5212599039077759,-2.5902156829833984,6.62689733505249,6.590914726257324,-0.0780404731631279,0.011911871999999999,-0.00030543262000000003,239.12677000000002,-44.523140000000005,-16.971142,CSO
4648022000000.0,1.5262477397918701,-2.5873255729675293,6.6196393966674805,6.591036319732666,-0.07541155070066452,0.0015271631,-0.0030543262,239.10754,-44.489056,-16.986373999999998,CSO
4648026500000.0,1.531234860420227,-2.5828256607055664,6.611541271209717,6.5890350341796875,-0.0722065269947052,-0.00580322,-0.0033597588,239.09122000000002,-44.46026,-16.99384,CSO
4648032000000.0,1.536221981048584,-2.5772950649261475,6.602604389190674,6.583836555480957,-0.06827705353498459,-0.0076358155,0.012217305,239.07329,-44.438441999999995,-16.99754,CSO
4648036500000.0,1.54120934009552,-2.5707292556762695,6.592750549316406,6.576066970825195,-0.06348268687725067,-0.009162978,0.02321288,239.06007000000002,-44.423134000000005,-16.995373,CSO
4648041700000.0,1.5461997985839844,-2.562995672225952,6.581650733947754,6.567193508148193,-0.05773930251598358,-0.0027488936,0.025045475,239.04432999999997,-44.413857,-16.993233,CSO
4648046400000.0,1.5511906147003174,-2.5546231269836426,6.569672584533691,6.557854652404785,-0.051178861409425735,-0.005192355,0.03268129,239.03046,-44.416782,-16.987612,CSO
4648051700000.0,1.5561820268630981,-2.5471954345703125,6.557834148406982,6.550010681152344,-0.043242648243904114,0.0067195175,0.03604105,239.0128,-44.428165,-16.98667,CSO
4648056400000.0,1.5611721277236938,-2.5405731201171875,6.546754360198975,6.543941020965576,-0.03512711450457573,0.025045475,0.043982297000000004,238.99117999999999,-44.44253,-16.985257999999998,CSO
4648061600000.0,1.5661646127700806,-2.534303665161133,6.5394110679626465,6.5413408279418945,-0.027232473716139793,0.046120327,0.04337143,238.96783,-44.46239,-16.987831,CSO
4648066400000.0,1.5711547136306763,-2.5288383960723877,6.535735607147217,6.541947364807129,-0.019823670387268066,0.06261369,0.04337143,238.94017000000002,-44.48038,-16.994278,CSO
4648071600000.0,1.576148271560669,-2.525944232940674,6.536309242248535,6.54556131362915,-0.012923643924295902,0.07422013,0.046731193,238.90900000000002,-44.498979999999996,-17.003122,CSO
4648077000000.0,1.5811381340026855,-2.525294780731201,6.540706157684326,6.552058219909668,-0.006635498721152544,0.09101892,0.044898596,238.87714,-44.516020000000005,-17.0134,CSO
4648081600000.0,1.586129903793335,-2.526163101196289,6.5483293533325195,6.561916828155518,-0.001968377036973834,0.10567969,0.045814894,238.84264,-44.527596,-17.024033,CSO
4648087000000.0,1.591120719909668,-2.528437852859497,6.558751106262207,6.574580192565918,0.0018803136190399528,0.10873401,0.052534412999999995,238.80756,-44.542645,-17.039285999999997,CSO
4648091500000.0,1.59611976146698,-2.5319435596466064,6.569698810577393,6.586568355560303,0.005019298754632473,0.13316862,0.04550946,238.76788,-44.5498,-17.063791000000002,CSO
4648097000000.0,1.6011114120483398,-2.536566972732544,6.580813884735107,6.597955226898193,0.006851584650576115,0.12095132,0.04428773,238.73221,-44.55148,-17.077896,CSO
4648101500000.0,1.6061064004898071,-2.5424582958221436,6.590579509735107,6.608987808227539,0.009041988290846348,0.1255328,0.040011674,238.69025,-44.557026,-17.10163,CSO
4648106700000.0,1.6110986471176147,-2.549656629562378,6.599109172821045,6.619815826416016,0.010887776501476765,0.12125675400000001,0.05131268,238.65274,-44.555817,-17.12271,CSO
4648111400000.0,1.6160945892333984,-2.559321641921997,6.606666088104248,6.631621360778809,0.012228264473378658,0.11056661,0.051923547,238.61932000000002,-44.553999999999995,-17.145964000000003,CSO
4648116700000.0,1.6210873126983643,-2.5713298320770264,6.6134562492370605,6.644563674926758,0.013399649411439896,0.11056661,0.05222898,238.57486,-44.551945,-17.172703,CSO
4648121400000.0,1.6260805130004883,-2.5862269401550293,6.620640754699707,6.66059684753418,0.013320361264050007,0.095294975,0.0421497,238.53882000000002,-44.541270000000004,-17.195892,CSO
4648126600000.0,1.631075143814087,-2.603757858276367,6.627949237823486,6.679004669189453,0.01212216168642044,0.08674286,0.03726278,238.5008,-44.522079999999995,-17.224573,CSO
4648132000000.0,1.6360721588134766,-2.622631072998047,6.632819175720215,6.69392728805542,0.009783294051885605,0.06841691,0.04917465,238.4674,-44.49772,-17.246363,CSO
4648136600000.0,1.6410659551620483,-2.6427292823791504,6.6354217529296875,6.705600738525391,0.006738925818353891,0.059253927000000005,0.050396382999999996,238.43408,-44.45937,-17.28404,CSO
4648142000000.0,1.6460627317428589,-2.6634652614593506,6.6359968185424805,6.71468448638916,0.0037754138465970755,0.038789943,0.049480084,238.40558,-44.420628,-17.313223,CSO
4648146600000.0,1.6510565280914307,-2.6846518516540527,6.634726047515869,6.721469402313232,0.0007093981839716434,0.018020526000000002,0.05222898,238.37842,-44.37828,-17.33894,CSO
4648152000000.0,1.6560503244400024,-2.7064402103424072,6.631320476531982,6.724809169769287,-0.002486213343217969,0.006414085,0.05467244,238.35148999999998,-44.333908,-17.374514,CSO
4648156500000.0,1.661044955253601,-2.728825569152832,6.625835418701172,6.724705696105957,-0.005592908710241318,-0.015577064,0.06688975,238.32895,-44.291573,-17.400702,CSO
4648162000000.0,1.666040062904358,-2.750291347503662,6.622264385223389,6.723442554473877,-0.00861542671918869,-0.019242255,0.069027774,238.30446,-44.245964,-17.43789,CSO
4648166500000.0,1.6710346937179565,-2.770613193511963,6.621213436126709,6.721469879150391,-0.011802413500845432,-0.018936822,0.07086037,238.28152000000003,-44.200965999999994,-17.46844,CSO
4648171700000.0,1.6760302782058716,-2.787647247314453,6.620729446411133,6.7175211906433105,-0.015177657827734947,-0.03176499,0.06994407,238.2656,-44.154545,-17.507841,CSO
4648176500000.0,1.6810256242752075,-2.801267623901367,6.6205220222473145,6.7115278244018555,-0.01941477693617344,-0.034513887,0.0720821,238.24634,-44.104557,-17.547361,CSO
4648181700000.0,1.6860212087631226,-2.811845064163208,6.620364665985107,6.7026143074035645,-0.023409809917211533,-0.03573562,0.08246681,238.21922,-44.06991,-17.57874,CSO
4648186400000.0,1.6910172700881958,-2.819575548171997,6.620215892791748,6.690750598907471,-0.02717565931379795,-0.03848451,0.08307768,238.1947,-44.02991,-17.61022,CSO
4648191700000.0,1.696016788482666,-2.8244402408599854,6.620594024658203,6.677309036254883,-0.029992058873176575,-0.043982297000000004,0.08277224,238.17001000000002,-44.004204,-17.632702,CSO
4648196400000.0,1.7010133266448975,-2.8265581130981445,6.621781349182129,6.663201808929443,-0.03239792585372925,-0.040317107000000005,0.086132,238.14327999999998,-43.977127,-17.655106,CSO
4648201600000.0,1.7060095071792603,-2.826124429702759,6.623655319213867,6.64859676361084,-0.034187257289886475,-0.035430185,0.09193522,238.11075,-43.969204,-17.669957999999998,CSO
4648206300000.0,1.711007833480835,-2.8232719898223877,6.626162052154541,6.633549213409424,-0.03534407913684845,-0.024740042,0.08827003,238.07791,-43.96206,-17.687687,CSO
4648211600000.0,1.7160059213638306,-2.8181960582733154,6.628232002258301,6.619095802307129,-0.0357881560921669,-0.019547688,0.09712757,238.03777999999997,-43.968266,-17.689812,CSO
4648217000000.0,1.7210055589675903,-2.8110222816467285,6.629402160644531,6.60567569732666,-0.03596440702676773,-0.01863139,0.08796459400000001,238.0014,-43.972206,-17.697678,CSO
4648221500000.0,1.726008653640747,-2.802480936050415,6.628986358642578,6.594732761383057,-0.03521973267197609,-0.013133603,0.07727446,237.96216,-43.99058,-17.6952,CSO
4648227000000.0,1.7310078144073486,-2.79291033744812,6.626860618591309,6.586599826812744,-0.03418919816613197,-0.007941248,0.07513642,237.92369,-44.00675,-17.693127,CSO
4648231500000.0,1.736006259918213,-2.7838830947875977,6.623841762542725,6.581503868103027,-0.03207416832447052,0.00061086525,0.07941248,237.88885,-44.028873,-17.684735999999997,CSO
4648237000000.0,1.7410048246383667,-2.776027202606201,6.620293617248535,6.579440593719482,-0.03029973804950714,-0.003970624,0.06169739,237.86142999999998,-44.042515,-17.680063,CSO
4648242000000.0,1.7460147142410278,-2.769394874572754,6.615683078765869,6.580260276794434,-0.02860359475016594,-0.005192355,0.052839845,237.8284,-44.055896999999995,-17.667078,CSO
4648246700000.0,1.7510130405426025,-2.7639341354370117,6.609681606292725,6.583491325378418,-0.02720944955945015,-0.010995574,0.034513887,237.80356,-44.063423,-17.65833,CSO
4648251400000.0,1.756011724472046,-2.7588627338409424,6.6034674644470215,6.588357925415039,-0.02574310451745987,-0.0125227375,0.030543262,237.77841,-44.06245,-17.647484,CSO
4648256700000.0,1.7610112428665161,-2.753816843032837,6.597584247589111,6.594433307647705,-0.024403737857937813,-0.015882496,0.028099801,237.75872999999999,-44.05747,-17.63896,CSO
4648261400000.0,1.7660117149353027,-2.748163938522339,6.59154748916626,6.600925922393799,-0.023086918517947197,-0.029626964,0.013744468000000001,237.74475,-44.042145,-17.635070000000002,CSO
4648266600000.0,1.7710133790969849,-2.741516351699829,6.585054874420166,6.6073317527771,-0.02205188013613224,-0.036651913,0.015271631,237.72742999999997,-44.027153000000006,-17.629242,CSO
4648272000000.0,1.776054859161377,-2.733999490737915,6.577689170837402,6.61199951171875,-0.021478936076164246,-0.04917465,0.009468411,237.71274,-44.00748,-17.619112,CSO
4648276600000.0,1.7810580730438232,-2.7260563373565674,6.5696821212768555,6.614764213562012,-0.020610978826880455,-0.04734206,0.01282817,237.6944,-43.99192,-17.608522,CSO
4648282000000.0,1.7860578298568726,-2.716829538345337,6.559906482696533,6.614091873168945,-0.019577672705054283,-0.050396382999999996,0.01985312,237.68854,-43.96954,-17.589252,CSO
4648286600000.0,1.79105806350708,-2.705603837966919,6.547414302825928,6.6087236404418945,-0.017801843583583832,-0.061086524,0.032070424,237.68212999999997,-43.953045,-17.56757,CSO
4648292000000.0,1.7960602045059204,-2.6922526359558105,6.533064842224121,6.599189758300781,-0.014753355644643307,-0.070249505,0.03940081,237.67197000000002,-43.94502,-17.546244,CSO
4648296500000.0,1.8010607957839966,-2.6766576766967773,6.5178680419921875,6.58613395690918,-0.010548865422606468,-0.06963864,0.04734206,237.65945,-43.942352,-17.52272,CSO
4648302000000.0,1.8060601949691772,-2.6600379943847656,6.5027666091918945,6.5689849853515625,-0.004045454319566488,-0.087659165,0.062308256,237.64992999999998,-43.95807,-17.483970000000003,CSO
4648306500000.0,1.8110624551773071,-2.643310308456421,6.488470077514648,6.547284126281738,0.0045529743656516075,-0.09468412,0.07727446,237.63657,-43.98056,-17.446753,CSO
4648311700000.0,1.816062569618225,-2.6260035037994385,6.475541114807129,6.524222373962402,0.015346376225352287,-0.08155051,0.08796459400000001,237.61542000000003,-44.02684,-17.401785,CSO
4648316400000.0,1.821062684059143,-2.6076080799102783,6.464557647705078,6.50289249420166,0.02717602625489235,-0.07788532,0.10415252,237.59437999999997,-44.08148,-17.350462,CSO
4648321700000.0,1.8260635137557983,-2.589174270629883,6.455018043518066,6.4835662841796875,0.04124005511403084,-0.07391469,0.12034045,237.5593,-44.171974,-17.29842,CSO
4648327000000.0,1.8311561346054077,-2.5719730854034424,6.4464874267578125,6.467021465301514,0.0564427450299263,-0.064446285,0.12492194,237.52277,-44.264379999999996,-17.24831,CSO
4648331600000.0,1.836162805557251,-2.5558180809020996,6.4386701583862305,6.452264785766602,0.0725606381893158,-0.062308256,0.13194689,237.4812,-44.374573,-17.179012,CSO
4648337000000.0,1.8411599397659302,-2.539919376373291,6.433640003204346,6.440245151519775,0.08850321173667908,-0.057421334000000004,0.13897185,237.43796,-44.487106,-17.112535,CSO
4648341600000.0,1.846161961555481,-2.52394437789917,6.432110786437988,6.431175231933594,0.10535411536693573,-0.05009095,0.14385876,237.39471,-44.611453999999995,-17.047287,CSO
4648347000000.0,1.8511613607406616,-2.5093111991882324,6.433255195617676,6.424500942230225,0.12192553281784058,-0.027183502999999998,0.14110987,237.34827,-44.72858,-16.988092,CSO
4648351600000.0,1.8561559915542603,-2.497434616088867,6.436315536499023,6.419719696044922,0.13834628462791443,-0.0067195175,0.13988814,237.30142,-44.853016,-16.929733,CSO
4648357000000.0,1.8611592054367065,-2.4878499507904053,6.441678524017334,6.417842864990234,0.1539570391178131,0.020463986,0.14080444,237.24822999999998,-44.979427,-16.867325,CSO
4648362000000.0,1.8661668300628662,-2.478776216506958,6.450732707977295,6.422764301300049,0.16920790076255798,0.025045475,0.13439035,237.19942999999998,-45.107574,-16.807560000000002,CSO
4648367000000.0,1.8711607456207275,-2.4701859951019287,6.463018894195557,6.433679580688477,0.18419943749904633,0.015882496,0.13836098,237.14732,-45.233554999999996,-16.752008,CSO
4648372000000.0,1.8761634826660156,-2.461716890335083,6.477531909942627,6.447714805603027,0.20006859302520752,0.040927973,0.13500121,237.09163999999998,-45.362922999999995,-16.707810000000002,CSO
4648376700000.0,1.881163477897644,-2.4532394409179688,6.493570327758789,6.463300704956055,0.21616634726524353,0.04276056599999999,0.13683382,237.04352000000003,-45.490322,-16.656446,CSO
4648382000000.0,1.8861719369888306,-2.443769931793213,6.510363578796387,6.477958679199219,0.23150387406349182,0.05467244,0.14538592,236.99237000000002,-45.612629999999996,-16.608564,CSO
4648386700000.0,1.8911688327789307,-2.432675838470459,6.527113914489746,6.489706039428711,0.2468053251504898,0.070554934,0.14477506,236.94336,-45.73987,-16.564176999999997,CSO
4648392000000.0,1.8961684703826904,-2.4208133220672607,6.543842792510986,6.499241828918457,0.2630167305469513,0.09315695,0.14996742,236.8883,-45.872679999999995,-16.515217,CSO
4648396700000.0,1.9011704921722412,-2.4113962650299072,6.560457229614258,6.50904655456543,0.27880367636680603,0.09285152,0.15668693,236.83667000000003,-46.000233,-16.465629999999997,CSO
4648402000000.0,1.9061686992645264,-2.4037976264953613,6.577055931091309,6.519957542419434,0.29453060030937195,0.10354166,0.16126843,236.7781,-46.147324,-16.413957999999997,CSO
4648406600000.0,1.9111688137054443,-2.3963937759399414,6.594030857086182,6.534911155700684,0.3101518750190735,0.10873401,0.17134771,236.72067,-46.294456,-16.359436,CSO
4648412000000.0,1.9161999225616455,-2.3891513347625732,6.611499309539795,6.554194927215576,0.3244360387325287,0.110872045,0.20036379999999998,236.65071,-46.440002,-16.307888000000002,CSO
4648416600000.0,1.921197772026062,-2.382826805114746,6.632383346557617,6.573987007141113,0.33774736523628235,0.09010262,0.22235495,236.58664,-46.58752,-16.253061,CSO
4648422000000.0,1.926193118095398,-2.377533197402954,6.657474517822266,6.594111919403076,0.3491610586643219,0.061086524,0.24281894,236.52112999999997,-46.727573,-16.19204,CSO
4648426500000.0,1.9311888217926025,-2.374157667160034,6.684319019317627,6.610734939575195,0.35866427421569824,0.03940081,0.2761111,236.45729,-46.857628000000005,-16.12041,CSO
4648432000000.0,1.9361885786056519,-2.3732714653015137,6.711272239685059,6.621340274810791,0.36595192551612854,0.0067195175,0.31031954,236.40048,-46.979409999999994,-16.03816,CSO
4648436500000.0,1.9411847591400146,-2.3762428760528564,6.7374114990234375,6.626154899597168,0.3722977638244629,-0.00061086525,0.33567044,236.34476,-47.108234,-15.947176999999998,CSO
4648442000000.0,1.9461817741394043,-2.3840560913085938,6.762157917022705,6.625236511230469,0.3771171569824219,-0.0033597588,0.35613444,236.29183999999998,-47.2261,-15.846928,CSO
4648447000000.0,1.9511818885803223,-2.3958020210266113,6.785686016082764,6.621757984161377,0.381614625453949,0.0070249503,0.37293324,236.23386000000002,-47.360264,-15.754620999999998,CSO
4648451700000.0,1.9561758041381836,-2.4102559089660645,6.808182716369629,6.619576454162598,0.38489577174186707,0.011301007,0.3811799,236.178,-47.482456,-15.660381,CSO
4648457000000.0,1.9611732959747314,-2.4271209239959717,6.829925537109375,6.61881685256958,0.3879043757915497,0.01160644,0.3817908,236.11015,-47.62003,-15.5937,CSO
4648461700000.0,1.9661697149276733,-2.445035219192505,6.85187292098999,6.6200456619262695,0.3897109031677246,0.008857545999999999,0.37904188,236.04404,-47.74548,-15.527622000000001,CSO
4648467000000.0,1.9711692333221436,-2.463973045349121,6.874035358428955,6.623187065124512,0.38987481594085693,-0.02321288,0.36896262,235.98605,-47.85686,-15.467531,CSO
4648471600000.0,1.9761664867401123,-2.484748363494873,6.89599084854126,6.627649784088135,0.3894439935684204,-0.028710667000000002,0.36377025,235.92497000000003,-47.965275,-15.41257,CSO
4648477000000.0,1.9811640977859497,-2.507948398590088,6.917482852935791,6.633052349090576,0.3886617422103882,-0.053450707,0.35277468,235.88093999999998,-48.06283,-15.353051,CSO
4648482000000.0,1.9861891269683838,-2.5341665744781494,6.940300941467285,6.640003204345703,0.3880351185798645,-0.10415252,0.30909783,235.85619,-48.14922,-15.309054999999999,CSO
4648487000000.0,1.9911848306655884,-2.5627808570861816,6.96549654006958,6.648580074310303,0.387393057346344,-0.11759156,0.28893927,235.82788,-48.232384,-15.265547,CSO
4648491500000.0,1.9961822032928467,-2.593970537185669,6.993825912475586,6.65887451171875,0.3865898847579956,-0.15577064,0.26053402,235.83151,-48.300564,-15.232092999999999,CSO
4648497000000.0,2.001181125640869,-2.626444101333618,7.028221130371094,6.670303821563721,0.3841855227947235,-0.20128010000000002,0.21807889999999996,235.84697999999997,-48.356094,-15.2028885,CSO
4648501500000.0,2.0061745643615723,-2.6600558757781982,7.068160057067871,6.682763576507568,0.38020017743110657,-0.21655174,0.17318029999999998,235.87485,-48.403187,-15.1905575,CSO
4648507000000.0,2.0111796855926514,-2.6922144889831543,7.111216068267822,6.6931023597717285,0.37484830617904663,-0.22540927,0.13194689,235.91837,-48.43782,-15.179657,CSO
4648512000000.0,2.016181468963623,-2.7217891216278076,7.155806541442871,6.7001051902771,0.36810508370399475,-0.24678956,0.09896017,235.97409,-48.459164,-15.17159,CSO
4648516700000.0,2.0211751461029053,-2.748934268951416,7.201775550842285,6.704004287719727,0.35931217670440674,-0.28160888,0.07941248,236.04148999999998,-48.479183,-15.172099,CSO
4648522000000.0,2.026177406311035,-2.7744321823120117,7.247771739959717,6.705140113830566,0.34875786304473877,-0.3115413,0.04734206,236.11945,-48.486782,-15.178757999999998,CSO
4648526700000.0,2.0311737060546875,-2.7985713481903076,7.293259620666504,6.703884124755859,0.33656859397888184,-0.33322698,0.023823743999999997,236.2034,-48.481926,-15.182225,CSO
4648532000000.0,2.0361697673797607,-2.821129083633423,7.33776330947876,6.699045658111572,0.3231895864009857,-0.36071593,0.011301007,236.30072,-48.490257,-15.177998,CSO
4648536600000.0,2.041166067123413,-2.8410725593566895,7.3792901039123535,6.685993194580078,0.30770760774612427,-0.3866777,-0.0076358155,236.40555,-48.480198,-15.175999999999998,CSO
4648542000000.0,2.04616117477417,-2.858548879623413,7.418001651763916,6.665209770202637,0.2904137670993805,-0.4279111,-0.025350908,236.52205,-48.475124,-15.171123499999998,CSO
4648546600000.0,2.0511581897735596,-2.8739991188049316,7.451919078826904,6.6397576332092285,0.27264171838760376,-0.45753807,-0.04520403,236.64252000000002,-48.460854,-15.167584,CSO
4648552000000.0,2.056154251098633,-2.8876969814300537,7.480312824249268,6.6112494468688965,0.2539123296737671,-0.49296826,-0.06414085,236.77335,-48.43054,-15.158701,CSO
4648556600000.0,2.0611519813537598,-2.898968458175659,7.502964019775391,6.581132411956787,0.2349114567041397,-0.5152648,-0.07941248,236.90906,-48.41979,-15.144720000000001,CSO
4648562000000.0,2.0661497116088867,-2.9071688652038574,7.519714832305908,6.550891399383545,0.21669530868530273,-0.54367006,-0.096516706,237.05457,-48.4037,-15.127604500000002,CSO
4648566500000.0,2.0711474418640137,-2.9119744300842285,7.530459403991699,6.520830154418945,0.1986035257577896,-0.5665775,-0.10567969,237.19492000000002,-48.382664,-15.105572,CSO
4648572000000.0,2.076146125793457,-2.912898063659668,7.534933567047119,6.491334915161133,0.18134568631649017,-0.58276546,-0.11056661,237.33903999999998,-48.36397,-15.082507999999999,CSO
4648576500000.0,2.0811448097229004,-2.9098074436187744,7.533723831176758,6.4615607261657715,0.16450296342372894,-0.6020076999999999,-0.11728613,237.48895,-48.3354,-15.056135000000001,CSO
4648581700000.0,2.0861427783966064,-2.9025096893310547,7.527434825897217,6.430544376373291,0.14784163236618042,-0.61300325,-0.11789699,237.63647000000003,-48.306915000000004,-15.028263,CSO
4648586400000.0,2.0911381244659424,-2.891085147857666,7.517216205596924,6.399571895599365,0.1310427486896515,-0.61758476,-0.12675454,237.77532999999997,-48.272053,-14.997551000000001,CSO
4648591700000.0,2.0961368083953857,-2.875453472137451,7.504170894622803,6.370008945465088,0.11463453620672226,-0.61361414,-0.12858713,237.90965,-48.238693,-14.96555,CSO
4648597000000.0,2.1011359691619873,-2.856287956237793,7.488346576690674,6.341536045074463,0.09857988357543945,-0.6105598000000001,-0.12278391400000001,238.04907000000003,-48.199642,-14.9269905,CSO
4648601600000.0,2.1061339378356934,-2.834620237350464,7.469646453857422,6.313601493835449,0.08272973448038101,-0.61666846,-0.129198,238.18839,-48.157818,-14.891307999999999,CSO
4648607000000.0,2.1111340522766113,-2.8105404376983643,7.448177814483643,6.286165237426758,0.06725224107503891,-0.61300325,-0.12492194,238.324,-48.114502,-14.842659,CSO
4648611600000.0,2.116133213043213,-2.7856178283691406,7.42584753036499,6.262686252593994,0.05230659246444702,-0.6215554,-0.12889257,238.46289,-48.069225,-14.794998999999999,CSO
4648617000000.0,2.1211321353912354,-2.760389566421509,7.40330696105957,6.244192600250244,0.03817371651530266,-0.636827,-0.129198,238.59747000000002,-48.02597,-14.746125,CSO
4648621600000.0,2.126132011413574,-2.7343664169311523,7.3805718421936035,6.229002952575684,0.0255265012383461,-0.625526,-0.12736541,238.72217999999998,-47.98427,-14.690477,CSO
4648627000000.0,2.1311471462249756,-2.7070536613464355,7.357588291168213,6.215839862823486,0.012967306189239025,-0.61086524,-0.13530666,238.84824,-47.93694,-14.636335,CSO
4648632000000.0,2.1361942291259766,-2.678666114807129,7.335117816925049,6.20719051361084,0.0008495434303767979,-0.6230826,-0.1255328,238.98552999999998,-47.88215,-14.568848000000001,CSO
4648637000000.0,2.1411893367767334,-2.650224208831787,7.314040660858154,6.20389986038208,-0.010899145156145096,-0.6252206,-0.12950343,239.11798,-47.823997,-14.512081,CSO
4648641500000.0,2.1461851596832275,-2.621584177017212,7.294471740722656,6.206847667694092,-0.021679889410734177,-0.625526,-0.14019357,239.25598,-47.763184,-14.440194,CSO
4648647000000.0,2.151181221008301,-2.5935540199279785,7.276862144470215,6.215823173522949,-0.03274879604578018,-0.6197228,-0.15118915,239.39052999999998,-47.69678,-14.371726,CSO
4648652000000.0,2.1561925411224365,-2.5660669803619385,7.261131286621094,6.230888366699219,-0.043667301535606384,-0.63316184,-0.16065755,239.53499,-47.62075,-14.294410999999998,CSO
4648656700000.0,2.1611926555633545,-2.539564609527588,7.246479034423828,6.2518720626831055,-0.05444341525435448,-0.6426301999999999,-0.16707164,239.67542000000003,-47.54204,-14.222279,CSO
4648662000000.0,2.1662182807922363,-2.5139546394348145,7.232812881469727,6.279275894165039,-0.06458013504743576,-0.6450737,-0.17715092,239.82343999999998,-47.448890000000006,-14.144448,CSO
4648666700000.0,2.1712183952331543,-2.4897096157073975,7.218979835510254,6.309473037719727,-0.07380225509405136,-0.6417139000000001,-0.19181168,239.97092,-47.356790000000004,-14.070054,CSO
4648672000000.0,2.176212787628174,-2.466756582260132,7.204920291900635,6.342637062072754,-0.08282589912414551,-0.64934975,-0.20341812,240.12479,-47.245166999999995,-13.989522000000001,CSO
4648676600000.0,2.18121075630188,-2.4452476501464844,7.19192361831665,6.378617286682129,-0.09141747653484344,-0.6407976,-0.22143865,240.27478,-47.137627,-13.918875,CSO
4648682000000.0,2.1862032413482666,-2.4251298904418945,7.18010950088501,6.417088031768799,-0.09933958202600479,-0.6401868000000001,-0.23640485,240.42632000000003,-47.03222,-13.848751000000002,CSO
4648686600000.0,2.191197633743286,-2.4045896530151367,7.169976234436035,6.455081462860107,-0.10672555863857269,-0.63346726,-0.24404067,240.57501000000002,-46.912279999999996,-13.7805,CSO
4648692000000.0,2.196195363998413,-2.3832614421844482,7.161559581756592,6.4919915199279785,-0.113490030169487,-0.6246096999999999,-0.25411993,240.72298999999998,-46.795612,-13.717867000000002,CSO
4648696500000.0,2.201190948486328,-2.360487937927246,7.155285358428955,6.527425289154053,-0.11943823844194412,-0.6224717,-0.25442538,240.86615,-46.6745,-13.655195999999998,CSO
4648702000000.0,2.2062344551086426,-2.3353703022003174,7.151717185974121,6.561266899108887,-0.12454857677221298,-0.61391956,-0.27275133,241.00813,-46.555496000000005,-13.602566,CSO
4648706500000.0,2.2112274169921875,-2.3084988594055176,7.150672912597656,6.5932230949401855,-0.1294516772031784,-0.59864795,-0.27214047,241.14786,-46.441790000000005,-13.540142000000001,CSO
4648712000000.0,2.2162210941314697,-2.279010057449341,7.152833938598633,6.623251438140869,-0.13404464721679688,-0.5879578000000001,-0.2742785,241.28762999999998,-46.332417,-13.484110999999999,CSO
4648716500000.0,2.221214771270752,-2.2471537590026855,7.15798282623291,6.653193950653076,-0.13853934407234192,-0.5824600000000001,-0.27305678,241.42448,-46.231804,-13.415198,CSO
4648721700000.0,2.2262122631073,-2.2131969928741455,7.1659321784973145,6.686604976654053,-0.14279450476169586,-0.59559363,-0.27916542,241.56195,-46.134155,-13.348087,CSO
4648727000000.0,2.231358051300049,-2.175368309020996,7.17811918258667,6.725777626037598,-0.14726237952709198,-0.59528816,-0.27030787,241.69887999999997,-46.0495,-13.263726,CSO
4648731700000.0,2.2363457679748535,-2.1394543647766113,7.190365314483643,6.762660026550293,-0.15211069583892822,-0.6026186,-0.27855456,241.84196,-45.96427,-13.182,CSO
4648737000000.0,2.241331100463867,-2.105224609375,7.203567028045654,6.797117233276367,-0.15704245865345,-0.59406644,-0.28924468,241.99112000000002,-45.877045,-13.081328,CSO
4648741600000.0,2.24631929397583,-2.0730085372924805,7.217537879943848,6.829471111297607,-0.16206948459148407,-0.6087272,-0.29504790000000003,242.14452000000003,-45.788887,-12.977592999999999,CSO
4648747000000.0,2.2513091564178467,-2.0437960624694824,7.231793403625488,6.860358238220215,-0.16791918873786926,-0.6264423000000001,-0.3109304,242.29782000000003,-45.695965,-12.881295,CSO
4648751600000.0,2.256298065185547,-2.0165669918060303,7.245945930480957,6.890054702758789,-0.17392919957637787,-0.6441574000000001,-0.31826079999999995,242.45247999999998,-45.611843,-12.777268,CSO
4648757000000.0,2.261288642883301,-1.9891151189804077,7.259105205535889,6.919125080108643,-0.1805141717195511,-0.64996064,-0.3371976,242.61063,-45.5202,-12.68005,CSO
4648762000000.0,2.2662851810455322,-1.9621424674987793,7.271128177642822,6.947428226470947,-0.18749697506427765,-0.6771441,-0.35430184,242.77762,-45.42855,-12.580950999999999,CSO
4648767000000.0,2.2712743282318115,-1.9391062259674072,7.281177520751953,6.974056243896484,-0.1950191706418991,-0.6930265999999999,-0.35369098,242.94022,-45.334236,-12.485194,CSO
4648772000000.0,2.276297092437744,-1.9201890230178833,7.289149284362793,6.999072551727295,-0.2025311440229416,-0.7079928000000001,-0.37904188,243.11577999999997,-45.23522,-12.384905999999999,CSO
4648777000000.0,2.281294107437134,-1.9050740003585815,7.293971061706543,7.022419452667236,-0.21074964106082916,-0.71593404,-0.38148534,243.2849,-45.133015,-12.280228,CSO
4648781500000.0,2.2862842082977295,-1.895534634590149,7.289878845214844,7.04346227645874,-0.21844877302646637,-0.7324274000000001,-0.39767328,243.46321,-45.03459,-12.18121,CSO
4648786700000.0,2.2912757396698,-1.8914228677749634,7.2770771980285645,7.062290191650391,-0.22531437873840332,-0.7516696999999999,-0.41508293,243.63745,-44.92685,-12.093321000000001,CSO
4648792000000.0,2.2962710857391357,-1.8923035860061646,7.256958961486816,7.07961368560791,-0.23127694427967072,-0.7611380999999999,-0.43799037,243.8136,-44.82165,-12.010481,CSO
4648796700000.0,2.301262855529785,-1.8974623680114746,7.231806755065918,7.096522808074951,-0.23641714453697205,-0.77824235,-0.45112398,243.99303999999998,-44.72117,-11.925725,CSO
4648802000000.0,2.306252956390381,-1.904962420463562,7.203555583953857,7.11284875869751,-0.24123458564281464,-0.79320854,-0.47433686,244.17505,-44.58547,-11.875663000000001,CSO
4648806600000.0,2.311245918273926,-1.9118244647979736,7.175141334533691,7.128304958343506,-0.24476981163024902,-0.8127562,-0.49388456,244.35913,-44.460545,-11.824157000000001,CSO
4648812000000.0,2.3162457942962646,-1.9180020093917847,7.146732330322266,7.142711639404297,-0.2483445256948471,-0.84329945,-0.50701815,244.54532000000003,-44.310435999999996,-11.7856,CSO
4648816600000.0,2.3212380409240723,-1.9233201742172241,7.118953704833984,7.1554670333862305,-0.2523309886455536,-0.8524625,-0.5174029,244.72981000000001,-44.16649,-11.751296,CSO
4648822000000.0,2.3262360095977783,-1.9277980327606201,7.0917277336120605,7.166614532470703,-0.25566551089286804,-0.8604037,-0.5222898,244.91806,-44.024809999999995,-11.708669,CSO
4648826600000.0,2.3312296867370605,-1.931946039199829,7.064459800720215,7.177414417266846,-0.25916415452957153,-0.8848383,-0.52778757,245.10897999999997,-43.879448,-11.663699000000001,CSO
4648832000000.0,2.336223602294922,-1.9363938570022583,7.0363006591796875,7.189461708068848,-0.26272052526474,-0.92057395,-0.5195409000000001,245.29717999999997,-43.74173,-11.613660000000001,CSO
4648836500000.0,2.3412179946899414,-1.9395132064819336,7.007631778717041,7.203335285186768,-0.26642918586730957,-0.95722586,-0.5235115,245.49585,-43.601746,-11.556957,CSO
4648842000000.0,2.346226453781128,-1.939316749572754,6.978794574737549,7.2198615074157715,-0.2695332467556,-1.0106765,-0.5183192,245.6966,-43.470024,-11.48715,CSO
4648846500000.0,2.351217746734619,-1.937677025794983,6.949605941772461,7.238485336303711,-0.27318811416625977,-1.0216721,-0.50671273,245.89505,-43.321999999999996,-11.416681,CSO
4648851700000.0,2.3562111854553223,-1.938976764678955,6.918713092803955,7.259172439575195,-0.27690863609313965,-1.0106765,-0.50488013,246.09548999999998,-43.182503000000004,-11.342291000000001,CSO
4648857000000.0,2.361206293106079,-1.943053126335144,6.886214256286621,7.281805992126465,-0.28183072805404663,-1.03786,-0.50335294,246.31363,-43.023216,-11.2435665,CSO
4648861700000.0,2.3662049770355225,-1.9473528861999512,6.852450847625732,7.304079532623291,-0.2871578633785248,-1.0601566,-0.50793445,246.52406000000002,-42.87062,-11.150687,CSO
4648867000000.0,2.3712050914764404,-1.9509450197219849,6.817615985870361,7.32516622543335,-0.2919895052909851,-1.0720684999999999,-0.50915617,246.7315,-42.72036,-11.055222,CSO
4648872000000.0,2.3762621879577637,-1.9573196172714233,6.7763519287109375,7.344336986541748,-0.2965148389339447,-1.1096367,-0.50885075,246.94681,-42.544968,-10.959342,CSO
4648877000000.0,2.3812544345855713,-1.9663702249526978,6.730501174926758,7.361732482910156,-0.3009454905986786,-1.1255191999999998,-0.50640726,247.15413999999998,-42.374832,-10.867073,CSO
4648881600000.0,2.386249542236328,-1.9778602123260498,6.677821636199951,7.378995418548584,-0.305514395236969,-1.1362093999999998,-0.50610185,247.37949,-42.19451,-10.76941,CSO
4648887000000.0,2.3912410736083984,-1.990575909614563,6.618529796600342,7.3978657722473145,-0.31060484051704407,-1.1395692,-0.51893,247.60269,-42.015879999999996,-10.673969,CSO
4648891600000.0,2.3962321281433105,-2.0043020248413086,6.553336143493652,7.41867208480835,-0.31628671288490295,-1.1395692,-0.52839845,247.81807999999998,-41.813175,-10.589253,CSO
4648897000000.0,2.4012303352355957,-2.018617630004883,6.483426094055176,7.442332744598389,-0.32223549485206604,-1.1820242,-0.54641896,248.0406,-41.612144,-10.500599000000001,CSO
4648901500000.0,2.4062209129333496,-2.033292293548584,6.410272121429443,7.468166351318359,-0.3287462294101715,-1.2238685,-0.56779927,248.2681,-41.368713,-10.42354,CSO
4648907000000.0,2.4112162590026855,-2.048069715499878,6.33548641204834,7.495499134063721,-0.333998441696167,-1.2550226,-0.57726765,248.49603,-41.137609999999995,-10.342145,CSO
4648912000000.0,2.416233539581299,-2.063023328781128,6.259096145629883,7.524474143981934,-0.3389219343662262,-1.2803736000000001,-0.5867361,248.73209,-40.86854,-10.261762,CSO
4648917000000.0,2.4212255477905273,-2.078260898590088,6.18587589263916,7.554966926574707,-0.34268778562545776,-1.2864822,-0.61941737,248.97021,-40.613224,-10.186169,CSO
4648922000000.0,2.426224946975708,-2.093907356262207,6.115540504455566,7.587294578552246,-0.3465784788131714,-1.3100005,-0.63591075,249.22156,-40.327076,-10.103997,CSO
4648926700000.0,2.4312214851379395,-2.1117324829101562,6.047068119049072,7.623173236846924,-0.3500176668167114,-1.319469,-0.64904433,249.47017000000002,-40.053726,-10.029800999999999,CSO
4648932000000.0,2.43621563911438,-2.1341402530670166,5.9791178703308105,7.6650776863098145,-0.3528340756893158,-1.3326025,-0.6731735,249.72241,-39.784958,-9.955608,CSO
4648936700000.0,2.4412105083465576,-2.1610708236694336,5.911477565765381,7.710307598114014,-0.355223685503006,-1.3429872999999999,-0.70066243,249.98291,-39.503304,-9.883971,CSO
4648942000000.0,2.446208953857422,-2.192621946334839,5.843755722045898,7.753127098083496,-0.35742083191871643,-1.3567316999999999,-0.7275404999999999,250.24396000000002,-39.228645,-9.813564,CSO
4648946600000.0,2.4512040615081787,-2.230560302734375,5.782591342926025,7.797324180603027,-0.3602170944213867,-1.3854423999999999,-0.75533485,250.5043,-38.923595,-9.753002,CSO
4648952000000.0,2.4562041759490967,-2.278949737548828,5.740278244018555,7.849959850311279,-0.36340147256851196,-1.4416419,-0.77091193,250.76732,-38.626953,-9.685922999999999,CSO
4648957000000.0,2.4612226486206055,-2.335292339324951,5.716493606567383,7.9095659255981445,-0.3672625720500946,-1.5021176,-0.7858781,251.03842000000003,-38.312878000000005,-9.629616,CSO
4648962000000.0,2.466217041015625,-2.391007661819458,5.70758056640625,7.970314025878906,-0.37213870882987976,-1.5247196,-0.7819075,251.30268999999998,-38.002765999999994,-9.568442999999998,CSO
4648967000000.0,2.471231698989868,-2.4465315341949463,5.714521408081055,8.032578468322754,-0.3778781294822693,-1.6383406,-0.77579886,251.61218,-37.698536,-9.489268,CSO
4648972000000.0,2.476228952407837,-2.5013363361358643,5.728829860687256,8.09274673461914,-0.38659968972206116,-1.6939293000000002,-0.7690793,251.90479,-37.385704,-9.416435,CSO
4648977000000.0,2.481227397918701,-2.555621385574341,5.750669956207275,8.151018142700195,-0.3954261839389801,-1.813048,-0.75686204,252.24965,-37.11312,-9.290538,CSO
4648982000000.0,2.4862208366394043,-2.6080732345581055,5.77374267578125,8.203069686889648,-0.4055890738964081,-1.9306396000000001,-0.7458665,252.59322999999998,-36.825962,-9.151806,CSO
4648986500000.0,2.491212844848633,-2.658203363418579,5.79534912109375,8.247138977050781,-0.41625210642814636,-2.0164661,-0.73761976,252.94041,-36.54918,-8.992953,CSO
4648991700000.0,2.496215343475342,-2.7032694816589355,5.816563606262207,8.279808044433594,-0.428300142288208,-2.1148154999999997,-0.72295904,253.3205,-36.28268,-8.8006315,CSO
4648997000000.0,2.501214027404785,-2.741325616836548,5.838183879852295,8.299215316772461,-0.4409106373786926,-2.2415700000000003,-0.7058548000000001,253.70831,-36.023666,-8.582802000000001,CSO
4649001700000.0,2.506206750869751,-2.7698614597320557,5.85875129699707,8.30411434173584,-0.4528490900993347,-2.3512204,-0.6704246,254.1181,-35.771614,-8.335371,CSO
4649007000000.0,2.511202812194824,-2.786846399307251,5.8772196769714355,8.293206214904785,-0.46504655480384827,-2.4468207000000004,-0.64904433,254.5365,-35.516953,-8.065305,CSO
4649011600000.0,2.516197443008423,-2.791226863861084,5.893831253051758,8.269157409667969,-0.47861236333847046,-2.5204299999999997,-0.6010914,254.96932999999999,-35.2911,-7.7497067,CSO
4649017000000.0,2.5211925506591797,-2.781794786453247,5.908788681030273,8.234092712402344,-0.4925946295261383,-2.6050348,-0.56169057,255.40762,-35.07315,-7.4130955,CSO
4649022000000.0,2.5262160301208496,-2.7595205307006836,5.91921329498291,8.188336372375488,-0.5078012943267822,-2.6899452,-0.5198463,255.85791,-34.8801,-7.021539999999999,CSO
4649027000000.0,2.5312108993530273,-2.728665590286255,5.924198150634766,8.135483741760254,-0.5238252878189087,-2.7818804,-0.49174652,256.3084,-34.69068,-6.612196400000001,CSO
4649031600000.0,2.5362050533294678,-2.689272165298462,5.9241533279418945,8.078109741210938,-0.5402649641036987,-2.830444,-0.46609017,256.7611,-34.530359999999995,-6.151711,CSO
4649037000000.0,2.5411977767944336,-2.642385244369507,5.919914245605469,8.019196510314941,-0.5572772026062012,-2.8490756,-0.46822822,257.21518,-34.367027,-5.6868706,CSO
4649042000000.0,2.546215057373047,-2.587329864501953,5.910887718200684,7.957693576812744,-0.5744896531105042,-2.860682,-0.46089783,257.66776,-34.216892,-5.1860247,CSO
4649047000000.0,2.551213502883911,-2.5247864723205566,5.894167900085449,7.888024806976318,-0.5916149616241455,-2.8591547000000004,-0.46181414,258.11505,-34.06673,-4.6968822,CSO
4649051500000.0,2.5562057495117188,-2.454655885696411,5.869774341583252,7.810077667236328,-0.6085112690925598,-2.8499917999999997,-0.46395215,258.5576,-33.920593,-4.169242,CSO
4649056700000.0,2.5612010955810547,-2.3725955486297607,5.8305134773254395,7.728997707366943,-0.624572217464447,-2.8408290000000003,-0.45540005,258.98913999999996,-33.780273,-3.6528375,CSO
4649062000000.0,2.5661959648132324,-2.277332067489624,5.773868560791016,7.647488117218018,-0.6393052339553833,-2.8050933,-0.44806966,259.40762,-33.645653,-3.1577232000000004,CSO
4649066700000.0,2.5711917877197266,-2.1762566566467285,5.7076096534729,7.565854549407959,-0.6524229049682617,-2.7537806000000002,-0.453262,259.82516,-33.522057000000004,-2.636273,CSO
4649072000000.0,2.5761878490448,-2.0755786895751953,5.638295650482178,7.48438024520874,-0.6620906591415405,-2.7073548,-0.4569272,260.2281,-33.418076,-2.133867,CSO
4649077000000.0,2.5812034606933594,-1.9748899936676025,5.5657734870910645,7.402677536010742,-0.669599175453186,-2.6682593999999997,-0.47464229999999996,260.59668,-33.278137,-1.5999523,CSO
4649082000000.0,2.5861968994140625,-1.874603509902954,5.4939727783203125,7.320199966430664,-0.6733543872833252,-2.5815165,-0.47952923,260.94006,-33.168995,-1.1021959,CSO
4649086600000.0,2.591191053390503,-1.7742518186569214,5.422572135925293,7.236527919769287,-0.672888994216919,-2.4862216,-0.48563787,261.3103,-33.05065,-0.5949406,CSO
4649092000000.0,2.596187114715576,-1.6731301546096802,5.352516174316406,7.151529312133789,-0.6680697798728943,-2.3857342999999998,-0.49449542,261.66003,-32.958527000000004,-0.12480301,CSO
4649097000000.0,2.601214647293091,-1.5660147666931152,5.289988040924072,7.063471794128418,-0.6584451198577881,-2.298075,-0.50610185,261.992,-32.897354,0.3110176,CSO
4649102000000.0,2.606210947036743,-1.4558275938034058,5.234640121459961,6.973634719848633,-0.6455895900726318,-2.2116377000000003,-0.52106804,262.3446,-32.848846,0.75470483,CSO
4649107000000.0,2.611211061477661,-1.3426023721694946,5.189979553222656,6.8794403076171875,-0.6279337406158447,-2.1261165,-0.5174029,262.67618,-32.84145,1.1665965,CSO
4649112300000.0,2.616227388381958,-1.225877285003662,5.156659126281738,6.779819965362549,-0.6057984232902527,-2.031127,-0.5213734999999999,263.0426,-32.8755,1.597708,CSO
4649117000000.0,2.6212210655212402,-1.1043721437454224,5.144365310668945,6.664790630340576,-0.5811803936958313,-1.9318613000000002,-0.5143485,263.38702,-32.93268,1.9981293999999998,CSO
4649122000000.0,2.6262166500091553,-0.9772970676422119,5.153805732727051,6.533206462860107,-0.5544560551643372,-1.8359555,-0.51251596,263.77572999999995,-33.062915999999994,2.4182189,CSO
4649127000000.0,2.6313138008117676,-0.8439701795578003,5.184087753295898,6.385310649871826,-0.5267957448959351,-1.7547104,-0.49785519999999994,264.1434,-33.208465999999994,2.8101509,CSO
4649131700000.0,2.6363062858581543,-0.7129477858543396,5.2200398445129395,6.237184524536133,-0.4981190860271454,-1.6594155,-0.49205196,264.49273999999997,-33.374190000000006,3.164256,CSO
4649137000000.0,2.6412956714630127,-0.5812543630599976,5.263021469116211,6.086580753326416,-0.4701242446899414,-1.568091,-0.4886922,264.92755,-33.703747,3.5831957,CSO
4649141700000.0,2.646289348602295,-0.4486205279827118,5.310307025909424,5.935817241668701,-0.44140762090682983,-1.4767667,-0.48014009999999996,265.34415,-34.05254,3.9696597999999996,CSO
4649147000000.0,2.6512773036956787,-0.31538769602775574,5.360586643218994,5.785635948181152,-0.41171467304229736,-1.3912456,-0.47250426,265.7961,-34.472214,4.367687999999999,CSO
4649151600000.0,2.6562657356262207,-0.18144752085208893,5.4106526374816895,5.6374993324279785,-0.3809671998023987,-1.3381003,-0.48044549999999997,266.24005,-34.901882,4.739274,CSO
4649157000000.0,2.661256790161133,-0.0467752180993557,5.460535526275635,5.491251468658447,-0.3511095941066742,-1.2266175,-0.48136179999999995,266.70007000000004,-35.375477000000004,5.115307,CSO
4649161600000.0,2.6662514209747314,0.091525599360466,5.509443759918213,5.3484721183776855,-0.32084107398986816,-1.1239921,-0.48044549999999997,267.1536,-35.865627,5.4687114,CSO
4649167000000.0,2.6712632179260254,0.2349129319190979,5.557210922241211,5.2093939781188965,-0.2896463871002197,-1.026559,-0.4886922,267.59058,-36.35823,5.785142400000001,CSO
4649172000000.0,2.6763219833374023,0.3843374252319336,5.60429048538208,5.07271146774292,-0.2566307783126831,-0.8081746999999999,-0.48136179999999995,268.01666,-36.886105,6.092764,CSO
4649177000000.0,2.681311845779419,0.5345029234886169,5.650130748748779,4.9398674964904785,-0.22133789956569672,-0.7367035,-0.48014009999999996,268.4528,-37.424805,6.399239,CSO
4649181500000.0,2.6862995624542236,0.6891589760780334,5.696136951446533,4.8104095458984375,-0.18696551024913788,-0.5580254,-0.46120325,268.8491,-37.96907,6.6828284,CSO
4649187000000.0,2.691288709640503,0.84992516040802,5.743826389312744,4.685418605804443,-0.15156009793281555,-0.37995818,-0.45753807,269.2325,-38.5374,6.9392114000000005,CSO
4649191500000.0,2.6962783336639404,1.0168012380599976,5.794074535369873,4.566861629486084,-0.11529067158699036,-0.21746802,-0.44959682,269.59893999999997,-39.116413,7.20642,CSO
4649196700000.0,2.701270341873169,1.190521240234375,5.849259376525879,4.459953308105469,-0.07859393209218979,-0.07269296,-0.44379359999999995,269.93102999999996,-39.698814,7.4309144,CSO
4649202000000.0,2.7062606811523438,1.3722038269042969,5.9111008644104,4.367848873138428,-0.041069433093070984,0.06658431,-0.42210788,270.2448,-40.303886,7.6799326,CSO
4649206700000.0,2.711254119873047,1.5666038990020752,5.985402584075928,4.300964832305908,-0.0035100472159683704,0.22479841,-0.39553526,270.5191,-40.90504,7.8887677,CSO
4649212000000.0,2.71624755859375,1.7728216648101807,6.071344375610352,4.257755279541016,0.034407906234264374,0.35796702,-0.37598756,270.77615,-41.512863,8.126529,CSO
4649216600000.0,2.721238136291504,1.9808086156845093,6.165278434753418,4.235222339630127,0.07222583889961243,0.5030475000000001,-0.35521814,270.98642,-42.113194,8.327122,CSO
4649222000000.0,2.7262635231018066,2.183694839477539,6.265901565551758,4.2334723472595215,0.10762140899896622,0.63621616,-0.34025195,271.16200000000003,-42.698586,8.499611999999999,CSO
4649227000000.0,2.7312633991241455,2.3783745765686035,6.370765686035156,4.250580787658691,0.14143992960453033,0.7761043000000001,-0.3295618,271.30298,-43.25435,8.7289915,CSO
4649232000000.0,2.7362582683563232,2.5631823539733887,6.480603218078613,4.290163993835449,0.17194236814975739,0.870483,-0.33169982,271.4157,-43.77978,8.933402000000001,CSO
4649236600000.0,2.741248607635498,2.7383151054382324,6.598185062408447,4.3534255027771,0.19871947169303894,0.9468411,-0.34697145,271.49352999999996,-44.259438,9.11679,CSO
4649242000000.0,2.746241331100464,2.903866767883301,6.727354526519775,4.442824363708496,0.22074896097183228,0.9660834,-0.3472769,271.55172999999996,-44.706184,9.288387,CSO
4649246500000.0,2.751236915588379,3.0594632625579834,6.865623474121094,4.548601150512695,0.23677007853984833,0.91324353,-0.32834008,271.5938,-45.073753,9.444751,CSO
4649252000000.0,2.7562365531921387,3.2041425704956055,7.009385585784912,4.65582799911499,0.2475750595331192,0.8875871999999999,-0.31123585,271.6195,-45.41146,9.584842,CSO
4649257000000.0,2.761235237121582,3.3351285457611084,7.149081230163574,4.7539567947387695,0.25549283623695374,0.8671232,-0.2779437,271.63928,-45.678352000000004,9.719011,CSO
4649261700000.0,2.766228437423706,3.448601007461548,7.27248477935791,4.829371929168701,0.2589355707168579,0.9288206,-0.27550024,271.6447,-45.902515,9.831501,CSO
4649267000000.0,2.7712395191192627,3.5445454120635986,7.379271984100342,4.883053779602051,0.26012760400772095,1.0729848,-0.2959642,271.6441,-46.126106,9.913963,CSO
4649272000000.0,2.7762653827667236,3.6237521171569824,7.465892791748047,4.93058443069458,0.2608003616333008,1.1768318000000002,-0.35430184,271.64178,-46.329388,9.977975,CSO
4649277000000.0,2.781268835067749,3.688608169555664,7.535282611846924,4.972715377807617,0.26150238513946533,1.1866056999999999,-0.36926803,271.6298,-46.548798,10.006849,CSO
4649282000000.0,2.7863025665283203,3.734736204147339,7.590388774871826,5.0320258140563965,0.2614670693874359,1.1215485,-0.38026363,271.61957,-46.75701,10.016416,CSO
4649287000000.0,2.7912919521331787,3.765636682510376,7.6364874839782715,5.112248420715332,0.2576409876346588,1.0913107,-0.39003745,271.59997999999996,-46.942204,10.012601,CSO
4649291600000.0,2.796285629272461,3.7804508209228516,7.677552223205566,5.207980155944824,0.2453267127275467,1.1771374,-0.40439278,271.56406,-47.062374,9.961753999999999,CSO
4649297000000.0,2.8012807369232178,3.7810842990875244,7.718231201171875,5.309683322906494,0.22245360910892487,1.3414601000000002,-0.41233405,271.5172,-47.144913,9.900681500000001,CSO
4649302000000.0,2.806283712387085,3.775416851043701,7.748750686645508,5.405738353729248,0.19414204359054565,1.486846,-0.40591997,271.45972,-47.094055,9.778574,CSO
4649307000000.0,2.8112809658050537,3.7697994709014893,7.762526988983154,5.487604141235352,0.16943906247615814,1.5213598999999998,-0.38148534,271.38992,-47.03115,9.650299,CSO
4649311500000.0,2.8162717819213867,3.760542154312134,7.753567695617676,5.557775497436523,0.155086487531662,1.4175128000000001,-0.34819320000000004,271.33655,-46.938805,9.486957,CSO
4649317000000.0,2.8212711811065674,3.744495391845703,7.7159552574157715,5.617895603179932,0.1500769704580307,1.3081678999999997,-0.29352075,271.2694,-46.855090000000004,9.331783,CSO
4649321500000.0,2.826263904571533,3.719642400741577,7.663624286651611,5.672616481781006,0.15606120228767395,1.1594223,-0.22999077,271.2116,-46.819813,9.222767,CSO
4649327000000.0,2.8313961029052734,3.674208402633667,7.614404201507568,5.730219841003418,0.1714440882205963,0.96944314,-0.16920967,271.17672999999996,-46.821686,9.1560545,CSO
4649332000000.0,2.8364005088806152,3.6232969760894775,7.568362712860107,5.787590980529785,0.18944169580936432,0.96974856,-0.1518,271.11383,-46.789993,9.079517999999998,CSO
4649336700000.0,2.841383218765259,3.5609686374664307,7.536078929901123,5.864512920379639,0.20779862999916077,0.9602801999999999,-0.1151481,271.07782000000003,-46.792896,9.058776,CSO
4649342000000.0,2.8463680744171143,3.486522674560547,7.517867088317871,5.962038516998291,0.2275863140821457,0.96944314,-0.08552113,271.05334,-46.807354,8.974484,CSO
4649346700000.0,2.8513543605804443,3.4029910564422607,7.510429382324219,6.071386814117432,0.2457009255886078,0.9804386999999999,-0.035430185,271.01907,-46.809597,8.905273,CSO
4649352000000.0,2.856341600418091,3.312217950820923,7.511740207672119,6.187555313110352,0.2601155638694763,1.0158689,-0.004581489,270.97546,-46.81281,8.833161,CSO
4649356600000.0,2.861334800720215,3.218705177307129,7.519412517547607,6.306249141693115,0.27182501554489136,1.0864239,0.069027774,270.9533,-46.75441,8.708953999999999,CSO
4649362000000.0,2.8663246631622314,3.126908302307129,7.530949592590332,6.423141956329346,0.2803223133087158,1.1496483999999998,0.14721853,270.91525,-46.68052,8.589893,CSO
4649366600000.0,2.8713114261627197,3.037355422973633,7.543917655944824,6.536865711212158,0.28558334708213806,1.1612548999999999,0.24281894,270.82388,-46.603817,8.422933,CSO
4649372000000.0,2.876354932785034,2.950098752975464,7.555919647216797,6.646454811096191,0.28779685497283936,1.1633928999999998,0.38728857,270.69622999999996,-46.509440000000005,8.277747999999999,CSO
4649376500000.0,2.881343126296997,2.8650929927825928,7.56580924987793,6.752758502960205,0.2856765687465668,1.1701124,0.4279111,270.55383,-46.40761,8.096428999999999,CSO
4649382000000.0,2.8863308429718018,2.779602289199829,7.569892883300781,6.859996318817139,0.2809998095035553,1.1887437,0.49449542,270.37616,-46.292698,7.953035400000001,CSO
4649386500000.0,2.8913164138793945,2.692103385925293,7.568421363830566,6.966064453125,0.27098914980888367,1.2315042999999999,0.5494733,270.17383,-46.145109999999995,7.8004856,CSO
4649392000000.0,2.8963093757629395,2.598928928375244,7.56128454208374,7.066709518432617,0.25661250948905945,1.2577715,0.59315014,269.9619,-45.987716999999996,7.6632643,CSO
4649397000000.0,2.901303768157959,2.499511957168579,7.54815149307251,7.162085056304932,0.23798860609531403,1.278541,0.62980205,269.70212000000004,-45.788920000000005,7.50891,CSO
4649401700000.0,2.9063034057617188,2.3784286975860596,7.518415927886963,7.250580310821533,0.2157832831144333,1.2773192,0.6432411,269.44,-45.570194,7.3619018,CSO
4649407000000.0,2.911295175552368,2.2380785942077637,7.473761558532715,7.332644939422607,0.1908385008573532,1.2684617,0.6545420999999999,269.1447,-45.332522999999995,7.1779665999999995,CSO
4649411700000.0,2.9162867069244385,2.0819153785705566,7.414707660675049,7.40755558013916,0.16373974084854126,1.2794572,0.6585127,268.8476,-45.07763,6.995906,CSO
4649417000000.0,2.921278953552246,1.911761999130249,7.342000961303711,7.4753241539001465,0.13579005002975464,1.2843441999999998,0.6609562,268.55463,-44.81304,6.822769,CSO
4649421600000.0,2.9262704849243164,1.733117699623108,7.260069370269775,7.538167476654053,0.10830439627170563,1.2855659,0.65484756,268.20844,-44.530876,6.566789599999999,CSO
4649427000000.0,2.931262969970703,1.5475494861602783,7.170276165008545,7.596818447113037,0.08195798844099045,1.2538008999999999,0.6560693,267.86975,-44.244403999999996,6.322873,CSO
4649431600000.0,2.9362528324127197,1.353988528251648,7.075641632080078,7.6521711349487305,0.05725980922579765,1.2000448000000001,0.6395759,267.51282000000003,-43.94709,6.0183773,CSO
4649437000000.0,2.9412448406219482,1.1495540142059326,6.980689525604248,7.705595016479492,0.03488706052303314,1.1319333,0.61361414,267.17065,-43.65634,5.726193,CSO
4649441600000.0,2.946237564086914,0.939041018486023,6.88514518737793,7.7557373046875,0.0141461081802845,1.0827586999999999,0.58184916,266.8128,-43.350662,5.383785,CSO
4649447000000.0,2.951230525970459,0.7304239273071289,6.788477420806885,7.8000993728637695,-0.005017459392547607,1.0528263,0.5662721,266.47028,-43.05417,5.0537806,CSO
4649452000000.0,2.9562277793884277,0.5258268713951111,6.691025733947754,7.837704658508301,-0.023517848923802376,0.9859365,0.52778757,266.14398,-42.756126,4.673877200000001,CSO
4649457000000.0,2.961223840713501,0.32879531383514404,6.593522071838379,7.8671064376831055,-0.04067419841885567,0.91751957,0.48930305,265.83035,-42.467564,4.302355,CSO
4649462000000.0,2.966219425201416,0.139516681432724,6.496601104736328,7.890070915222168,-0.05672091245651245,0.84421575,0.45081854,265.53598,-42.1757,3.9162915000000003,CSO
4649466700000.0,2.971216917037964,-0.04072515666484833,6.402044296264648,7.91076135635376,-0.07170084863901138,0.7696901999999999,0.38759398,265.27112,-41.88984,3.5376656000000004,CSO
4649472000000.0,2.976212501525879,-0.21239781379699707,6.309762954711914,7.929312705993652,-0.08505231887102127,0.70738196,0.33536503,265.01578,-41.617374,3.1580392999999995,CSO
4649476700000.0,2.981212854385376,-0.37343043088912964,6.220153331756592,7.946352958679199,-0.09822940081357956,0.6197228,0.27977628,264.79575,-41.341972,2.7918274,CSO
4649482000000.0,2.9862117767333984,-0.5194805264472961,6.134252548217773,7.963018894195557,-0.1109321191906929,0.57604593,0.23396139,264.5901,-41.075264000000004,2.4264429,CSO
4649486600000.0,2.9912047386169434,-0.6521154642105103,6.05335807800293,7.982306003570557,-0.12310437858104706,0.52198434,0.20066923,264.4055,-40.805027,2.0689794999999997,CSO
4649492000000.0,2.996222496032715,-0.7724103927612305,5.979536056518555,8.009099960327148,-0.13453027606010437,0.46792278,0.16249016,264.24124,-40.53739,1.7165537,CSO
4649496600000.0,3.0012192726135254,-0.8811651468276978,5.913357257843018,8.043819427490234,-0.1454123705625534,0.41386122,0.14446963,264.08727999999996,-40.266838,1.3942065000000001,CSO
4649502000000.0,3.0062170028686523,-0.9760665893554688,5.85988187789917,8.094818115234375,-0.15701670944690704,0.36682457,0.12370021,263.95166,-39.992744,1.0795019,CSO
4649506600000.0,3.0112130641937256,-1.0579333305358887,5.8183417320251465,8.16104793548584,-0.1688164919614792,0.3145956,0.10903945,263.82245,-39.713454999999996,0.79057163,CSO
4649512000000.0,3.0162079334259033,-1.1321946382522583,5.7860846519470215,8.229235649108887,-0.18135473132133484,0.25350907,0.09987647,263.70706,-39.427303,0.51636416,CSO
4649516500000.0,3.02120304107666,-1.1996783018112183,5.762468338012695,8.298147201538086,-0.19267134368419647,0.19364429,0.093462385,263.6034,-39.15033,0.25632247,CSO
4649522000000.0,3.02622652053833,-1.2593079805374146,5.743692398071289,8.364141464233398,-0.20250588655471802,0.13622294,0.08857546,263.5028,-38.855442,0.04085819,CSO
4649527000000.0,3.031223773956299,-1.3121963739395142,5.7285895347595215,8.42697525024414,-0.21173492074012756,0.07544186,0.08552113,263.41393999999997,-38.56405,-0.15641837,CSO
4649531700000.0,3.036217212677002,-1.3567146062850952,5.716986656188965,8.487015724182129,-0.22034190595149994,0.018020526000000002,0.07880162,263.3272,-38.29591,-0.33345854,CSO
4649537000000.0,3.0412113666534424,-1.3896851539611816,5.708295822143555,8.544774055480957,-0.22819720208644867,-0.040927973,0.050701816,263.2561,-38.033646000000005,-0.49649093,CSO
4649541700000.0,3.0462090969085693,-1.4120831489562988,5.702633380889893,8.600074768066406,-0.23548737168312073,-0.06658431,0.029932396,263.1828,-37.78812,-0.63740635,CSO
4649547000000.0,3.051203727722168,-1.4285590648651123,5.701786041259766,8.650493621826172,-0.24146121740341187,-0.13041973,0.018325957,263.12967000000003,-37.552690000000005,-0.75626564,CSO
4649551700000.0,3.0561962127685547,-1.4394190311431885,5.705506801605225,8.696287155151367,-0.24666093289852142,-0.18325958,0.0012217305,263.0772,-37.32703,-0.8419431999999999,CSO
4649557000000.0,3.0611915588378906,-1.4463024139404297,5.713623523712158,8.738055229187012,-0.2503952980041504,-0.20830505,-0.0027488936,263.0293,-37.11456,-0.9169904000000001,CSO
4649561600000.0,3.0661866664886475,-1.4499530792236328,5.7258453369140625,8.776164054870605,-0.2545003592967987,-0.22571471,-0.011301007,262.99258,-36.899136,-0.9835988999999999,CSO
4649567000000.0,3.071180582046509,-1.4443978071212769,5.742359161376953,8.804295539855957,-0.25933074951171875,-0.22235495,-0.014049901000000002,262.94934,-36.716,-1.0369492,CSO
4649572000000.0,3.0762181282043457,-1.4240165948867798,5.764090538024902,8.816781044006348,-0.26432690024375916,-0.22540927,-0.05100725,262.91867,-36.535763,-1.0907531000000001,CSO
4649577000000.0,3.08121395111084,-1.3952802419662476,5.787990093231201,8.81952953338623,-0.2680964469909668,-0.24281894,-0.05497787,262.8858,-36.378646999999994,-1.1272876,CSO
4649582000000.0,3.0862200260162354,-1.3635224103927612,5.809787750244141,8.816543579101562,-0.27192553877830505,-0.26450464,-0.050701816,262.85944,-36.21567,-1.1657205,CSO
4649587000000.0,3.091212749481201,-1.3292875289916992,5.829665660858154,8.808599472045898,-0.2752087414264679,-0.30909783,-0.046120327,262.83667,-36.117909999999995,-1.1503698,CSO
4649591500000.0,3.0962071418762207,-1.293687105178833,5.847019672393799,8.797853469848633,-0.27634739875793457,-0.33933565,-0.061391957000000004,262.81818,-36.029270000000004,-1.1363515,CSO
4649597000000.0,3.1012051105499268,-1.2575316429138184,5.861562728881836,8.785794258117676,-0.2755860388278961,-0.3622431,-0.08460484,262.80615,-35.9436,-1.1149672,CSO
4649602000000.0,3.1062560081481934,-1.2206263542175293,5.87354040145874,8.772256851196289,-0.2735956311225891,-0.4071417,-0.10476339,262.80624,-35.878937,-1.0666653999999998,CSO
4649607000000.0,3.11130952835083,-1.1856878995895386,5.887803554534912,8.758766174316406,-0.269562691450119,-0.44990227,-0.13286320000000001,262.81665,-35.82994,-1.0201495,CSO
4649612000000.0,3.1162991523742676,-1.1526113748550415,5.903515815734863,8.745484352111816,-0.26340073347091675,-0.47311515,-0.1572978,262.83272999999997,-35.787907000000004,-0.9574289,CSO
4649616700000.0,3.1212894916534424,-1.117801547050476,5.9150519371032715,8.728591918945312,-0.25593942403793335,-0.5018258,-0.17654006,262.86163,-35.754523999999996,-0.8894236999999999,CSO
4649622000000.0,3.1262898445129395,-1.0784906148910522,5.917661666870117,8.705265998840332,-0.24796421825885773,-0.5519168000000001,-0.19120082,262.90195,-35.730656,-0.81640947,CSO
4649626600000.0,3.1312808990478516,-1.0366795063018799,5.913644313812256,8.680669784545898,-0.2403489202260971,-0.5891795,-0.18539760000000002,262.95905,-35.719143,-0.740256,CSO
4649632000000.0,3.136275053024292,-0.994189441204071,5.904857158660889,8.660914421081543,-0.23463699221611023,-0.58551437,-0.19303341,263.02316,-35.70463,-0.66892964,CSO
4649637000000.0,3.141296625137329,-0.9508565068244934,5.8912529945373535,8.64585018157959,-0.2260390967130661,-0.6178902,-0.2275473,263.09726,-35.709790000000005,-0.5754428,CSO
4649642000000.0,3.146299362182617,-0.908709704875946,5.877437591552734,8.629715919494629,-0.21522992849349976,-0.6603453,-0.25534168,263.17145,-35.70512,-0.48342597,CSO
4649646600000.0,3.151289463043213,-0.8676609992980957,5.863401889801025,8.612528800964355,-0.20239242911338806,-0.6637050999999999,-0.25686884,263.22626,-35.695557,-0.39007172,CSO
4649652000000.0,3.1562838554382324,-0.8274378776550293,5.847228050231934,8.592751502990723,-0.1904669553041458,-0.6612616,-0.26633725,263.29434,-35.685852000000004,-0.29732797,CSO
4649657000000.0,3.1612794399261475,-0.7877913117408752,5.826170444488525,8.568282127380371,-0.18003973364830017,-0.6389651,-0.28038713,263.36017000000004,-35.687236999999996,-0.21252179999999998,CSO
4649662000000.0,3.1662704944610596,-0.7503613829612732,5.8013834953308105,8.543099403381348,-0.17173083126544952,-0.64934975,-0.29229903,263.43924,-35.683167,-0.11389689,CSO
4649666500000.0,3.1712539196014404,-0.7171841859817505,5.774154186248779,8.522018432617188,-0.1647111475467682,-0.6798930000000001,-0.31612277,263.5228,-35.678986,-0.023033107,CSO
4649671700000.0,3.1762399673461914,-0.6887825131416321,5.744906425476074,8.50570011138916,-0.159335196018219,-0.6988298000000001,-0.34391713,263.618,-35.656776,0.071754575,CSO
4649677000000.0,3.1812479496002197,-0.6660907864570618,5.714139938354492,8.49528694152832,-0.15484800934791565,-0.7244862,-0.38270709999999997,263.72552,-35.63492,0.16633755,CSO
4649681700000.0,3.186232089996338,-0.6476609706878662,5.684595108032227,8.487142562866211,-0.14942799508571625,-0.74006325,-0.41630468,263.8362,-35.598007,0.25710458,CSO
4649686400000.0,3.1912171840667725,-0.6329953670501709,5.6586480140686035,8.478421211242676,-0.14371083676815033,-0.7333437,-0.44440445,263.9524,-35.556667,0.34034175,CSO
4649691600000.0,3.1962032318115234,-0.6224647760391235,5.634463787078857,8.468924522399902,-0.13797281682491302,-0.7635816,-0.46150870000000005,264.09332,-35.497765,0.42132232,CSO
4649696400000.0,3.201190233230591,-0.616603434085846,5.609771251678467,8.458394050598145,-0.13278475403785706,-0.79198676,-0.48014009999999996,264.23627,-35.441179999999996,0.49341384,CSO
4649701600000.0,3.2061774730682373,-0.6169861555099487,5.582964897155762,8.445799827575684,-0.12764529883861542,-0.8008443000000001,-0.50488013,264.39493,-35.395509999999994,0.55993766,CSO
4649707000000.0,3.211167573928833,-0.6256648302078247,5.5520429611206055,8.429844856262207,-0.12157520651817322,-0.80878556,-0.5543602,264.56476000000004,-35.356003,0.62372464,CSO
4649711600000.0,3.2161595821380615,-0.6409333348274231,5.515486240386963,8.410926818847656,-0.11441247910261154,-0.8051204000000001,-0.6041456999999999,264.7536,-35.312275,0.6773913,CSO
4649717000000.0,3.221151351928711,-0.660606324672699,5.471187114715576,8.389537811279297,-0.10556425154209137,-0.83077675,-0.64934975,264.95532000000003,-35.28076,0.7308893,CSO
